"trial_type","trial_index","time_elapsed","internal_node_id","task_version","subject_id","interactions","blur_events","focus_events","fullscreenenter_events","fullscreenexit_events","success","view_history","rt","responses","num_errors","age","subject","participantId","rune","rune_set","hex","correct","choice","accuracy","outcome","keys","total_keys","block","practice","value","sub","trial","stimulus","robot","valence","action","sham"
"pavlovia","0","13","0.0-0.0","battery-v0.2","","""event"",""trial"",""time""
""fullscreenenter"",""1"",""5782""
","
","
","""event"",""trial"",""time""
""fullscreenenter"",""1"",""5782""
","
","","","","","","","","","","","","","","","","","","","","","","","","","","",""
"fullscreen","1","6741","0.0-1.0","battery-v0.2","","""event"",""trial"",""time""
""fullscreenenter"",""1"",""5782""
","
","
","""event"",""trial"",""time""
""fullscreenenter"",""1"",""5782""
","
","true","","","","","","","","","","","","","","","","","","","","","","","","","",""
"pit-instructions","2","10840","0.0-2.0-0.0","battery-v0.2","","""event"",""trial"",""time""
""fullscreenenter"",""1"",""5782""
","
","
","""event"",""trial"",""time""
""fullscreenenter"",""1"",""5782""
","
","","[{""page_index"":0,""viewing_time"":4096.799999952316}]","4097","","","","","","","","","","","","","","","","","","","","","","","",""
"pit-comprehension","3","15019","0.0-2.0-1.0-0.0","battery-v0.2","","""event"",""trial"",""time""
""fullscreenenter"",""1"",""5782""
","
","
","""event"",""trial"",""time""
""fullscreenenter"",""1"",""5782""
","
","","","4175.800000011921","[""shark""]","0","14","19946","6905","","","","","","","","","","","","","","","","","","",""
"pit-instructions","4","21464","0.0-2.0-1.0-1.0","battery-v0.2","","""event"",""trial"",""time""
""fullscreenenter"",""1"",""5782""
","
","
","""event"",""trial"",""time""
""fullscreenenter"",""1"",""5782""
","
","","[{""page_index"":0,""viewing_time"":6433.300000011921}]","6433.5","","","","","","","","","","","","","","","","","","","","","","","",""
"pit-comprehension","5","25009","0.0-2.0-2.0-0.0","battery-v0.2","","""event"",""trial"",""time""
""fullscreenenter"",""1"",""5782""
","
","
","""event"",""trial"",""time""
""fullscreenenter"",""1"",""5782""
","
","","","3542.699999988079","[""tiger""]","0","14","19946","6905","","","","","","","","","","","","","","","","","","",""
"pit-instructions","6","26329","0.0-2.0-2.0-1.0","battery-v0.2","","""event"",""trial"",""time""
""fullscreenenter"",""1"",""5782""
","
","
","""event"",""trial"",""time""
""fullscreenenter"",""1"",""5782""
","
","","[{""page_index"":0,""viewing_time"":1318.1000000238419}]","1318.2000000476837","","","","","","","","","","","","","","","","","","","","","","","",""
"pit-instructions","7","118425","0.0-2.0-3.0","battery-v0.2","","""event"",""trial"",""time""
""fullscreenenter"",""1"",""5782""
","
","
","""event"",""trial"",""time""
""fullscreenenter"",""1"",""5782""
","
","","[{""page_index"":0,""viewing_time"":8165.199999988079},{""page_index"":1,""viewing_time"":5936.399999976158},{""page_index"":2,""viewing_time"":8736.200000047684},{""page_index"":3,""viewing_time"":5065.299999952316},{""page_index"":4,""viewing_time"":5631.600000023842},{""page_index"":5,""viewing_time"":5503.199999988079},{""page_index"":6,""viewing_time"":6561.400000035763},{""page_index"":7,""viewing_time"":6470.599999964237},{""page_index"":8,""viewing_time"":7416.100000023842},{""page_index"":9,""viewing_time"":7400.199999988079},{""page_index"":10,""viewing_time"":7255.800000011921},{""page_index"":11,""viewing_time"":6032.199999988079},{""page_index"":12,""viewing_time"":6743.899999976158},{""page_index"":13,""viewing_time"":5176.700000047684}]","92095.39999997616","","","","","","","","","","","","","","","","","","","","","","","",""
"pit-trial","8","121937","0.0-2.0-4.0-0.0","battery-v0.2","","""event"",""trial"",""time""
""fullscreenenter"",""1"",""5782""
","
","
","""event"",""trial"",""time""
""fullscreenenter"",""1"",""5782""
","
","","","648.8000000119209","","","14","19946","6905","&#9784;","elianto","#FFFFF080"," "," ","1","&#10004","[1501.3999999761581]","1","0","0","","","","","","","",""
"pit-trial","9","125094","0.0-2.0-4.1-0.1","battery-v0.2","","""event"",""trial"",""time""
""fullscreenenter"",""1"",""5782""
","
","
","""event"",""trial"",""time""
""fullscreenenter"",""1"",""5782""
","
","","","291","","","14","19946","6905","&#9784;","elianto","#FFFFF080"," "," ","1","&#10004","[1142.300000011921]","1","0","0","","","","","","","",""
"pit-trial","10","128172","0.0-2.0-4.2-0.2","battery-v0.2","","""event"",""trial"",""time""
""fullscreenenter"",""1"",""5782""
","
","
","""event"",""trial"",""time""
""fullscreenenter"",""1"",""5782""
","
","","","205.19999998807907","","","14","19946","6905","&#9784;","elianto","#FFFFF080"," "," ","1","&#10004","[1065.2000000476837]","1","0","0","","","","","","","",""
"pit-trial","11","131292","0.0-2.0-4.3-0.3","battery-v0.2","","""event"",""trial"",""time""
""fullscreenenter"",""1"",""5782""
","
","
","""event"",""trial"",""time""
""fullscreenenter"",""1"",""5782""
","
","","","250.9000000357628","","","14","19946","6905","&#9784;","elianto","#FFFFF080"," "," ","1","&#10004","[1113.699999988079]","1","0","0","","","","","","","",""
"pit-trial","12","134531","0.0-2.0-4.4-0.4","battery-v0.2","","""event"",""trial"",""time""
""fullscreenenter"",""1"",""5782""
","
","
","""event"",""trial"",""time""
""fullscreenenter"",""1"",""5782""
","
","","","365.5999999642372","","","14","19946","6905","&#9784;","elianto","#FFFFF080"," "," ","1","&#10004","[1228]","1","0","0","","","","","","","",""
"pit-instructions","13","157208","0.0-2.0-5.0","battery-v0.2","","""event"",""trial"",""time""
""fullscreenenter"",""1"",""5782""
","
","
","""event"",""trial"",""time""
""fullscreenenter"",""1"",""5782""
","
","","[{""page_index"":0,""viewing_time"":5650.899999976158},{""page_index"":1,""viewing_time"":5696.600000023842},{""page_index"":2,""viewing_time"":5840.5},{""page_index"":3,""viewing_time"":5487.199999988079}]","22675.399999976158","","","","","","","","","","","","","","","","","","","","","","","",""
"pit-trial","14","162075","0.0-2.0-6.0-0.0","battery-v0.2","","""event"",""trial"",""time""
""fullscreenenter"",""1"",""5782""
","
","
","""event"",""trial"",""time""
""fullscreenenter"",""1"",""5782""
","
","","","-1","","","14","19946","6905","&#9854;","elianto","#FFFFF080","-1","-1","1","&#10004","[]","0","0","1","","","","","","","",""
"pit-trial","15","166942","0.0-2.0-6.1-0.1","battery-v0.2","","""event"",""trial"",""time""
""fullscreenenter"",""1"",""5782""
","
","
","""event"",""trial"",""time""
""fullscreenenter"",""1"",""5782""
","
","","","-1","","","14","19946","6905","&#9854;","elianto","#FFFFF080","-1","-1","1","&#10004","[]","0","0","1","","","","","","","",""
"pit-trial","16","171821","0.0-2.0-6.2-0.2","battery-v0.2","","""event"",""trial"",""time""
""fullscreenenter"",""1"",""5782""
","
","
","""event"",""trial"",""time""
""fullscreenenter"",""1"",""5782""
","
","","","-1","","","14","19946","6905","&#9854;","elianto","#FFFFF080","-1","-1","1","&#10004","[]","0","0","1","","","","","","","",""
"pit-trial","17","176690","0.0-2.0-6.3-0.3","battery-v0.2","","""event"",""trial"",""time""
""fullscreenenter"",""1"",""5782""
","
","
","""event"",""trial"",""time""
""fullscreenenter"",""1"",""5782""
","
","","","-1","","","14","19946","6905","&#9854;","elianto","#FFFFF080","-1","-1","1","&#10004","[]","0","0","1","","","","","","","",""
"pit-trial","18","181557","0.0-2.0-6.4-0.4","battery-v0.2","","""event"",""trial"",""time""
""fullscreenenter"",""1"",""5782""
","
","
","""event"",""trial"",""time""
""fullscreenenter"",""1"",""5782""
","
","","","-1","","","14","19946","6905","&#9854;","elianto","#FFFFF080","-1","-1","1","&#10004","[]","0","0","1","","","","","","","",""
"pit-instructions","19","301705","0.0-2.0-7.0","battery-v0.2","","""event"",""trial"",""time""
""fullscreenenter"",""1"",""5782""
","
","
","""event"",""trial"",""time""
""fullscreenenter"",""1"",""5782""
","
","","[{""page_index"":0,""viewing_time"":5929.699999988079},{""page_index"":1,""viewing_time"":8048.699999988079},{""page_index"":2,""viewing_time"":5807.300000011921},{""page_index"":3,""viewing_time"":6095.199999988079},{""page_index"":4,""viewing_time"":5025.300000011921},{""page_index"":5,""viewing_time"":7559.5},{""page_index"":6,""viewing_time"":6641.5},{""page_index"":7,""viewing_time"":7526.699999988079},{""page_index"":8,""viewing_time"":7143.700000047684},{""page_index"":9,""viewing_time"":6577.299999952316},{""page_index"":10,""viewing_time"":8278.900000035763},{""page_index"":11,""viewing_time"":4360},{""page_index"":12,""viewing_time"":6360.599999964237},{""page_index"":13,""viewing_time"":6823.400000035763},{""page_index"":14,""viewing_time"":6911},{""page_index"":15,""viewing_time"":6752.399999976158},{""page_index"":16,""viewing_time"":7426.300000011921},{""page_index"":17,""viewing_time"":6878.300000011921}]","120146","","","","","","","","","","","","","","","","","","","","","","","",""
"pit-trial","20","305209","0.0-2.0-8.0-0.0","battery-v0.2","","""event"",""trial"",""time""
""fullscreenenter"",""1"",""5782""
","
","
","""event"",""trial"",""time""
""fullscreenenter"",""1"",""5782""
","
","","","637.3000000119209","","","14","19946","6905","&#9776;","elianto","#3366ff99"," "," ","1","+10","[1487.8999999761581]","1","0","1","","","","","","","",""
"pit-trial","21","308300","0.0-2.0-8.0-1.0","battery-v0.2","","""event"",""trial"",""time""
""fullscreenenter"",""1"",""5782""
","
","
","""event"",""trial"",""time""
""fullscreenenter"",""1"",""5782""
","
","","","235.0999999642372","","","14","19946","6905","&#9776;","elianto","#3366ff99"," "," ","1","+10","[1086.699999988079]","1","0","1","","","","","","","",""
"pit-trial","22","311505","0.0-2.0-8.0-2.0","battery-v0.2","","""event"",""trial"",""time""
""fullscreenenter"",""1"",""5782""
","
","
","""event"",""trial"",""time""
""fullscreenenter"",""1"",""5782""
","
","","","341.5","","","14","19946","6905","&#9776;","elianto","#3366ff99"," "," ","1","+10","[1195.800000011921]","1","0","1","","","","","","","",""
"pit-trial","23","314731","0.0-2.0-8.0-3.0","battery-v0.2","","""event"",""trial"",""time""
""fullscreenenter"",""1"",""5782""
","
","
","""event"",""trial"",""time""
""fullscreenenter"",""1"",""5782""
","
","","","363.80000001192093","","","14","19946","6905","&#9776;","elianto","#3366ff99"," "," ","1","0","[1214]","1","0","1","","","","","","","",""
"pit-trial","24","317875","0.0-2.0-8.0-4.0","battery-v0.2","","""event"",""trial"",""time""
""fullscreenenter"",""1"",""5782""
","
","
","""event"",""trial"",""time""
""fullscreenenter"",""1"",""5782""
","
","","","285.19999998807907","","","14","19946","6905","&#9776;","elianto","#3366ff99"," "," ","1","+10","[1141.8999999761581]","1","0","1","","","","","","","",""
"pit-trial","25","320859","0.0-2.0-8.1-0.1","battery-v0.2","","""event"",""trial"",""time""
""fullscreenenter"",""1"",""5782""
","
","
","""event"",""trial"",""time""
""fullscreenenter"",""1"",""5782""
","
","","","118.60000002384186","","","14","19946","6905","&#9776;","elianto","#3366ff99"," "," ","1","+10","[972.3000000119209]","1","0","1","","","","","","","",""
"pit-trial","26","324084","0.0-2.0-8.1-1.1","battery-v0.2","","""event"",""trial"",""time""
""fullscreenenter"",""1"",""5782""
","
","
","""event"",""trial"",""time""
""fullscreenenter"",""1"",""5782""
","
","","","370.19999998807907","","","14","19946","6905","&#9776;","elianto","#3366ff99"," "," ","1","+10","[1221.2999999523163]","1","0","1","","","","","","","",""
"pit-trial","27","327388","0.0-2.0-8.1-2.1","battery-v0.2","","""event"",""trial"",""time""
""fullscreenenter"",""1"",""5782""
","
","
","""event"",""trial"",""time""
""fullscreenenter"",""1"",""5782""
","
","","","439.19999998807907","","","14","19946","6905","&#9776;","elianto","#3366ff99"," "," ","1","+10","[1291.5999999642372]","1","0","1","","","","","","","",""
"pit-trial","28","330515","0.0-2.0-8.1-3.1","battery-v0.2","","""event"",""trial"",""time""
""fullscreenenter"",""1"",""5782""
","
","
","""event"",""trial"",""time""
""fullscreenenter"",""1"",""5782""
","
","","","265.19999998807907","","","14","19946","6905","&#9776;","elianto","#3366ff99"," "," ","1","0","[1123.0999999642372]","1","0","1","","","","","","","",""
"pit-trial","29","333658","0.0-2.0-8.1-4.1","battery-v0.2","","""event"",""trial"",""time""
""fullscreenenter"",""1"",""5782""
","
","
","""event"",""trial"",""time""
""fullscreenenter"",""1"",""5782""
","
","","","288.19999998807907","","","14","19946","6905","&#9776;","elianto","#3366ff99"," "," ","1","+10","[1141]","1","0","1","","","","","","","",""
"pit-trial","30","336778","0.0-2.0-8.2-0.2","battery-v0.2","","""event"",""trial"",""time""
""fullscreenenter"",""1"",""5782""
","
","
","""event"",""trial"",""time""
""fullscreenenter"",""1"",""5782""
","
","","","268","","","14","19946","6905","&#9776;","elianto","#3366ff99"," "," ","1","+10","[1118]","1","0","1","","","","","","","",""
"pit-trial","31","339794","0.0-2.0-8.2-1.2","battery-v0.2","","""event"",""trial"",""time""
""fullscreenenter"",""1"",""5782""
","
","
","""event"",""trial"",""time""
""fullscreenenter"",""1"",""5782""
","
","","","163.30000001192093","","","14","19946","6905","&#9776;","elianto","#3366ff99"," "," ","1","+10","[1014.6000000238419]","1","0","1","","","","","","","",""
"pit-trial","32","343091","0.0-2.0-8.2-2.2","battery-v0.2","","""event"",""trial"",""time""
""fullscreenenter"",""1"",""5782""
","
","
","""event"",""trial"",""time""
""fullscreenenter"",""1"",""5782""
","
","","","444.5999999642372","","","14","19946","6905","&#9776;","elianto","#3366ff99"," "," ","1","+10","[1295.0999999642372]","1","0","1","","","","","","","",""
"pit-trial","33","346746","0.0-2.0-8.2-3.2","battery-v0.2","","""event"",""trial"",""time""
""fullscreenenter"",""1"",""5782""
","
","
","""event"",""trial"",""time""
""fullscreenenter"",""1"",""5782""
","
","","","803.0999999642372","","","14","19946","6905","&#9776;","elianto","#3366ff99"," "," ","1","0","[1653.3999999761581]","1","0","1","","","","","","","",""
"pit-trial","34","350277","0.0-2.0-8.2-4.2","battery-v0.2","","""event"",""trial"",""time""
""fullscreenenter"",""1"",""5782""
","
","
","""event"",""trial"",""time""
""fullscreenenter"",""1"",""5782""
","
","","","677.8000000119209","","","14","19946","6905","&#9776;","elianto","#3366ff99"," "," ","1","+10","[1528.800000011921]","1","0","1","","","","","","","",""
"call-function","35","350279","0.0-2.0-9.0","battery-v0.2","","""event"",""trial"",""time""
""fullscreenenter"",""1"",""5782""
","
","
","""event"",""trial"",""time""
""fullscreenenter"",""1"",""5782""
","
","","","","","","","","","","","","","","","","","","","","","","","","","","",""
"pit-instructions","36","404033","0.0-2.0-10.0","battery-v0.2","","""event"",""trial"",""time""
""fullscreenenter"",""1"",""5782""
","
","
","""event"",""trial"",""time""
""fullscreenenter"",""1"",""5782""
","
","","[{""page_index"":0,""viewing_time"":10361},{""page_index"":1,""viewing_time"":13040.099999964237},{""page_index"":2,""viewing_time"":13143.5},{""page_index"":3,""viewing_time"":9784.600000023842},{""page_index"":4,""viewing_time"":7423.899999976158}]","53753.39999997616","","","","","","","","","","","","","","","","","","","","","","","",""
"pit-trial","37","408894","0.0-2.0-11.0-0.0","battery-v0.2","","""event"",""trial"",""time""
""fullscreenenter"",""1"",""5782""
","
","
","""event"",""trial"",""time""
""fullscreenenter"",""1"",""5782""
","
","","","-1","","","14","19946","6905","&#9761;","elianto","#3366ff99","-1","-1","1","+10","[]","0","0","2","","","","","","","",""
"pit-trial","38","412258","0.0-2.0-11.0-1.0","battery-v0.2","","""event"",""trial"",""time""
""fullscreenenter"",""1"",""5782""
","
","
","""event"",""trial"",""time""
""fullscreenenter"",""1"",""5782""
","
","","","511.60000002384186","","","14","19946","6905","&#9761;","elianto","#3366ff99","-1"," ","0","0","[1362.5]","1","0","2","","","","","","","",""
"pit-trial","39","415658","0.0-2.0-11.0-2.0","battery-v0.2","","""event"",""trial"",""time""
""fullscreenenter"",""1"",""5782""
","
","
","""event"",""trial"",""time""
""fullscreenenter"",""1"",""5782""
","
","","","537.1000000238419","","","14","19946","6905","&#9761;","elianto","#3366ff99","-1"," ","0","0","[1390.3999999761581]","1","0","2","","","","","","","",""
"pit-trial","40","418772","0.0-2.0-11.0-3.0","battery-v0.2","","""event"",""trial"",""time""
""fullscreenenter"",""1"",""5782""
","
","
","""event"",""trial"",""time""
""fullscreenenter"",""1"",""5782""
","
","","","249.10000002384186","","","14","19946","6905","&#9761;","elianto","#3366ff99","-1"," ","0","+10","[1101.6000000238419]","1","0","2","","","","","","","",""
"pit-trial","41","422455","0.0-2.0-11.0-4.0","battery-v0.2","","""event"",""trial"",""time""
""fullscreenenter"",""1"",""5782""
","
","
","""event"",""trial"",""time""
""fullscreenenter"",""1"",""5782""
","
","","","822.3999999761581","","","14","19946","6905","&#9761;","elianto","#3366ff99","-1"," ","0","0","[189.69999998807907,1677.5]","2","0","2","","","","","","","",""
"pit-trial","42","427158","0.0-2.0-11.1-0.1","battery-v0.2","","""event"",""trial"",""time""
""fullscreenenter"",""1"",""5782""
","
","
","""event"",""trial"",""time""
""fullscreenenter"",""1"",""5782""
","
","","","1844.8999999761581","","","14","19946","6905","&#9761;","elianto","#3366ff99","-1"," ","0","0","[200.69999998807907,2696.5]","2","0","2","","","","","","","",""
"pit-trial","43","431093","0.0-2.0-11.1-1.1","battery-v0.2","","""event"",""trial"",""time""
""fullscreenenter"",""1"",""5782""
","
","
","""event"",""trial"",""time""
""fullscreenenter"",""1"",""5782""
","
","","","1079.0999999642372","","","14","19946","6905","&#9761;","elianto","#3366ff99","-1"," ","0","0","[1930.800000011921]","1","0","2","","","","","","","",""
"pit-trial","44","434707","0.0-2.0-11.1-2.1","battery-v0.2","","""event"",""trial"",""time""
""fullscreenenter"",""1"",""5782""
","
","
","""event"",""trial"",""time""
""fullscreenenter"",""1"",""5782""
","
","","","761.1000000238419","","","14","19946","6905","&#9761;","elianto","#3366ff99","-1"," ","0","0","[1611.699999988079]","1","0","2","","","","","","","",""
"pit-trial","45","439559","0.0-2.0-11.1-3.1","battery-v0.2","","""event"",""trial"",""time""
""fullscreenenter"",""1"",""5782""
","
","
","""event"",""trial"",""time""
""fullscreenenter"",""1"",""5782""
","
","","","-1","","","14","19946","6905","&#9761;","elianto","#3366ff99","-1","-1","1","0","[]","0","0","2","","","","","","","",""
"pit-trial","46","444412","0.0-2.0-11.1-4.1","battery-v0.2","","""event"",""trial"",""time""
""fullscreenenter"",""1"",""5782""
","
","
","""event"",""trial"",""time""
""fullscreenenter"",""1"",""5782""
","
","","","-1","","","14","19946","6905","&#9761;","elianto","#3366ff99","-1","-1","1","+10","[]","0","0","2","","","","","","","",""
"pit-trial","47","449279","0.0-2.0-11.2-0.2","battery-v0.2","","""event"",""trial"",""time""
""fullscreenenter"",""1"",""5782""
","
","
","""event"",""trial"",""time""
""fullscreenenter"",""1"",""5782""
","
","","","-1","","","14","19946","6905","&#9761;","elianto","#3366ff99","-1","-1","1","+10","[]","0","0","2","","","","","","","",""
"pit-trial","48","454131","0.0-2.0-11.2-1.2","battery-v0.2","","""event"",""trial"",""time""
""fullscreenenter"",""1"",""5782""
","
","
","""event"",""trial"",""time""
""fullscreenenter"",""1"",""5782""
","
","","","-1","","","14","19946","6905","&#9761;","elianto","#3366ff99","-1","-1","1","+10","[]","0","0","2","","","","","","","",""
"pit-trial","49","458983","0.0-2.0-11.2-2.2","battery-v0.2","","""event"",""trial"",""time""
""fullscreenenter"",""1"",""5782""
","
","
","""event"",""trial"",""time""
""fullscreenenter"",""1"",""5782""
","
","","","-1","","","14","19946","6905","&#9761;","elianto","#3366ff99","-1","-1","1","+10","[]","0","0","2","","","","","","","",""
"pit-trial","50","462481","0.0-2.0-11.2-3.2","battery-v0.2","","""event"",""trial"",""time""
""fullscreenenter"",""1"",""5782""
","
","
","""event"",""trial"",""time""
""fullscreenenter"",""1"",""5782""
","
","","","645.1999999880791","","","14","19946","6905","&#9761;","elianto","#3366ff99","-1"," ","0","+10","[1495.699999988079]","1","0","2","","","","","","","",""
"pit-trial","51","466914","0.0-2.0-11.2-4.2","battery-v0.2","","""event"",""trial"",""time""
""fullscreenenter"",""1"",""5782""
","
","
","""event"",""trial"",""time""
""fullscreenenter"",""1"",""5782""
","
","","","1581.0999999642372","","","14","19946","6905","&#9761;","elianto","#3366ff99","-1"," ","0","0","[2431.5]","1","0","2","","","","","","","",""
"pit-trial","52","471768","0.0-2.0-11.3-0.3","battery-v0.2","","""event"",""trial"",""time""
""fullscreenenter"",""1"",""5782""
","
","
","""event"",""trial"",""time""
""fullscreenenter"",""1"",""5782""
","
","","","-1","","","14","19946","6905","&#9761;","elianto","#3366ff99","-1","-1","1","+10","[]","0","0","2","","","","","","","",""
"pit-trial","53","476621","0.0-2.0-11.3-1.3","battery-v0.2","","""event"",""trial"",""time""
""fullscreenenter"",""1"",""5782""
","
","
","""event"",""trial"",""time""
""fullscreenenter"",""1"",""5782""
","
","","","-1","","","14","19946","6905","&#9761;","elianto","#3366ff99","-1","-1","1","+10","[]","0","0","2","","","","","","","",""
"pit-trial","54","481474","0.0-2.0-11.3-2.3","battery-v0.2","","""event"",""trial"",""time""
""fullscreenenter"",""1"",""5782""
","
","
","""event"",""trial"",""time""
""fullscreenenter"",""1"",""5782""
","
","","","-1","","","14","19946","6905","&#9761;","elianto","#3366ff99","-1","-1","1","+10","[3467.599999964237]","1","0","2","","","","","","","",""
"pit-trial","55","485553","0.0-2.0-11.3-3.3","battery-v0.2","","""event"",""trial"",""time""
""fullscreenenter"",""1"",""5782""
","
","
","""event"",""trial"",""time""
""fullscreenenter"",""1"",""5782""
","
","","","1227.7000000476837","","","14","19946","6905","&#9761;","elianto","#3366ff99","-1"," ","0","+10","[2078]","1","0","2","","","","","","","",""
"pit-trial","56","489329","0.0-2.0-11.3-4.3","battery-v0.2","","""event"",""trial"",""time""
""fullscreenenter"",""1"",""5782""
","
","
","""event"",""trial"",""time""
""fullscreenenter"",""1"",""5782""
","
","","","922.1999999880791","","","14","19946","6905","&#9761;","elianto","#3366ff99","-1"," ","0","0","[1773.800000011921]","1","0","2","","","","","","","",""
"call-function","57","489329","0.0-2.0-12.0","battery-v0.2","","""event"",""trial"",""time""
""fullscreenenter"",""1"",""5782""
","
","
","""event"",""trial"",""time""
""fullscreenenter"",""1"",""5782""
","
","","","","","","","","","","","","","","","","","","","","","","","","","","",""
"pit-instructions","58","546944","0.0-2.0-13.0","battery-v0.2","","""event"",""trial"",""time""
""fullscreenenter"",""1"",""5782""
","
","
","""event"",""trial"",""time""
""fullscreenenter"",""1"",""5782""
","
","","[{""page_index"":0,""viewing_time"":16054.099999964237},{""page_index"":1,""viewing_time"":13311.5},{""page_index"":2,""viewing_time"":3480},{""page_index"":3,""viewing_time"":18160},{""page_index"":4,""viewing_time"":6608.300000011921}]","57614.09999996424","","","","","","","","","","","","","","","","","","","","","","","",""
"pit-trial","59","551817","0.0-2.0-14.0-0.0","battery-v0.2","","""event"",""trial"",""time""
""fullscreenenter"",""1"",""5782""
","
","
","""event"",""trial"",""time""
""fullscreenenter"",""1"",""5782""
","
","","","-1","","","14","19946","6905","&#9826;","elianto","#f73b6a7A","-1","-1","1","0","[]","0","0","3","","","","","","","",""
"pit-trial","60","555354","0.0-2.0-14.0-1.0","battery-v0.2","","""event"",""trial"",""time""
""fullscreenenter"",""1"",""5782""
","
","
","""event"",""trial"",""time""
""fullscreenenter"",""1"",""5782""
","
","","","662.5","","","14","19946","6905","&#9826;","elianto","#f73b6a7A","-1"," ","0","-10","[1525.9000000357628]","1","0","3","","","","","","","",""
"pit-trial","61","558694","0.0-2.0-14.0-2.0","battery-v0.2","","""event"",""trial"",""time""
""fullscreenenter"",""1"",""5782""
","
","
","""event"",""trial"",""time""
""fullscreenenter"",""1"",""5782""
","
","","","479.4000000357628","","","14","19946","6905","&#9826;","elianto","#f73b6a7A","-1"," ","0","-10","[1332.9000000357628]","1","0","3","","","","","","","",""
"pit-trial","62","561834","0.0-2.0-14.0-3.0","battery-v0.2","","""event"",""trial"",""time""
""fullscreenenter"",""1"",""5782""
","
","
","""event"",""trial"",""time""
""fullscreenenter"",""1"",""5782""
","
","","","275.5999999642372","","","14","19946","6905","&#9826;","elianto","#f73b6a7A","-1"," ","0","0","[1127.5999999642372]","1","0","3","","","","","","","",""
"pit-trial","63","565106","0.0-2.0-14.0-4.0","battery-v0.2","","""event"",""trial"",""time""
""fullscreenenter"",""1"",""5782""
","
","
","""event"",""trial"",""time""
""fullscreenenter"",""1"",""5782""
","
","","","408","","","14","19946","6905","&#9826;","elianto","#f73b6a7A","-1"," ","0","-10","[1261.3999999761581]","1","0","3","","","","","","","",""
"pit-trial","64","568322","0.0-2.0-14.1-0.1","battery-v0.2","","""event"",""trial"",""time""
""fullscreenenter"",""1"",""5782""
","
","
","""event"",""trial"",""time""
""fullscreenenter"",""1"",""5782""
","
","","","359.2000000476837","","","14","19946","6905","&#9826;","elianto","#f73b6a7A","-1"," ","0","-10","[1213.4000000357628]","1","0","3","","","","","","","",""
"pit-trial","65","571476","0.0-2.0-14.1-1.1","battery-v0.2","","""event"",""trial"",""time""
""fullscreenenter"",""1"",""5782""
","
","
","""event"",""trial"",""time""
""fullscreenenter"",""1"",""5782""
","
","","","298","","","14","19946","6905","&#9826;","elianto","#f73b6a7A","-1"," ","0","-10","[1149.6000000238419]","1","0","3","","","","","","","",""
"pit-trial","66","574647","0.0-2.0-14.1-2.1","battery-v0.2","","""event"",""trial"",""time""
""fullscreenenter"",""1"",""5782""
","
","
","""event"",""trial"",""time""
""fullscreenenter"",""1"",""5782""
","
","","","302.5999999642372","","","14","19946","6905","&#9826;","elianto","#f73b6a7A","-1"," ","0","-10","[1155]","1","0","3","","","","","","","",""
"pit-trial","67","579500","0.0-2.0-14.1-3.1","battery-v0.2","","""event"",""trial"",""time""
""fullscreenenter"",""1"",""5782""
","
","
","""event"",""trial"",""time""
""fullscreenenter"",""1"",""5782""
","
","","","-1","","","14","19946","6905","&#9826;","elianto","#f73b6a7A","-1","-1","1","-10","[]","0","0","3","","","","","","","",""
"pit-trial","68","584352","0.0-2.0-14.1-4.1","battery-v0.2","","""event"",""trial"",""time""
""fullscreenenter"",""1"",""5782""
","
","
","""event"",""trial"",""time""
""fullscreenenter"",""1"",""5782""
","
","","","-1","","","14","19946","6905","&#9826;","elianto","#f73b6a7A","-1","-1","1","0","[]","0","0","3","","","","","","","",""
"pit-trial","69","589205","0.0-2.0-14.2-0.2","battery-v0.2","","""event"",""trial"",""time""
""fullscreenenter"",""1"",""5782""
","
","
","""event"",""trial"",""time""
""fullscreenenter"",""1"",""5782""
","
","","","-1","","","14","19946","6905","&#9826;","elianto","#f73b6a7A","-1","-1","1","0","[]","0","0","3","","","","","","","",""
"pit-trial","70","594058","0.0-2.0-14.2-1.2","battery-v0.2","","""event"",""trial"",""time""
""fullscreenenter"",""1"",""5782""
","
","
","""event"",""trial"",""time""
""fullscreenenter"",""1"",""5782""
","
","","","-1","","","14","19946","6905","&#9826;","elianto","#f73b6a7A","-1","-1","1","0","[]","0","0","3","","","","","","","",""
"pit-trial","71","598910","0.0-2.0-14.2-2.2","battery-v0.2","","""event"",""trial"",""time""
""fullscreenenter"",""1"",""5782""
","
","
","""event"",""trial"",""time""
""fullscreenenter"",""1"",""5782""
","
","","","-1","","","14","19946","6905","&#9826;","elianto","#f73b6a7A","-1","-1","1","0","[]","0","0","3","","","","","","","",""
"pit-trial","72","603763","0.0-2.0-14.2-3.2","battery-v0.2","","""event"",""trial"",""time""
""fullscreenenter"",""1"",""5782""
","
","
","""event"",""trial"",""time""
""fullscreenenter"",""1"",""5782""
","
","","","-1","","","14","19946","6905","&#9826;","elianto","#f73b6a7A","-1","-1","1","-10","[]","0","0","3","","","","","","","",""
"pit-trial","73","608616","0.0-2.0-14.2-4.2","battery-v0.2","","""event"",""trial"",""time""
""fullscreenenter"",""1"",""5782""
","
","
","""event"",""trial"",""time""
""fullscreenenter"",""1"",""5782""
","
","","","-1","","","14","19946","6905","&#9826;","elianto","#f73b6a7A","-1","-1","1","0","[]","0","0","3","","","","","","","",""
"pit-trial","74","613468","0.0-2.0-14.3-0.3","battery-v0.2","","""event"",""trial"",""time""
""fullscreenenter"",""1"",""5782""
","
","
","""event"",""trial"",""time""
""fullscreenenter"",""1"",""5782""
","
","","","-1","","","14","19946","6905","&#9826;","elianto","#f73b6a7A","-1","-1","1","0","[]","0","0","3","","","","","","","",""
"pit-trial","75","618320","0.0-2.0-14.3-1.3","battery-v0.2","","""event"",""trial"",""time""
""fullscreenenter"",""1"",""5782""
","
","
","""event"",""trial"",""time""
""fullscreenenter"",""1"",""5782""
","
","","","-1","","","14","19946","6905","&#9826;","elianto","#f73b6a7A","-1","-1","1","0","[]","0","0","3","","","","","","","",""
"pit-trial","76","623173","0.0-2.0-14.3-2.3","battery-v0.2","","""event"",""trial"",""time""
""fullscreenenter"",""1"",""5782""
","
","
","""event"",""trial"",""time""
""fullscreenenter"",""1"",""5782""
","
","","","-1","","","14","19946","6905","&#9826;","elianto","#f73b6a7A","-1","-1","1","0","[]","0","0","3","","","","","","","",""
"pit-trial","77","628026","0.0-2.0-14.3-3.3","battery-v0.2","","""event"",""trial"",""time""
""fullscreenenter"",""1"",""5782""
","
","
","""event"",""trial"",""time""
""fullscreenenter"",""1"",""5782""
","
","","","-1","","","14","19946","6905","&#9826;","elianto","#f73b6a7A","-1","-1","1","-10","[]","0","0","3","","","","","","","",""
"pit-trial","78","632879","0.0-2.0-14.3-4.3","battery-v0.2","","""event"",""trial"",""time""
""fullscreenenter"",""1"",""5782""
","
","
","""event"",""trial"",""time""
""fullscreenenter"",""1"",""5782""
","
","","","-1","","","14","19946","6905","&#9826;","elianto","#f73b6a7A","-1","-1","1","0","[]","0","0","3","","","","","","","",""
"call-function","79","632880","0.0-2.0-15.0","battery-v0.2","","""event"",""trial"",""time""
""fullscreenenter"",""1"",""5782""
","
","
","""event"",""trial"",""time""
""fullscreenenter"",""1"",""5782""
","
","","","","","","","","","","","","","","","","","","","","","","","","","","",""
"pit-instructions","80","662875","0.0-2.0-16.0","battery-v0.2","","""event"",""trial"",""time""
""fullscreenenter"",""1"",""5782""
","
","
","""event"",""trial"",""time""
""fullscreenenter"",""1"",""5782""
","
","","[{""page_index"":0,""viewing_time"":8903.899999976158},{""page_index"":1,""viewing_time"":8847.400000035763},{""page_index"":2,""viewing_time"":6825.899999976158},{""page_index"":3,""viewing_time"":5415.899999976158}]","29994.099999964237","","","","","","","","","","","","","","","","","","","","","","","",""
"pit-trial","81","666912","0.0-2.0-17.0-0.0","battery-v0.2","","""event"",""trial"",""time""
""fullscreenenter"",""1"",""5782""
","
","
","""event"",""trial"",""time""
""fullscreenenter"",""1"",""5782""
","
","","","1159.1000000238419","","","14","19946","6905","&#9789;","elianto","#f73b6a7A"," "," ","1","0","[2020.199999988079]","1","0","4","","","","","","","",""
"pit-trial","82","671336","0.0-2.0-17.0-1.0","battery-v0.2","","""event"",""trial"",""time""
""fullscreenenter"",""1"",""5782""
","
","
","""event"",""trial"",""time""
""fullscreenenter"",""1"",""5782""
","
","","","1559.1000000238419","","","14","19946","6905","&#9789;","elianto","#f73b6a7A"," "," ","1","0","[2414.900000035763]","1","0","4","","","","","","","",""
"pit-trial","83","676006","0.0-2.0-17.0-2.0","battery-v0.2","","""event"",""trial"",""time""
""fullscreenenter"",""1"",""5782""
","
","
","""event"",""trial"",""time""
""fullscreenenter"",""1"",""5782""
","
","","","1813","","","14","19946","6905","&#9789;","elianto","#f73b6a7A"," "," ","1","0","[2663.100000023842]","1","0","4","","","","","","","",""
"pit-trial","84","679590","0.0-2.0-17.0-3.0","battery-v0.2","","""event"",""trial"",""time""
""fullscreenenter"",""1"",""5782""
","
","
","""event"",""trial"",""time""
""fullscreenenter"",""1"",""5782""
","
","","","724.5","","","14","19946","6905","&#9789;","elianto","#f73b6a7A"," "," ","1","-10","[1578.199999988079]","1","0","4","","","","","","","",""
"pit-trial","85","683696","0.0-2.0-17.0-4.0","battery-v0.2","","""event"",""trial"",""time""
""fullscreenenter"",""1"",""5782""
","
","
","""event"",""trial"",""time""
""fullscreenenter"",""1"",""5782""
","
","","","1240.8999999761581","","","14","19946","6905","&#9789;","elianto","#f73b6a7A"," "," ","1","0","[2099.199999988079]","1","0","4","","","","","","","",""
"pit-trial","86","687046","0.0-2.0-17.1-0.1","battery-v0.2","","""event"",""trial"",""time""
""fullscreenenter"",""1"",""5782""
","
","
","""event"",""trial"",""time""
""fullscreenenter"",""1"",""5782""
","
","","","480.19999998807907","","","14","19946","6905","&#9789;","elianto","#f73b6a7A"," "," ","1","0","[1335.699999988079]","1","0","4","","","","","","","",""
"pit-trial","87","690516","0.0-2.0-17.1-1.1","battery-v0.2","","""event"",""trial"",""time""
""fullscreenenter"",""1"",""5782""
","
","
","""event"",""trial"",""time""
""fullscreenenter"",""1"",""5782""
","
","","","613.7999999523163","","","14","19946","6905","&#9789;","elianto","#f73b6a7A"," "," ","1","0","[1465.8999999761581]","1","0","4","","","","","","","",""
"pit-trial","88","693898","0.0-2.0-17.1-2.1","battery-v0.2","","""event"",""trial"",""time""
""fullscreenenter"",""1"",""5782""
","
","
","""event"",""trial"",""time""
""fullscreenenter"",""1"",""5782""
","
","","","528.6000000238419","","","14","19946","6905","&#9789;","elianto","#f73b6a7A"," "," ","1","0","[1380.5]","1","0","4","","","","","","","",""
"pit-trial","89","697258","0.0-2.0-17.1-3.1","battery-v0.2","","""event"",""trial"",""time""
""fullscreenenter"",""1"",""5782""
","
","
","""event"",""trial"",""time""
""fullscreenenter"",""1"",""5782""
","
","","","508","","","14","19946","6905","&#9789;","elianto","#f73b6a7A"," "," ","1","-10","[1358.1000000238419]","1","0","4","","","","","","","",""
"pit-trial","90","700433","0.0-2.0-17.1-4.1","battery-v0.2","","""event"",""trial"",""time""
""fullscreenenter"",""1"",""5782""
","
","
","""event"",""trial"",""time""
""fullscreenenter"",""1"",""5782""
","
","","","323.69999998807907","","","14","19946","6905","&#9789;","elianto","#f73b6a7A"," "," ","1","0","[1174.5]","1","0","4","","","","","","","",""
"pit-trial","91","703929","0.0-2.0-17.2-0.2","battery-v0.2","","""event"",""trial"",""time""
""fullscreenenter"",""1"",""5782""
","
","
","""event"",""trial"",""time""
""fullscreenenter"",""1"",""5782""
","
","","","642.4000000357628","","","14","19946","6905","&#9789;","elianto","#f73b6a7A"," "," ","1","0","[711.3999999761581,1493.800000011921]","2","0","4","","","","","","","",""
"pit-trial","92","707587","0.0-2.0-17.2-1.2","battery-v0.2","","""event"",""trial"",""time""
""fullscreenenter"",""1"",""5782""
","
","
","""event"",""trial"",""time""
""fullscreenenter"",""1"",""5782""
","
","","","806.5999999642372","","","14","19946","6905","&#9789;","elianto","#f73b6a7A"," "," ","1","0","[1657.300000011921]","1","0","4","","","","","","","",""
"pit-trial","93","710881","0.0-2.0-17.2-2.2","battery-v0.2","","""event"",""trial"",""time""
""fullscreenenter"",""1"",""5782""
","
","
","""event"",""trial"",""time""
""fullscreenenter"",""1"",""5782""
","
","","","441.4000000357628","","","14","19946","6905","&#9789;","elianto","#f73b6a7A"," "," ","1","0","[1292.4000000357628]","1","0","4","","","","","","","",""
"pit-trial","94","714003","0.0-2.0-17.2-3.2","battery-v0.2","","""event"",""trial"",""time""
""fullscreenenter"",""1"",""5782""
","
","
","""event"",""trial"",""time""
""fullscreenenter"",""1"",""5782""
","
","","","268.9000000357628","","","14","19946","6905","&#9789;","elianto","#f73b6a7A"," "," ","1","-10","[1120.199999988079]","1","0","4","","","","","","","",""
"pit-trial","95","717066","0.0-2.0-17.2-4.2","battery-v0.2","","""event"",""trial"",""time""
""fullscreenenter"",""1"",""5782""
","
","
","""event"",""trial"",""time""
""fullscreenenter"",""1"",""5782""
","
","","","210.80000001192093","","","14","19946","6905","&#9789;","elianto","#f73b6a7A"," "," ","1","0","[1061.300000011921]","1","0","4","","","","","","","",""
"pit-trial","96","721920","0.0-2.0-17.3-0.3","battery-v0.2","","""event"",""trial"",""time""
""fullscreenenter"",""1"",""5782""
","
","
","""event"",""trial"",""time""
""fullscreenenter"",""1"",""5782""
","
","","","-1","","","14","19946","6905","&#9789;","elianto","#f73b6a7A"," ","-1","0","-10","[389.19999998807907,3100.900000035763]","2","0","4","","","","","","","",""
"pit-trial","97","725137","0.0-2.0-17.3-1.3","battery-v0.2","","""event"",""trial"",""time""
""fullscreenenter"",""1"",""5782""
","
","
","""event"",""trial"",""time""
""fullscreenenter"",""1"",""5782""
","
","","","364.9000000357628","","","14","19946","6905","&#9789;","elianto","#f73b6a7A"," "," ","1","0","[1216]","1","0","4","","","","","","","",""
"pit-trial","98","729226","0.0-2.0-17.3-2.3","battery-v0.2","","""event"",""trial"",""time""
""fullscreenenter"",""1"",""5782""
","
","
","""event"",""trial"",""time""
""fullscreenenter"",""1"",""5782""
","
","","","1237.3999999761581","","","14","19946","6905","&#9789;","elianto","#f73b6a7A"," "," ","1","0","[2087.600000023842]","1","0","4","","","","","","","",""
"pit-trial","99","733587","0.0-2.0-17.3-3.3","battery-v0.2","","""event"",""trial"",""time""
""fullscreenenter"",""1"",""5782""
","
","
","""event"",""trial"",""time""
""fullscreenenter"",""1"",""5782""
","
","","","1508.6000000238419","","","14","19946","6905","&#9789;","elianto","#f73b6a7A"," "," ","1","-10","[2359.600000023842]","1","0","4","","","","","","","",""
"pit-trial","100","737978","0.0-2.0-17.3-4.3","battery-v0.2","","""event"",""trial"",""time""
""fullscreenenter"",""1"",""5782""
","
","
","""event"",""trial"",""time""
""fullscreenenter"",""1"",""5782""
","
","","","1539.300000011921","","","14","19946","6905","&#9789;","elianto","#f73b6a7A"," "," ","1","0","[2389.5]","1","0","4","","","","","","","",""
"call-function","101","737978","0.0-2.0-18.0","battery-v0.2","","""event"",""trial"",""time""
""fullscreenenter"",""1"",""5782""
","
","
","""event"",""trial"",""time""
""fullscreenenter"",""1"",""5782""
","
","","","","","","","","","","","","","","","","","","","","","","","","","","",""
"pit-instructions","102","863040","0.0-2.0-19.0","battery-v0.2","","""event"",""trial"",""time""
""fullscreenenter"",""1"",""5782""
","
","
","""event"",""trial"",""time""
""fullscreenenter"",""1"",""5782""
","
","","[{""page_index"":0,""viewing_time"":38870.69999998808},{""page_index"":1,""viewing_time"":14030.300000011921},{""page_index"":2,""viewing_time"":28097.30000001192},{""page_index"":3,""viewing_time"":8295.300000011921},{""page_index"":4,""viewing_time"":8601.399999976158},{""page_index"":5,""viewing_time"":8784},{""page_index"":6,""viewing_time"":8432.300000011921},{""page_index"":7,""viewing_time"":6006.5},{""page_index"":8,""viewing_time"":3943.399999976158}]","125061.40000003576","","","","","","","","","","","","","","","","","","","","","","","",""
"pit-comprehension","103","870392","0.0-2.0-20.0-0.0","battery-v0.2","","""event"",""trial"",""time""
""fullscreenenter"",""1"",""5782""
","
","
","""event"",""trial"",""time""
""fullscreenenter"",""1"",""5782""
","
","","","7350.599999964237","[""ENTER""]","1","14","19946","6905","","","","","","","","","","","","","","","","","","",""
"pit-instructions","104","873192","0.0-2.0-20.0-1.0","battery-v0.2","","""event"",""trial"",""time""
""fullscreenenter"",""1"",""5782""
","
","
","""event"",""trial"",""time""
""fullscreenenter"",""1"",""5782""
","
","","[{""page_index"":0,""viewing_time"":2764.300000011921}]","2764.5","","","","","","","","","","","","","","","","","","","","","","","",""
"pit-instructions","105","876511","0.0-2.0-20.0-2.0-0.0","battery-v0.2","","""event"",""trial"",""time""
""fullscreenenter"",""1"",""5782""
","
","
","""event"",""trial"",""time""
""fullscreenenter"",""1"",""5782""
","
","","[{""page_index"":0,""viewing_time"":3318.5}]","3318.800000011921","","","","","","","","","","","","","","","","","","","","","","","",""
"pit-comprehension","106","882040","0.0-2.0-20.1-0.1","battery-v0.2","","""event"",""trial"",""time""
""fullscreenenter"",""1"",""5782""
","
","
","""event"",""trial"",""time""
""fullscreenenter"",""1"",""5782""
","
","","","5526.899999976158","[""SPACE""]","0","14","19946","6905","","","","","","","","","","","","","","","","","","",""
"pit-instructions","107","887960","0.0-2.0-20.1-1.1","battery-v0.2","","""event"",""trial"",""time""
""fullscreenenter"",""1"",""5782""
","
","
","""event"",""trial"",""time""
""fullscreenenter"",""1"",""5782""
","
","","[{""page_index"":0,""viewing_time"":5892.5}]","5892.599999964237","","","","","","","","","","","","","","","","","","","","","","","",""
"pit-comprehension","108","894576","0.0-2.0-21.0-0.0","battery-v0.2","","""event"",""trial"",""time""
""fullscreenenter"",""1"",""5782""
","
","
","""event"",""trial"",""time""
""fullscreenenter"",""1"",""5782""
","
","","","6615","[""10""]","0","14","19946","6905","","","","","","","","","","","","","","","","","","",""
"pit-instructions","109","898185","0.0-2.0-21.0-1.0","battery-v0.2","","""event"",""trial"",""time""
""fullscreenenter"",""1"",""5782""
","
","
","""event"",""trial"",""time""
""fullscreenenter"",""1"",""5782""
","
","","[{""page_index"":0,""viewing_time"":3581.199999988079}]","3581.399999976158","","","","","","","","","","","","","","","","","","","","","","","",""
"pit-comprehension","110","904871","0.0-2.0-22.0-0.0","battery-v0.2","","""event"",""trial"",""time""
""fullscreenenter"",""1"",""5782""
","
","
","""event"",""trial"",""time""
""fullscreenenter"",""1"",""5782""
","
","","","6684.200000047684","[""0""]","0","14","19946","6905","","","","","","","","","","","","","","","","","","",""
"pit-instructions","111","912489","0.0-2.0-22.0-1.0","battery-v0.2","","""event"",""trial"",""time""
""fullscreenenter"",""1"",""5782""
","
","
","""event"",""trial"",""time""
""fullscreenenter"",""1"",""5782""
","
","","[{""page_index"":0,""viewing_time"":7587.099999964237}]","7587.199999988079","","","","","","","","","","","","","","","","","","","","","","","",""
"pit-comprehension","112","927104","0.0-2.0-23.0-0.0","battery-v0.2","","""event"",""trial"",""time""
""fullscreenenter"",""1"",""5782""
","
","
","""event"",""trial"",""time""
""fullscreenenter"",""1"",""5782""
","
","","","14613.700000047684","[""True""]","0","14","19946","6905","","","","","","","","","","","","","","","","","","",""
"pit-instructions","113","931113","0.0-2.0-23.0-1.0","battery-v0.2","","""event"",""trial"",""time""
""fullscreenenter"",""1"",""5782""
","
","
","""event"",""trial"",""time""
""fullscreenenter"",""1"",""5782""
","
","","[{""page_index"":0,""viewing_time"":3978.2000000476837}]","3978.7000000476837","","","","","","","","","","","","","","","","","","","","","","","",""
"pit-comprehension","114","938640","0.0-2.0-24.0-0.0","battery-v0.2","","""event"",""trial"",""time""
""fullscreenenter"",""1"",""5782""
","
","
","""event"",""trial"",""time""
""fullscreenenter"",""1"",""5782""
","
","","","7525.099999964237","[""True""]","0","14","19946","6905","","","","","","","","","","","","","","","","","","",""
"pit-instructions","115","941666","0.0-2.0-24.0-1.0","battery-v0.2","","""event"",""trial"",""time""
""fullscreenenter"",""1"",""5782""
","
","
","""event"",""trial"",""time""
""fullscreenenter"",""1"",""5782""
","
","","[{""page_index"":0,""viewing_time"":2996.699999988079}]","2996.899999976158","","","","","","","","","","","","","","","","","","","","","","","",""
"pit-comprehension","116","948529","0.0-2.0-25.0-0.0","battery-v0.2","","""event"",""trial"",""time""
""fullscreenenter"",""1"",""5782""
","
","
","""event"",""trial"",""time""
""fullscreenenter"",""1"",""5782""
","
","","","6861.099999964237","[""True""]","0","14","19946","6905","","","","","","","","","","","","","","","","","","",""
"pit-instructions","117","955183","0.0-2.0-25.0-1.0","battery-v0.2","","""event"",""trial"",""time""
""fullscreenenter"",""1"",""5782""
","
","
","""event"",""trial"",""time""
""fullscreenenter"",""1"",""5782""
","
","","[{""page_index"":0,""viewing_time"":6618.899999976158}]","6619","","","","","","","","","","","","","","","","","","","","","","","",""
"pit-comprehension","118","960487","0.0-2.0-26.0-0.0","battery-v0.2","","""event"",""trial"",""time""
""fullscreenenter"",""1"",""5782""
","
","
","""event"",""trial"",""time""
""fullscreenenter"",""1"",""5782""
","
","","","5302.300000011921","[""False""]","0","14","19946","6905","","","","","","","","","","","","","","","","","","",""
"pit-instructions","119","968888","0.0-2.0-26.0-1.0","battery-v0.2","","""event"",""trial"",""time""
""fullscreenenter"",""1"",""5782""
","
","
","""event"",""trial"",""time""
""fullscreenenter"",""1"",""5782""
","
","","[{""page_index"":0,""viewing_time"":8369.400000035763}]","8369.900000035763","","","","","","","","","","","","","","","","","","","","","","","",""
"pit-instructions","120","996600","0.0-3.0","battery-v0.2","","""event"",""trial"",""time""
""fullscreenenter"",""1"",""5782""
","
","
","""event"",""trial"",""time""
""fullscreenenter"",""1"",""5782""
","
","","[{""page_index"":0,""viewing_time"":4117.600000023842},{""page_index"":1,""viewing_time"":5574.799999952316},{""page_index"":2,""viewing_time"":18016}]","27708.69999998808","","","","","","","","","","","","","","","","","","","","","","","",""
"pit-trial","121","1001473","0.0-4.0","battery-v0.2","","""event"",""trial"",""time""
""fullscreenenter"",""1"",""5782""
","
","
","""event"",""trial"",""time""
""fullscreenenter"",""1"",""5782""
","
","","","-1","","","14","19946","6905","&#9733;","elianto","#3366ff99","-1","-1","1","+10","[2910.300000011921]","1","1","","","19946","1","2","2","win","no-go","0"
"pit-trial","122","1006353","0.0-5.0","battery-v0.2","","""event"",""trial"",""time""
""fullscreenenter"",""1"",""5782""
","
","
","""event"",""trial"",""time""
""fullscreenenter"",""1"",""5782""
","
","","","-1","","","14","19946","6905","&#9752;","elianto","#f73b6a7A"," ","-1","0","-10","[]","0","1","","","19946","2","3","3","lose","go","0"
"pit-trial","123","1011214","0.0-6.0","battery-v0.2","","""event"",""trial"",""time""
""fullscreenenter"",""1"",""5782""
","
","
","""event"",""trial"",""time""
""fullscreenenter"",""1"",""5782""
","
","","","-1","","","14","19946","6905","&#9728;","elianto","#f73b6a7A","-1","-1","1","0","[2871.100000023842]","1","1","","","19946","3","0","4","lose","no-go","0"
"pit-trial","124","1016079","0.0-7.0","battery-v0.2","","""event"",""trial"",""time""
""fullscreenenter"",""1"",""5782""
","
","
","""event"",""trial"",""time""
""fullscreenenter"",""1"",""5782""
","
","","","-1","","","14","19946","6905","&#9730;","elianto","#3366ff99"," ","-1","0","0","[3761.199999988079]","1","1","","","19946","4","1","1","win","go","0"
"pit-trial","125","1020932","0.0-8.0","battery-v0.2","","""event"",""trial"",""time""
""fullscreenenter"",""1"",""5782""
","
","
","""event"",""trial"",""time""
""fullscreenenter"",""1"",""5782""
","
","","","-1","","","14","19946","6905","&#9752;","elianto","#f73b6a7A"," ","-1","0","0","[]","0","1","","","19946","5","3","3","lose","go","1"
"pit-trial","126","1025799","0.0-9.0","battery-v0.2","","""event"",""trial"",""time""
""fullscreenenter"",""1"",""5782""
","
","
","""event"",""trial"",""time""
""fullscreenenter"",""1"",""5782""
","
","","","-1","","","14","19946","6905","&#9728;","elianto","#f73b6a7A","-1","-1","1","0","[3075.300000011921,3299.199999988079]","2","1","","","19946","6","0","4","lose","no-go","0"
"pit-trial","127","1030652","0.0-10.0","battery-v0.2","","""event"",""trial"",""time""
""fullscreenenter"",""1"",""5782""
","
","
","""event"",""trial"",""time""
""fullscreenenter"",""1"",""5782""
","
","","","-1","","","14","19946","6905","&#9733;","elianto","#3366ff99","-1","-1","1","+10","[]","0","1","","","19946","7","2","2","win","no-go","0"
"pit-trial","128","1035481","0.0-11.0","battery-v0.2","","""event"",""trial"",""time""
""fullscreenenter"",""1"",""5782""
","
","
","""event"",""trial"",""time""
""fullscreenenter"",""1"",""5782""
","
","","","1976","","","14","19946","6905","&#9730;","elianto","#3366ff99"," "," ","1","+10","[2826.800000011921]","1","1","","","19946","8","1","1","win","go","0"
"pit-trial","129","1039714","0.0-12.0","battery-v0.2","","""event"",""trial"",""time""
""fullscreenenter"",""1"",""5782""
","
","
","""event"",""trial"",""time""
""fullscreenenter"",""1"",""5782""
","
","","","1372","","","14","19946","6905","&#9728;","elianto","#f73b6a7A","-1"," ","0","-10","[2223]","1","1","","","19946","9","0","4","lose","no-go","0"
"pit-trial","130","1044567","0.0-13.0","battery-v0.2","","""event"",""trial"",""time""
""fullscreenenter"",""1"",""5782""
","
","
","""event"",""trial"",""time""
""fullscreenenter"",""1"",""5782""
","
","","","-1","","","14","19946","6905","&#9730;","elianto","#3366ff99"," ","-1","0","0","[3556.600000023842]","1","1","","","19946","10","1","1","win","go","0"
"pit-trial","131","1049420","0.0-14.0","battery-v0.2","","""event"",""trial"",""time""
""fullscreenenter"",""1"",""5782""
","
","
","""event"",""trial"",""time""
""fullscreenenter"",""1"",""5782""
","
","","","-1","","","14","19946","6905","&#9733;","elianto","#3366ff99","-1","-1","1","+10","[]","0","1","","","19946","11","2","2","win","no-go","0"
"pit-trial","132","1054273","0.0-15.0","battery-v0.2","","""event"",""trial"",""time""
""fullscreenenter"",""1"",""5782""
","
","
","""event"",""trial"",""time""
""fullscreenenter"",""1"",""5782""
","
","","","-1","","","14","19946","6905","&#9752;","elianto","#f73b6a7A"," ","-1","0","-10","[]","0","1","","","19946","12","3","3","lose","go","0"
"pit-trial","133","1058129","0.0-16.0","battery-v0.2","","""event"",""trial"",""time""
""fullscreenenter"",""1"",""5782""
","
","
","""event"",""trial"",""time""
""fullscreenenter"",""1"",""5782""
","
","","","1003.3000000119209","","","14","19946","6905","&#9728;","elianto","#f73b6a7A","-1"," ","0","-10","[1854.6000000238419]","1","1","","","19946","13","0","4","lose","no-go","0"
"pit-trial","134","1062993","0.0-17.0","battery-v0.2","","""event"",""trial"",""time""
""fullscreenenter"",""1"",""5782""
","
","
","""event"",""trial"",""time""
""fullscreenenter"",""1"",""5782""
","
","","","-1","","","14","19946","6905","&#9733;","elianto","#3366ff99","-1","-1","1","0","[3085.399999976158]","1","1","","","19946","14","2","2","win","no-go","1"
"pit-trial","135","1067847","0.0-18.0","battery-v0.2","","""event"",""trial"",""time""
""fullscreenenter"",""1"",""5782""
","
","
","""event"",""trial"",""time""
""fullscreenenter"",""1"",""5782""
","
","","","-1","","","14","19946","6905","&#9752;","elianto","#f73b6a7A"," ","-1","0","-10","[]","0","1","","","19946","15","3","3","lose","go","0"
"pit-trial","136","1072701","0.0-19.0","battery-v0.2","","""event"",""trial"",""time""
""fullscreenenter"",""1"",""5782""
","
","
","""event"",""trial"",""time""
""fullscreenenter"",""1"",""5782""
","
","","","-1","","","14","19946","6905","&#9730;","elianto","#3366ff99"," ","-1","0","0","[]","0","1","","","19946","16","1","1","win","go","0"
"pit-trial","137","1077568","0.0-20.0","battery-v0.2","","""event"",""trial"",""time""
""fullscreenenter"",""1"",""5782""
","
","
","""event"",""trial"",""time""
""fullscreenenter"",""1"",""5782""
","
","","","-1","","","14","19946","6905","&#9730;","elianto","#3366ff99"," ","-1","0","0","[]","0","1","","","19946","17","1","1","win","go","0"
"pit-trial","138","1082020","0.0-21.0","battery-v0.2","","""event"",""trial"",""time""
""fullscreenenter"",""1"",""5782""
","
","
","""event"",""trial"",""time""
""fullscreenenter"",""1"",""5782""
","
","","","1598.699999988079","","","14","19946","6905","&#9728;","elianto","#f73b6a7A","-1"," ","0","0","[2450.099999964237]","1","1","","","19946","18","0","4","lose","no-go","1"
"pit-trial","139","1086873","0.0-22.0","battery-v0.2","","""event"",""trial"",""time""
""fullscreenenter"",""1"",""5782""
","
","
","""event"",""trial"",""time""
""fullscreenenter"",""1"",""5782""
","
","","","-1","","","14","19946","6905","&#9733;","elianto","#3366ff99","-1","-1","1","+10","[3419]","1","1","","","19946","19","2","2","win","no-go","0"
"pit-trial","140","1091725","0.0-23.0","battery-v0.2","","""event"",""trial"",""time""
""fullscreenenter"",""1"",""5782""
","
","
","""event"",""trial"",""time""
""fullscreenenter"",""1"",""5782""
","
","","","-1","","","14","19946","6905","&#9752;","elianto","#f73b6a7A"," ","-1","0","-10","[]","0","1","","","19946","20","3","3","lose","go","0"
"pit-instructions","141","1144496","0.0-24.0","battery-v0.2","","""event"",""trial"",""time""
""fullscreenenter"",""1"",""5782""
","
","
","""event"",""trial"",""time""
""fullscreenenter"",""1"",""5782""
","
","","[{""page_index"":0,""viewing_time"":45337.60000002384},{""page_index"":1,""viewing_time"":7431.899999976158}]","52769.60000002384","","","","","","","","","","","","","","","","","","","","","","","",""
"pit-trial","142","1149369","0.0-25.0","battery-v0.2","","""event"",""trial"",""time""
""fullscreenenter"",""1"",""5782""
","
","
","""event"",""trial"",""time""
""fullscreenenter"",""1"",""5782""
","
","","","-1","","","14","19946","6905","h","elianto","#f73b6a7A","-1","-1","1","0","[]","0","2","","","19946","21","3","4","lose","no-go","0"
"pit-trial","143","1153713","0.0-26.0","battery-v0.2","","""event"",""trial"",""time""
""fullscreenenter"",""1"",""5782""
","
","
","""event"",""trial"",""time""
""fullscreenenter"",""1"",""5782""
","
","","","1489.7999999523163","","","14","19946","6905","y","elianto","#f73b6a7A"," "," ","1","-10","[2342.599999964237]","1","2","","","19946","22","2","3","lose","go","1"
"pit-trial","144","1158574","0.0-27.0","battery-v0.2","","""event"",""trial"",""time""
""fullscreenenter"",""1"",""5782""
","
","
","""event"",""trial"",""time""
""fullscreenenter"",""1"",""5782""
","
","","","-1","","","14","19946","6905","m","elianto","#f73b6a7A"," ","-1","0","-10","[]","0","2","","","19946","23","0","3","lose","go","0"
"pit-trial","145","1163438","0.0-28.0","battery-v0.2","","""event"",""trial"",""time""
""fullscreenenter"",""1"",""5782""
","
","
","""event"",""trial"",""time""
""fullscreenenter"",""1"",""5782""
","
","","","-1","","","14","19946","6905","r","elianto","#3366ff99","-1","-1","1","+10","[]","0","2","","","19946","24","1","2","win","no-go","0"
"pit-trial","146","1167601","0.0-29.0","battery-v0.2","","""event"",""trial"",""time""
""fullscreenenter"",""1"",""5782""
","
","
","""event"",""trial"",""time""
""fullscreenenter"",""1"",""5782""
","
","","","1303.699999988079","","","14","19946","6905","h","elianto","#f73b6a7A","-1"," ","0","0","[2154.300000011921]","1","2","","","19946","25","3","4","lose","no-go","1"
"pit-trial","147","1171911","0.0-30.0","battery-v0.2","","""event"",""trial"",""time""
""fullscreenenter"",""1"",""5782""
","
","
","""event"",""trial"",""time""
""fullscreenenter"",""1"",""5782""
","
","","","1440.300000011921","","","14","19946","6905","r","elianto","#3366ff99","-1"," ","0","0","[2293.300000011921]","1","2","","","19946","26","1","2","win","no-go","0"
"pit-trial","148","1176764","0.0-31.0","battery-v0.2","","""event"",""trial"",""time""
""fullscreenenter"",""1"",""5782""
","
","
","""event"",""trial"",""time""
""fullscreenenter"",""1"",""5782""
","
","","","-1","","","14","19946","6905","y","elianto","#f73b6a7A"," ","-1","0","-10","[]","0","2","","","19946","27","2","3","lose","go","0"
"pit-trial","149","1181615","0.0-32.0","battery-v0.2","","""event"",""trial"",""time""
""fullscreenenter"",""1"",""5782""
","
","
","""event"",""trial"",""time""
""fullscreenenter"",""1"",""5782""
","
","","","-1","","","14","19946","6905","m","elianto","#f73b6a7A"," ","-1","0","-10","[]","0","2","","","19946","28","0","3","lose","go","0"
"pit-trial","150","1185809","0.0-33.0","battery-v0.2","","""event"",""trial"",""time""
""fullscreenenter"",""1"",""5782""
","
","
","""event"",""trial"",""time""
""fullscreenenter"",""1"",""5782""
","
","","","1342.199999988079","","","14","19946","6905","r","elianto","#3366ff99","-1"," ","0","+10","[2192.400000035763]","1","2","","","19946","29","1","2","win","no-go","1"
"pit-trial","151","1190661","0.0-34.0","battery-v0.2","","""event"",""trial"",""time""
""fullscreenenter"",""1"",""5782""
","
","
","""event"",""trial"",""time""
""fullscreenenter"",""1"",""5782""
","
","","","-1","","","14","19946","6905","m","elianto","#f73b6a7A"," ","-1","0","0","[]","0","2","","","19946","30","0","3","lose","go","1"
"pit-trial","152","1195513","0.0-35.0","battery-v0.2","","""event"",""trial"",""time""
""fullscreenenter"",""1"",""5782""
","
","
","""event"",""trial"",""time""
""fullscreenenter"",""1"",""5782""
","
","","","-1","","","14","19946","6905","y","elianto","#f73b6a7A"," ","-1","0","-10","[]","0","2","","","19946","31","2","3","lose","go","0"
"pit-trial","153","1199010","0.0-36.0","battery-v0.2","","""event"",""trial"",""time""
""fullscreenenter"",""1"",""5782""
","
","
","""event"",""trial"",""time""
""fullscreenenter"",""1"",""5782""
","
","","","643.0999999642372","","","14","19946","6905","h","elianto","#f73b6a7A","-1"," ","0","-10","[1494]","1","2","","","19946","32","3","4","lose","no-go","0"
"pit-trial","154","1203862","0.0-37.0","battery-v0.2","","""event"",""trial"",""time""
""fullscreenenter"",""1"",""5782""
","
","
","""event"",""trial"",""time""
""fullscreenenter"",""1"",""5782""
","
","","","-1","","","14","19946","6905","y","elianto","#f73b6a7A"," ","-1","0","-10","[]","0","2","","","19946","33","2","3","lose","go","0"
"pit-trial","155","1207994","0.0-38.0","battery-v0.2","","""event"",""trial"",""time""
""fullscreenenter"",""1"",""5782""
","
","
","""event"",""trial"",""time""
""fullscreenenter"",""1"",""5782""
","
","","","1278.699999988079","","","14","19946","6905","r","elianto","#3366ff99","-1"," ","0","0","[2128.899999976158]","1","2","","","19946","34","1","2","win","no-go","0"
"pit-trial","156","1212296","0.0-39.0","battery-v0.2","","""event"",""trial"",""time""
""fullscreenenter"",""1"",""5782""
","
","
","""event"",""trial"",""time""
""fullscreenenter"",""1"",""5782""
","
","","","1444.800000011921","","","14","19946","6905","h","elianto","#f73b6a7A","-1"," ","0","-10","[2301.5]","1","2","","","19946","35","3","4","lose","no-go","0"
"pit-trial","157","1217148","0.0-40.0","battery-v0.2","","""event"",""trial"",""time""
""fullscreenenter"",""1"",""5782""
","
","
","""event"",""trial"",""time""
""fullscreenenter"",""1"",""5782""
","
","","","-1","","","14","19946","6905","m","elianto","#f73b6a7A"," ","-1","0","-10","[]","0","2","","","19946","36","0","3","lose","go","0"
"pit-trial","158","1220856","0.0-41.0","battery-v0.2","","""event"",""trial"",""time""
""fullscreenenter"",""1"",""5782""
","
","
","""event"",""trial"",""time""
""fullscreenenter"",""1"",""5782""
","
","","","855.5","","","14","19946","6905","h","elianto","#f73b6a7A","-1"," ","0","0","[1705.699999988079]","1","2","","","19946","37","3","4","lose","no-go","1"
"pit-trial","159","1225709","0.0-42.0","battery-v0.2","","""event"",""trial"",""time""
""fullscreenenter"",""1"",""5782""
","
","
","""event"",""trial"",""time""
""fullscreenenter"",""1"",""5782""
","
","","","-1","","","14","19946","6905","m","elianto","#f73b6a7A"," ","-1","0","-10","[]","0","2","","","19946","38","0","3","lose","go","0"
"pit-trial","160","1230561","0.0-43.0","battery-v0.2","","""event"",""trial"",""time""
""fullscreenenter"",""1"",""5782""
","
","
","""event"",""trial"",""time""
""fullscreenenter"",""1"",""5782""
","
","","","-1","","","14","19946","6905","y","elianto","#f73b6a7A"," ","-1","0","-10","[]","0","2","","","19946","39","2","3","lose","go","0"
"pit-trial","161","1234336","0.0-44.0","battery-v0.2","","""event"",""trial"",""time""
""fullscreenenter"",""1"",""5782""
","
","
","""event"",""trial"",""time""
""fullscreenenter"",""1"",""5782""
","
","","","915.1000000238419","","","14","19946","6905","r","elianto","#3366ff99","-1"," ","0","0","[1765.300000011921]","1","2","","","19946","40","1","2","win","no-go","0"
"pit-trial","162","1238146","0.0-45.0","battery-v0.2","","""event"",""trial"",""time""
""fullscreenenter"",""1"",""5782""
","
","
","""event"",""trial"",""time""
""fullscreenenter"",""1"",""5782""
","
","","","956.6999999880791","","","14","19946","6905","h","elianto","#f73b6a7A","-1"," ","0","0","[1807.699999988079]","1","2","","","19946","41","3","4","lose","no-go","1"
"pit-trial","163","1242998","0.0-46.0","battery-v0.2","","""event"",""trial"",""time""
""fullscreenenter"",""1"",""5782""
","
","
","""event"",""trial"",""time""
""fullscreenenter"",""1"",""5782""
","
","","","-1","","","14","19946","6905","m","elianto","#f73b6a7A"," ","-1","0","-10","[]","0","2","","","19946","42","0","3","lose","go","0"
"pit-trial","164","1246697","0.0-47.0","battery-v0.2","","""event"",""trial"",""time""
""fullscreenenter"",""1"",""5782""
","
","
","""event"",""trial"",""time""
""fullscreenenter"",""1"",""5782""
","
","","","847.1999999880791","","","14","19946","6905","y","elianto","#f73b6a7A"," "," ","1","0","[1697.5]","1","2","","","19946","43","2","3","lose","go","0"
"pit-trial","165","1250497","0.0-48.0","battery-v0.2","","""event"",""trial"",""time""
""fullscreenenter"",""1"",""5782""
","
","
","""event"",""trial"",""time""
""fullscreenenter"",""1"",""5782""
","
","","","946.7999999523163","","","14","19946","6905","r","elianto","#3366ff99","-1"," ","0","+10","[1797.800000011921]","1","2","","","19946","44","1","2","win","no-go","1"
"pit-trial","166","1254952","0.0-49.0","battery-v0.2","","""event"",""trial"",""time""
""fullscreenenter"",""1"",""5782""
","
","
","""event"",""trial"",""time""
""fullscreenenter"",""1"",""5782""
","
","","","1603","","","14","19946","6905","y","elianto","#f73b6a7A"," "," ","1","0","[2453.2000000476837]","1","2","","","19946","45","2","3","lose","go","0"
"pit-trial","167","1258528","0.0-50.0","battery-v0.2","","""event"",""trial"",""time""
""fullscreenenter"",""1"",""5782""
","
","
","""event"",""trial"",""time""
""fullscreenenter"",""1"",""5782""
","
","","","723.3999999761581","","","14","19946","6905","h","elianto","#f73b6a7A","-1"," ","0","-10","[1574.699999988079]","1","2","","","19946","46","3","4","lose","no-go","0"
"pit-trial","168","1263381","0.0-51.0","battery-v0.2","","""event"",""trial"",""time""
""fullscreenenter"",""1"",""5782""
","
","
","""event"",""trial"",""time""
""fullscreenenter"",""1"",""5782""
","
","","","-1","","","14","19946","6905","m","elianto","#f73b6a7A"," ","-1","0","-10","[]","0","2","","","19946","47","0","3","lose","go","0"
"pit-trial","169","1267057","0.0-52.0","battery-v0.2","","""event"",""trial"",""time""
""fullscreenenter"",""1"",""5782""
","
","
","""event"",""trial"",""time""
""fullscreenenter"",""1"",""5782""
","
","","","822.8999999761581","","","14","19946","6905","r","elianto","#3366ff99","-1"," ","0","0","[1673.7999999523163]","1","2","","","19946","48","1","2","win","no-go","0"
"pit-trial","170","1270858","0.0-53.0","battery-v0.2","","""event"",""trial"",""time""
""fullscreenenter"",""1"",""5782""
","
","
","""event"",""trial"",""time""
""fullscreenenter"",""1"",""5782""
","
","","","948.3000000119209","","","14","19946","6905","y","elianto","#f73b6a7A"," "," ","1","0","[1799.5]","1","2","","","19946","49","2","3","lose","go","0"
"pit-trial","171","1274465","0.0-54.0","battery-v0.2","","""event"",""trial"",""time""
""fullscreenenter"",""1"",""5782""
","
","
","""event"",""trial"",""time""
""fullscreenenter"",""1"",""5782""
","
","","","754","","","14","19946","6905","r","elianto","#3366ff99","-1"," ","0","0","[1605.1000000238419]","1","2","","","19946","50","1","2","win","no-go","0"
"pit-trial","172","1279319","0.0-55.0","battery-v0.2","","""event"",""trial"",""time""
""fullscreenenter"",""1"",""5782""
","
","
","""event"",""trial"",""time""
""fullscreenenter"",""1"",""5782""
","
","","","-1","","","14","19946","6905","m","elianto","#f73b6a7A"," ","-1","0","0","[]","0","2","","","19946","51","0","3","lose","go","1"
"pit-trial","173","1284171","0.0-56.0","battery-v0.2","","""event"",""trial"",""time""
""fullscreenenter"",""1"",""5782""
","
","
","""event"",""trial"",""time""
""fullscreenenter"",""1"",""5782""
","
","","","-1","","","14","19946","6905","h","elianto","#f73b6a7A","-1","-1","1","0","[]","0","2","","","19946","52","3","4","lose","no-go","0"
"pit-trial","174","1287706","0.0-57.0","battery-v0.2","","""event"",""trial"",""time""
""fullscreenenter"",""1"",""5782""
","
","
","""event"",""trial"",""time""
""fullscreenenter"",""1"",""5782""
","
","","","682","","","14","19946","6905","y","elianto","#f73b6a7A"," "," ","1","0","[1532]","1","2","","","19946","53","2","3","lose","go","0"
"pit-trial","175","1291482","0.0-58.0","battery-v0.2","","""event"",""trial"",""time""
""fullscreenenter"",""1"",""5782""
","
","
","""event"",""trial"",""time""
""fullscreenenter"",""1"",""5782""
","
","","","923.5","","","14","19946","6905","r","elianto","#3366ff99","-1"," ","0","0","[1774.199999988079]","1","2","","","19946","54","1","2","win","no-go","0"
"pit-trial","176","1296337","0.0-59.0","battery-v0.2","","""event"",""trial"",""time""
""fullscreenenter"",""1"",""5782""
","
","
","""event"",""trial"",""time""
""fullscreenenter"",""1"",""5782""
","
","","","-1","","","14","19946","6905","m","elianto","#f73b6a7A"," ","-1","0","-10","[]","0","2","","","19946","55","0","3","lose","go","0"
"pit-trial","177","1301189","0.0-60.0","battery-v0.2","","""event"",""trial"",""time""
""fullscreenenter"",""1"",""5782""
","
","
","""event"",""trial"",""time""
""fullscreenenter"",""1"",""5782""
","
","","","-1","","","14","19946","6905","h","elianto","#f73b6a7A","-1","-1","1","0","[]","0","2","","","19946","56","3","4","lose","no-go","0"
"pit-trial","178","1306041","0.0-61.0","battery-v0.2","","""event"",""trial"",""time""
""fullscreenenter"",""1"",""5782""
","
","
","""event"",""trial"",""time""
""fullscreenenter"",""1"",""5782""
","
","","","-1","","","14","19946","6905","m","elianto","#f73b6a7A"," ","-1","0","-10","[]","0","2","","","19946","57","0","3","lose","go","0"
"pit-trial","179","1310896","0.0-62.0","battery-v0.2","","""event"",""trial"",""time""
""fullscreenenter"",""1"",""5782""
","
","
","""event"",""trial"",""time""
""fullscreenenter"",""1"",""5782""
","
","","","-1","","","14","19946","6905","h","elianto","#f73b6a7A","-1","-1","1","-10","[]","0","2","","","19946","58","3","4","lose","no-go","1"
"pit-trial","180","1315657","0.0-63.0","battery-v0.2","","""event"",""trial"",""time""
""fullscreenenter"",""1"",""5782""
","
","
","""event"",""trial"",""time""
""fullscreenenter"",""1"",""5782""
","
","","","1908.6000000238419","","","14","19946","6905","z","elianto","#3366ff99"," "," ","1","+10","[2759.600000023842]","1","2","","","19946","59","4","1","win","go","0"
"pit-trial","181","1319785","0.0-64.0","battery-v0.2","","""event"",""trial"",""time""
""fullscreenenter"",""1"",""5782""
","
","
","""event"",""trial"",""time""
""fullscreenenter"",""1"",""5782""
","
","","","1275.5","","","14","19946","6905","y","elianto","#f73b6a7A"," "," ","1","0","[2126.899999976158]","1","2","","","19946","60","2","3","lose","go","0"
"pit-trial","182","1324638","0.0-65.0","battery-v0.2","","""event"",""trial"",""time""
""fullscreenenter"",""1"",""5782""
","
","
","""event"",""trial"",""time""
""fullscreenenter"",""1"",""5782""
","
","","","-1","","","14","19946","6905","y","elianto","#f73b6a7A"," ","-1","0","0","[3455.699999988079]","1","2","","","19946","61","2","3","lose","go","1"
"pit-trial","183","1329492","0.0-66.0","battery-v0.2","","""event"",""trial"",""time""
""fullscreenenter"",""1"",""5782""
","
","
","""event"",""trial"",""time""
""fullscreenenter"",""1"",""5782""
","
","","","-1","","","14","19946","6905","h","elianto","#f73b6a7A","-1","-1","1","0","[]","0","2","","","19946","62","3","4","lose","no-go","0"
"pit-trial","184","1334346","0.0-67.0","battery-v0.2","","""event"",""trial"",""time""
""fullscreenenter"",""1"",""5782""
","
","
","""event"",""trial"",""time""
""fullscreenenter"",""1"",""5782""
","
","","","-1","","","14","19946","6905","r","elianto","#3366ff99","-1","-1","1","0","[]","0","2","","","19946","63","1","2","win","no-go","1"
"pit-trial","185","1337834","0.0-68.0","battery-v0.2","","""event"",""trial"",""time""
""fullscreenenter"",""1"",""5782""
","
","
","""event"",""trial"",""time""
""fullscreenenter"",""1"",""5782""
","
","","","635.3000000119209","","","14","19946","6905","z","elianto","#3366ff99"," "," ","1","+10","[1486.300000011921]","1","2","","","19946","64","4","1","win","go","0"
"pit-trial","186","1342688","0.0-69.0","battery-v0.2","","""event"",""trial"",""time""
""fullscreenenter"",""1"",""5782""
","
","
","""event"",""trial"",""time""
""fullscreenenter"",""1"",""5782""
","
","","","-1","","","14","19946","6905","c","elianto","#3366ff99","-1","-1","1","+10","[]","0","2","","","19946","65","5","2","win","no-go","0"
"pit-trial","187","1346197","0.0-70.0","battery-v0.2","","""event"",""trial"",""time""
""fullscreenenter"",""1"",""5782""
","
","
","""event"",""trial"",""time""
""fullscreenenter"",""1"",""5782""
","
","","","645.0999999642372","","","14","19946","6905","z","elianto","#3366ff99"," "," ","1","+10","[1495.3999999761581]","1","2","","","19946","66","4","1","win","go","0"
"pit-trial","188","1351050","0.0-71.0","battery-v0.2","","""event"",""trial"",""time""
""fullscreenenter"",""1"",""5782""
","
","
","""event"",""trial"",""time""
""fullscreenenter"",""1"",""5782""
","
","","","-1","","","14","19946","6905","r","elianto","#3366ff99","-1","-1","1","+10","[]","0","2","","","19946","67","1","2","win","no-go","0"
"pit-trial","189","1355902","0.0-72.0","battery-v0.2","","""event"",""trial"",""time""
""fullscreenenter"",""1"",""5782""
","
","
","""event"",""trial"",""time""
""fullscreenenter"",""1"",""5782""
","
","","","-1","","","14","19946","6905","h","elianto","#f73b6a7A","-1","-1","1","0","[]","0","2","","","19946","68","3","4","lose","no-go","0"
"pit-trial","190","1359266","0.0-73.0","battery-v0.2","","""event"",""trial"",""time""
""fullscreenenter"",""1"",""5782""
","
","
","""event"",""trial"",""time""
""fullscreenenter"",""1"",""5782""
","
","","","510.89999997615814","","","14","19946","6905","y","elianto","#f73b6a7A"," "," ","1","0","[1361.5]","1","2","","","19946","69","2","3","lose","go","0"
"pit-trial","191","1364119","0.0-74.0","battery-v0.2","","""event"",""trial"",""time""
""fullscreenenter"",""1"",""5782""
","
","
","""event"",""trial"",""time""
""fullscreenenter"",""1"",""5782""
","
","","","-1","","","14","19946","6905","r","elianto","#3366ff99","-1","-1","1","+10","[]","0","2","","","19946","70","1","2","win","no-go","0"
"pit-trial","192","1368314","0.0-75.0","battery-v0.2","","""event"",""trial"",""time""
""fullscreenenter"",""1"",""5782""
","
","
","""event"",""trial"",""time""
""fullscreenenter"",""1"",""5782""
","
","","","1342.4000000357628","","","14","19946","6905","z","elianto","#3366ff99"," "," ","1","+10","[2192.800000011921]","1","2","","","19946","71","4","1","win","go","0"
"pit-trial","193","1373166","0.0-76.0","battery-v0.2","","""event"",""trial"",""time""
""fullscreenenter"",""1"",""5782""
","
","
","""event"",""trial"",""time""
""fullscreenenter"",""1"",""5782""
","
","","","-1","","","14","19946","6905","c","elianto","#3366ff99","-1","-1","1","0","[]","0","2","","","19946","72","5","2","win","no-go","1"
"pit-trial","194","1378018","0.0-77.0","battery-v0.2","","""event"",""trial"",""time""
""fullscreenenter"",""1"",""5782""
","
","
","""event"",""trial"",""time""
""fullscreenenter"",""1"",""5782""
","
","","","-1","","","14","19946","6905","r","elianto","#3366ff99","-1","-1","1","+10","[]","0","2","","","19946","73","1","2","win","no-go","0"
"pit-trial","195","1382871","0.0-78.0","battery-v0.2","","""event"",""trial"",""time""
""fullscreenenter"",""1"",""5782""
","
","
","""event"",""trial"",""time""
""fullscreenenter"",""1"",""5782""
","
","","","-1","","","14","19946","6905","h","elianto","#f73b6a7A","-1","-1","1","0","[]","0","2","","","19946","74","3","4","lose","no-go","0"
"pit-trial","196","1386658","0.0-79.0","battery-v0.2","","""event"",""trial"",""time""
""fullscreenenter"",""1"",""5782""
","
","
","""event"",""trial"",""time""
""fullscreenenter"",""1"",""5782""
","
","","","933.6999999880791","","","14","19946","6905","z","elianto","#3366ff99"," "," ","1","0","[1785.3999999761581]","1","2","","","19946","75","4","1","win","go","1"
"pit-trial","197","1391510","0.0-80.0","battery-v0.2","","""event"",""trial"",""time""
""fullscreenenter"",""1"",""5782""
","
","
","""event"",""trial"",""time""
""fullscreenenter"",""1"",""5782""
","
","","","-1","","","14","19946","6905","c","elianto","#3366ff99","-1","-1","1","0","[]","0","2","","","19946","76","5","2","win","no-go","1"
"pit-trial","198","1396363","0.0-81.0","battery-v0.2","","""event"",""trial"",""time""
""fullscreenenter"",""1"",""5782""
","
","
","""event"",""trial"",""time""
""fullscreenenter"",""1"",""5782""
","
","","","-1","","","14","19946","6905","c","elianto","#3366ff99","-1","-1","1","+10","[]","0","2","","","19946","77","5","2","win","no-go","0"
"pit-trial","199","1399878","0.0-82.0","battery-v0.2","","""event"",""trial"",""time""
""fullscreenenter"",""1"",""5782""
","
","
","""event"",""trial"",""time""
""fullscreenenter"",""1"",""5782""
","
","","","650.3000000119209","","","14","19946","6905","z","elianto","#3366ff99"," "," ","1","+10","[1500.7000000476837]","1","2","","","19946","78","4","1","win","go","0"
"pit-trial","200","1404731","0.0-83.0","battery-v0.2","","""event"",""trial"",""time""
""fullscreenenter"",""1"",""5782""
","
","
","""event"",""trial"",""time""
""fullscreenenter"",""1"",""5782""
","
","","","-1","","","14","19946","6905","h","elianto","#f73b6a7A","-1","-1","1","0","[]","0","2","","","19946","79","3","4","lose","no-go","0"
"pit-trial","201","1408592","0.0-84.0","battery-v0.2","","""event"",""trial"",""time""
""fullscreenenter"",""1"",""5782""
","
","
","""event"",""trial"",""time""
""fullscreenenter"",""1"",""5782""
","
","","","1009.9000000357628","","","14","19946","6905","z","elianto","#3366ff99"," "," ","1","+10","[1860.4000000357628]","1","2","","","19946","80","4","1","win","go","0"
"pit-trial","202","1413445","0.0-85.0","battery-v0.2","","""event"",""trial"",""time""
""fullscreenenter"",""1"",""5782""
","
","
","""event"",""trial"",""time""
""fullscreenenter"",""1"",""5782""
","
","","","-1","","","14","19946","6905","t","elianto","#f73b6a7A","-1","-1","1","-10","[]","0","2","","","19946","81","7","4","lose","no-go","1"
"pit-trial","203","1418297","0.0-86.0","battery-v0.2","","""event"",""trial"",""time""
""fullscreenenter"",""1"",""5782""
","
","
","""event"",""trial"",""time""
""fullscreenenter"",""1"",""5782""
","
","","","-1","","","14","19946","6905","c","elianto","#3366ff99","-1","-1","1","+10","[]","0","2","","","19946","82","5","2","win","no-go","0"
"pit-trial","204","1421961","0.0-87.0","battery-v0.2","","""event"",""trial"",""time""
""fullscreenenter"",""1"",""5782""
","
","
","""event"",""trial"",""time""
""fullscreenenter"",""1"",""5782""
","
","","","810.3000000119209","","","14","19946","6905","z","elianto","#3366ff99"," "," ","1","+10","[1661.800000011921]","1","2","","","19946","83","4","1","win","go","0"
"pit-trial","205","1426813","0.0-88.0","battery-v0.2","","""event"",""trial"",""time""
""fullscreenenter"",""1"",""5782""
","
","
","""event"",""trial"",""time""
""fullscreenenter"",""1"",""5782""
","
","","","-1","","","14","19946","6905","h","elianto","#f73b6a7A","-1","-1","1","0","[]","0","2","","","19946","84","3","4","lose","no-go","0"
"pit-trial","206","1431667","0.0-89.0","battery-v0.2","","""event"",""trial"",""time""
""fullscreenenter"",""1"",""5782""
","
","
","""event"",""trial"",""time""
""fullscreenenter"",""1"",""5782""
","
","","","-1","","","14","19946","6905","c","elianto","#3366ff99","-1","-1","1","+10","[]","0","2","","","19946","85","5","2","win","no-go","0"
"pit-trial","207","1435347","0.0-90.0","battery-v0.2","","""event"",""trial"",""time""
""fullscreenenter"",""1"",""5782""
","
","
","""event"",""trial"",""time""
""fullscreenenter"",""1"",""5782""
","
","","","825.5","","","14","19946","6905","z","elianto","#3366ff99"," "," ","1","+10","[1676.800000011921]","1","2","","","19946","86","4","1","win","go","0"
"pit-trial","208","1440200","0.0-91.0","battery-v0.2","","""event"",""trial"",""time""
""fullscreenenter"",""1"",""5782""
","
","
","""event"",""trial"",""time""
""fullscreenenter"",""1"",""5782""
","
","","","-1","","","14","19946","6905","t","elianto","#f73b6a7A","-1","-1","1","0","[]","0","2","","","19946","87","7","4","lose","no-go","0"
"pit-trial","209","1445053","0.0-92.0","battery-v0.2","","""event"",""trial"",""time""
""fullscreenenter"",""1"",""5782""
","
","
","""event"",""trial"",""time""
""fullscreenenter"",""1"",""5782""
","
","","","-1","","","14","19946","6905","b","elianto","#f73b6a7A"," ","-1","0","-10","[]","0","2","","","19946","88","6","3","lose","go","0"
"pit-trial","210","1448634","0.0-93.0","battery-v0.2","","""event"",""trial"",""time""
""fullscreenenter"",""1"",""5782""
","
","
","""event"",""trial"",""time""
""fullscreenenter"",""1"",""5782""
","
","","","728.8999999761581","","","14","19946","6905","z","elianto","#3366ff99"," "," ","1","+10","[1579.699999988079]","1","2","","","19946","89","4","1","win","go","0"
"pit-trial","211","1453487","0.0-94.0","battery-v0.2","","""event"",""trial"",""time""
""fullscreenenter"",""1"",""5782""
","
","
","""event"",""trial"",""time""
""fullscreenenter"",""1"",""5782""
","
","","","-1","","","14","19946","6905","b","elianto","#f73b6a7A"," ","-1","0","0","[]","0","2","","","19946","90","6","3","lose","go","1"
"pit-trial","212","1458340","0.0-95.0","battery-v0.2","","""event"",""trial"",""time""
""fullscreenenter"",""1"",""5782""
","
","
","""event"",""trial"",""time""
""fullscreenenter"",""1"",""5782""
","
","","","-1","","","14","19946","6905","c","elianto","#3366ff99","-1","-1","1","+10","[]","0","2","","","19946","91","5","2","win","no-go","0"
"pit-trial","213","1463191","0.0-96.0","battery-v0.2","","""event"",""trial"",""time""
""fullscreenenter"",""1"",""5782""
","
","
","""event"",""trial"",""time""
""fullscreenenter"",""1"",""5782""
","
","","","-1","","","14","19946","6905","t","elianto","#f73b6a7A","-1","-1","1","0","[]","0","2","","","19946","92","7","4","lose","no-go","0"
"pit-trial","214","1468066","0.0-97.0","battery-v0.2","","""event"",""trial"",""time""
""fullscreenenter"",""1"",""5782""
","
","
","""event"",""trial"",""time""
""fullscreenenter"",""1"",""5782""
","
","","","-1","","","14","19946","6905","c","elianto","#3366ff99","-1","-1","1","+10","[]","0","2","","","19946","93","5","2","win","no-go","0"
"pit-trial","215","1472919","0.0-98.0","battery-v0.2","","""event"",""trial"",""time""
""fullscreenenter"",""1"",""5782""
","
","
","""event"",""trial"",""time""
""fullscreenenter"",""1"",""5782""
","
","","","-1","","","14","19946","6905","b","elianto","#f73b6a7A"," ","-1","0","-10","[]","0","2","","","19946","94","6","3","lose","go","0"
"pit-trial","216","1477775","0.0-99.0","battery-v0.2","","""event"",""trial"",""time""
""fullscreenenter"",""1"",""5782""
","
","
","""event"",""trial"",""time""
""fullscreenenter"",""1"",""5782""
","
","","","-1","","","14","19946","6905","f","elianto","#3366ff99"," ","-1","0","+10","[]","0","2","","","19946","95","8","1","win","go","1"
"pit-trial","217","1481625","0.0-100.0","battery-v0.2","","""event"",""trial"",""time""
""fullscreenenter"",""1"",""5782""
","
","
","""event"",""trial"",""time""
""fullscreenenter"",""1"",""5782""
","
","","","997.4000000357628","","","14","19946","6905","t","elianto","#f73b6a7A","-1"," ","0","-10","[1848]","1","2","","","19946","96","7","4","lose","no-go","0"
"pit-trial","218","1485528","0.0-101.0","battery-v0.2","","""event"",""trial"",""time""
""fullscreenenter"",""1"",""5782""
","
","
","""event"",""trial"",""time""
""fullscreenenter"",""1"",""5782""
","
","","","1051.3999999761581","","","14","19946","6905","t","elianto","#f73b6a7A","-1"," ","0","-10","[1901.800000011921]","1","2","","","19946","97","7","4","lose","no-go","0"
"pit-trial","219","1489521","0.0-102.0","battery-v0.2","","""event"",""trial"",""time""
""fullscreenenter"",""1"",""5782""
","
","
","""event"",""trial"",""time""
""fullscreenenter"",""1"",""5782""
","
","","","1136.6000000238419","","","14","19946","6905","b","elianto","#f73b6a7A"," "," ","1","0","[1990.300000011921]","1","2","","","19946","98","6","3","lose","go","0"
"pit-trial","220","1494374","0.0-103.0","battery-v0.2","","""event"",""trial"",""time""
""fullscreenenter"",""1"",""5782""
","
","
","""event"",""trial"",""time""
""fullscreenenter"",""1"",""5782""
","
","","","-1","","","14","19946","6905","c","elianto","#3366ff99","-1","-1","1","0","[]","0","2","","","19946","99","5","2","win","no-go","1"
"pit-trial","221","1499227","0.0-104.0","battery-v0.2","","""event"",""trial"",""time""
""fullscreenenter"",""1"",""5782""
","
","
","""event"",""trial"",""time""
""fullscreenenter"",""1"",""5782""
","
","","","-1","","","14","19946","6905","f","elianto","#3366ff99"," ","-1","0","+10","[]","0","2","","","19946","100","8","1","win","go","1"
"pit-trial","222","1502688","0.0-105.0","battery-v0.2","","""event"",""trial"",""time""
""fullscreenenter"",""1"",""5782""
","
","
","""event"",""trial"",""time""
""fullscreenenter"",""1"",""5782""
","
","","","609.3999999761581","","","14","19946","6905","f","elianto","#3366ff99"," "," ","1","0","[1459.7000000476837]","1","2","","","19946","101","8","1","win","go","1"
"pit-trial","223","1507545","0.0-106.0","battery-v0.2","","""event"",""trial"",""time""
""fullscreenenter"",""1"",""5782""
","
","
","""event"",""trial"",""time""
""fullscreenenter"",""1"",""5782""
","
","","","-1","","","14","19946","6905","c","elianto","#3366ff99","-1","-1","1","+10","[]","0","2","","","19946","102","5","2","win","no-go","0"
"pit-trial","224","1511305","0.0-107.0","battery-v0.2","","""event"",""trial"",""time""
""fullscreenenter"",""1"",""5782""
","
","
","""event"",""trial"",""time""
""fullscreenenter"",""1"",""5782""
","
","","","907.5","","","14","19946","6905","t","elianto","#f73b6a7A","-1"," ","0","-10","[1758.6000000238419]","1","2","","","19946","103","7","4","lose","no-go","0"
"pit-trial","225","1516158","0.0-108.0","battery-v0.2","","""event"",""trial"",""time""
""fullscreenenter"",""1"",""5782""
","
","
","""event"",""trial"",""time""
""fullscreenenter"",""1"",""5782""
","
","","","-1","","","14","19946","6905","n","elianto","#3366ff99"," ","-1","0","0","[]","0","2","","","19946","104","9","1","win","go","0"
"pit-trial","226","1520145","0.0-109.0","battery-v0.2","","""event"",""trial"",""time""
""fullscreenenter"",""1"",""5782""
","
","
","""event"",""trial"",""time""
""fullscreenenter"",""1"",""5782""
","
","","","1134.300000011921","","","14","19946","6905","z","elianto","#3366ff99"," "," ","1","0","[1985]","1","2","","","19946","105","4","1","win","go","1"
"pit-trial","227","1524999","0.0-110.0","battery-v0.2","","""event"",""trial"",""time""
""fullscreenenter"",""1"",""5782""
","
","
","""event"",""trial"",""time""
""fullscreenenter"",""1"",""5782""
","
","","","-1","","","14","19946","6905","b","elianto","#f73b6a7A"," ","-1","0","-10","[]","0","2","","","19946","106","6","3","lose","go","0"
"pit-trial","228","1529852","0.0-111.0","battery-v0.2","","""event"",""trial"",""time""
""fullscreenenter"",""1"",""5782""
","
","
","""event"",""trial"",""time""
""fullscreenenter"",""1"",""5782""
","
","","","-1","","","14","19946","6905","f","elianto","#3366ff99"," ","-1","0","0","[]","0","2","","","19946","107","8","1","win","go","0"
"pit-trial","229","1534706","0.0-112.0","battery-v0.2","","""event"",""trial"",""time""
""fullscreenenter"",""1"",""5782""
","
","
","""event"",""trial"",""time""
""fullscreenenter"",""1"",""5782""
","
","","","-1","","","14","19946","6905","n","elianto","#3366ff99"," ","-1","0","0","[]","0","2","","","19946","108","9","1","win","go","0"
"pit-trial","230","1539558","0.0-113.0","battery-v0.2","","""event"",""trial"",""time""
""fullscreenenter"",""1"",""5782""
","
","
","""event"",""trial"",""time""
""fullscreenenter"",""1"",""5782""
","
","","","-1","","","14","19946","6905","c","elianto","#3366ff99","-1","-1","1","+10","[]","0","2","","","19946","109","5","2","win","no-go","0"
"pit-trial","231","1544412","0.0-114.0","battery-v0.2","","""event"",""trial"",""time""
""fullscreenenter"",""1"",""5782""
","
","
","""event"",""trial"",""time""
""fullscreenenter"",""1"",""5782""
","
","","","-1","","","14","19946","6905","f","elianto","#3366ff99"," ","-1","0","0","[]","0","2","","","19946","110","8","1","win","go","0"
"pit-trial","232","1549264","0.0-115.0","battery-v0.2","","""event"",""trial"",""time""
""fullscreenenter"",""1"",""5782""
","
","
","""event"",""trial"",""time""
""fullscreenenter"",""1"",""5782""
","
","","","-1","","","14","19946","6905","n","elianto","#3366ff99"," ","-1","0","0","[]","0","2","","","19946","111","9","1","win","go","0"
"pit-trial","233","1554117","0.0-116.0","battery-v0.2","","""event"",""trial"",""time""
""fullscreenenter"",""1"",""5782""
","
","
","""event"",""trial"",""time""
""fullscreenenter"",""1"",""5782""
","
","","","-1","","","14","19946","6905","b","elianto","#f73b6a7A"," ","-1","0","-10","[]","0","2","","","19946","112","6","3","lose","go","0"
"pit-trial","234","1558968","0.0-117.0","battery-v0.2","","""event"",""trial"",""time""
""fullscreenenter"",""1"",""5782""
","
","
","""event"",""trial"",""time""
""fullscreenenter"",""1"",""5782""
","
","","","-1","","","14","19946","6905","f","elianto","#3366ff99"," ","-1","0","0","[]","0","2","","","19946","113","8","1","win","go","0"
"pit-trial","235","1563824","0.0-118.0","battery-v0.2","","""event"",""trial"",""time""
""fullscreenenter"",""1"",""5782""
","
","
","""event"",""trial"",""time""
""fullscreenenter"",""1"",""5782""
","
","","","-1","","","14","19946","6905","n","elianto","#3366ff99"," ","-1","0","0","[]","0","2","","","19946","114","9","1","win","go","0"
"pit-trial","236","1568677","0.0-119.0","battery-v0.2","","""event"",""trial"",""time""
""fullscreenenter"",""1"",""5782""
","
","
","""event"",""trial"",""time""
""fullscreenenter"",""1"",""5782""
","
","","","-1","","","14","19946","6905","b","elianto","#f73b6a7A"," ","-1","0","-10","[]","0","2","","","19946","115","6","3","lose","go","0"
"pit-trial","237","1573529","0.0-120.0","battery-v0.2","","""event"",""trial"",""time""
""fullscreenenter"",""1"",""5782""
","
","
","""event"",""trial"",""time""
""fullscreenenter"",""1"",""5782""
","
","","","-1","","","14","19946","6905","c","elianto","#3366ff99","-1","-1","1","0","[]","0","2","","","19946","116","5","2","win","no-go","1"
"pit-trial","238","1577170","0.0-121.0","battery-v0.2","","""event"",""trial"",""time""
""fullscreenenter"",""1"",""5782""
","
","
","""event"",""trial"",""time""
""fullscreenenter"",""1"",""5782""
","
","","","789.8000000119209","","","14","19946","6905","b","elianto","#f73b6a7A"," "," ","1","0","[1640.199999988079]","1","2","","","19946","117","6","3","lose","go","0"
"pit-trial","239","1582027","0.0-122.0","battery-v0.2","","""event"",""trial"",""time""
""fullscreenenter"",""1"",""5782""
","
","
","""event"",""trial"",""time""
""fullscreenenter"",""1"",""5782""
","
","","","-1","","","14","19946","6905","c","elianto","#3366ff99","-1","-1","1","0","[]","0","2","","","19946","118","5","2","win","no-go","1"
"pit-trial","240","1586879","0.0-123.0","battery-v0.2","","""event"",""trial"",""time""
""fullscreenenter"",""1"",""5782""
","
","
","""event"",""trial"",""time""
""fullscreenenter"",""1"",""5782""
","
","","","-1","","","14","19946","6905","n","elianto","#3366ff99"," ","-1","0","0","[]","0","2","","","19946","119","9","1","win","go","0"
"pit-trial","241","1591733","0.0-124.0","battery-v0.2","","""event"",""trial"",""time""
""fullscreenenter"",""1"",""5782""
","
","
","""event"",""trial"",""time""
""fullscreenenter"",""1"",""5782""
","
","","","-1","","","14","19946","6905","f","elianto","#3366ff99"," ","-1","0","0","[]","0","2","","","19946","120","8","1","win","go","0"
"pit-trial","242","1595509","0.0-125.0","battery-v0.2","","""event"",""trial"",""time""
""fullscreenenter"",""1"",""5782""
","
","
","""event"",""trial"",""time""
""fullscreenenter"",""1"",""5782""
","
","","","923.1999999880791","","","14","19946","6905","b","elianto","#f73b6a7A"," "," ","1","0","[1774.5999999642372]","1","2","","","19946","121","6","3","lose","go","0"
"pit-trial","243","1600361","0.0-126.0","battery-v0.2","","""event"",""trial"",""time""
""fullscreenenter"",""1"",""5782""
","
","
","""event"",""trial"",""time""
""fullscreenenter"",""1"",""5782""
","
","","","-1","","","14","19946","6905","t","elianto","#f73b6a7A","-1","-1","1","0","[]","0","2","","","19946","122","7","4","lose","no-go","0"
"pit-trial","244","1605214","0.0-127.0","battery-v0.2","","""event"",""trial"",""time""
""fullscreenenter"",""1"",""5782""
","
","
","""event"",""trial"",""time""
""fullscreenenter"",""1"",""5782""
","
","","","-1","","","14","19946","6905","n","elianto","#3366ff99"," ","-1","0","0","[]","0","2","","","19946","123","9","1","win","go","0"
"pit-trial","245","1610068","0.0-128.0","battery-v0.2","","""event"",""trial"",""time""
""fullscreenenter"",""1"",""5782""
","
","
","""event"",""trial"",""time""
""fullscreenenter"",""1"",""5782""
","
","","","-1","","","14","19946","6905","f","elianto","#3366ff99"," ","-1","0","0","[]","0","2","","","19946","124","8","1","win","go","0"
"pit-trial","246","1614920","0.0-129.0","battery-v0.2","","""event"",""trial"",""time""
""fullscreenenter"",""1"",""5782""
","
","
","""event"",""trial"",""time""
""fullscreenenter"",""1"",""5782""
","
","","","-1","","","14","19946","6905","n","elianto","#3366ff99"," ","-1","0","0","[]","0","2","","","19946","125","9","1","win","go","0"
"pit-trial","247","1619772","0.0-130.0","battery-v0.2","","""event"",""trial"",""time""
""fullscreenenter"",""1"",""5782""
","
","
","""event"",""trial"",""time""
""fullscreenenter"",""1"",""5782""
","
","","","-1","","","14","19946","6905","t","elianto","#f73b6a7A","-1","-1","1","0","[]","0","2","","","19946","126","7","4","lose","no-go","0"
"pit-trial","248","1624624","0.0-131.0","battery-v0.2","","""event"",""trial"",""time""
""fullscreenenter"",""1"",""5782""
","
","
","""event"",""trial"",""time""
""fullscreenenter"",""1"",""5782""
","
","","","-1","","","14","19946","6905","b","elianto","#f73b6a7A"," ","-1","0","-10","[]","0","2","","","19946","127","6","3","lose","go","0"
"pit-trial","249","1629488","0.0-132.0","battery-v0.2","","""event"",""trial"",""time""
""fullscreenenter"",""1"",""5782""
","
","
","""event"",""trial"",""time""
""fullscreenenter"",""1"",""5782""
","
","","","-1","","","14","19946","6905","f","elianto","#3366ff99"," ","-1","0","0","[]","0","2","","","19946","128","8","1","win","go","0"
"pit-trial","250","1634340","0.0-133.0","battery-v0.2","","""event"",""trial"",""time""
""fullscreenenter"",""1"",""5782""
","
","
","""event"",""trial"",""time""
""fullscreenenter"",""1"",""5782""
","
","","","-1","","","14","19946","6905","f","elianto","#3366ff99"," ","-1","0","0","[]","0","2","","","19946","129","8","1","win","go","0"
"pit-trial","251","1639199","0.0-134.0","battery-v0.2","","""event"",""trial"",""time""
""fullscreenenter"",""1"",""5782""
","
","
","""event"",""trial"",""time""
""fullscreenenter"",""1"",""5782""
","
","","","-1","","","14","19946","6905","b","elianto","#f73b6a7A"," ","-1","0","-10","[]","0","2","","","19946","130","6","3","lose","go","0"
"pit-trial","252","1644052","0.0-135.0","battery-v0.2","","""event"",""trial"",""time""
""fullscreenenter"",""1"",""5782""
","
","
","""event"",""trial"",""time""
""fullscreenenter"",""1"",""5782""
","
","","","-1","","","14","19946","6905","n","elianto","#3366ff99"," ","-1","0","+10","[]","0","2","","","19946","131","9","1","win","go","1"
"pit-trial","253","1648911","0.0-136.0","battery-v0.2","","""event"",""trial"",""time""
""fullscreenenter"",""1"",""5782""
","
","
","""event"",""trial"",""time""
""fullscreenenter"",""1"",""5782""
","
","","","-1","","","14","19946","6905","t","elianto","#f73b6a7A","-1","-1","1","-10","[]","0","2","","","19946","132","7","4","lose","no-go","1"
"pit-trial","254","1652483","0.0-137.0","battery-v0.2","","""event"",""trial"",""time""
""fullscreenenter"",""1"",""5782""
","
","
","""event"",""trial"",""time""
""fullscreenenter"",""1"",""5782""
","
","","","718.6999999880791","","","14","19946","6905","t","elianto","#f73b6a7A","-1"," ","0","-10","[1569.699999988079]","1","2","","","19946","133","7","4","lose","no-go","0"
"pit-trial","255","1657336","0.0-138.0","battery-v0.2","","""event"",""trial"",""time""
""fullscreenenter"",""1"",""5782""
","
","
","""event"",""trial"",""time""
""fullscreenenter"",""1"",""5782""
","
","","","-1","","","14","19946","6905","n","elianto","#3366ff99"," ","-1","0","+10","[]","0","2","","","19946","134","9","1","win","go","1"
"pit-trial","256","1661352","0.0-139.0","battery-v0.2","","""event"",""trial"",""time""
""fullscreenenter"",""1"",""5782""
","
","
","""event"",""trial"",""time""
""fullscreenenter"",""1"",""5782""
","
","","","1164.199999988079","","","14","19946","6905","b","elianto","#f73b6a7A"," "," ","1","0","[2015.0999999642372]","1","2","","","19946","135","6","3","lose","go","0"
"pit-trial","257","1666209","0.0-140.0","battery-v0.2","","""event"",""trial"",""time""
""fullscreenenter"",""1"",""5782""
","
","
","""event"",""trial"",""time""
""fullscreenenter"",""1"",""5782""
","
","","","-1","","","14","19946","6905","f","elianto","#3366ff99"," ","-1","0","+10","[]","0","2","","","19946","136","8","1","win","go","1"
"pit-trial","258","1671062","0.0-141.0","battery-v0.2","","""event"",""trial"",""time""
""fullscreenenter"",""1"",""5782""
","
","
","""event"",""trial"",""time""
""fullscreenenter"",""1"",""5782""
","
","","","-1","","","14","19946","6905","f","elianto","#3366ff99"," ","-1","0","0","[]","0","2","","","19946","137","8","1","win","go","0"
"pit-trial","259","1675068","0.0-142.0","battery-v0.2","","""event"",""trial"",""time""
""fullscreenenter"",""1"",""5782""
","
","
","""event"",""trial"",""time""
""fullscreenenter"",""1"",""5782""
","
","","","1143.699999988079","","","14","19946","6905","b","elianto","#f73b6a7A"," "," ","1","0","[1994]","1","2","","","19946","138","6","3","lose","go","0"
"pit-trial","260","1679921","0.0-143.0","battery-v0.2","","""event"",""trial"",""time""
""fullscreenenter"",""1"",""5782""
","
","
","""event"",""trial"",""time""
""fullscreenenter"",""1"",""5782""
","
","","","-1","","","14","19946","6905","n","elianto","#3366ff99"," ","-1","0","0","[]","0","2","","","19946","139","9","1","win","go","0"
"pit-trial","261","1684786","0.0-144.0","battery-v0.2","","""event"",""trial"",""time""
""fullscreenenter"",""1"",""5782""
","
","
","""event"",""trial"",""time""
""fullscreenenter"",""1"",""5782""
","
","","","-1","","","14","19946","6905","t","elianto","#f73b6a7A","-1","-1","1","0","[]","0","2","","","19946","140","7","4","lose","no-go","0"
"pit-instructions","262","1755504","0.0-145.0","battery-v0.2","","""event"",""trial"",""time""
""fullscreenenter"",""1"",""5782""
","
","
","""event"",""trial"",""time""
""fullscreenenter"",""1"",""5782""
","
","","[{""page_index"":0,""viewing_time"":62077.60000002384},{""page_index"":1,""viewing_time"":8639.399999976158}]","70717.30000001192","","","","","","","","","","","","","","","","","","","","","","","",""
"pit-trial","263","1759999","0.0-146.0","battery-v0.2","","""event"",""trial"",""time""
""fullscreenenter"",""1"",""5782""
","
","
","""event"",""trial"",""time""
""fullscreenenter"",""1"",""5782""
","
","","","1624.699999988079","","","14","19946","6905","a","elianto","#f73b6a7A","-1"," ","0","-10","[2484.300000011921]","1","3","","","19946","141","2","4","lose","no-go","0"
"pit-trial","264","1764338","0.0-147.0","battery-v0.2","","""event"",""trial"",""time""
""fullscreenenter"",""1"",""5782""
","
","
","""event"",""trial"",""time""
""fullscreenenter"",""1"",""5782""
","
","","","1476.199999988079","","","14","19946","6905","g","elianto","#f73b6a7A"," "," ","1","0","[2326.899999976158]","1","3","","","19946","142","3","3","lose","go","0"
"pit-trial","265","1768189","0.0-148.0","battery-v0.2","","""event"",""trial"",""time""
""fullscreenenter"",""1"",""5782""
","
","
","""event"",""trial"",""time""
""fullscreenenter"",""1"",""5782""
","
","","","991.3999999761581","","","14","19946","6905","u","elianto","#f73b6a7A","-1"," ","0","-10","[1846.699999988079]","1","3","","","19946","143","0","4","lose","no-go","0"
"pit-trial","266","1773057","0.0-149.0","battery-v0.2","","""event"",""trial"",""time""
""fullscreenenter"",""1"",""5782""
","
","
","""event"",""trial"",""time""
""fullscreenenter"",""1"",""5782""
","
","","","-1","","","14","19946","6905","l","elianto","#3366ff99"," ","-1","0","0","[]","0","3","","","19946","144","1","1","win","go","0"
"pit-trial","267","1777649","0.0-150.0","battery-v0.2","","""event"",""trial"",""time""
""fullscreenenter"",""1"",""5782""
","
","
","""event"",""trial"",""time""
""fullscreenenter"",""1"",""5782""
","
