"trial_type","trial_index","time_elapsed","internal_node_id","task_version","subject_id","interactions","blur_events","focus_events","fullscreenenter_events","fullscreenexit_events","success","view_history","rt","responses","num_errors","age","subject","participantId","rune","rune_set","hex","correct","choice","accuracy","outcome","keys","total_keys","block","practice","value","sub","trial","stimulus","robot","valence","action","sham"
"pavlovia","0","7","0.0-0.0","battery-v0.2","","""event"",""trial"",""time""
""blur"",""1"",""1637""
""focus"",""1"",""3086""
""focus"",""1"",""3087""
""fullscreenenter"",""1"",""4171""
","""event"",""trial"",""time""
""blur"",""1"",""1637""
","""event"",""trial"",""time""
""focus"",""1"",""3086""
""focus"",""1"",""3087""
","""event"",""trial"",""time""
""fullscreenenter"",""1"",""4171""
","
","","","","","","","","","","","","","","","","","","","","","","","","","","",""
"fullscreen","1","5121","0.0-1.0","battery-v0.2","","""event"",""trial"",""time""
""blur"",""1"",""1637""
""focus"",""1"",""3086""
""focus"",""1"",""3087""
""fullscreenenter"",""1"",""4171""
","""event"",""trial"",""time""
""blur"",""1"",""1637""
","""event"",""trial"",""time""
""focus"",""1"",""3086""
""focus"",""1"",""3087""
","""event"",""trial"",""time""
""fullscreenenter"",""1"",""4171""
","
","true","","","","","","","","","","","","","","","","","","","","","","","","","",""
"pit-instructions","2","9551","0.0-2.0-0.0","battery-v0.2","","""event"",""trial"",""time""
""blur"",""1"",""1637""
""focus"",""1"",""3086""
""focus"",""1"",""3087""
""fullscreenenter"",""1"",""4171""
","""event"",""trial"",""time""
""blur"",""1"",""1637""
","""event"",""trial"",""time""
""focus"",""1"",""3086""
""focus"",""1"",""3087""
","""event"",""trial"",""time""
""fullscreenenter"",""1"",""4171""
","
","","[{""page_index"":0,""viewing_time"":4424}]","4424","","","","","","","","","","","","","","","","","","","","","","","",""
"pit-comprehension","3","12455","0.0-2.0-1.0-0.0","battery-v0.2","","""event"",""trial"",""time""
""blur"",""1"",""1637""
""focus"",""1"",""3086""
""focus"",""1"",""3087""
""fullscreenenter"",""1"",""4171""
","""event"",""trial"",""time""
""blur"",""1"",""1637""
","""event"",""trial"",""time""
""focus"",""1"",""3086""
""focus"",""1"",""3087""
","""event"",""trial"",""time""
""fullscreenenter"",""1"",""4171""
","
","","","2789","[""shark""]","0","23","3710","1059","","","","","","","","","","","","","","","","","","",""
"pit-instructions","4","13986","0.0-2.0-1.0-1.0","battery-v0.2","","""event"",""trial"",""time""
""blur"",""1"",""1637""
""focus"",""1"",""3086""
""focus"",""1"",""3087""
""fullscreenenter"",""1"",""4171""
","""event"",""trial"",""time""
""blur"",""1"",""1637""
","""event"",""trial"",""time""
""focus"",""1"",""3086""
""focus"",""1"",""3087""
","""event"",""trial"",""time""
""fullscreenenter"",""1"",""4171""
","
","","[{""page_index"":0,""viewing_time"":1525}]","1525","","","","","","","","","","","","","","","","","","","","","","","",""
"pit-comprehension","5","16720","0.0-2.0-2.0-0.0","battery-v0.2","","""event"",""trial"",""time""
""blur"",""1"",""1637""
""focus"",""1"",""3086""
""focus"",""1"",""3087""
""fullscreenenter"",""1"",""4171""
","""event"",""trial"",""time""
""blur"",""1"",""1637""
","""event"",""trial"",""time""
""focus"",""1"",""3086""
""focus"",""1"",""3087""
","""event"",""trial"",""time""
""fullscreenenter"",""1"",""4171""
","
","","","2731","[""tiger""]","0","23","3710","1059","","","","","","","","","","","","","","","","","","",""
"pit-instructions","6","18069","0.0-2.0-2.0-1.0","battery-v0.2","","""event"",""trial"",""time""
""blur"",""1"",""1637""
""focus"",""1"",""3086""
""focus"",""1"",""3087""
""fullscreenenter"",""1"",""4171""
","""event"",""trial"",""time""
""blur"",""1"",""1637""
","""event"",""trial"",""time""
""focus"",""1"",""3086""
""focus"",""1"",""3087""
","""event"",""trial"",""time""
""fullscreenenter"",""1"",""4171""
","
","","[{""page_index"":0,""viewing_time"":1343}]","1344","","","","","","","","","","","","","","","","","","","","","","","",""
"pit-instructions","7","130934","0.0-2.0-3.0","battery-v0.2","","""event"",""trial"",""time""
""blur"",""1"",""1637""
""focus"",""1"",""3086""
""focus"",""1"",""3087""
""fullscreenenter"",""1"",""4171""
","""event"",""trial"",""time""
""blur"",""1"",""1637""
","""event"",""trial"",""time""
""focus"",""1"",""3086""
""focus"",""1"",""3087""
","""event"",""trial"",""time""
""fullscreenenter"",""1"",""4171""
","
","","[{""page_index"":0,""viewing_time"":11267},{""page_index"":1,""viewing_time"":8703},{""page_index"":2,""viewing_time"":6234},{""page_index"":3,""viewing_time"":5718},{""page_index"":4,""viewing_time"":6470},{""page_index"":5,""viewing_time"":5867},{""page_index"":6,""viewing_time"":8286},{""page_index"":7,""viewing_time"":13302},{""page_index"":8,""viewing_time"":7636},{""page_index"":9,""viewing_time"":10519},{""page_index"":10,""viewing_time"":8902},{""page_index"":11,""viewing_time"":7302},{""page_index"":12,""viewing_time"":6734},{""page_index"":13,""viewing_time"":5918}]","112858","","","","","","","","","","","","","","","","","","","","","","","",""
"pit-trial","8","134320","0.0-2.0-4.0-0.0","battery-v0.2","","""event"",""trial"",""time""
""blur"",""1"",""1637""
""focus"",""1"",""3086""
""focus"",""1"",""3087""
""fullscreenenter"",""1"",""4171""
","""event"",""trial"",""time""
""blur"",""1"",""1637""
","""event"",""trial"",""time""
""focus"",""1"",""3086""
""focus"",""1"",""3087""
","""event"",""trial"",""time""
""fullscreenenter"",""1"",""4171""
","
","","","530","","","23","3710","1059","&#9784;","elianto","#FFFFF080"," "," ","1","&#10004","[1381]","1","0","0","","","","","","","",""
"pit-trial","9","137896","0.0-2.0-4.1-0.1","battery-v0.2","","""event"",""trial"",""time""
""blur"",""1"",""1637""
""focus"",""1"",""3086""
""focus"",""1"",""3087""
""fullscreenenter"",""1"",""4171""
","""event"",""trial"",""time""
""blur"",""1"",""1637""
","""event"",""trial"",""time""
""focus"",""1"",""3086""
""focus"",""1"",""3087""
","""event"",""trial"",""time""
""fullscreenenter"",""1"",""4171""
","
","","","722","","","23","3710","1059","&#9784;","elianto","#FFFFF080"," "," ","1","&#10004","[1571]","1","0","0","","","","","","","",""
"pit-trial","10","141423","0.0-2.0-4.2-0.2","battery-v0.2","","""event"",""trial"",""time""
""blur"",""1"",""1637""
""focus"",""1"",""3086""
""focus"",""1"",""3087""
""fullscreenenter"",""1"",""4171""
","""event"",""trial"",""time""
""blur"",""1"",""1637""
","""event"",""trial"",""time""
""focus"",""1"",""3086""
""focus"",""1"",""3087""
","""event"",""trial"",""time""
""fullscreenenter"",""1"",""4171""
","
","","","672","","","23","3710","1059","&#9784;","elianto","#FFFFF080"," "," ","1","&#10004","[1523]","1","0","0","","","","","","","",""
"pit-trial","11","144736","0.0-2.0-4.3-0.3","battery-v0.2","","""event"",""trial"",""time""
""blur"",""1"",""1637""
""focus"",""1"",""3086""
""focus"",""1"",""3087""
""fullscreenenter"",""1"",""4171""
","""event"",""trial"",""time""
""blur"",""1"",""1637""
","""event"",""trial"",""time""
""focus"",""1"",""3086""
""focus"",""1"",""3087""
","""event"",""trial"",""time""
""fullscreenenter"",""1"",""4171""
","
","","","458","","","23","3710","1059","&#9784;","elianto","#FFFFF080"," "," ","1","&#10004","[1309]","1","0","0","","","","","","","",""
"pit-trial","12","148159","0.0-2.0-4.4-0.4","battery-v0.2","","""event"",""trial"",""time""
""blur"",""1"",""1637""
""focus"",""1"",""3086""
""focus"",""1"",""3087""
""fullscreenenter"",""1"",""4171""
","""event"",""trial"",""time""
""blur"",""1"",""1637""
","""event"",""trial"",""time""
""focus"",""1"",""3086""
""focus"",""1"",""3087""
","""event"",""trial"",""time""
""fullscreenenter"",""1"",""4171""
","
","","","569.9999999999709","","","23","3710","1059","&#9784;","elianto","#FFFFF080"," "," ","1","&#10004","[1420]","1","0","0","","","","","","","",""
"pit-instructions","13","173779","0.0-2.0-5.0","battery-v0.2","","""event"",""trial"",""time""
""blur"",""1"",""1637""
""focus"",""1"",""3086""
""focus"",""1"",""3087""
""fullscreenenter"",""1"",""4171""
","""event"",""trial"",""time""
""blur"",""1"",""1637""
","""event"",""trial"",""time""
""focus"",""1"",""3086""
""focus"",""1"",""3087""
","""event"",""trial"",""time""
""fullscreenenter"",""1"",""4171""
","
","","[{""page_index"":0,""viewing_time"":7245},{""page_index"":1,""viewing_time"":6168},{""page_index"":2,""viewing_time"":4852},{""page_index"":3,""viewing_time"":7351}]","25616","","","","","","","","","","","","","","","","","","","","","","","",""
"pit-trial","14","178633","0.0-2.0-6.0-0.0","battery-v0.2","","""event"",""trial"",""time""
""blur"",""1"",""1637""
""focus"",""1"",""3086""
""focus"",""1"",""3087""
""fullscreenenter"",""1"",""4171""
","""event"",""trial"",""time""
""blur"",""1"",""1637""
","""event"",""trial"",""time""
""focus"",""1"",""3086""
""focus"",""1"",""3087""
","""event"",""trial"",""time""
""fullscreenenter"",""1"",""4171""
","
","","","-1","","","23","3710","1059","&#9854;","elianto","#FFFFF080","-1","-1","1","&#10004","[]","0","0","1","","","","","","","",""
"pit-trial","15","183487","0.0-2.0-6.1-0.1","battery-v0.2","","""event"",""trial"",""time""
""blur"",""1"",""1637""
""focus"",""1"",""3086""
""focus"",""1"",""3087""
""fullscreenenter"",""1"",""4171""
","""event"",""trial"",""time""
""blur"",""1"",""1637""
","""event"",""trial"",""time""
""focus"",""1"",""3086""
""focus"",""1"",""3087""
","""event"",""trial"",""time""
""fullscreenenter"",""1"",""4171""
","
","","","-1","","","23","3710","1059","&#9854;","elianto","#FFFFF080","-1","-1","1","&#10004","[]","0","0","1","","","","","","","",""
"pit-trial","16","188342","0.0-2.0-6.2-0.2","battery-v0.2","","""event"",""trial"",""time""
""blur"",""1"",""1637""
""focus"",""1"",""3086""
""focus"",""1"",""3087""
""fullscreenenter"",""1"",""4171""
","""event"",""trial"",""time""
""blur"",""1"",""1637""
","""event"",""trial"",""time""
""focus"",""1"",""3086""
""focus"",""1"",""3087""
","""event"",""trial"",""time""
""fullscreenenter"",""1"",""4171""
","
","","","-1","","","23","3710","1059","&#9854;","elianto","#FFFFF080","-1","-1","1","&#10004","[]","0","0","1","","","","","","","",""
"pit-trial","17","193196","0.0-2.0-6.3-0.3","battery-v0.2","","""event"",""trial"",""time""
""blur"",""1"",""1637""
""focus"",""1"",""3086""
""focus"",""1"",""3087""
""fullscreenenter"",""1"",""4171""
","""event"",""trial"",""time""
""blur"",""1"",""1637""
","""event"",""trial"",""time""
""focus"",""1"",""3086""
""focus"",""1"",""3087""
","""event"",""trial"",""time""
""fullscreenenter"",""1"",""4171""
","
","","","-1","","","23","3710","1059","&#9854;","elianto","#FFFFF080","-1","-1","1","&#10004","[]","0","0","1","","","","","","","",""
"pit-trial","18","198052","0.0-2.0-6.4-0.4","battery-v0.2","","""event"",""trial"",""time""
""blur"",""1"",""1637""
""focus"",""1"",""3086""
""focus"",""1"",""3087""
""fullscreenenter"",""1"",""4171""
","""event"",""trial"",""time""
""blur"",""1"",""1637""
","""event"",""trial"",""time""
""focus"",""1"",""3086""
""focus"",""1"",""3087""
","""event"",""trial"",""time""
""fullscreenenter"",""1"",""4171""
","
","","","-1","","","23","3710","1059","&#9854;","elianto","#FFFFF080","-1","-1","1","&#10004","[]","0","0","1","","","","","","","",""
"pit-instructions","19","335427","0.0-2.0-7.0","battery-v0.2","","""event"",""trial"",""time""
""blur"",""1"",""1637""
""focus"",""1"",""3086""
""focus"",""1"",""3087""
""fullscreenenter"",""1"",""4171""
","""event"",""trial"",""time""
""blur"",""1"",""1637""
","""event"",""trial"",""time""
""focus"",""1"",""3086""
""focus"",""1"",""3087""
","""event"",""trial"",""time""
""fullscreenenter"",""1"",""4171""
","
","","[{""page_index"":0,""viewing_time"":7033},{""page_index"":1,""viewing_time"":9820},{""page_index"":2,""viewing_time"":7002},{""page_index"":3,""viewing_time"":9718},{""page_index"":4,""viewing_time"":7936},{""page_index"":5,""viewing_time"":7751},{""page_index"":6,""viewing_time"":7853},{""page_index"":7,""viewing_time"":8619},{""page_index"":8,""viewing_time"":8586},{""page_index"":9,""viewing_time"":6635},{""page_index"":10,""viewing_time"":7052},{""page_index"":11,""viewing_time"":6969},{""page_index"":12,""viewing_time"":7302},{""page_index"":13,""viewing_time"":7801},{""page_index"":14,""viewing_time"":7151},{""page_index"":15,""viewing_time"":6403},{""page_index"":16,""viewing_time"":6584},{""page_index"":17,""viewing_time"":7151}]","137367","","","","","","","","","","","","","","","","","","","","","","","",""
"pit-trial","20","338870","0.0-2.0-8.0-0.0","battery-v0.2","","""event"",""trial"",""time""
""blur"",""1"",""1637""
""focus"",""1"",""3086""
""focus"",""1"",""3087""
""fullscreenenter"",""1"",""4171""
","""event"",""trial"",""time""
""blur"",""1"",""1637""
","""event"",""trial"",""time""
""focus"",""1"",""3086""
""focus"",""1"",""3087""
","""event"",""trial"",""time""
""fullscreenenter"",""1"",""4171""
","
","","","588","","","23","3710","1059","&#9776;","elianto","#3366ff99"," "," ","1","+10","[1439]","1","0","1","","","","","","","",""
"pit-trial","21","342614","0.0-2.0-8.0-1.0","battery-v0.2","","""event"",""trial"",""time""
""blur"",""1"",""1637""
""focus"",""1"",""3086""
""focus"",""1"",""3087""
""fullscreenenter"",""1"",""4171""
","""event"",""trial"",""time""
""blur"",""1"",""1637""
","""event"",""trial"",""time""
""focus"",""1"",""3086""
""focus"",""1"",""3087""
","""event"",""trial"",""time""
""fullscreenenter"",""1"",""4171""
","
","","","889","","","23","3710","1059","&#9776;","elianto","#3366ff99"," "," ","1","+10","[1740]","1","0","1","","","","","","","",""
"pit-trial","22","346061","0.0-2.0-8.0-2.0","battery-v0.2","","""event"",""trial"",""time""
""blur"",""1"",""1637""
""focus"",""1"",""3086""
""focus"",""1"",""3087""
""fullscreenenter"",""1"",""4171""
","""event"",""trial"",""time""
""blur"",""1"",""1637""
","""event"",""trial"",""time""
""focus"",""1"",""3086""
""focus"",""1"",""3087""
","""event"",""trial"",""time""
""fullscreenenter"",""1"",""4171""
","
","","","592.9999999999418","","","23","3710","1059","&#9776;","elianto","#3366ff99"," "," ","1","+10","[1443.9999999999418]","1","0","1","","","","","","","",""
"pit-trial","23","349894","0.0-2.0-8.0-3.0","battery-v0.2","","""event"",""trial"",""time""
""blur"",""1"",""1637""
""focus"",""1"",""3086""
""focus"",""1"",""3087""
""fullscreenenter"",""1"",""4171""
","""event"",""trial"",""time""
""blur"",""1"",""1637""
","""event"",""trial"",""time""
""focus"",""1"",""3086""
""focus"",""1"",""3087""
","""event"",""trial"",""time""
""fullscreenenter"",""1"",""4171""
","
","","","979","","","23","3710","1059","&#9776;","elianto","#3366ff99"," "," ","1","0","[1829]","1","0","1","","","","","","","",""
"pit-trial","24","354748","0.0-2.0-8.0-4.0","battery-v0.2","","""event"",""trial"",""time""
""blur"",""1"",""1637""
""focus"",""1"",""3086""
""focus"",""1"",""3087""
""fullscreenenter"",""1"",""4171""
","""event"",""trial"",""time""
""blur"",""1"",""1637""
","""event"",""trial"",""time""
""focus"",""1"",""3086""
""focus"",""1"",""3087""
","""event"",""trial"",""time""
""fullscreenenter"",""1"",""4171""
","
","","","-1","","","23","3710","1059","&#9776;","elianto","#3366ff99"," ","-1","0","0","[]","0","0","1","","","","","","","",""
"pit-trial","25","358086","0.0-2.0-8.1-0.1","battery-v0.2","","""event"",""trial"",""time""
""blur"",""1"",""1637""
""focus"",""1"",""3086""
""focus"",""1"",""3087""
""fullscreenenter"",""1"",""4171""
","""event"",""trial"",""time""
""blur"",""1"",""1637""
","""event"",""trial"",""time""
""focus"",""1"",""3086""
""focus"",""1"",""3087""
","""event"",""trial"",""time""
""fullscreenenter"",""1"",""4171""
","
","","","484","","","23","3710","1059","&#9776;","elianto","#3366ff99"," "," ","1","+10","[1334]","1","0","1","","","","","","","",""
"pit-trial","26","362941","0.0-2.0-8.1-1.1","battery-v0.2","","""event"",""trial"",""time""
""blur"",""1"",""1637""
""focus"",""1"",""3086""
""focus"",""1"",""3087""
""fullscreenenter"",""1"",""4171""
","""event"",""trial"",""time""
""blur"",""1"",""1637""
","""event"",""trial"",""time""
""focus"",""1"",""3086""
""focus"",""1"",""3087""
","""event"",""trial"",""time""
""fullscreenenter"",""1"",""4171""
","
","","","-1","","","23","3710","1059","&#9776;","elianto","#3366ff99"," ","-1","0","0","[]","0","0","1","","","","","","","",""
"pit-trial","27","366375","0.0-2.0-8.1-2.1","battery-v0.2","","""event"",""trial"",""time""
""blur"",""1"",""1637""
""focus"",""1"",""3086""
""focus"",""1"",""3087""
""fullscreenenter"",""1"",""4171""
","""event"",""trial"",""time""
""blur"",""1"",""1637""
","""event"",""trial"",""time""
""focus"",""1"",""3086""
""focus"",""1"",""3087""
","""event"",""trial"",""time""
""fullscreenenter"",""1"",""4171""
","
","","","579","","","23","3710","1059","&#9776;","elianto","#3366ff99"," "," ","1","+10","[1430]","1","0","1","","","","","","","",""
"pit-trial","28","369662","0.0-2.0-8.1-3.1","battery-v0.2","","""event"",""trial"",""time""
""blur"",""1"",""1637""
""focus"",""1"",""3086""
""focus"",""1"",""3087""
""fullscreenenter"",""1"",""4171""
","""event"",""trial"",""time""
""blur"",""1"",""1637""
","""event"",""trial"",""time""
""focus"",""1"",""3086""
""focus"",""1"",""3087""
","""event"",""trial"",""time""
""fullscreenenter"",""1"",""4171""
","
","","","433","","","23","3710","1059","&#9776;","elianto","#3366ff99"," "," ","1","0","[1284]","1","0","1","","","","","","","",""
"pit-trial","29","373023","0.0-2.0-8.1-4.1","battery-v0.2","","""event"",""trial"",""time""
""blur"",""1"",""1637""
""focus"",""1"",""3086""
""focus"",""1"",""3087""
""fullscreenenter"",""1"",""4171""
","""event"",""trial"",""time""
""blur"",""1"",""1637""
","""event"",""trial"",""time""
""focus"",""1"",""3086""
""focus"",""1"",""3087""
","""event"",""trial"",""time""
""fullscreenenter"",""1"",""4171""
","
","","","506.0000000000582","","","23","3710","1059","&#9776;","elianto","#3366ff99"," "," ","1","+10","[1357.0000000000582]","1","0","1","","","","","","","",""
"pit-trial","30","376390","0.0-2.0-8.2-0.2","battery-v0.2","","""event"",""trial"",""time""
""blur"",""1"",""1637""
""focus"",""1"",""3086""
""focus"",""1"",""3087""
""fullscreenenter"",""1"",""4171""
","""event"",""trial"",""time""
""blur"",""1"",""1637""
","""event"",""trial"",""time""
""focus"",""1"",""3086""
""focus"",""1"",""3087""
","""event"",""trial"",""time""
""fullscreenenter"",""1"",""4171""
","
","","","513","","","23","3710","1059","&#9776;","elianto","#3366ff99"," "," ","1","+10","[1364]","1","0","1","","","","","","","",""
"pit-trial","31","380311","0.0-2.0-8.2-1.2","battery-v0.2","","""event"",""trial"",""time""
""blur"",""1"",""1637""
""focus"",""1"",""3086""
""focus"",""1"",""3087""
""fullscreenenter"",""1"",""4171""
","""event"",""trial"",""time""
""blur"",""1"",""1637""
","""event"",""trial"",""time""
""focus"",""1"",""3086""
""focus"",""1"",""3087""
","""event"",""trial"",""time""
""fullscreenenter"",""1"",""4171""
","
","","","1066.9999999999418","","","23","3710","1059","&#9776;","elianto","#3366ff99"," "," ","1","+10","[1917.9999999999418]","1","0","1","","","","","","","",""
"pit-trial","32","385166","0.0-2.0-8.2-2.2","battery-v0.2","","""event"",""trial"",""time""
""blur"",""1"",""1637""
""focus"",""1"",""3086""
""focus"",""1"",""3087""
""fullscreenenter"",""1"",""4171""
","""event"",""trial"",""time""
""blur"",""1"",""1637""
","""event"",""trial"",""time""
""focus"",""1"",""3086""
""focus"",""1"",""3087""
","""event"",""trial"",""time""
""fullscreenenter"",""1"",""4171""
","
","","","-1","","","23","3710","1059","&#9776;","elianto","#3366ff99"," ","-1","0","0","[]","0","0","1","","","","","","","",""
"pit-trial","33","388792","0.0-2.0-8.2-3.2","battery-v0.2","","""event"",""trial"",""time""
""blur"",""1"",""1637""
""focus"",""1"",""3086""
""focus"",""1"",""3087""
""fullscreenenter"",""1"",""4171""
","""event"",""trial"",""time""
""blur"",""1"",""1637""
","""event"",""trial"",""time""
""focus"",""1"",""3086""
""focus"",""1"",""3087""
","""event"",""trial"",""time""
""fullscreenenter"",""1"",""4171""
","
","","","771","","","23","3710","1059","&#9776;","elianto","#3366ff99"," "," ","1","0","[1622]","1","0","1","","","","","","","",""
"pit-trial","34","392432","0.0-2.0-8.2-4.2","battery-v0.2","","""event"",""trial"",""time""
""blur"",""1"",""1637""
""focus"",""1"",""3086""
""focus"",""1"",""3087""
""fullscreenenter"",""1"",""4171""
","""event"",""trial"",""time""
""blur"",""1"",""1637""
","""event"",""trial"",""time""
""focus"",""1"",""3086""
""focus"",""1"",""3087""
","""event"",""trial"",""time""
""fullscreenenter"",""1"",""4171""
","
","","","786","","","23","3710","1059","&#9776;","elianto","#3366ff99"," "," ","1","+10","[1636]","1","0","1","","","","","","","",""
"call-function","35","392434","0.0-2.0-9.0","battery-v0.2","","""event"",""trial"",""time""
""blur"",""1"",""1637""
""focus"",""1"",""3086""
""focus"",""1"",""3087""
""fullscreenenter"",""1"",""4171""
","""event"",""trial"",""time""
""blur"",""1"",""1637""
","""event"",""trial"",""time""
""focus"",""1"",""3086""
""focus"",""1"",""3087""
","""event"",""trial"",""time""
""fullscreenenter"",""1"",""4171""
","
","","","","","","","","","","","","","","","","","","","","","","","","","","",""
"pit-instructions","36","440842","0.0-2.0-10.0","battery-v0.2","","""event"",""trial"",""time""
""blur"",""1"",""1637""
""focus"",""1"",""3086""
""focus"",""1"",""3087""
""fullscreenenter"",""1"",""4171""
","""event"",""trial"",""time""
""blur"",""1"",""1637""
","""event"",""trial"",""time""
""focus"",""1"",""3086""
""focus"",""1"",""3087""
","""event"",""trial"",""time""
""fullscreenenter"",""1"",""4171""
","
","","[{""page_index"":0,""viewing_time"":8126},{""page_index"":1,""viewing_time"":11005},{""page_index"":2,""viewing_time"":12920.000000000058},{""page_index"":3,""viewing_time"":9335.999999999942},{""page_index"":4,""viewing_time"":7018}]","48406","","","","","","","","","","","","","","","","","","","","","","","",""
"pit-trial","37","445696","0.0-2.0-11.0-0.0","battery-v0.2","","""event"",""trial"",""time""
""blur"",""1"",""1637""
""focus"",""1"",""3086""
""focus"",""1"",""3087""
""fullscreenenter"",""1"",""4171""
","""event"",""trial"",""time""
""blur"",""1"",""1637""
","""event"",""trial"",""time""
""focus"",""1"",""3086""
""focus"",""1"",""3087""
","""event"",""trial"",""time""
""fullscreenenter"",""1"",""4171""
","
","","","-1","","","23","3710","1059","&#9761;","elianto","#3366ff99","-1","-1","1","+10","[]","0","0","2","","","","","","","",""
"pit-trial","38","449409","0.0-2.0-11.0-1.0","battery-v0.2","","""event"",""trial"",""time""
""blur"",""1"",""1637""
""focus"",""1"",""3086""
""focus"",""1"",""3087""
""fullscreenenter"",""1"",""4171""
","""event"",""trial"",""time""
""blur"",""1"",""1637""
","""event"",""trial"",""time""
""focus"",""1"",""3086""
""focus"",""1"",""3087""
","""event"",""trial"",""time""
""fullscreenenter"",""1"",""4171""
","
","","","858","","","23","3710","1059","&#9761;","elianto","#3366ff99","-1"," ","0","0","[1709]","1","0","2","","","","","","","",""
"pit-trial","39","454263","0.0-2.0-11.0-2.0","battery-v0.2","","""event"",""trial"",""time""
""blur"",""1"",""1637""
""focus"",""1"",""3086""
""focus"",""1"",""3087""
""fullscreenenter"",""1"",""4171""
","""event"",""trial"",""time""
""blur"",""1"",""1637""
","""event"",""trial"",""time""
""focus"",""1"",""3086""
""focus"",""1"",""3087""
","""event"",""trial"",""time""
""fullscreenenter"",""1"",""4171""
","
","","","-1","","","23","3710","1059","&#9761;","elianto","#3366ff99","-1","-1","1","+10","[]","0","0","2","","","","","","","",""
"pit-trial","40","459118","0.0-2.0-11.0-3.0","battery-v0.2","","""event"",""trial"",""time""
""blur"",""1"",""1637""
""focus"",""1"",""3086""
""focus"",""1"",""3087""
""fullscreenenter"",""1"",""4171""
","""event"",""trial"",""time""
""blur"",""1"",""1637""
","""event"",""trial"",""time""
""focus"",""1"",""3086""
""focus"",""1"",""3087""
","""event"",""trial"",""time""
""fullscreenenter"",""1"",""4171""
","
","","","-1","","","23","3710","1059","&#9761;","elianto","#3366ff99","-1","-1","1","0","[]","0","0","2","","","","","","","",""
"pit-trial","41","462538","0.0-2.0-11.0-4.0","battery-v0.2","","""event"",""trial"",""time""
""blur"",""1"",""1637""
""focus"",""1"",""3086""
""focus"",""1"",""3087""
""fullscreenenter"",""1"",""4171""
","""event"",""trial"",""time""
""blur"",""1"",""1637""
","""event"",""trial"",""time""
""focus"",""1"",""3086""
""focus"",""1"",""3087""
","""event"",""trial"",""time""
""fullscreenenter"",""1"",""4171""
","
","","","565","","","23","3710","1059","&#9761;","elianto","#3366ff99","-1"," ","0","0","[1416]","1","0","2","","","","","","","",""
"pit-trial","42","465794","0.0-2.0-11.1-0.1","battery-v0.2","","""event"",""trial"",""time""
""blur"",""1"",""1637""
""focus"",""1"",""3086""
""focus"",""1"",""3087""
""fullscreenenter"",""1"",""4171""
","""event"",""trial"",""time""
""blur"",""1"",""1637""
","""event"",""trial"",""time""
""focus"",""1"",""3086""
""focus"",""1"",""3087""
","""event"",""trial"",""time""
""fullscreenenter"",""1"",""4171""
","
","","","400","","","23","3710","1059","&#9761;","elianto","#3366ff99","-1"," ","0","0","[1251]","1","0","2","","","","","","","",""
"pit-trial","43","469185","0.0-2.0-11.1-1.1","battery-v0.2","","""event"",""trial"",""time""
""blur"",""1"",""1637""
""focus"",""1"",""3086""
""focus"",""1"",""3087""
""fullscreenenter"",""1"",""4171""
","""event"",""trial"",""time""
""blur"",""1"",""1637""
","""event"",""trial"",""time""
""focus"",""1"",""3086""
""focus"",""1"",""3087""
","""event"",""trial"",""time""
""fullscreenenter"",""1"",""4171""
","
","","","536","","","23","3710","1059","&#9761;","elianto","#3366ff99","-1"," ","0","0","[1388]","1","0","2","","","","","","","",""
"pit-trial","44","474040","0.0-2.0-11.1-2.1","battery-v0.2","","""event"",""trial"",""time""
""blur"",""1"",""1637""
""focus"",""1"",""3086""
""focus"",""1"",""3087""
""fullscreenenter"",""1"",""4171""
","""event"",""trial"",""time""
""blur"",""1"",""1637""
","""event"",""trial"",""time""
""focus"",""1"",""3086""
""focus"",""1"",""3087""
","""event"",""trial"",""time""
""fullscreenenter"",""1"",""4171""
","
","","","-1","","","23","3710","1059","&#9761;","elianto","#3366ff99","-1","-1","1","+10","[]","0","0","2","","","","","","","",""
"pit-trial","45","478895","0.0-2.0-11.1-3.1","battery-v0.2","","""event"",""trial"",""time""
""blur"",""1"",""1637""
""focus"",""1"",""3086""
""focus"",""1"",""3087""
""fullscreenenter"",""1"",""4171""
","""event"",""trial"",""time""
""blur"",""1"",""1637""
","""event"",""trial"",""time""
""focus"",""1"",""3086""
""focus"",""1"",""3087""
","""event"",""trial"",""time""
""fullscreenenter"",""1"",""4171""
","
","","","-1","","","23","3710","1059","&#9761;","elianto","#3366ff99","-1","-1","1","0","[]","0","0","2","","","","","","","",""
"pit-trial","46","482290","0.0-2.0-11.1-4.1","battery-v0.2","","""event"",""trial"",""time""
""blur"",""1"",""1637""
""focus"",""1"",""3086""
""focus"",""1"",""3087""
""fullscreenenter"",""1"",""4171""
","""event"",""trial"",""time""
""blur"",""1"",""1637""
","""event"",""trial"",""time""
""focus"",""1"",""3086""
""focus"",""1"",""3087""
","""event"",""trial"",""time""
""fullscreenenter"",""1"",""4171""
","
","","","542","","","23","3710","1059","&#9761;","elianto","#3366ff99","-1"," ","0","0","[1392]","1","0","2","","","","","","","",""
"pit-trial","47","487144","0.0-2.0-11.2-0.2","battery-v0.2","","""event"",""trial"",""time""
""blur"",""1"",""1637""
""focus"",""1"",""3086""
""focus"",""1"",""3087""
""fullscreenenter"",""1"",""4171""
","""event"",""trial"",""time""
""blur"",""1"",""1637""
","""event"",""trial"",""time""
""focus"",""1"",""3086""
""focus"",""1"",""3087""
","""event"",""trial"",""time""
""fullscreenenter"",""1"",""4171""
","
","","","-1","","","23","3710","1059","&#9761;","elianto","#3366ff99","-1","-1","1","+10","[]","0","0","2","","","","","","","",""
"pit-trial","48","491998","0.0-2.0-11.2-1.2","battery-v0.2","","""event"",""trial"",""time""
""blur"",""1"",""1637""
""focus"",""1"",""3086""
""focus"",""1"",""3087""
""fullscreenenter"",""1"",""4171""
","""event"",""trial"",""time""
""blur"",""1"",""1637""
","""event"",""trial"",""time""
""focus"",""1"",""3086""
""focus"",""1"",""3087""
","""event"",""trial"",""time""
""fullscreenenter"",""1"",""4171""
","
","","","-1","","","23","3710","1059","&#9761;","elianto","#3366ff99","-1","-1","1","+10","[]","0","0","2","","","","","","","",""
"pit-trial","49","496853","0.0-2.0-11.2-2.2","battery-v0.2","","""event"",""trial"",""time""
""blur"",""1"",""1637""
""focus"",""1"",""3086""
""focus"",""1"",""3087""
""fullscreenenter"",""1"",""4171""
","""event"",""trial"",""time""
""blur"",""1"",""1637""
","""event"",""trial"",""time""
""focus"",""1"",""3086""
""focus"",""1"",""3087""
","""event"",""trial"",""time""
""fullscreenenter"",""1"",""4171""
","
","","","-1","","","23","3710","1059","&#9761;","elianto","#3366ff99","-1","-1","1","+10","[]","0","0","2","","","","","","","",""
"pit-trial","50","501122","0.0-2.0-11.2-3.2","battery-v0.2","","""event"",""trial"",""time""
""blur"",""1"",""1637""
""focus"",""1"",""3086""
""focus"",""1"",""3087""
""fullscreenenter"",""1"",""4171""
","""event"",""trial"",""time""
""blur"",""1"",""1637""
","""event"",""trial"",""time""
""focus"",""1"",""3086""
""focus"",""1"",""3087""
","""event"",""trial"",""time""
""fullscreenenter"",""1"",""4171""
","
","","","1415.0000000000582","","","23","3710","1059","&#9761;","elianto","#3366ff99","-1"," ","0","+10","[2266.000000000058]","1","0","2","","","","","","","",""
"pit-trial","51","505977","0.0-2.0-11.2-4.2","battery-v0.2","","""event"",""trial"",""time""
""blur"",""1"",""1637""
""focus"",""1"",""3086""
""focus"",""1"",""3087""
""fullscreenenter"",""1"",""4171""
","""event"",""trial"",""time""
""blur"",""1"",""1637""
","""event"",""trial"",""time""
""focus"",""1"",""3086""
""focus"",""1"",""3087""
","""event"",""trial"",""time""
""fullscreenenter"",""1"",""4171""
","
","","","-1","","","23","3710","1059","&#9761;","elianto","#3366ff99","-1","-1","1","+10","[]","0","0","2","","","","","","","",""
"pit-trial","52","510832","0.0-2.0-11.3-0.3","battery-v0.2","","""event"",""trial"",""time""
""blur"",""1"",""1637""
""focus"",""1"",""3086""
""focus"",""1"",""3087""
""fullscreenenter"",""1"",""4171""
","""event"",""trial"",""time""
""blur"",""1"",""1637""
","""event"",""trial"",""time""
""focus"",""1"",""3086""
""focus"",""1"",""3087""
","""event"",""trial"",""time""
""fullscreenenter"",""1"",""4171""
","
","","","-1","","","23","3710","1059","&#9761;","elianto","#3366ff99","-1","-1","1","+10","[3158]","1","0","2","","","","","","","",""
"pit-trial","53","515686","0.0-2.0-11.3-1.3","battery-v0.2","","""event"",""trial"",""time""
""blur"",""1"",""1637""
""focus"",""1"",""3086""
""focus"",""1"",""3087""
""fullscreenenter"",""1"",""4171""
","""event"",""trial"",""time""
""blur"",""1"",""1637""
","""event"",""trial"",""time""
""focus"",""1"",""3086""
""focus"",""1"",""3087""
","""event"",""trial"",""time""
""fullscreenenter"",""1"",""4171""
","
","","","-1","","","23","3710","1059","&#9761;","elianto","#3366ff99","-1","-1","1","+10","[]","0","0","2","","","","","","","",""
"pit-trial","54","520541","0.0-2.0-11.3-2.3","battery-v0.2","","""event"",""trial"",""time""
""blur"",""1"",""1637""
""focus"",""1"",""3086""
""focus"",""1"",""3087""
""fullscreenenter"",""1"",""4171""
","""event"",""trial"",""time""
""blur"",""1"",""1637""
","""event"",""trial"",""time""
""focus"",""1"",""3086""
""focus"",""1"",""3087""
","""event"",""trial"",""time""
""fullscreenenter"",""1"",""4171""
","
","","","-1","","","23","3710","1059","&#9761;","elianto","#3366ff99","-1","-1","1","+10","[]","0","0","2","","","","","","","",""
"pit-trial","55","525395","0.0-2.0-11.3-3.3","battery-v0.2","","""event"",""trial"",""time""
""blur"",""1"",""1637""
""focus"",""1"",""3086""
""focus"",""1"",""3087""
""fullscreenenter"",""1"",""4171""
","""event"",""trial"",""time""
""blur"",""1"",""1637""
","""event"",""trial"",""time""
""focus"",""1"",""3086""
""focus"",""1"",""3087""
","""event"",""trial"",""time""
""fullscreenenter"",""1"",""4171""
","
","","","-1","","","23","3710","1059","&#9761;","elianto","#3366ff99","-1","-1","1","0","[]","0","0","2","","","","","","","",""
"pit-trial","56","530250","0.0-2.0-11.3-4.3","battery-v0.2","","""event"",""trial"",""time""
""blur"",""1"",""1637""
""focus"",""1"",""3086""
""focus"",""1"",""3087""
""fullscreenenter"",""1"",""4171""
","""event"",""trial"",""time""
""blur"",""1"",""1637""
","""event"",""trial"",""time""
""focus"",""1"",""3086""
""focus"",""1"",""3087""
","""event"",""trial"",""time""
""fullscreenenter"",""1"",""4171""
","
","","","-1","","","23","3710","1059","&#9761;","elianto","#3366ff99","-1","-1","1","+10","[]","0","0","2","","","","","","","",""
"call-function","57","530252","0.0-2.0-12.0","battery-v0.2","","""event"",""trial"",""time""
""blur"",""1"",""1637""
""focus"",""1"",""3086""
""focus"",""1"",""3087""
""fullscreenenter"",""1"",""4171""
","""event"",""trial"",""time""
""blur"",""1"",""1637""
","""event"",""trial"",""time""
""focus"",""1"",""3086""
""focus"",""1"",""3087""
","""event"",""trial"",""time""
""fullscreenenter"",""1"",""4171""
","
","","","","","","","","","","","","","","","","","","","","","","","","","","",""
"pit-instructions","58","587952","0.0-2.0-13.0","battery-v0.2","","""event"",""trial"",""time""
""blur"",""1"",""1637""
""focus"",""1"",""3086""
""focus"",""1"",""3087""
""fullscreenenter"",""1"",""4171""
","""event"",""trial"",""time""
""blur"",""1"",""1637""
","""event"",""trial"",""time""
""focus"",""1"",""3086""
""focus"",""1"",""3087""
","""event"",""trial"",""time""
""fullscreenenter"",""1"",""4171""
","
","","[{""page_index"":0,""viewing_time"":10652.999999999884},{""page_index"":1,""viewing_time"":18570},{""page_index"":2,""viewing_time"":9504},{""page_index"":3,""viewing_time"":13219},{""page_index"":4,""viewing_time"":5752}]","57697.99999999988","","","","","","","","","","","","","","","","","","","","","","","",""
"pit-trial","59","592807","0.0-2.0-14.0-0.0","battery-v0.2","","""event"",""trial"",""time""
""blur"",""1"",""1637""
""focus"",""1"",""3086""
""focus"",""1"",""3087""
""fullscreenenter"",""1"",""4171""
","""event"",""trial"",""time""
""blur"",""1"",""1637""
","""event"",""trial"",""time""
""focus"",""1"",""3086""
""focus"",""1"",""3087""
","""event"",""trial"",""time""
""fullscreenenter"",""1"",""4171""
","
","","","-1","","","23","3710","1059","&#9826;","elianto","#f73b6a7A","-1","-1","1","0","[]","0","0","3","","","","","","","",""
"pit-trial","60","596182","0.0-2.0-14.0-1.0","battery-v0.2","","""event"",""trial"",""time""
""blur"",""1"",""1637""
""focus"",""1"",""3086""
""focus"",""1"",""3087""
""fullscreenenter"",""1"",""4171""
","""event"",""trial"",""time""
""blur"",""1"",""1637""
","""event"",""trial"",""time""
""focus"",""1"",""3086""
""focus"",""1"",""3087""
","""event"",""trial"",""time""
""fullscreenenter"",""1"",""4171""
","
","","","520","","","23","3710","1059","&#9826;","elianto","#f73b6a7A","-1"," ","0","-10","[1371]","1","0","3","","","","","","","",""
"pit-trial","61","599677","0.0-2.0-14.0-2.0","battery-v0.2","","""event"",""trial"",""time""
""blur"",""1"",""1637""
""focus"",""1"",""3086""
""focus"",""1"",""3087""
""fullscreenenter"",""1"",""4171""
","""event"",""trial"",""time""
""blur"",""1"",""1637""
","""event"",""trial"",""time""
""focus"",""1"",""3086""
""focus"",""1"",""3087""
","""event"",""trial"",""time""
""fullscreenenter"",""1"",""4171""
","
","","","641.9999999998836","","","23","3710","1059","&#9826;","elianto","#f73b6a7A","-1"," ","0","-10","[1492]","1","0","3","","","","","","","",""
"pit-trial","62","604531","0.0-2.0-14.0-3.0","battery-v0.2","","""event"",""trial"",""time""
""blur"",""1"",""1637""
""focus"",""1"",""3086""
""focus"",""1"",""3087""
""fullscreenenter"",""1"",""4171""
","""event"",""trial"",""time""
""blur"",""1"",""1637""
","""event"",""trial"",""time""
""focus"",""1"",""3086""
""focus"",""1"",""3087""
","""event"",""trial"",""time""
""fullscreenenter"",""1"",""4171""
","
","","","-1","","","23","3710","1059","&#9826;","elianto","#f73b6a7A","-1","-1","1","-10","[]","0","0","3","","","","","","","",""
"pit-trial","63","608326","0.0-2.0-14.0-4.0","battery-v0.2","","""event"",""trial"",""time""
""blur"",""1"",""1637""
""focus"",""1"",""3086""
""focus"",""1"",""3087""
""fullscreenenter"",""1"",""4171""
","""event"",""trial"",""time""
""blur"",""1"",""1637""
","""event"",""trial"",""time""
""focus"",""1"",""3086""
""focus"",""1"",""3087""
","""event"",""trial"",""time""
""fullscreenenter"",""1"",""4171""
","
","","","940","","","23","3710","1059","&#9826;","elianto","#f73b6a7A","-1"," ","0","-10","[1791]","1","0","3","","","","","","","",""
"pit-trial","64","613181","0.0-2.0-14.1-0.1","battery-v0.2","","""event"",""trial"",""time""
""blur"",""1"",""1637""
""focus"",""1"",""3086""
""focus"",""1"",""3087""
""fullscreenenter"",""1"",""4171""
","""event"",""trial"",""time""
""blur"",""1"",""1637""
","""event"",""trial"",""time""
""focus"",""1"",""3086""
""focus"",""1"",""3087""
","""event"",""trial"",""time""
""fullscreenenter"",""1"",""4171""
","
","","","-1","","","23","3710","1059","&#9826;","elianto","#f73b6a7A","-1","-1","1","0","[]","0","0","3","","","","","","","",""
"pit-trial","65","618036","0.0-2.0-14.1-1.1","battery-v0.2","","""event"",""trial"",""time""
""blur"",""1"",""1637""
""focus"",""1"",""3086""
""focus"",""1"",""3087""
""fullscreenenter"",""1"",""4171""
","""event"",""trial"",""time""
""blur"",""1"",""1637""
","""event"",""trial"",""time""
""focus"",""1"",""3086""
""focus"",""1"",""3087""
","""event"",""trial"",""time""
""fullscreenenter"",""1"",""4171""
","
","","","-1","","","23","3710","1059","&#9826;","elianto","#f73b6a7A","-1","-1","1","0","[]","0","0","3","","","","","","","",""
"pit-trial","66","622890","0.0-2.0-14.1-2.1","battery-v0.2","","""event"",""trial"",""time""
""blur"",""1"",""1637""
""focus"",""1"",""3086""
""focus"",""1"",""3087""
""fullscreenenter"",""1"",""4171""
","""event"",""trial"",""time""
""blur"",""1"",""1637""
","""event"",""trial"",""time""
""focus"",""1"",""3086""
""focus"",""1"",""3087""
","""event"",""trial"",""time""
""fullscreenenter"",""1"",""4171""
","
","","","-1","","","23","3710","1059","&#9826;","elianto","#f73b6a7A","-1","-1","1","0","[]","0","0","3","","","","","","","",""
"pit-trial","67","627745","0.0-2.0-14.1-3.1","battery-v0.2","","""event"",""trial"",""time""
""blur"",""1"",""1637""
""focus"",""1"",""3086""
""focus"",""1"",""3087""
""fullscreenenter"",""1"",""4171""
","""event"",""trial"",""time""
""blur"",""1"",""1637""
","""event"",""trial"",""time""
""focus"",""1"",""3086""
""focus"",""1"",""3087""
","""event"",""trial"",""time""
""fullscreenenter"",""1"",""4171""
","
","","","-1","","","23","3710","1059","&#9826;","elianto","#f73b6a7A","-1","-1","1","-10","[]","0","0","3","","","","","","","",""
"pit-trial","68","631062","0.0-2.0-14.1-4.1","battery-v0.2","","""event"",""trial"",""time""
""blur"",""1"",""1637""
""focus"",""1"",""3086""
""focus"",""1"",""3087""
""fullscreenenter"",""1"",""4171""
","""event"",""trial"",""time""
""blur"",""1"",""1637""
","""event"",""trial"",""time""
""focus"",""1"",""3086""
""focus"",""1"",""3087""
","""event"",""trial"",""time""
""fullscreenenter"",""1"",""4171""
","
","","","464","","","23","3710","1059","&#9826;","elianto","#f73b6a7A","-1"," ","0","-10","[1314]","1","0","3","","","","","","","",""
"pit-trial","69","635111","0.0-2.0-14.2-0.2","battery-v0.2","","""event"",""trial"",""time""
""blur"",""1"",""1637""
""focus"",""1"",""3086""
""focus"",""1"",""3087""
""fullscreenenter"",""1"",""4171""
","""event"",""trial"",""time""
""blur"",""1"",""1637""
","""event"",""trial"",""time""
""focus"",""1"",""3086""
""focus"",""1"",""3087""
","""event"",""trial"",""time""
""fullscreenenter"",""1"",""4171""
","
","","","1194","","","23","3710","1059","&#9826;","elianto","#f73b6a7A","-1"," ","0","-10","[2045]","1","0","3","","","","","","","",""
"pit-trial","70","639965","0.0-2.0-14.2-1.2","battery-v0.2","","""event"",""trial"",""time""
""blur"",""1"",""1637""
""focus"",""1"",""3086""
""focus"",""1"",""3087""
""fullscreenenter"",""1"",""4171""
","""event"",""trial"",""time""
""blur"",""1"",""1637""
","""event"",""trial"",""time""
""focus"",""1"",""3086""
""focus"",""1"",""3087""
","""event"",""trial"",""time""
""fullscreenenter"",""1"",""4171""
","
","","","-1","","","23","3710","1059","&#9826;","elianto","#f73b6a7A","-1","-1","1","0","[]","0","0","3","","","","","","","",""
"pit-trial","71","644819","0.0-2.0-14.2-2.2","battery-v0.2","","""event"",""trial"",""time""
""blur"",""1"",""1637""
""focus"",""1"",""3086""
""focus"",""1"",""3087""
""fullscreenenter"",""1"",""4171""
","""event"",""trial"",""time""
""blur"",""1"",""1637""
","""event"",""trial"",""time""
""focus"",""1"",""3086""
""focus"",""1"",""3087""
","""event"",""trial"",""time""
""fullscreenenter"",""1"",""4171""
","
","","","-1","","","23","3710","1059","&#9826;","elianto","#f73b6a7A","-1","-1","1","0","[]","0","0","3","","","","","","","",""
"pit-trial","72","649674","0.0-2.0-14.2-3.2","battery-v0.2","","""event"",""trial"",""time""
""blur"",""1"",""1637""
""focus"",""1"",""3086""
""focus"",""1"",""3087""
""fullscreenenter"",""1"",""4171""
","""event"",""trial"",""time""
""blur"",""1"",""1637""
","""event"",""trial"",""time""
""focus"",""1"",""3086""
""focus"",""1"",""3087""
","""event"",""trial"",""time""
""fullscreenenter"",""1"",""4171""
","
","","","-1","","","23","3710","1059","&#9826;","elianto","#f73b6a7A","-1","-1","1","-10","[]","0","0","3","","","","","","","",""
"pit-trial","73","653183","0.0-2.0-14.2-4.2","battery-v0.2","","""event"",""trial"",""time""
""blur"",""1"",""1637""
""focus"",""1"",""3086""
""focus"",""1"",""3087""
""fullscreenenter"",""1"",""4171""
","""event"",""trial"",""time""
""blur"",""1"",""1637""
","""event"",""trial"",""time""
""focus"",""1"",""3086""
""focus"",""1"",""3087""
","""event"",""trial"",""time""
""fullscreenenter"",""1"",""4171""
","
","","","656","","","23","3710","1059","&#9826;","elianto","#f73b6a7A","-1"," ","0","-10","[1507]","1","0","3","","","","","","","",""
"pit-trial","74","658038","0.0-2.0-14.3-0.3","battery-v0.2","","""event"",""trial"",""time""
""blur"",""1"",""1637""
""focus"",""1"",""3086""
""focus"",""1"",""3087""
""fullscreenenter"",""1"",""4171""
","""event"",""trial"",""time""
""blur"",""1"",""1637""
","""event"",""trial"",""time""
""focus"",""1"",""3086""
""focus"",""1"",""3087""
","""event"",""trial"",""time""
""fullscreenenter"",""1"",""4171""
","
","","","-1","","","23","3710","1059","&#9826;","elianto","#f73b6a7A","-1","-1","1","0","[]","0","0","3","","","","","","","",""
"pit-trial","75","661464","0.0-2.0-14.3-1.3","battery-v0.2","","""event"",""trial"",""time""
""blur"",""1"",""1637""
""focus"",""1"",""3086""
""focus"",""1"",""3087""
""fullscreenenter"",""1"",""4171""
","""event"",""trial"",""time""
""blur"",""1"",""1637""
","""event"",""trial"",""time""
""focus"",""1"",""3086""
""focus"",""1"",""3087""
","""event"",""trial"",""time""
""fullscreenenter"",""1"",""4171""
","
","","","572","","","23","3710","1059","&#9826;","elianto","#f73b6a7A","-1"," ","0","-10","[1422]","1","0","3","","","","","","","",""
"pit-trial","76","666319","0.0-2.0-14.3-2.3","battery-v0.2","","""event"",""trial"",""time""
""blur"",""1"",""1637""
""focus"",""1"",""3086""
""focus"",""1"",""3087""
""fullscreenenter"",""1"",""4171""
","""event"",""trial"",""time""
""blur"",""1"",""1637""
","""event"",""trial"",""time""
""focus"",""1"",""3086""
""focus"",""1"",""3087""
","""event"",""trial"",""time""
""fullscreenenter"",""1"",""4171""
","
","","","-1","","","23","3710","1059","&#9826;","elianto","#f73b6a7A","-1","-1","1","0","[]","0","0","3","","","","","","","",""
"pit-trial","77","671173","0.0-2.0-14.3-3.3","battery-v0.2","","""event"",""trial"",""time""
""blur"",""1"",""1637""
""focus"",""1"",""3086""
""focus"",""1"",""3087""
""fullscreenenter"",""1"",""4171""
","""event"",""trial"",""time""
""blur"",""1"",""1637""
","""event"",""trial"",""time""
""focus"",""1"",""3086""
""focus"",""1"",""3087""
","""event"",""trial"",""time""
""fullscreenenter"",""1"",""4171""
","
","","","-1","","","23","3710","1059","&#9826;","elianto","#f73b6a7A","-1","-1","1","-10","[]","0","0","3","","","","","","","",""
"pit-trial","78","676028","0.0-2.0-14.3-4.3","battery-v0.2","","""event"",""trial"",""time""
""blur"",""1"",""1637""
""focus"",""1"",""3086""
""focus"",""1"",""3087""
""fullscreenenter"",""1"",""4171""
","""event"",""trial"",""time""
""blur"",""1"",""1637""
","""event"",""trial"",""time""
""focus"",""1"",""3086""
""focus"",""1"",""3087""
","""event"",""trial"",""time""
""fullscreenenter"",""1"",""4171""
","
","","","-1","","","23","3710","1059","&#9826;","elianto","#f73b6a7A","-1","-1","1","0","[]","0","0","3","","","","","","","",""
"call-function","79","676029","0.0-2.0-15.0","battery-v0.2","","""event"",""trial"",""time""
""blur"",""1"",""1637""
""focus"",""1"",""3086""
""focus"",""1"",""3087""
""fullscreenenter"",""1"",""4171""
","""event"",""trial"",""time""
""blur"",""1"",""1637""
","""event"",""trial"",""time""
""focus"",""1"",""3086""
""focus"",""1"",""3087""
","""event"",""trial"",""time""
""fullscreenenter"",""1"",""4171""
","
","","","","","","","","","","","","","","","","","","","","","","","","","","",""
"pit-instructions","80","707856","0.0-2.0-16.0","battery-v0.2","","""event"",""trial"",""time""
""blur"",""1"",""1637""
""focus"",""1"",""3086""
""focus"",""1"",""3087""
""fullscreenenter"",""1"",""4171""
","""event"",""trial"",""time""
""blur"",""1"",""1637""
","""event"",""trial"",""time""
""focus"",""1"",""3086""
""focus"",""1"",""3087""
","""event"",""trial"",""time""
""fullscreenenter"",""1"",""4171""
","
","","[{""page_index"":0,""viewing_time"":10370},{""page_index"":1,""viewing_time"":11236},{""page_index"":2,""viewing_time"":4667},{""page_index"":3,""viewing_time"":5552}]","31825","","","","","","","","","","","","","","","","","","","","","","","",""
"pit-trial","81","711881","0.0-2.0-17.0-0.0","battery-v0.2","","""event"",""trial"",""time""
""blur"",""1"",""1637""
""focus"",""1"",""3086""
""focus"",""1"",""3087""
""fullscreenenter"",""1"",""4171""
","""event"",""trial"",""time""
""blur"",""1"",""1637""
","""event"",""trial"",""time""
""focus"",""1"",""3086""
""focus"",""1"",""3087""
","""event"",""trial"",""time""
""fullscreenenter"",""1"",""4171""
","
","","","1171","","","23","3710","1059","&#9789;","elianto","#f73b6a7A"," "," ","1","0","[2021]","1","0","4","","","","","","","",""
"pit-trial","82","716735","0.0-2.0-17.0-1.0","battery-v0.2","","""event"",""trial"",""time""
""blur"",""1"",""1637""
""focus"",""1"",""3086""
""focus"",""1"",""3087""
""fullscreenenter"",""1"",""4171""
","""event"",""trial"",""time""
""blur"",""1"",""1637""
","""event"",""trial"",""time""
""focus"",""1"",""3086""
""focus"",""1"",""3087""
","""event"",""trial"",""time""
""fullscreenenter"",""1"",""4171""
","
","","","-1","","","23","3710","1059","&#9789;","elianto","#f73b6a7A"," ","-1","0","-10","[]","0","0","4","","","","","","","",""
"pit-trial","83","721591","0.0-2.0-17.0-2.0","battery-v0.2","","""event"",""trial"",""time""
""blur"",""1"",""1637""
""focus"",""1"",""3086""
""focus"",""1"",""3087""
""fullscreenenter"",""1"",""4171""
","""event"",""trial"",""time""
""blur"",""1"",""1637""
","""event"",""trial"",""time""
""focus"",""1"",""3086""
""focus"",""1"",""3087""
","""event"",""trial"",""time""
""fullscreenenter"",""1"",""4171""
","
","","","-1","","","23","3710","1059","&#9789;","elianto","#f73b6a7A"," ","-1","0","-10","[]","0","0","4","","","","","","","",""
"pit-trial","84","725241","0.0-2.0-17.0-3.0","battery-v0.2","","""event"",""trial"",""time""
""blur"",""1"",""1637""
""focus"",""1"",""3086""
""focus"",""1"",""3087""
""fullscreenenter"",""1"",""4171""
","""event"",""trial"",""time""
""blur"",""1"",""1637""
","""event"",""trial"",""time""
""focus"",""1"",""3086""
""focus"",""1"",""3087""
","""event"",""trial"",""time""
""fullscreenenter"",""1"",""4171""
","
","","","796","","","23","3710","1059","&#9789;","elianto","#f73b6a7A"," "," ","1","-10","[1647]","1","0","4","","","","","","","",""
"pit-trial","85","728546","0.0-2.0-17.0-4.0","battery-v0.2","","""event"",""trial"",""time""
""blur"",""1"",""1637""
""focus"",""1"",""3086""
""focus"",""1"",""3087""
""fullscreenenter"",""1"",""4171""
","""event"",""trial"",""time""
""blur"",""1"",""1637""
","""event"",""trial"",""time""
""focus"",""1"",""3086""
""focus"",""1"",""3087""
","""event"",""trial"",""time""
""fullscreenenter"",""1"",""4171""
","
","","","448","","","23","3710","1059","&#9789;","elianto","#f73b6a7A"," "," ","1","0","[1300]","1","0","4","","","","","","","",""
"pit-trial","86","731793","0.0-2.0-17.1-0.1","battery-v0.2","","""event"",""trial"",""time""
""blur"",""1"",""1637""
""focus"",""1"",""3086""
""focus"",""1"",""3087""
""fullscreenenter"",""1"",""4171""
","""event"",""trial"",""time""
""blur"",""1"",""1637""
","""event"",""trial"",""time""
""focus"",""1"",""3086""
""focus"",""1"",""3087""
","""event"",""trial"",""time""
""fullscreenenter"",""1"",""4171""
","
","","","393","","","23","3710","1059","&#9789;","elianto","#f73b6a7A"," "," ","1","0","[1244]","1","0","4","","","","","","","",""
"pit-trial","87","735169","0.0-2.0-17.1-1.1","battery-v0.2","","""event"",""trial"",""time""
""blur"",""1"",""1637""
""focus"",""1"",""3086""
""focus"",""1"",""3087""
""fullscreenenter"",""1"",""4171""
","""event"",""trial"",""time""
""blur"",""1"",""1637""
","""event"",""trial"",""time""
""focus"",""1"",""3086""
""focus"",""1"",""3087""
","""event"",""trial"",""time""
""fullscreenenter"",""1"",""4171""
","
","","","523","","","23","3710","1059","&#9789;","elianto","#f73b6a7A"," "," ","1","0","[1373]","1","0","4","","","","","","","",""
"pit-trial","88","740024","0.0-2.0-17.1-2.1","battery-v0.2","","""event"",""trial"",""time""
""blur"",""1"",""1637""
""focus"",""1"",""3086""
""focus"",""1"",""3087""
""fullscreenenter"",""1"",""4171""
","""event"",""trial"",""time""
""blur"",""1"",""1637""
","""event"",""trial"",""time""
""focus"",""1"",""3086""
""focus"",""1"",""3087""
","""event"",""trial"",""time""
""fullscreenenter"",""1"",""4171""
","
","","","-1","","","23","3710","1059","&#9789;","elianto","#f73b6a7A"," ","-1","0","-10","[]","0","0","4","","","","","","","",""
"pit-trial","89","743330","0.0-2.0-17.1-3.1","battery-v0.2","","""event"",""trial"",""time""
""blur"",""1"",""1637""
""focus"",""1"",""3086""
""focus"",""1"",""3087""
""fullscreenenter"",""1"",""4171""
","""event"",""trial"",""time""
""blur"",""1"",""1637""
","""event"",""trial"",""time""
""focus"",""1"",""3086""
""focus"",""1"",""3087""
","""event"",""trial"",""time""
""fullscreenenter"",""1"",""4171""
","
","","","452","","","23","3710","1059","&#9789;","elianto","#f73b6a7A"," "," ","1","-10","[1302]","1","0","4","","","","","","","",""
"pit-trial","90","746356","0.0-2.0-17.1-4.1","battery-v0.2","","""event"",""trial"",""time""
""blur"",""1"",""1637""
""focus"",""1"",""3086""
""focus"",""1"",""3087""
""fullscreenenter"",""1"",""4171""
","""event"",""trial"",""time""
""blur"",""1"",""1637""
","""event"",""trial"",""time""
""focus"",""1"",""3086""
""focus"",""1"",""3087""
","""event"",""trial"",""time""
""fullscreenenter"",""1"",""4171""
","
","","","171","","","23","3710","1059","&#9789;","elianto","#f73b6a7A"," "," ","1","0","[1022]","1","0","4","","","","","","","",""
"pit-trial","91","749586","0.0-2.0-17.2-0.2","battery-v0.2","","""event"",""trial"",""time""
""blur"",""1"",""1637""
""focus"",""1"",""3086""
""focus"",""1"",""3087""
""fullscreenenter"",""1"",""4171""
","""event"",""trial"",""time""
""blur"",""1"",""1637""
","""event"",""trial"",""time""
""focus"",""1"",""3086""
""focus"",""1"",""3087""
","""event"",""trial"",""time""
""fullscreenenter"",""1"",""4171""
","
","","","375","","","23","3710","1059","&#9789;","elianto","#f73b6a7A"," "," ","1","0","[1226]","1","0","4","","","","","","","",""
"pit-trial","92","752802","0.0-2.0-17.2-1.2","battery-v0.2","","""event"",""trial"",""time""
""blur"",""1"",""1637""
""focus"",""1"",""3086""
""focus"",""1"",""3087""
""fullscreenenter"",""1"",""4171""
","""event"",""trial"",""time""
""blur"",""1"",""1637""
","""event"",""trial"",""time""
""focus"",""1"",""3086""
""focus"",""1"",""3087""
","""event"",""trial"",""time""
""fullscreenenter"",""1"",""4171""
","
","","","363","","","23","3710","1059","&#9789;","elianto","#f73b6a7A"," "," ","1","0","[1212]","1","0","4","","","","","","","",""
"pit-trial","93","755889","0.0-2.0-17.2-2.2","battery-v0.2","","""event"",""trial"",""time""
""blur"",""1"",""1637""
""focus"",""1"",""3086""
""focus"",""1"",""3087""
""fullscreenenter"",""1"",""4171""
","""event"",""trial"",""time""
""blur"",""1"",""1637""
","""event"",""trial"",""time""
""focus"",""1"",""3086""
""focus"",""1"",""3087""
","""event"",""trial"",""time""
""fullscreenenter"",""1"",""4171""
","
","","","234","","","23","3710","1059","&#9789;","elianto","#f73b6a7A"," "," ","1","0","[1084]","1","0","4","","","","","","","",""
"pit-trial","94","759057","0.0-2.0-17.2-3.2","battery-v0.2","","""event"",""trial"",""time""
""blur"",""1"",""1637""
""focus"",""1"",""3086""
""focus"",""1"",""3087""
""fullscreenenter"",""1"",""4171""
","""event"",""trial"",""time""
""blur"",""1"",""1637""
","""event"",""trial"",""time""
""focus"",""1"",""3086""
""focus"",""1"",""3087""
","""event"",""trial"",""time""
""fullscreenenter"",""1"",""4171""
","
","","","315","","","23","3710","1059","&#9789;","elianto","#f73b6a7A"," "," ","1","-10","[1165]","1","0","4","","","","","","","",""
"pit-trial","95","762234","0.0-2.0-17.2-4.2","battery-v0.2","","""event"",""trial"",""time""
""blur"",""1"",""1637""
""focus"",""1"",""3086""
""focus"",""1"",""3087""
""fullscreenenter"",""1"",""4171""
","""event"",""trial"",""time""
""blur"",""1"",""1637""
","""event"",""trial"",""time""
""focus"",""1"",""3086""
""focus"",""1"",""3087""
","""event"",""trial"",""time""
""fullscreenenter"",""1"",""4171""
","
","","","322","","","23","3710","1059","&#9789;","elianto","#f73b6a7A"," "," ","1","0","[1173]","1","0","4","","","","","","","",""
"pit-trial","96","765539","0.0-2.0-17.3-0.3","battery-v0.2","","""event"",""trial"",""time""
""blur"",""1"",""1637""
""focus"",""1"",""3086""
""focus"",""1"",""3087""
""fullscreenenter"",""1"",""4171""
","""event"",""trial"",""time""
""blur"",""1"",""1637""
","""event"",""trial"",""time""
""focus"",""1"",""3086""
""focus"",""1"",""3087""
","""event"",""trial"",""time""
""fullscreenenter"",""1"",""4171""
","
","","","451","","","23","3710","1059","&#9789;","elianto","#f73b6a7A"," "," ","1","0","[1300.9999999998836]","1","0","4","","","","","","","",""
"pit-trial","97","768691","0.0-2.0-17.3-1.3","battery-v0.2","","""event"",""trial"",""time""
""blur"",""1"",""1637""
""focus"",""1"",""3086""
""focus"",""1"",""3087""
""fullscreenenter"",""1"",""4171""
","""event"",""trial"",""time""
""blur"",""1"",""1637""
","""event"",""trial"",""time""
""focus"",""1"",""3086""
""focus"",""1"",""3087""
","""event"",""trial"",""time""
""fullscreenenter"",""1"",""4171""
","
","","","298","","","23","3710","1059","&#9789;","elianto","#f73b6a7A"," "," ","1","0","[1148]","1","0","4","","","","","","","",""
"pit-trial","98","771762","0.0-2.0-17.3-2.3","battery-v0.2","","""event"",""trial"",""time""
""blur"",""1"",""1637""
""focus"",""1"",""3086""
""focus"",""1"",""3087""
""fullscreenenter"",""1"",""4171""
","""event"",""trial"",""time""
""blur"",""1"",""1637""
","""event"",""trial"",""time""
""focus"",""1"",""3086""
""focus"",""1"",""3087""
","""event"",""trial"",""time""
""fullscreenenter"",""1"",""4171""
","
","","","218","","","23","3710","1059","&#9789;","elianto","#f73b6a7A"," "," ","1","0","[1068]","1","0","4","","","","","","","",""
"pit-trial","99","774850","0.0-2.0-17.3-3.3","battery-v0.2","","""event"",""trial"",""time""
""blur"",""1"",""1637""
""focus"",""1"",""3086""
""focus"",""1"",""3087""
""fullscreenenter"",""1"",""4171""
","""event"",""trial"",""time""
""blur"",""1"",""1637""
","""event"",""trial"",""time""
""focus"",""1"",""3086""
""focus"",""1"",""3087""
","""event"",""trial"",""time""
""fullscreenenter"",""1"",""4171""
","
","","","234","","","23","3710","1059","&#9789;","elianto","#f73b6a7A"," "," ","1","-10","[1085]","1","0","4","","","","","","","",""
"pit-trial","100","779705","0.0-2.0-17.3-4.3","battery-v0.2","","""event"",""trial"",""time""
""blur"",""1"",""1637""
""focus"",""1"",""3086""
""focus"",""1"",""3087""
""fullscreenenter"",""1"",""4171""
","""event"",""trial"",""time""
""blur"",""1"",""1637""
","""event"",""trial"",""time""
""focus"",""1"",""3086""
""focus"",""1"",""3087""
","""event"",""trial"",""time""
""fullscreenenter"",""1"",""4171""
","
","","","-1","","","23","3710","1059","&#9789;","elianto","#f73b6a7A"," ","-1","0","-10","[]","0","0","4","","","","","","","",""
"call-function","101","779707","0.0-2.0-18.0","battery-v0.2","","""event"",""trial"",""time""
""blur"",""1"",""1637""
""focus"",""1"",""3086""
""focus"",""1"",""3087""
""fullscreenenter"",""1"",""4171""
","""event"",""trial"",""time""
""blur"",""1"",""1637""
","""event"",""trial"",""time""
""focus"",""1"",""3086""
""focus"",""1"",""3087""
","""event"",""trial"",""time""
""fullscreenenter"",""1"",""4171""
","
","","","","","","","","","","","","","","","","","","","","","","","","","","",""
"pit-instructions","102","866285","0.0-2.0-19.0","battery-v0.2","","""event"",""trial"",""time""
""blur"",""1"",""1637""
""focus"",""1"",""3086""
""focus"",""1"",""3087""
""fullscreenenter"",""1"",""4171""
","""event"",""trial"",""time""
""blur"",""1"",""1637""
","""event"",""trial"",""time""
""focus"",""1"",""3086""
""focus"",""1"",""3087""
","""event"",""trial"",""time""
""fullscreenenter"",""1"",""4171""
","
","","[{""page_index"":0,""viewing_time"":7971.999999999884},{""page_index"":1,""viewing_time"":7485.000000000116},{""page_index"":2,""viewing_time"":14653.999999999884},{""page_index"":3,""viewing_time"":9487},{""page_index"":4,""viewing_time"":11119},{""page_index"":5,""viewing_time"":8835},{""page_index"":6,""viewing_time"":10770.000000000116},{""page_index"":7,""viewing_time"":12019.999999999884},{""page_index"":8,""viewing_time"":4233}]","86575.99999999988","","","","","","","","","","","","","","","","","","","","","","","",""
"pit-comprehension","103","871572","0.0-2.0-20.0-0.0","battery-v0.2","","""event"",""trial"",""time""
""blur"",""1"",""1637""
""focus"",""1"",""3086""
""focus"",""1"",""3087""
""fullscreenenter"",""1"",""4171""
","""event"",""trial"",""time""
""blur"",""1"",""1637""
","""event"",""trial"",""time""
""focus"",""1"",""3086""
""focus"",""1"",""3087""
","""event"",""trial"",""time""
""fullscreenenter"",""1"",""4171""
","
","","","5284","[""SPACE""]","0","23","3710","1059","","","","","","","","","","","","","","","","","","",""
"pit-instructions","104","876688","0.0-2.0-20.0-1.0","battery-v0.2","","""event"",""trial"",""time""
""blur"",""1"",""1637""
""focus"",""1"",""3086""
""focus"",""1"",""3087""
""fullscreenenter"",""1"",""4171""
","""event"",""trial"",""time""
""blur"",""1"",""1637""
","""event"",""trial"",""time""
""focus"",""1"",""3086""
""focus"",""1"",""3087""
","""event"",""trial"",""time""
""fullscreenenter"",""1"",""4171""
","
","","[{""page_index"":0,""viewing_time"":5070}]","5070","","","","","","","","","","","","","","","","","","","","","","","",""
"pit-comprehension","105","884658","0.0-2.0-21.0-0.0","battery-v0.2","","""event"",""trial"",""time""
""blur"",""1"",""1637""
""focus"",""1"",""3086""
""focus"",""1"",""3087""
""fullscreenenter"",""1"",""4171""
","""event"",""trial"",""time""
""blur"",""1"",""1637""
","""event"",""trial"",""time""
""focus"",""1"",""3086""
""focus"",""1"",""3087""
","""event"",""trial"",""time""
""fullscreenenter"",""1"",""4171""
","
","","","7966.999999999884","[""10""]","0","23","3710","1059","","","","","","","","","","","","","","","","","","",""
"pit-instructions","106","887991","0.0-2.0-21.0-1.0","battery-v0.2","","""event"",""trial"",""time""
""blur"",""1"",""1637""
""focus"",""1"",""3086""
""focus"",""1"",""3087""
""fullscreenenter"",""1"",""4171""
","""event"",""trial"",""time""
""blur"",""1"",""1637""
","""event"",""trial"",""time""
""focus"",""1"",""3086""
""focus"",""1"",""3087""
","""event"",""trial"",""time""
""fullscreenenter"",""1"",""4171""
","
","","[{""page_index"":0,""viewing_time"":3287}]","3287","","","","","","","","","","","","","","","","","","","","","","","",""
"pit-comprehension","107","895528","0.0-2.0-22.0-0.0","battery-v0.2","","""event"",""trial"",""time""
""blur"",""1"",""1637""
""focus"",""1"",""3086""
""focus"",""1"",""3087""
""fullscreenenter"",""1"",""4171""
","""event"",""trial"",""time""
""blur"",""1"",""1637""
","""event"",""trial"",""time""
""focus"",""1"",""3086""
""focus"",""1"",""3087""
","""event"",""trial"",""time""
""fullscreenenter"",""1"",""4171""
","
","","","7533.000000000116","[""0""]","0","23","3710","1059","","","","","","","","","","","","","","","","","","",""
"pit-instructions","108","898544","0.0-2.0-22.0-1.0","battery-v0.2","","""event"",""trial"",""time""
""blur"",""1"",""1637""
""focus"",""1"",""3086""
""focus"",""1"",""3087""
""fullscreenenter"",""1"",""4171""
","""event"",""trial"",""time""
""blur"",""1"",""1637""
","""event"",""trial"",""time""
""focus"",""1"",""3086""
""focus"",""1"",""3087""
","""event"",""trial"",""time""
""fullscreenenter"",""1"",""4171""
","
","","[{""page_index"":0,""viewing_time"":2964}]","2964","","","","","","","","","","","","","","","","","","","","","","","",""
"pit-comprehension","109","907631","0.0-2.0-23.0-0.0","battery-v0.2","","""event"",""trial"",""time""
""blur"",""1"",""1637""
""focus"",""1"",""3086""
""focus"",""1"",""3087""
""fullscreenenter"",""1"",""4171""
","""event"",""trial"",""time""
""blur"",""1"",""1637""
","""event"",""trial"",""time""
""focus"",""1"",""3086""
""focus"",""1"",""3087""
","""event"",""trial"",""time""
""fullscreenenter"",""1"",""4171""
","
","","","9084","[""True""]","0","23","3710","1059","","","","","","","","","","","","","","","","","","",""
"pit-instructions","110","912649","0.0-2.0-23.0-1.0","battery-v0.2","","""event"",""trial"",""time""
""blur"",""1"",""1637""
""focus"",""1"",""3086""
""focus"",""1"",""3087""
""fullscreenenter"",""1"",""4171""
","""event"",""trial"",""time""
""blur"",""1"",""1637""
","""event"",""trial"",""time""
""focus"",""1"",""3086""
""focus"",""1"",""3087""
","""event"",""trial"",""time""
""fullscreenenter"",""1"",""4171""
","
","","[{""page_index"":0,""viewing_time"":4968}]","4969","","","","","","","","","","","","","","","","","","","","","","","",""
"pit-comprehension","111","920035","0.0-2.0-24.0-0.0","battery-v0.2","","""event"",""trial"",""time""
""blur"",""1"",""1637""
""focus"",""1"",""3086""
""focus"",""1"",""3087""
""fullscreenenter"",""1"",""4171""
","""event"",""trial"",""time""
""blur"",""1"",""1637""
","""event"",""trial"",""time""
""focus"",""1"",""3086""
""focus"",""1"",""3087""
","""event"",""trial"",""time""
""fullscreenenter"",""1"",""4171""
","
","","","7380.999999999884","[""True""]","0","23","3710","1059","","","","","","","","","","","","","","","","","","",""
"pit-instructions","112","923218","0.0-2.0-24.0-1.0","battery-v0.2","","""event"",""trial"",""time""
""blur"",""1"",""1637""
""focus"",""1"",""3086""
""focus"",""1"",""3087""
""fullscreenenter"",""1"",""4171""
","""event"",""trial"",""time""
""blur"",""1"",""1637""
","""event"",""trial"",""time""
""focus"",""1"",""3086""
""focus"",""1"",""3087""
","""event"",""trial"",""time""
""fullscreenenter"",""1"",""4171""
","
","","[{""page_index"":0,""viewing_time"":3135}]","3135","","","","","","","","","","","","","","","","","","","","","","","",""
"pit-comprehension","113","930822","0.0-2.0-25.0-0.0","battery-v0.2","","""event"",""trial"",""time""
""blur"",""1"",""1637""
""focus"",""1"",""3086""
""focus"",""1"",""3087""
""fullscreenenter"",""1"",""4171""
","""event"",""trial"",""time""
""blur"",""1"",""1637""
","""event"",""trial"",""time""
""focus"",""1"",""3086""
""focus"",""1"",""3087""
","""event"",""trial"",""time""
""fullscreenenter"",""1"",""4171""
","
","","","7600","[""True""]","0","23","3710","1059","","","","","","","","","","","","","","","","","","",""
"pit-instructions","114","936105","0.0-2.0-25.0-1.0","battery-v0.2","","""event"",""trial"",""time""
""blur"",""1"",""1637""
""focus"",""1"",""3086""
""focus"",""1"",""3087""
""fullscreenenter"",""1"",""4171""
","""event"",""trial"",""time""
""blur"",""1"",""1637""
","""event"",""trial"",""time""
""focus"",""1"",""3086""
""focus"",""1"",""3087""
","""event"",""trial"",""time""
""fullscreenenter"",""1"",""4171""
","
","","[{""page_index"":0,""viewing_time"":5234}]","5234","","","","","","","","","","","","","","","","","","","","","","","",""
"pit-comprehension","115","940708","0.0-2.0-26.0-0.0","battery-v0.2","","""event"",""trial"",""time""
""blur"",""1"",""1637""
""focus"",""1"",""3086""
""focus"",""1"",""3087""
""fullscreenenter"",""1"",""4171""
","""event"",""trial"",""time""
""blur"",""1"",""1637""
","""event"",""trial"",""time""
""focus"",""1"",""3086""
""focus"",""1"",""3087""
","""event"",""trial"",""time""
""fullscreenenter"",""1"",""4171""
","
","","","4599.000000000116","[""False""]","0","23","3710","1059","","","","","","","","","","","","","","","","","","",""
"pit-instructions","116","943241","0.0-2.0-26.0-1.0","battery-v0.2","","""event"",""trial"",""time""
""blur"",""1"",""1637""
""focus"",""1"",""3086""
""focus"",""1"",""3087""
""fullscreenenter"",""1"",""4171""
","""event"",""trial"",""time""
""blur"",""1"",""1637""
","""event"",""trial"",""time""
""focus"",""1"",""3086""
""focus"",""1"",""3087""
","""event"",""trial"",""time""
""fullscreenenter"",""1"",""4171""
","
","","[{""page_index"":0,""viewing_time"":2485.0000000001164}]","2485.0000000001164","","","","","","","","","","","","","","","","","","","","","","","",""
"pit-instructions","117","964631","0.0-3.0","battery-v0.2","","""event"",""trial"",""time""
""blur"",""1"",""1637""
""focus"",""1"",""3086""
""focus"",""1"",""3087""
""fullscreenenter"",""1"",""4171""
","""event"",""trial"",""time""
""blur"",""1"",""1637""
","""event"",""trial"",""time""
""focus"",""1"",""3086""
""focus"",""1"",""3087""
","""event"",""trial"",""time""
""fullscreenenter"",""1"",""4171""
","
","","[{""page_index"":0,""viewing_time"":4380},{""page_index"":1,""viewing_time"":8335},{""page_index"":2,""viewing_time"":8669.000000000116}]","21384.000000000116","","","","","","","","","","","","","","","","","","","","","","","",""
"pit-trial","118","969488","0.0-4.0","battery-v0.2","","""event"",""trial"",""time""
""blur"",""1"",""1637""
""focus"",""1"",""3086""
""focus"",""1"",""3087""
""fullscreenenter"",""1"",""4171""
","""event"",""trial"",""time""
""blur"",""1"",""1637""
","""event"",""trial"",""time""
""focus"",""1"",""3086""
""focus"",""1"",""3087""
","""event"",""trial"",""time""
""fullscreenenter"",""1"",""4171""
","
","","","-1","","","23","3710","1059","&#9752;","elianto","#f73b6a7A"," ","-1","0","0","[3067]","1","1","","","3710","1","3","3","lose","go","1"
"pit-trial","119","973056","0.0-5.0","battery-v0.2","","""event"",""trial"",""time""
""blur"",""1"",""1637""
""focus"",""1"",""3086""
""focus"",""1"",""3087""
""fullscreenenter"",""1"",""4171""
","""event"",""trial"",""time""
""blur"",""1"",""1637""
","""event"",""trial"",""time""
""focus"",""1"",""3086""
""focus"",""1"",""3087""
","""event"",""trial"",""time""
""fullscreenenter"",""1"",""4171""
","
","","","714","","","23","3710","1059","&#9733;","elianto","#3366ff99","-1"," ","0","0","[1566]","1","1","","","3710","2","2","2","win","no-go","0"
"pit-trial","120","977911","0.0-6.0","battery-v0.2","","""event"",""trial"",""time""
""blur"",""1"",""1637""
""focus"",""1"",""3086""
""focus"",""1"",""3087""
""fullscreenenter"",""1"",""4171""
","""event"",""trial"",""time""
""blur"",""1"",""1637""
","""event"",""trial"",""time""
""focus"",""1"",""3086""
""focus"",""1"",""3087""
","""event"",""trial"",""time""
""fullscreenenter"",""1"",""4171""
","
","","","-1","","","23","3710","1059","&#9728;","elianto","#f73b6a7A","-1","-1","1","0","[]","0","1","","","3710","3","0","4","lose","no-go","0"
"pit-trial","121","981973","0.0-7.0","battery-v0.2","","""event"",""trial"",""time""
""blur"",""1"",""1637""
""focus"",""1"",""3086""
""focus"",""1"",""3087""
""fullscreenenter"",""1"",""4171""
","""event"",""trial"",""time""
""blur"",""1"",""1637""
","""event"",""trial"",""time""
""focus"",""1"",""3086""
""focus"",""1"",""3087""
","""event"",""trial"",""time""
""fullscreenenter"",""1"",""4171""
","
","","","1208","","","23","3710","1059","&#9730;","elianto","#3366ff99"," "," ","1","0","[2059]","1","1","","","3710","4","1","1","win","go","1"
"pit-trial","122","985314","0.0-8.0","battery-v0.2","","""event"",""trial"",""time""
""blur"",""1"",""1637""
""focus"",""1"",""3086""
""focus"",""1"",""3087""
""fullscreenenter"",""1"",""4171""
","""event"",""trial"",""time""
""blur"",""1"",""1637""
","""event"",""trial"",""time""
""focus"",""1"",""3086""
""focus"",""1"",""3087""
","""event"",""trial"",""time""
""fullscreenenter"",""1"",""4171""
","
","","","484","","","23","3710","1059","&#9730;","elianto","#3366ff99"," "," ","1","0","[1335]","1","1","","","3710","5","1","1","win","go","1"
"pit-trial","123","989354","0.0-9.0","battery-v0.2","","""event"",""trial"",""time""
""blur"",""1"",""1637""
""focus"",""1"",""3086""
""focus"",""1"",""3087""
""fullscreenenter"",""1"",""4171""
","""event"",""trial"",""time""
""blur"",""1"",""1637""
","""event"",""trial"",""time""
""focus"",""1"",""3086""
""focus"",""1"",""3087""
","""event"",""trial"",""time""
""fullscreenenter"",""1"",""4171""
","
","","","1184","","","23","3710","1059","&#9728;","elianto","#f73b6a7A","-1"," ","0","-10","[2034]","1","1","","","3710","6","0","4","lose","no-go","0"
"pit-trial","124","993002","0.0-10.0","battery-v0.2","","""event"",""trial"",""time""
""blur"",""1"",""1637""
""focus"",""1"",""3086""
""focus"",""1"",""3087""
""fullscreenenter"",""1"",""4171""
","""event"",""trial"",""time""
""blur"",""1"",""1637""
","""event"",""trial"",""time""
""focus"",""1"",""3086""
""focus"",""1"",""3087""
","""event"",""trial"",""time""
""fullscreenenter"",""1"",""4171""
","
","","","792","","","23","3710","1059","&#9733;","elianto","#3366ff99","-1"," ","0","+10","[1643]","1","1","","","3710","7","2","2","win","no-go","1"
"pit-trial","125","997305","0.0-11.0","battery-v0.2","","""event"",""trial"",""time""
""blur"",""1"",""1637""
""focus"",""1"",""3086""
""focus"",""1"",""3087""
""fullscreenenter"",""1"",""4171""
","""event"",""trial"",""time""
""blur"",""1"",""1637""
","""event"",""trial"",""time""
""focus"",""1"",""3086""
""focus"",""1"",""3087""
","""event"",""trial"",""time""
""fullscreenenter"",""1"",""4171""
","
","","","1449","","","23","3710","1059","&#9752;","elianto","#f73b6a7A"," "," ","1","0","[2299]","1","1","","","3710","8","3","3","lose","go","0"
"pit-trial","126","1000642","0.0-12.0","battery-v0.2","","""event"",""trial"",""time""
""blur"",""1"",""1637""
""focus"",""1"",""3086""
""focus"",""1"",""3087""
""fullscreenenter"",""1"",""4171""
","""event"",""trial"",""time""
""blur"",""1"",""1637""
","""event"",""trial"",""time""
""focus"",""1"",""3086""
""focus"",""1"",""3087""
","""event"",""trial"",""time""
""fullscreenenter"",""1"",""4171""
","
","","","482","","","23","3710","1059","&#9733;","elianto","#3366ff99","-1"," ","0","0","[1332]","1","1","","","3710","9","2","2","win","no-go","0"
"pit-trial","127","1004073","0.0-13.0","battery-v0.2","","""event"",""trial"",""time""
""blur"",""1"",""1637""
""focus"",""1"",""3086""
""focus"",""1"",""3087""
""fullscreenenter"",""1"",""4171""
","""event"",""trial"",""time""
""blur"",""1"",""1637""
","""event"",""trial"",""time""
""focus"",""1"",""3086""
""focus"",""1"",""3087""
","""event"",""trial"",""time""
""fullscreenenter"",""1"",""4171""
","
","","","576","","","23","3710","1059","&#9752;","elianto","#f73b6a7A"," "," ","1","0","[1427]","1","1","","","3710","10","3","3","lose","go","0"
"pit-trial","128","1008929","0.0-14.0","battery-v0.2","","""event"",""trial"",""time""
""blur"",""1"",""1637""
""focus"",""1"",""3086""
""focus"",""1"",""3087""
""fullscreenenter"",""1"",""4171""
","""event"",""trial"",""time""
""blur"",""1"",""1637""
","""event"",""trial"",""time""
""focus"",""1"",""3086""
""focus"",""1"",""3087""
","""event"",""trial"",""time""
""fullscreenenter"",""1"",""4171""
","
","","","-1","","","23","3710","1059","&#9728;","elianto","#f73b6a7A","-1","-1","1","0","[]","0","1","","","3710","11","0","4","lose","no-go","0"
"pit-trial","129","1013784","0.0-15.0","battery-v0.2","","""event"",""trial"",""time""
""blur"",""1"",""1637""
""focus"",""1"",""3086""
""focus"",""1"",""3087""
""fullscreenenter"",""1"",""4171""
","""event"",""trial"",""time""
""blur"",""1"",""1637""
","""event"",""trial"",""time""
""focus"",""1"",""3086""
""focus"",""1"",""3087""
","""event"",""trial"",""time""
""fullscreenenter"",""1"",""4171""
","
","","","-1","","","23","3710","1059","&#9730;","elianto","#3366ff99"," ","-1","0","0","[]","0","1","","","3710","12","1","1","win","go","0"
"pit-trial","130","1018640","0.0-16.0","battery-v0.2","","""event"",""trial"",""time""
""blur"",""1"",""1637""
""focus"",""1"",""3086""
""focus"",""1"",""3087""
""fullscreenenter"",""1"",""4171""
","""event"",""trial"",""time""
""blur"",""1"",""1637""
","""event"",""trial"",""time""
""focus"",""1"",""3086""
""focus"",""1"",""3087""
","""event"",""trial"",""time""
""fullscreenenter"",""1"",""4171""
","
","","","-1","","","23","3710","1059","&#9730;","elianto","#3366ff99"," ","-1","0","0","[]","0","1","","","3710","13","1","1","win","go","0"
"pit-trial","131","1022251","0.0-17.0","battery-v0.2","","""event"",""trial"",""time""
""blur"",""1"",""1637""
""focus"",""1"",""3086""
""focus"",""1"",""3087""
""fullscreenenter"",""1"",""4171""
","""event"",""trial"",""time""
""blur"",""1"",""1637""
","""event"",""trial"",""time""
""focus"",""1"",""3086""
""focus"",""1"",""3087""
","""event"",""trial"",""time""
""fullscreenenter"",""1"",""4171""
","
","","","754","","","23","3710","1059","&#9752;","elianto","#f73b6a7A"," "," ","1","0","[1605]","1","1","","","3710","14","3","3","lose","go","0"
"pit-trial","132","1025818","0.0-18.0","battery-v0.2","","""event"",""trial"",""time""
""blur"",""1"",""1637""
""focus"",""1"",""3086""
""focus"",""1"",""3087""
""fullscreenenter"",""1"",""4171""
","""event"",""trial"",""time""
""blur"",""1"",""1637""
","""event"",""trial"",""time""
""focus"",""1"",""3086""
""focus"",""1"",""3087""
","""event"",""trial"",""time""
""fullscreenenter"",""1"",""4171""
","
","","","712","","","23","3710","1059","&#9733;","elianto","#3366ff99","-1"," ","0","0","[1563]","1","1","","","3710","15","2","2","win","no-go","0"
"pit-trial","133","1030674","0.0-19.0","battery-v0.2","","""event"",""trial"",""time""
""blur"",""1"",""1637""
""focus"",""1"",""3086""
""focus"",""1"",""3087""
""fullscreenenter"",""1"",""4171""
","""event"",""trial"",""time""
""blur"",""1"",""1637""
","""event"",""trial"",""time""
""focus"",""1"",""3086""
""focus"",""1"",""3087""
","""event"",""trial"",""time""
""fullscreenenter"",""1"",""4171""
","
","","","-1","","","23","3710","1059","&#9728;","elianto","#f73b6a7A","-1","-1","1","0","[]","0","1","","","3710","16","0","4","lose","no-go","0"
"pit-trial","134","1034658","0.0-20.0","battery-v0.2","","""event"",""trial"",""time""
""blur"",""1"",""1637""
""focus"",""1"",""3086""
""focus"",""1"",""3087""
""fullscreenenter"",""1"",""4171""
","""event"",""trial"",""time""
""blur"",""1"",""1637""
","""event"",""trial"",""time""
""focus"",""1"",""3086""
""focus"",""1"",""3087""
","""event"",""trial"",""time""
""fullscreenenter"",""1"",""4171""
","
","","","1128","","","23","3710","1059","&#9733;","elianto","#3366ff99","-1"," ","0","0","[1980]","1","1","","","3710","17","2","2","win","no-go","0"
"pit-trial","135","1038562","0.0-21.0","battery-v0.2","","""event"",""trial"",""time""
""blur"",""1"",""1637""
""focus"",""1"",""3086""
""focus"",""1"",""3087""
""fullscreenenter"",""1"",""4171""
","""event"",""trial"",""time""
""blur"",""1"",""1637""
","""event"",""trial"",""time""
""focus"",""1"",""3086""
""focus"",""1"",""3087""
","""event"",""trial"",""time""
""fullscreenenter"",""1"",""4171""
","
","","","1048","","","23","3710","1059","&#9752;","elianto","#f73b6a7A"," "," ","1","0","[1899.9999999998836]","1","1","","","3710","18","3","3","lose","go","0"
"pit-trial","136","1042370","0.0-22.0","battery-v0.2","","""event"",""trial"",""time""
""blur"",""1"",""1637""
""focus"",""1"",""3086""
""focus"",""1"",""3087""
""fullscreenenter"",""1"",""4171""
","""event"",""trial"",""time""
""blur"",""1"",""1637""
","""event"",""trial"",""time""
""focus"",""1"",""3086""
""focus"",""1"",""3087""
","""event"",""trial"",""time""
""fullscreenenter"",""1"",""4171""
","
","","","954","","","23","3710","1059","&#9730;","elianto","#3366ff99"," "," ","1","+10","[1803.9999999998836]","1","1","","","3710","19","1","1","win","go","0"
"pit-trial","137","1046099","0.0-23.0","battery-v0.2","","""event"",""trial"",""time""
""blur"",""1"",""1637""
""focus"",""1"",""3086""
""focus"",""1"",""3087""
""fullscreenenter"",""1"",""4171""
","""event"",""trial"",""time""
""blur"",""1"",""1637""
","""event"",""trial"",""time""
""focus"",""1"",""3086""
""focus"",""1"",""3087""
","""event"",""trial"",""time""
""fullscreenenter"",""1"",""4171""
","
","","","873","","","23","3710","1059","&#9728;","elianto","#f73b6a7A","-1"," ","0","0","[1723.9999999998836]","1","1","","","3710","20","0","4","lose","no-go","1"
"pit-instructions","138","1063827","0.0-24.0","battery-v0.2","","""event"",""trial"",""time""
""blur"",""1"",""1637""
""focus"",""1"",""3086""
""focus"",""1"",""3087""
""fullscreenenter"",""1"",""4171""
","""event"",""trial"",""time""
""blur"",""1"",""1637""
","""event"",""trial"",""time""
""focus"",""1"",""3086""
""focus"",""1"",""3087""
","""event"",""trial"",""time""
""fullscreenenter"",""1"",""4171""
","
","","[{""page_index"":0,""viewing_time"":8455.999999999884},{""page_index"":1,""viewing_time"":9268}]","17724.999999999884","","","","","","","","","","","","","","","","","","","","","","","",""
"pit-trial","139","1067932","0.0-25.0","battery-v0.2","","""event"",""trial"",""time""
""blur"",""1"",""1637""
""focus"",""1"",""3086""
""focus"",""1"",""3087""
""fullscreenenter"",""1"",""4171""
","""event"",""trial"",""time""
""blur"",""1"",""1637""
","""event"",""trial"",""time""
""focus"",""1"",""3086""
""focus"",""1"",""3087""
","""event"",""trial"",""time""
""fullscreenenter"",""1"",""4171""
","
","","","1246.0000000002328","","","23","3710","1059","a","elianto","#f73b6a7A","-1"," ","0","-10","[2097.000000000233]","1","2","","","3710","21","2","4","lose","no-go","0"
"pit-trial","140","1071540","0.0-26.0","battery-v0.2","","""event"",""trial"",""time""
""blur"",""1"",""1637""
""focus"",""1"",""3086""
""focus"",""1"",""3087""
""fullscreenenter"",""1"",""4171""
","""event"",""trial"",""time""
""blur"",""1"",""1637""
","""event"",""trial"",""time""
""focus"",""1"",""3086""
""focus"",""1"",""3087""
","""event"",""trial"",""time""
""fullscreenenter"",""1"",""4171""
","
","","","752","","","23","3710","1059","u","elianto","#f73b6a7A","-1"," ","0","-10","[1603]","1","2","","","3710","22","0","4","lose","no-go","0"
"pit-trial","141","1075294","0.0-27.0","battery-v0.2","","""event"",""trial"",""time""
""blur"",""1"",""1637""
""focus"",""1"",""3086""
""focus"",""1"",""3087""
""fullscreenenter"",""1"",""4171""
","""event"",""trial"",""time""
""blur"",""1"",""1637""
","""event"",""trial"",""time""
""focus"",""1"",""3086""
""focus"",""1"",""3087""
","""event"",""trial"",""time""
""fullscreenenter"",""1"",""4171""
","
","","","976","","","23","3710","1059","l","elianto","#3366ff99"," "," ","1","+10","[1827]","1","2","","","3710","23","1","1","win","go","0"
"pit-trial","142","1080148","0.0-28.0","battery-v0.2","","""event"",""trial"",""time""
""blur"",""1"",""1637""
""focus"",""1"",""3086""
""focus"",""1"",""3087""
""fullscreenenter"",""1"",""4171""
","""event"",""trial"",""time""
""blur"",""1"",""1637""
","""event"",""trial"",""time""
""focus"",""1"",""3086""
""focus"",""1"",""3087""
","""event"",""trial"",""time""
""fullscreenenter"",""1"",""4171""
","
","","","-1","","","23","3710","1059","g","elianto","#f73b6a7A"," ","-1","0","0","[]","0","2","","","3710","24","3","3","lose","go","1"
"pit-trial","143","1083797","0.0-29.0","battery-v0.2","","""event"",""trial"",""time""
""blur"",""1"",""1637""
""focus"",""1"",""3086""
""focus"",""1"",""3087""
""fullscreenenter"",""1"",""4171""
","""event"",""trial"",""time""
""blur"",""1"",""1637""
","""event"",""trial"",""time""
""focus"",""1"",""3086""
""focus"",""1"",""3087""
","""event"",""trial"",""time""
""fullscreenenter"",""1"",""4171""
","
","","","794","","","23","3710","1059","l","elianto","#3366ff99"," "," ","1","+10","[1644]","1","2","","","3710","25","1","1","win","go","0"
"pit-trial","144","1088653","0.0-30.0","battery-v0.2","","""event"",""trial"",""time""
""blur"",""1"",""1637""
""focus"",""1"",""3086""
""focus"",""1"",""3087""
""fullscreenenter"",""1"",""4171""
","""event"",""trial"",""time""
""blur"",""1"",""1637""
","""event"",""trial"",""time""
""focus"",""1"",""3086""
""focus"",""1"",""3087""
","""event"",""trial"",""time""
""fullscreenenter"",""1"",""4171""
","
","","","-1","","","23","3710","1059","u","elianto","#f73b6a7A","-1","-1","1","0","[]","0","2","","","3710","26","0","4","lose","no-go","0"
"pit-trial","145","1093508","0.0-31.0","battery-v0.2","","""event"",""trial"",""time""
""blur"",""1"",""1637""
""focus"",""1"",""3086""
""focus"",""1"",""3087""
""fullscreenenter"",""1"",""4171""
","""event"",""trial"",""time""
""blur"",""1"",""1637""
","""event"",""trial"",""time""
""focus"",""1"",""3086""
""focus"",""1"",""3087""
","""event"",""trial"",""time""
""fullscreenenter"",""1"",""4171""
","
","","","-1","","","23","3710","1059","a","elianto","#f73b6a7A","-1","-1","1","-10","[]","0","2","","","3710","27","2","4","lose","no-go","1"
"pit-trial","146","1098364","0.0-32.0","battery-v0.2","","""event"",""trial"",""time""
""blur"",""1"",""1637""
""focus"",""1"",""3086""
""focus"",""1"",""3087""
""fullscreenenter"",""1"",""4171""
","""event"",""trial"",""time""
""blur"",""1"",""1637""
","""event"",""trial"",""time""
""focus"",""1"",""3086""
""focus"",""1"",""3087""
","""event"",""trial"",""time""
""fullscreenenter"",""1"",""4171""
","
","","","-1","","","23","3710","1059","g","elianto","#f73b6a7A"," ","-1","0","-10","[]","0","2","","","3710","28","3","3","lose","go","0"
"pit-trial","147","1101693","0.0-33.0","battery-v0.2","","""event"",""trial"",""time""
""blur"",""1"",""1637""
""focus"",""1"",""3086""
""focus"",""1"",""3087""
""fullscreenenter"",""1"",""4171""
","""event"",""trial"",""time""
""blur"",""1"",""1637""
","""event"",""trial"",""time""
""focus"",""1"",""3086""
""focus"",""1"",""3087""
","""event"",""trial"",""time""
""fullscreenenter"",""1"",""4171""
","
","","","473","","","23","3710","1059","l","elianto","#3366ff99"," "," ","1","+10","[1324]","1","2","","","3710","29","1","1","win","go","0"
"pit-trial","148","1105228","0.0-34.0","battery-v0.2","","""event"",""trial"",""time""
""blur"",""1"",""1637""
""focus"",""1"",""3086""
""focus"",""1"",""3087""
""fullscreenenter"",""1"",""4171""
","""event"",""trial"",""time""
""blur"",""1"",""1637""
","""event"",""trial"",""time""
""focus"",""1"",""3086""
""focus"",""1"",""3087""
","""event"",""trial"",""time""
""fullscreenenter"",""1"",""4171""
","
","","","680","","","23","3710","1059","g","elianto","#f73b6a7A"," "," ","1","0","[1531]","1","2","","","3710","30","3","3","lose","go","0"
"pit-trial","149","1108805","0.0-35.0","battery-v0.2","","""event"",""trial"",""time""
""blur"",""1"",""1637""
""focus"",""1"",""3086""
""focus"",""1"",""3087""
""fullscreenenter"",""1"",""4171""
","""event"",""trial"",""time""
""blur"",""1"",""1637""
","""event"",""trial"",""time""
""focus"",""1"",""3086""
""focus"",""1"",""3087""
","""event"",""trial"",""time""
""fullscreenenter"",""1"",""4171""
","
","","","721.0000000002328","","","23","3710","1059","u","elianto","#f73b6a7A","-1"," ","0","-10","[1572.0000000002328]","1","2","","","3710","31","0","4","lose","no-go","0"
"pit-trial","150","1112172","0.0-36.0","battery-v0.2","","""event"",""trial"",""time""
""blur"",""1"",""1637""
""focus"",""1"",""3086""
""focus"",""1"",""3087""
""fullscreenenter"",""1"",""4171""
","""event"",""trial"",""time""
""blur"",""1"",""1637""
","""event"",""trial"",""time""
""focus"",""1"",""3086""
""focus"",""1"",""3087""
","""event"",""trial"",""time""
""fullscreenenter"",""1"",""4171""
","
","","","513","","","23","3710","1059","a","elianto","#f73b6a7A","-1"," ","0","-10","[1363]","1","2","","","3710","32","2","4","lose","no-go","0"
"pit-trial","151","1115396","0.0-37.0","battery-v0.2","","""event"",""trial"",""time""
""blur"",""1"",""1637""
""focus"",""1"",""3086""
""focus"",""1"",""3087""
""fullscreenenter"",""1"",""4171""
","""event"",""trial"",""time""
""blur"",""1"",""1637""
","""event"",""trial"",""time""
""focus"",""1"",""3086""
""focus"",""1"",""3087""
","""event"",""trial"",""time""
""fullscreenenter"",""1"",""4171""
","
","","","370","","","23","3710","1059","g","elianto","#f73b6a7A"," "," ","1","0","[1220]","1","2","","","3710","33","3","3","lose","go","0"
"pit-trial","152","1120252","0.0-38.0","battery-v0.2","","""event"",""trial"",""time""
""blur"",""1"",""1637""
""focus"",""1"",""3086""
""focus"",""1"",""3087""
""fullscreenenter"",""1"",""4171""
","""event"",""trial"",""time""
""blur"",""1"",""1637""
","""event"",""trial"",""time""
""focus"",""1"",""3086""
""focus"",""1"",""3087""
","""event"",""trial"",""time""
""fullscreenenter"",""1"",""4171""
","
","","","-1","","","23","3710","1059","u","elianto","#f73b6a7A","-1","-1","1","0","[]","0","2","","","3710","34","0","4","lose","no-go","0"
"pit-trial","153","1123892","0.0-39.0","battery-v0.2","","""event"",""trial"",""time""
""blur"",""1"",""1637""
""focus"",""1"",""3086""
""focus"",""1"",""3087""
""fullscreenenter"",""1"",""4171""
","""event"",""trial"",""time""
""blur"",""1"",""1637""
","""event"",""trial"",""time""
""focus"",""1"",""3086""
""focus"",""1"",""3087""
","""event"",""trial"",""time""
""fullscreenenter"",""1"",""4171""
","
","","","784","","","23","3710","1059","l","elianto","#3366ff99"," "," ","1","+10","[1635]","1","2","","","3710","35","1","1","win","go","0"
"pit-trial","154","1127580","0.0-40.0","battery-v0.2","","""event"",""trial"",""time""
""blur"",""1"",""1637""
""focus"",""1"",""3086""
""focus"",""1"",""3087""
""fullscreenenter"",""1"",""4171""
","""event"",""trial"",""time""
""blur"",""1"",""1637""
","""event"",""trial"",""time""
""focus"",""1"",""3086""
""focus"",""1"",""3087""
","""event"",""trial"",""time""
""fullscreenenter"",""1"",""4171""
","
","","","832","","","23","3710","1059","a","elianto","#f73b6a7A","-1"," ","0","-10","[1684]","1","2","","","3710","36","2","4","lose","no-go","0"
"pit-trial","155","1131484","0.0-41.0","battery-v0.2","","""event"",""trial"",""time""
""blur"",""1"",""1637""
""focus"",""1"",""3086""
""focus"",""1"",""3087""
""fullscreenenter"",""1"",""4171""
","""event"",""trial"",""time""
""blur"",""1"",""1637""
","""event"",""trial"",""time""
""focus"",""1"",""3086""
""focus"",""1"",""3087""
","""event"",""trial"",""time""
""fullscreenenter"",""1"",""4171""
","
","","","1049","","","23","3710","1059","g","elianto","#f73b6a7A"," "," ","1","0","[1899]","1","2","","","3710","37","3","3","lose","go","0"
"pit-trial","156","1135667","0.0-42.0","battery-v0.2","","""event"",""trial"",""time""
""blur"",""1"",""1637""
""focus"",""1"",""3086""
""focus"",""1"",""3087""
""fullscreenenter"",""1"",""4171""
","""event"",""trial"",""time""
""blur"",""1"",""1637""
","""event"",""trial"",""time""
""focus"",""1"",""3086""
""focus"",""1"",""3087""
","""event"",""trial"",""time""
""fullscreenenter"",""1"",""4171""
","
","","","1329","","","23","3710","1059","l","elianto","#3366ff99"," "," ","1","+10","[2179]","1","2","","","3710","38","1","1","win","go","0"
"pit-trial","157","1139483","0.0-43.0","battery-v0.2","","""event"",""trial"",""time""
""blur"",""1"",""1637""
""focus"",""1"",""3086""
""focus"",""1"",""3087""
""fullscreenenter"",""1"",""4171""
","""event"",""trial"",""time""
""blur"",""1"",""1637""
","""event"",""trial"",""time""
""focus"",""1"",""3086""
""focus"",""1"",""3087""
","""event"",""trial"",""time""
""fullscreenenter"",""1"",""4171""
","
","","","962","","","23","3710","1059","u","elianto","#f73b6a7A","-1"," ","0","-10","[1812]","1","2","","","3710","39","0","4","lose","no-go","0"
"pit-trial","158","1143268","0.0-44.0","battery-v0.2","","""event"",""trial"",""time""
""blur"",""1"",""1637""
""focus"",""1"",""3086""
""focus"",""1"",""3087""
""fullscreenenter"",""1"",""4171""
","""event"",""trial"",""time""
""blur"",""1"",""1637""
","""event"",""trial"",""time""
""focus"",""1"",""3086""
""focus"",""1"",""3087""
","""event"",""trial"",""time""
""fullscreenenter"",""1"",""4171""
","
","","","929","","","23","3710","1059","a","elianto","#f73b6a7A","-1"," ","0","-10","[1779]","1","2","","","3710","40","2","4","lose","no-go","0"
"pit-trial","159","1147059","0.0-45.0","battery-v0.2","","""event"",""trial"",""time""
""blur"",""1"",""1637""
""focus"",""1"",""3086""
""focus"",""1"",""3087""
""fullscreenenter"",""1"",""4171""
","""event"",""trial"",""time""
""blur"",""1"",""1637""
","""event"",""trial"",""time""
""focus"",""1"",""3086""
""focus"",""1"",""3087""
","""event"",""trial"",""time""
""fullscreenenter"",""1"",""4171""
","
","","","937","","","23","3710","1059","a","elianto","#f73b6a7A","-1"," ","0","-10","[1787]","1","2","","","3710","41","2","4","lose","no-go","0"
"pit-trial","160","1150755","0.0-46.0","battery-v0.2","","""event"",""trial"",""time""
""blur"",""1"",""1637""
""focus"",""1"",""3086""
""focus"",""1"",""3087""
""fullscreenenter"",""1"",""4171""
","""event"",""trial"",""time""
""blur"",""1"",""1637""
","""event"",""trial"",""time""
""focus"",""1"",""3086""
""focus"",""1"",""3087""
","""event"",""trial"",""time""
""fullscreenenter"",""1"",""4171""
","
","","","840.0000000002328","","","23","3710","1059","g","elianto","#f73b6a7A"," "," ","1","0","[1692.0000000002328]","1","2","","","3710","42","3","3","lose","go","0"
"pit-trial","161","1155611","0.0-47.0","battery-v0.2","","""event"",""trial"",""time""
""blur"",""1"",""1637""
""focus"",""1"",""3086""
""focus"",""1"",""3087""
""fullscreenenter"",""1"",""4171""
","""event"",""trial"",""time""
""blur"",""1"",""1637""
","""event"",""trial"",""time""
""focus"",""1"",""3086""
""focus"",""1"",""3087""
","""event"",""trial"",""time""
""fullscreenenter"",""1"",""4171""
","
","","","-1","","","23","3710","1059","u","elianto","#f73b6a7A","-1","-1","1","0","[]","0","2","","","3710","43","0","4","lose","no-go","0"
"pit-trial","162","1159147","0.0-48.0","battery-v0.2","","""event"",""trial"",""time""
""blur"",""1"",""1637""
""focus"",""1"",""3086""
""focus"",""1"",""3087""
""fullscreenenter"",""1"",""4171""
","""event"",""trial"",""time""
""blur"",""1"",""1637""
","""event"",""trial"",""time""
""focus"",""1"",""3086""
""focus"",""1"",""3087""
","""event"",""trial"",""time""
""fullscreenenter"",""1"",""4171""
","
","","","680","","","23","3710","1059","l","elianto","#3366ff99"," "," ","1","+10","[1532]","1","2","","","3710","44","1","1","win","go","0"
"pit-trial","163","1164003","0.0-49.0","battery-v0.2","","""event"",""trial"",""time""
""blur"",""1"",""1637""
""focus"",""1"",""3086""
""focus"",""1"",""3087""
""fullscreenenter"",""1"",""4171""
","""event"",""trial"",""time""
""blur"",""1"",""1637""
","""event"",""trial"",""time""
""focus"",""1"",""3086""
""focus"",""1"",""3087""
","""event"",""trial"",""time""
""fullscreenenter"",""1"",""4171""
","
","","","-1","","","23","3710","1059","g","elianto","#f73b6a7A"," ","-1","0","0","[]","0","2","","","3710","45","3","3","lose","go","1"
"pit-trial","164","1168858","0.0-50.0","battery-v0.2","","""event"",""trial"",""time""
""blur"",""1"",""1637""
""focus"",""1"",""3086""
""focus"",""1"",""3087""
""fullscreenenter"",""1"",""4171""
","""event"",""trial"",""time""
""blur"",""1"",""1637""
","""event"",""trial"",""time""
""focus"",""1"",""3086""
""focus"",""1"",""3087""
","""event"",""trial"",""time""
""fullscreenenter"",""1"",""4171""
","
","","","-1","","","23","3710","1059","a","elianto","#f73b6a7A","-1","-1","1","-10","[]","0","2","","","3710","46","2","4","lose","no-go","1"
"pit-trial","165","1172379","0.0-51.0","battery-v0.2","","""event"",""trial"",""time""
""blur"",""1"",""1637""
""focus"",""1"",""3086""
""focus"",""1"",""3087""
""fullscreenenter"",""1"",""4171""
","""event"",""trial"",""time""
""blur"",""1"",""1637""
","""event"",""trial"",""time""
""focus"",""1"",""3086""
""focus"",""1"",""3087""
","""event"",""trial"",""time""
""fullscreenenter"",""1"",""4171""
","
","","","664","","","23","3710","1059","p","elianto","#3366ff99","-1"," ","0","0","[1515]","1","2","","","3710","47","4","2","win","no-go","0"
"pit-trial","166","1177233","0.0-52.0","battery-v0.2","","""event"",""trial"",""time""
""blur"",""1"",""1637""
""focus"",""1"",""3086""
""focus"",""1"",""3087""
""fullscreenenter"",""1"",""4171""
","""event"",""trial"",""time""
""blur"",""1"",""1637""
","""event"",""trial"",""time""
""focus"",""1"",""3086""
""focus"",""1"",""3087""
","""event"",""trial"",""time""
""fullscreenenter"",""1"",""4171""
","
","","","-1","","","23","3710","1059","u","elianto","#f73b6a7A","-1","-1","1","0","[]","0","2","","","3710","48","0","4","lose","no-go","0"
"pit-trial","167","1182089","0.0-53.0","battery-v0.2","","""event"",""trial"",""time""
""blur"",""1"",""1637""
""focus"",""1"",""3086""
""focus"",""1"",""3087""
""fullscreenenter"",""1"",""4171""
","""event"",""trial"",""time""
""blur"",""1"",""1637""
","""event"",""trial"",""time""
""focus"",""1"",""3086""
""focus"",""1"",""3087""
","""event"",""trial"",""time""
""fullscreenenter"",""1"",""4171""
","
","","","-1","","","23","3710","1059","u","elianto","#f73b6a7A","-1","-1","1","0","[]","0","2","","","3710","49","0","4","lose","no-go","0"
"pit-trial","168","1186250","0.0-54.0","battery-v0.2","","""event"",""trial"",""time""
""blur"",""1"",""1637""
""focus"",""1"",""3086""
""focus"",""1"",""3087""
""fullscreenenter"",""1"",""4171""
","""event"",""trial"",""time""
""blur"",""1"",""1637""
","""event"",""trial"",""time""
""focus"",""1"",""3086""
""focus"",""1"",""3087""
","""event"",""trial"",""time""
""fullscreenenter"",""1"",""4171""
","
","","","1303.9999999997672","","","23","3710","1059","g","elianto","#f73b6a7A"," "," ","1","0","[2156]","1","2","","","3710","50","3","3","lose","go","0"
"pit-trial","169","1189834","0.0-55.0","battery-v0.2","","""event"",""trial"",""time""
""blur"",""1"",""1637""
""focus"",""1"",""3086""
""focus"",""1"",""3087""
""fullscreenenter"",""1"",""4171""
","""event"",""trial"",""time""
""blur"",""1"",""1637""
","""event"",""trial"",""time""
""focus"",""1"",""3086""
""focus"",""1"",""3087""
","""event"",""trial"",""time""
""fullscreenenter"",""1"",""4171""
","
","","","728","","","23","3710","1059","p","elianto","#3366ff99","-1"," ","0","0","[1579]","1","2","","","3710","51","4","2","win","no-go","0"
"pit-trial","170","1193378","0.0-56.0","battery-v0.2","","""event"",""trial"",""time""
""blur"",""1"",""1637""
""focus"",""1"",""3086""
""focus"",""1"",""3087""
""fullscreenenter"",""1"",""4171""
","""event"",""trial"",""time""
""blur"",""1"",""1637""
","""event"",""trial"",""time""
""focus"",""1"",""3086""
""focus"",""1"",""3087""
","""event"",""trial"",""time""
""fullscreenenter"",""1"",""4171""
","
","","","688","","","23","3710","1059","l","elianto","#3366ff99"," "," ","1","+10","[1539]","1","2","","","3710","52","1","1","win","go","0"
"pit-trial","171","1198234","0.0-57.0","battery-v0.2","","""event"",""trial"",""time""
""blur"",""1"",""1637""
""focus"",""1"",""3086""
""focus"",""1"",""3087""
""fullscreenenter"",""1"",""4171""
","""event"",""trial"",""time""
""blur"",""1"",""1637""
","""event"",""trial"",""time""
""focus"",""1"",""3086""
""focus"",""1"",""3087""
","""event"",""trial"",""time""
""fullscreenenter"",""1"",""4171""
","
","","","-1","","","23","3710","1059","u","elianto","#f73b6a7A","-1","-1","1","0","[]","0","2","","","3710","53","0","4","lose","no-go","0"
"pit-trial","172","1201794","0.0-58.0","battery-v0.2","","""event"",""trial"",""time""
""blur"",""1"",""1637""
""focus"",""1"",""3086""
""focus"",""1"",""3087""
""fullscreenenter"",""1"",""4171""
","""event"",""trial"",""time""
""blur"",""1"",""1637""
","""event"",""trial"",""time""
""focus"",""1"",""3086""
""focus"",""1"",""3087""
","""event"",""trial"",""time""
""fullscreenenter"",""1"",""4171""
","
","","","703.9999999997672","","","23","3710","1059","p","elianto","#3366ff99","-1"," ","0","0","[1555]","1","2","","","3710","54","4","2","win","no-go","0"
"pit-trial","173","1205385","0.0-59.0","battery-v0.2","","""event"",""trial"",""time""
""blur"",""1"",""1637""
""focus"",""1"",""3086""
""focus"",""1"",""3087""
""fullscreenenter"",""1"",""4171""
","""event"",""trial"",""time""
""blur"",""1"",""1637""
","""event"",""trial"",""time""
""focus"",""1"",""3086""
""focus"",""1"",""3087""
","""event"",""trial"",""time""
""fullscreenenter"",""1"",""4171""
","
