"trial_type","trial_index","time_elapsed","internal_node_id","task_version","subject_id","interactions","blur_events","focus_events","fullscreenenter_events","fullscreenexit_events","success","view_history","rt","responses","num_errors","age","subject","participantId","rune","rune_set","hex","correct","choice","accuracy","outcome","keys","total_keys","block","practice","value","sub","trial","stimulus","robot","valence","action","sham"
"pavlovia","0","17","0.0-0.0","battery-v0.2","","""event"",""trial"",""time""
""fullscreenenter"",""1"",""2589""
","
","
","""event"",""trial"",""time""
""fullscreenenter"",""1"",""2589""
","
","","","","","","","","","","","","","","","","","","","","","","","","","","",""
"fullscreen","1","3562","0.0-1.0","battery-v0.2","","""event"",""trial"",""time""
""fullscreenenter"",""1"",""2589""
","
","
","""event"",""trial"",""time""
""fullscreenenter"",""1"",""2589""
","
","true","","","","","","","","","","","","","","","","","","","","","","","","","",""
"pit-instructions","2","7463","0.0-2.0-0.0","battery-v0.2","","""event"",""trial"",""time""
""fullscreenenter"",""1"",""2589""
","
","
","""event"",""trial"",""time""
""fullscreenenter"",""1"",""2589""
","
","","[{""page_index"":0,""viewing_time"":3878.4000000059605}]","3879.699999988079","","","","","","","","","","","","","","","","","","","","","","","",""
"pit-comprehension","3","10619","0.0-2.0-1.0-0.0","battery-v0.2","","""event"",""trial"",""time""
""fullscreenenter"",""1"",""2589""
","
","
","""event"",""trial"",""time""
""fullscreenenter"",""1"",""2589""
","
","","","3141.5999999940395","[""shark""]","0","16","4441","611","","","","","","","","","","","","","","","","","","",""
"pit-instructions","4","13091","0.0-2.0-1.0-1.0","battery-v0.2","","""event"",""trial"",""time""
""fullscreenenter"",""1"",""2589""
","
","
","""event"",""trial"",""time""
""fullscreenenter"",""1"",""2589""
","
","","[{""page_index"":0,""viewing_time"":2436}]","2436.399999976158","","","","","","","","","","","","","","","","","","","","","","","",""
"pit-comprehension","5","16228","0.0-2.0-2.0-0.0","battery-v0.2","","""event"",""trial"",""time""
""fullscreenenter"",""1"",""2589""
","
","
","""event"",""trial"",""time""
""fullscreenenter"",""1"",""2589""
","
","","","3130.199999988079","[""tiger""]","0","16","4441","611","","","","","","","","","","","","","","","","","","",""
"pit-instructions","6","21120","0.0-2.0-2.0-1.0","battery-v0.2","","""event"",""trial"",""time""
""fullscreenenter"",""1"",""2589""
","
","
","""event"",""trial"",""time""
""fullscreenenter"",""1"",""2589""
","
","","[{""page_index"":0,""viewing_time"":4881.9000000059605}]","4882.5","","","","","","","","","","","","","","","","","","","","","","","",""
"pit-instructions","7","125983","0.0-2.0-3.0","battery-v0.2","","""event"",""trial"",""time""
""fullscreenenter"",""1"",""2589""
","
","
","""event"",""trial"",""time""
""fullscreenenter"",""1"",""2589""
","
","","[{""page_index"":0,""viewing_time"":9935.59999999404},{""page_index"":1,""viewing_time"":6032.600000023842},{""page_index"":2,""viewing_time"":6412.799999982119},{""page_index"":3,""viewing_time"":7858.4000000059605},{""page_index"":4,""viewing_time"":7558.300000011921},{""page_index"":5,""viewing_time"":6187.399999976158},{""page_index"":6,""viewing_time"":7849.9000000059605},{""page_index"":7,""viewing_time"":6503.0999999940395},{""page_index"":8,""viewing_time"":6668.800000011921},{""page_index"":9,""viewing_time"":8959.199999988079},{""page_index"":10,""viewing_time"":7146},{""page_index"":11,""viewing_time"":7808.9000000059605},{""page_index"":12,""viewing_time"":7318.300000011921},{""page_index"":13,""viewing_time"":8611.799999982119}]","104851.90000000596","","","","","","","","","","","","","","","","","","","","","","","",""
"pit-trial","8","129567","0.0-2.0-4.0-0.0","battery-v0.2","","""event"",""trial"",""time""
""fullscreenenter"",""1"",""2589""
","
","
","""event"",""trial"",""time""
""fullscreenenter"",""1"",""2589""
","
","","","714.7999999821186","","","16","4441","611","&#9784;","elianto","#FFFFF080"," "," ","1","&#10004","[1567.7999999821186]","1","0","0","","","","","","","",""
"pit-trial","9","133310","0.0-2.0-4.1-0.1","battery-v0.2","","""event"",""trial"",""time""
""fullscreenenter"",""1"",""2589""
","
","
","""event"",""trial"",""time""
""fullscreenenter"",""1"",""2589""
","
","","","874.5999999940395","","","16","4441","611","&#9784;","elianto","#FFFFF080"," "," ","1","&#10004","[1725.9000000059605]","1","0","0","","","","","","","",""
"pit-trial","10","137668","0.0-2.0-4.2-0.2","battery-v0.2","","""event"",""trial"",""time""
""fullscreenenter"",""1"",""2589""
","
","
","""event"",""trial"",""time""
""fullscreenenter"",""1"",""2589""
","
","","","1473.5999999940395","","","16","4441","611","&#9784;","elianto","#FFFFF080"," "," ","1","&#10004","[2332.800000011921]","1","0","0","","","","","","","",""
"pit-trial","11","141455","0.0-2.0-4.3-0.3","battery-v0.2","","""event"",""trial"",""time""
""fullscreenenter"",""1"",""2589""
","
","
","""event"",""trial"",""time""
""fullscreenenter"",""1"",""2589""
","
","","","907.4000000059605","","","16","4441","611","&#9784;","elianto","#FFFFF080"," "," ","1","&#10004","[1759.9000000059605]","1","0","0","","","","","","","",""
"pit-trial","12","145070","0.0-2.0-4.4-0.4","battery-v0.2","","""event"",""trial"",""time""
""fullscreenenter"",""1"",""2589""
","
","
","""event"",""trial"",""time""
""fullscreenenter"",""1"",""2589""
","
","","","747.8999999761581","","","16","4441","611","&#9784;","elianto","#FFFFF080"," "," ","1","&#10004","[1598]","1","0","0","","","","","","","",""
"pit-instructions","13","170790","0.0-2.0-5.0","battery-v0.2","","""event"",""trial"",""time""
""fullscreenenter"",""1"",""2589""
","
","
","""event"",""trial"",""time""
""fullscreenenter"",""1"",""2589""
","
","","[{""page_index"":0,""viewing_time"":5666.399999976158},{""page_index"":1,""viewing_time"":6177},{""page_index"":2,""viewing_time"":7498.700000017881},{""page_index"":3,""viewing_time"":6369.5}]","25712.399999976158","","","","","","","","","","","","","","","","","","","","","","","",""
"pit-trial","14","175657","0.0-2.0-6.0-0.0","battery-v0.2","","""event"",""trial"",""time""
""fullscreenenter"",""1"",""2589""
","
","
","""event"",""trial"",""time""
""fullscreenenter"",""1"",""2589""
","
","","","-1","","","16","4441","611","&#9854;","elianto","#FFFFF080","-1","-1","1","&#10004","[]","0","0","1","","","","","","","",""
"pit-trial","15","180542","0.0-2.0-6.1-0.1","battery-v0.2","","""event"",""trial"",""time""
""fullscreenenter"",""1"",""2589""
","
","
","""event"",""trial"",""time""
""fullscreenenter"",""1"",""2589""
","
","","","-1","","","16","4441","611","&#9854;","elianto","#FFFFF080","-1","-1","1","&#10004","[]","0","0","1","","","","","","","",""
"pit-trial","16","185426","0.0-2.0-6.2-0.2","battery-v0.2","","""event"",""trial"",""time""
""fullscreenenter"",""1"",""2589""
","
","
","""event"",""trial"",""time""
""fullscreenenter"",""1"",""2589""
","
","","","-1","","","16","4441","611","&#9854;","elianto","#FFFFF080","-1","-1","1","&#10004","[]","0","0","1","","","","","","","",""
"pit-trial","17","190308","0.0-2.0-6.3-0.3","battery-v0.2","","""event"",""trial"",""time""
""fullscreenenter"",""1"",""2589""
","
","
","""event"",""trial"",""time""
""fullscreenenter"",""1"",""2589""
","
","","","-1","","","16","4441","611","&#9854;","elianto","#FFFFF080","-1","-1","1","&#10004","[]","0","0","1","","","","","","","",""
"pit-trial","18","195188","0.0-2.0-6.4-0.4","battery-v0.2","","""event"",""trial"",""time""
""fullscreenenter"",""1"",""2589""
","
","
","""event"",""trial"",""time""
""fullscreenenter"",""1"",""2589""
","
","","","-1","","","16","4441","611","&#9854;","elianto","#FFFFF080","-1","-1","1","&#10004","[]","0","0","1","","","","","","","",""
"pit-instructions","19","333556","0.0-2.0-7.0","battery-v0.2","","""event"",""trial"",""time""
""fullscreenenter"",""1"",""2589""
","
","
","""event"",""trial"",""time""
""fullscreenenter"",""1"",""2589""
","
","","[{""page_index"":0,""viewing_time"":5804.9000000059605},{""page_index"":1,""viewing_time"":8949.300000011921},{""page_index"":2,""viewing_time"":6490.799999982119},{""page_index"":3,""viewing_time"":6551.300000011921},{""page_index"":4,""viewing_time"":6598.0999999940395},{""page_index"":5,""viewing_time"":5582.700000017881},{""page_index"":6,""viewing_time"":5175},{""page_index"":7,""viewing_time"":12459.799999982119},{""page_index"":8,""viewing_time"":9235.5},{""page_index"":9,""viewing_time"":8575.300000011921},{""page_index"":10,""viewing_time"":8774},{""page_index"":11,""viewing_time"":6077.199999988079},{""page_index"":12,""viewing_time"":7827},{""page_index"":13,""viewing_time"":9920.59999999404},{""page_index"":14,""viewing_time"":9177.800000011921},{""page_index"":15,""viewing_time"":6163.0999999940395},{""page_index"":16,""viewing_time"":7021.5999999940395},{""page_index"":17,""viewing_time"":7976.700000017881}]","138361.10000002384","","","","","","","","","","","","","","","","","","","","","","","",""
"pit-trial","20","337117","0.0-2.0-8.0-0.0","battery-v0.2","","""event"",""trial"",""time""
""fullscreenenter"",""1"",""2589""
","
","
","""event"",""trial"",""time""
""fullscreenenter"",""1"",""2589""
","
","","","681.0999999940395","","","16","4441","611","&#9776;","elianto","#3366ff99"," "," ","1","+10","[1535.3999999761581]","1","0","1","","","","","","","",""
"pit-trial","21","340777","0.0-2.0-8.0-1.0","battery-v0.2","","""event"",""trial"",""time""
""fullscreenenter"",""1"",""2589""
","
","
","""event"",""trial"",""time""
""fullscreenenter"",""1"",""2589""
","
","","","789.7999999821186","","","16","4441","611","&#9776;","elianto","#3366ff99"," "," ","1","+10","[1647.2999999821186]","1","0","1","","","","","","","",""
"pit-trial","22","344607","0.0-2.0-8.0-2.0","battery-v0.2","","""event"",""trial"",""time""
""fullscreenenter"",""1"",""2589""
","
","
","""event"",""trial"",""time""
""fullscreenenter"",""1"",""2589""
","
","","","949.9000000059605","","","16","4441","611","&#9776;","elianto","#3366ff99"," "," ","1","+10","[1802.7999999821186]","1","0","1","","","","","","","",""
"pit-trial","23","348174","0.0-2.0-8.0-3.0","battery-v0.2","","""event"",""trial"",""time""
""fullscreenenter"",""1"",""2589""
","
","
","""event"",""trial"",""time""
""fullscreenenter"",""1"",""2589""
","
","","","697.2000000178814","","","16","4441","611","&#9776;","elianto","#3366ff99"," "," ","1","0","[1550.5]","1","0","1","","","","","","","",""
"pit-trial","24","351697","0.0-2.0-8.0-4.0","battery-v0.2","","""event"",""trial"",""time""
""fullscreenenter"",""1"",""2589""
","
","
","""event"",""trial"",""time""
""fullscreenenter"",""1"",""2589""
","
","","","654.2000000178814","","","16","4441","611","&#9776;","elianto","#3366ff99"," "," ","1","+10","[1506.0999999940395]","1","0","1","","","","","","","",""
"pit-trial","25","355454","0.0-2.0-8.1-0.1","battery-v0.2","","""event"",""trial"",""time""
""fullscreenenter"",""1"",""2589""
","
","
","""event"",""trial"",""time""
""fullscreenenter"",""1"",""2589""
","
","","","868.7000000178814","","","16","4441","611","&#9776;","elianto","#3366ff99"," "," ","1","+10","[1728.5]","1","0","1","","","","","","","",""
"pit-trial","26","359192","0.0-2.0-8.1-1.1","battery-v0.2","","""event"",""trial"",""time""
""fullscreenenter"",""1"",""2589""
","
","
","""event"",""trial"",""time""
""fullscreenenter"",""1"",""2589""
","
","","","869.6000000238419","","","16","4441","611","&#9776;","elianto","#3366ff99"," "," ","1","+10","[1723.2000000178814]","1","0","1","","","","","","","",""
"pit-trial","27","362786","0.0-2.0-8.1-2.1","battery-v0.2","","""event"",""trial"",""time""
""fullscreenenter"",""1"",""2589""
","
","
","""event"",""trial"",""time""
""fullscreenenter"",""1"",""2589""
","
","","","724.6999999880791","","","16","4441","611","&#9776;","elianto","#3366ff99"," "," ","1","+10","[1577.9000000059605]","1","0","1","","","","","","","",""
"pit-trial","28","366295","0.0-2.0-8.1-3.1","battery-v0.2","","""event"",""trial"",""time""
""fullscreenenter"",""1"",""2589""
","
","
","""event"",""trial"",""time""
""fullscreenenter"",""1"",""2589""
","
","","","641.5999999940395","","","16","4441","611","&#9776;","elianto","#3366ff99"," "," ","1","0","[1495]","1","0","1","","","","","","","",""
"pit-trial","29","369746","0.0-2.0-8.1-4.1","battery-v0.2","","""event"",""trial"",""time""
""fullscreenenter"",""1"",""2589""
","
","
","""event"",""trial"",""time""
""fullscreenenter"",""1"",""2589""
","
","","","580.2000000178814","","","16","4441","611","&#9776;","elianto","#3366ff99"," "," ","1","+10","[1439.1000000238419]","1","0","1","","","","","","","",""
"pit-trial","30","373207","0.0-2.0-8.2-0.2","battery-v0.2","","""event"",""trial"",""time""
""fullscreenenter"",""1"",""2589""
","
","
","""event"",""trial"",""time""
""fullscreenenter"",""1"",""2589""
","
","","","586.5","","","16","4441","611","&#9776;","elianto","#3366ff99"," "," ","1","+10","[1444.5]","1","0","1","","","","","","","",""
"pit-trial","31","376684","0.0-2.0-8.2-1.2","battery-v0.2","","""event"",""trial"",""time""
""fullscreenenter"",""1"",""2589""
","
","
","""event"",""trial"",""time""
""fullscreenenter"",""1"",""2589""
","
","","","608.5","","","16","4441","611","&#9776;","elianto","#3366ff99"," "," ","1","+10","[1461.7000000178814]","1","0","1","","","","","","","",""
"pit-trial","32","379840","0.0-2.0-8.2-2.2","battery-v0.2","","""event"",""trial"",""time""
""fullscreenenter"",""1"",""2589""
","
","
","""event"",""trial"",""time""
""fullscreenenter"",""1"",""2589""
","
","","","294","","","16","4441","611","&#9776;","elianto","#3366ff99"," "," ","1","+10","[1148.199999988079]","1","0","1","","","","","","","",""
"pit-trial","33","383394","0.0-2.0-8.2-3.2","battery-v0.2","","""event"",""trial"",""time""
""fullscreenenter"",""1"",""2589""
","
","
","""event"",""trial"",""time""
""fullscreenenter"",""1"",""2589""
","
","","","693.5","","","16","4441","611","&#9776;","elianto","#3366ff99"," "," ","1","0","[1543.7000000178814]","1","0","1","","","","","","","",""
"pit-trial","34","386764","0.0-2.0-8.2-4.2","battery-v0.2","","""event"",""trial"",""time""
""fullscreenenter"",""1"",""2589""
","
","
","""event"",""trial"",""time""
""fullscreenenter"",""1"",""2589""
","
","","","498","","","16","4441","611","&#9776;","elianto","#3366ff99"," "," ","1","+10","[1357.5999999940395]","1","0","1","","","","","","","",""
"call-function","35","386768","0.0-2.0-9.0","battery-v0.2","","""event"",""trial"",""time""
""fullscreenenter"",""1"",""2589""
","
","
","""event"",""trial"",""time""
""fullscreenenter"",""1"",""2589""
","
","","","","","","","","","","","","","","","","","","","","","","","","","","",""
"pit-instructions","36","430639","0.0-2.0-10.0","battery-v0.2","","""event"",""trial"",""time""
""fullscreenenter"",""1"",""2589""
","
","
","""event"",""trial"",""time""
""fullscreenenter"",""1"",""2589""
","
","","[{""page_index"":0,""viewing_time"":6027},{""page_index"":1,""viewing_time"":7925.5},{""page_index"":2,""viewing_time"":10063.199999988079},{""page_index"":3,""viewing_time"":10445.100000023842},{""page_index"":4,""viewing_time"":9406.399999976158}]","43867.80000001192","","","","","","","","","","","","","","","","","","","","","","","",""
"pit-trial","37","434933","0.0-2.0-11.0-0.0","battery-v0.2","","""event"",""trial"",""time""
""fullscreenenter"",""1"",""2589""
","
","
","""event"",""trial"",""time""
""fullscreenenter"",""1"",""2589""
","
","","","1415.2000000178814","","","16","4441","611","&#9761;","elianto","#3366ff99","-1"," ","0","0","[2273.2999999821186]","1","0","2","","","","","","","",""
"pit-trial","38","438587","0.0-2.0-11.0-1.0","battery-v0.2","","""event"",""trial"",""time""
""fullscreenenter"",""1"",""2589""
","
","
","""event"",""trial"",""time""
""fullscreenenter"",""1"",""2589""
","
","","","781.1000000238419","","","16","4441","611","&#9761;","elianto","#3366ff99","-1"," ","0","0","[1632.5999999940395]","1","0","2","","","","","","","",""
"pit-trial","39","442454","0.0-2.0-11.0-2.0","battery-v0.2","","""event"",""trial"",""time""
""fullscreenenter"",""1"",""2589""
","
","
","""event"",""trial"",""time""
""fullscreenenter"",""1"",""2589""
","
","","","984.7000000178814","","","16","4441","611","&#9761;","elianto","#3366ff99","-1"," ","0","0","[1842.3999999761581]","1","0","2","","","","","","","",""
"pit-trial","40","445957","0.0-2.0-11.0-3.0","battery-v0.2","","""event"",""trial"",""time""
""fullscreenenter"",""1"",""2589""
","
","
","""event"",""trial"",""time""
""fullscreenenter"",""1"",""2589""
","
","","","631.9000000059605","","","16","4441","611","&#9761;","elianto","#3366ff99","-1"," ","0","+10","[1492.0999999940395]","1","0","2","","","","","","","",""
"pit-trial","41","449600","0.0-2.0-11.0-4.0","battery-v0.2","","""event"",""trial"",""time""
""fullscreenenter"",""1"",""2589""
","
","
","""event"",""trial"",""time""
""fullscreenenter"",""1"",""2589""
","
","","","759","","","16","4441","611","&#9761;","elianto","#3366ff99","-1"," ","0","0","[1615.2999999821186]","1","0","2","","","","","","","",""
"pit-trial","42","453307","0.0-2.0-11.1-0.1","battery-v0.2","","""event"",""trial"",""time""
""fullscreenenter"",""1"",""2589""
","
","
","""event"",""trial"",""time""
""fullscreenenter"",""1"",""2589""
","
","","","828.7000000178814","","","16","4441","611","&#9761;","elianto","#3366ff99","-1"," ","0","0","[1686.699999988079]","1","0","2","","","","","","","",""
"pit-trial","43","456757","0.0-2.0-11.1-1.1","battery-v0.2","","""event"",""trial"",""time""
""fullscreenenter"",""1"",""2589""
","
","
","""event"",""trial"",""time""
""fullscreenenter"",""1"",""2589""
","
","","","576.1000000238419","","","16","4441","611","&#9761;","elianto","#3366ff99","-1"," ","0","0","[1430.2999999821186]","1","0","2","","","","","","","",""
"pit-trial","44","460214","0.0-2.0-11.1-2.1","battery-v0.2","","""event"",""trial"",""time""
""fullscreenenter"",""1"",""2589""
","
","
","""event"",""trial"",""time""
""fullscreenenter"",""1"",""2589""
","
","","","592.0999999940395","","","16","4441","611","&#9761;","elianto","#3366ff99","-1"," ","0","0","[1446.5]","1","0","2","","","","","","","",""
"pit-trial","45","463652","0.0-2.0-11.1-3.1","battery-v0.2","","""event"",""trial"",""time""
""fullscreenenter"",""1"",""2589""
","
","
","""event"",""trial"",""time""
""fullscreenenter"",""1"",""2589""
","
","","","578","","","16","4441","611","&#9761;","elianto","#3366ff99","-1"," ","0","+10","[1428.2000000178814]","1","0","2","","","","","","","",""
"pit-trial","46","467115","0.0-2.0-11.1-4.1","battery-v0.2","","""event"",""trial"",""time""
""fullscreenenter"",""1"",""2589""
","
","
","""event"",""trial"",""time""
""fullscreenenter"",""1"",""2589""
","
","","","592.3000000119209","","","16","4441","611","&#9761;","elianto","#3366ff99","-1"," ","0","0","[1450.300000011921]","1","0","2","","","","","","","",""
"pit-trial","47","470257","0.0-2.0-11.2-0.2","battery-v0.2","","""event"",""trial"",""time""
""fullscreenenter"",""1"",""2589""
","
","
","""event"",""trial"",""time""
""fullscreenenter"",""1"",""2589""
","
","","","260.59999999403954","","","16","4441","611","&#9761;","elianto","#3366ff99","-1"," ","0","0","[1120]","1","0","2","","","","","","","",""
"pit-trial","48","473745","0.0-2.0-11.2-1.2","battery-v0.2","","""event"",""trial"",""time""
""fullscreenenter"",""1"",""2589""
","
","
","""event"",""trial"",""time""
""fullscreenenter"",""1"",""2589""
","
","","","618.5","","","16","4441","611","&#9761;","elianto","#3366ff99","-1"," ","0","0","[1471.5999999940395]","1","0","2","","","","","","","",""
"pit-trial","49","477080","0.0-2.0-11.2-2.2","battery-v0.2","","""event"",""trial"",""time""
""fullscreenenter"",""1"",""2589""
","
","
","""event"",""trial"",""time""
""fullscreenenter"",""1"",""2589""
","
","","","463.40000000596046","","","16","4441","611","&#9761;","elianto","#3366ff99","-1"," ","0","0","[1315.800000011921]","1","0","2","","","","","","","",""
"pit-trial","50","480706","0.0-2.0-11.2-3.2","battery-v0.2","","""event"",""trial"",""time""
""fullscreenenter"",""1"",""2589""
","
","
","""event"",""trial"",""time""
""fullscreenenter"",""1"",""2589""
","
","","","762","","","16","4441","611","&#9761;","elianto","#3366ff99","-1"," ","0","+10","[1615]","1","0","2","","","","","","","",""
"pit-trial","51","483914","0.0-2.0-11.2-4.2","battery-v0.2","","""event"",""trial"",""time""
""fullscreenenter"",""1"",""2589""
","
","
","""event"",""trial"",""time""
""fullscreenenter"",""1"",""2589""
","
","","","342.09999999403954","","","16","4441","611","&#9761;","elianto","#3366ff99","-1"," ","0","0","[1195.4000000059605]","1","0","2","","","","","","","",""
"pit-trial","52","486957","0.0-2.0-11.3-0.3","battery-v0.2","","""event"",""trial"",""time""
""fullscreenenter"",""1"",""2589""
","
","
","""event"",""trial"",""time""
""fullscreenenter"",""1"",""2589""
","
","","","173.80000001192093","","","16","4441","611","&#9761;","elianto","#3366ff99","-1"," ","0","0","[1032.300000011921]","1","0","2","","","","","","","",""
"pit-trial","53","490455","0.0-2.0-11.3-1.3","battery-v0.2","","""event"",""trial"",""time""
""fullscreenenter"",""1"",""2589""
","
","
","""event"",""trial"",""time""
""fullscreenenter"",""1"",""2589""
","
","","","628.5","","","16","4441","611","&#9761;","elianto","#3366ff99","-1"," ","0","0","[1482.800000011921]","1","0","2","","","","","","","",""
"pit-trial","54","493717","0.0-2.0-11.3-2.3","battery-v0.2","","""event"",""trial"",""time""
""fullscreenenter"",""1"",""2589""
","
","
","""event"",""trial"",""time""
""fullscreenenter"",""1"",""2589""
","
","","","397.09999999403954","","","16","4441","611","&#9761;","elianto","#3366ff99","-1"," ","0","0","[1248.5999999940395]","1","0","2","","","","","","","",""
"pit-trial","55","497407","0.0-2.0-11.3-3.3","battery-v0.2","","""event"",""trial"",""time""
""fullscreenenter"",""1"",""2589""
","
","
","""event"",""trial"",""time""
""fullscreenenter"",""1"",""2589""
","
","","","822.3000000119209","","","16","4441","611","&#9761;","elianto","#3366ff99","-1"," ","0","+10","[1677.2999999821186]","1","0","2","","","","","","","",""
"pit-trial","56","500895","0.0-2.0-11.3-4.3","battery-v0.2","","""event"",""trial"",""time""
""fullscreenenter"",""1"",""2589""
","
","
","""event"",""trial"",""time""
""fullscreenenter"",""1"",""2589""
","
","","","616.6000000238419","","","16","4441","611","&#9761;","elianto","#3366ff99","-1"," ","0","0","[1470.0999999940395]","1","0","2","","","","","","","",""
"call-function","57","500899","0.0-2.0-12.0","battery-v0.2","","""event"",""trial"",""time""
""fullscreenenter"",""1"",""2589""
","
","
","""event"",""trial"",""time""
""fullscreenenter"",""1"",""2589""
","
","","","","","","","","","","","","","","","","","","","","","","","","","","",""
"pit-instructions","58","537166","0.0-2.0-13.0","battery-v0.2","","""event"",""trial"",""time""
""fullscreenenter"",""1"",""2589""
","
","
","""event"",""trial"",""time""
""fullscreenenter"",""1"",""2589""
","
","","[{""page_index"":0,""viewing_time"":6476.699999988079},{""page_index"":1,""viewing_time"":8451.700000017881},{""page_index"":2,""viewing_time"":4577.9000000059605},{""page_index"":3,""viewing_time"":10916.59999999404},{""page_index"":4,""viewing_time"":5842.299999982119}]","36265.90000000596","","","","","","","","","","","","","","","","","","","","","","","",""
"pit-trial","59","542034","0.0-2.0-14.0-0.0","battery-v0.2","","""event"",""trial"",""time""
""fullscreenenter"",""1"",""2589""
","
","
","""event"",""trial"",""time""
""fullscreenenter"",""1"",""2589""
","
","","","-1","","","16","4441","611","&#9826;","elianto","#f73b6a7A","-1","-1","1","0","[]","0","0","3","","","","","","","",""
"pit-trial","60","546909","0.0-2.0-14.0-1.0","battery-v0.2","","""event"",""trial"",""time""
""fullscreenenter"",""1"",""2589""
","
","
","""event"",""trial"",""time""
""fullscreenenter"",""1"",""2589""
","
","","","-1","","","16","4441","611","&#9826;","elianto","#f73b6a7A","-1","-1","1","0","[]","0","0","3","","","","","","","",""
"pit-trial","61","551788","0.0-2.0-14.0-2.0","battery-v0.2","","""event"",""trial"",""time""
""fullscreenenter"",""1"",""2589""
","
","
","""event"",""trial"",""time""
""fullscreenenter"",""1"",""2589""
","
","","","-1","","","16","4441","611","&#9826;","elianto","#f73b6a7A","-1","-1","1","0","[]","0","0","3","","","","","","","",""
"pit-trial","62","556670","0.0-2.0-14.0-3.0","battery-v0.2","","""event"",""trial"",""time""
""fullscreenenter"",""1"",""2589""
","
","
","""event"",""trial"",""time""
""fullscreenenter"",""1"",""2589""
","
","","","-1","","","16","4441","611","&#9826;","elianto","#f73b6a7A","-1","-1","1","-10","[]","0","0","3","","","","","","","",""
"pit-trial","63","561543","0.0-2.0-14.0-4.0","battery-v0.2","","""event"",""trial"",""time""
""fullscreenenter"",""1"",""2589""
","
","
","""event"",""trial"",""time""
""fullscreenenter"",""1"",""2589""
","
","","","-1","","","16","4441","611","&#9826;","elianto","#f73b6a7A","-1","-1","1","0","[]","0","0","3","","","","","","","",""
"pit-trial","64","566420","0.0-2.0-14.1-0.1","battery-v0.2","","""event"",""trial"",""time""
""fullscreenenter"",""1"",""2589""
","
","
","""event"",""trial"",""time""
""fullscreenenter"",""1"",""2589""
","
","","","-1","","","16","4441","611","&#9826;","elianto","#f73b6a7A","-1","-1","1","0","[]","0","0","3","","","","","","","",""
"pit-trial","65","571293","0.0-2.0-14.1-1.1","battery-v0.2","","""event"",""trial"",""time""
""fullscreenenter"",""1"",""2589""
","
","
","""event"",""trial"",""time""
""fullscreenenter"",""1"",""2589""
","
","","","-1","","","16","4441","611","&#9826;","elianto","#f73b6a7A","-1","-1","1","0","[]","0","0","3","","","","","","","",""
"pit-trial","66","576168","0.0-2.0-14.1-2.1","battery-v0.2","","""event"",""trial"",""time""
""fullscreenenter"",""1"",""2589""
","
","
","""event"",""trial"",""time""
""fullscreenenter"",""1"",""2589""
","
","","","-1","","","16","4441","611","&#9826;","elianto","#f73b6a7A","-1","-1","1","0","[]","0","0","3","","","","","","","",""
"pit-trial","67","581042","0.0-2.0-14.1-3.1","battery-v0.2","","""event"",""trial"",""time""
""fullscreenenter"",""1"",""2589""
","
","
","""event"",""trial"",""time""
""fullscreenenter"",""1"",""2589""
","
","","","-1","","","16","4441","611","&#9826;","elianto","#f73b6a7A","-1","-1","1","-10","[]","0","0","3","","","","","","","",""
"pit-trial","68","585908","0.0-2.0-14.1-4.1","battery-v0.2","","""event"",""trial"",""time""
""fullscreenenter"",""1"",""2589""
","
","
","""event"",""trial"",""time""
""fullscreenenter"",""1"",""2589""
","
","","","-1","","","16","4441","611","&#9826;","elianto","#f73b6a7A","-1","-1","1","0","[]","0","0","3","","","","","","","",""
"pit-trial","69","590783","0.0-2.0-14.2-0.2","battery-v0.2","","""event"",""trial"",""time""
""fullscreenenter"",""1"",""2589""
","
","
","""event"",""trial"",""time""
""fullscreenenter"",""1"",""2589""
","
","","","-1","","","16","4441","611","&#9826;","elianto","#f73b6a7A","-1","-1","1","0","[]","0","0","3","","","","","","","",""
"pit-trial","70","595651","0.0-2.0-14.2-1.2","battery-v0.2","","""event"",""trial"",""time""
""fullscreenenter"",""1"",""2589""
","
","
","""event"",""trial"",""time""
""fullscreenenter"",""1"",""2589""
","
","","","-1","","","16","4441","611","&#9826;","elianto","#f73b6a7A","-1","-1","1","0","[]","0","0","3","","","","","","","",""
"pit-trial","71","600525","0.0-2.0-14.2-2.2","battery-v0.2","","""event"",""trial"",""time""
""fullscreenenter"",""1"",""2589""
","
","
","""event"",""trial"",""time""
""fullscreenenter"",""1"",""2589""
","
","","","-1","","","16","4441","611","&#9826;","elianto","#f73b6a7A","-1","-1","1","0","[]","0","0","3","","","","","","","",""
"pit-trial","72","605405","0.0-2.0-14.2-3.2","battery-v0.2","","""event"",""trial"",""time""
""fullscreenenter"",""1"",""2589""
","
","
","""event"",""trial"",""time""
""fullscreenenter"",""1"",""2589""
","
","","","-1","","","16","4441","611","&#9826;","elianto","#f73b6a7A","-1","-1","1","-10","[]","0","0","3","","","","","","","",""
"pit-trial","73","610276","0.0-2.0-14.2-4.2","battery-v0.2","","""event"",""trial"",""time""
""fullscreenenter"",""1"",""2589""
","
","
","""event"",""trial"",""time""
""fullscreenenter"",""1"",""2589""
","
","","","-1","","","16","4441","611","&#9826;","elianto","#f73b6a7A","-1","-1","1","0","[]","0","0","3","","","","","","","",""
"pit-trial","74","615145","0.0-2.0-14.3-0.3","battery-v0.2","","""event"",""trial"",""time""
""fullscreenenter"",""1"",""2589""
","
","
","""event"",""trial"",""time""
""fullscreenenter"",""1"",""2589""
","
","","","-1","","","16","4441","611","&#9826;","elianto","#f73b6a7A","-1","-1","1","0","[]","0","0","3","","","","","","","",""
"pit-trial","75","620021","0.0-2.0-14.3-1.3","battery-v0.2","","""event"",""trial"",""time""
""fullscreenenter"",""1"",""2589""
","
","
","""event"",""trial"",""time""
""fullscreenenter"",""1"",""2589""
","
","","","-1","","","16","4441","611","&#9826;","elianto","#f73b6a7A","-1","-1","1","0","[]","0","0","3","","","","","","","",""
"pit-trial","76","624894","0.0-2.0-14.3-2.3","battery-v0.2","","""event"",""trial"",""time""
""fullscreenenter"",""1"",""2589""
","
","
","""event"",""trial"",""time""
""fullscreenenter"",""1"",""2589""
","
","","","-1","","","16","4441","611","&#9826;","elianto","#f73b6a7A","-1","-1","1","0","[]","0","0","3","","","","","","","",""
"pit-trial","77","629760","0.0-2.0-14.3-3.3","battery-v0.2","","""event"",""trial"",""time""
""fullscreenenter"",""1"",""2589""
","
","
","""event"",""trial"",""time""
""fullscreenenter"",""1"",""2589""
","
","","","-1","","","16","4441","611","&#9826;","elianto","#f73b6a7A","-1","-1","1","-10","[]","0","0","3","","","","","","","",""
"pit-trial","78","634631","0.0-2.0-14.3-4.3","battery-v0.2","","""event"",""trial"",""time""
""fullscreenenter"",""1"",""2589""
","
","
","""event"",""trial"",""time""
""fullscreenenter"",""1"",""2589""
","
","","","-1","","","16","4441","611","&#9826;","elianto","#f73b6a7A","-1","-1","1","0","[]","0","0","3","","","","","","","",""
"call-function","79","634635","0.0-2.0-15.0","battery-v0.2","","""event"",""trial"",""time""
""fullscreenenter"",""1"",""2589""
","
","
","""event"",""trial"",""time""
""fullscreenenter"",""1"",""2589""
","
","","","","","","","","","","","","","","","","","","","","","","","","","","",""
"pit-instructions","80","663846","0.0-2.0-16.0","battery-v0.2","","""event"",""trial"",""time""
""fullscreenenter"",""1"",""2589""
","
","
","""event"",""trial"",""time""
""fullscreenenter"",""1"",""2589""
","
","","[{""page_index"":0,""viewing_time"":7916.799999982119},{""page_index"":1,""viewing_time"":9216.59999999404},{""page_index"":2,""viewing_time"":5450.5},{""page_index"":3,""viewing_time"":6622.9000000059605}]","29207.69999998808","","","","","","","","","","","","","","","","","","","","","","","",""
"pit-trial","81","668719","0.0-2.0-17.0-0.0","battery-v0.2","","""event"",""trial"",""time""
""fullscreenenter"",""1"",""2589""
","
","
","""event"",""trial"",""time""
""fullscreenenter"",""1"",""2589""
","
","","","-1","","","16","4441","611","&#9789;","elianto","#f73b6a7A"," ","-1","0","-10","[]","0","0","4","","","","","","","",""
"pit-trial","82","673599","0.0-2.0-17.0-1.0","battery-v0.2","","""event"",""trial"",""time""
""fullscreenenter"",""1"",""2589""
","
","
","""event"",""trial"",""time""
""fullscreenenter"",""1"",""2589""
","
","","","-1","","","16","4441","611","&#9789;","elianto","#f73b6a7A"," ","-1","0","-10","[]","0","0","4","","","","","","","",""
"pit-trial","83","678478","0.0-2.0-17.0-2.0","battery-v0.2","","""event"",""trial"",""time""
""fullscreenenter"",""1"",""2589""
","
","
","""event"",""trial"",""time""
""fullscreenenter"",""1"",""2589""
","
","","","-1","","","16","4441","611","&#9789;","elianto","#f73b6a7A"," ","-1","0","-10","[]","0","0","4","","","","","","","",""
"pit-trial","84","682378","0.0-2.0-17.0-3.0","battery-v0.2","","""event"",""trial"",""time""
""fullscreenenter"",""1"",""2589""
","
","
","""event"",""trial"",""time""
""fullscreenenter"",""1"",""2589""
","
","","","1030.4000000059605","","","16","4441","611","&#9789;","elianto","#f73b6a7A"," "," ","1","-10","[1883.2000000178814]","1","0","4","","","","","","","",""
"pit-trial","85","687257","0.0-2.0-17.0-4.0","battery-v0.2","","""event"",""trial"",""time""
""fullscreenenter"",""1"",""2589""
","
","
","""event"",""trial"",""time""
""fullscreenenter"",""1"",""2589""
","
","","","-1","","","16","4441","611","&#9789;","elianto","#f73b6a7A"," ","-1","0","-10","[]","0","0","4","","","","","","","",""
"pit-trial","86","692131","0.0-2.0-17.1-0.1","battery-v0.2","","""event"",""trial"",""time""
""fullscreenenter"",""1"",""2589""
","
","
","""event"",""trial"",""time""
""fullscreenenter"",""1"",""2589""
","
","","","-1","","","16","4441","611","&#9789;","elianto","#f73b6a7A"," ","-1","0","-10","[]","0","0","4","","","","","","","",""
"pit-trial","87","697004","0.0-2.0-17.1-1.1","battery-v0.2","","""event"",""trial"",""time""
""fullscreenenter"",""1"",""2589""
","
","
","""event"",""trial"",""time""
""fullscreenenter"",""1"",""2589""
","
","","","-1","","","16","4441","611","&#9789;","elianto","#f73b6a7A"," ","-1","0","-10","[]","0","0","4","","","","","","","",""
"pit-trial","88","701875","0.0-2.0-17.1-2.1","battery-v0.2","","""event"",""trial"",""time""
""fullscreenenter"",""1"",""2589""
","
","
","""event"",""trial"",""time""
""fullscreenenter"",""1"",""2589""
","
","","","-1","","","16","4441","611","&#9789;","elianto","#f73b6a7A"," ","-1","0","-10","[]","0","0","4","","","","","","","",""
"pit-trial","89","706748","0.0-2.0-17.1-3.1","battery-v0.2","","""event"",""trial"",""time""
""fullscreenenter"",""1"",""2589""
","
","
","""event"",""trial"",""time""
""fullscreenenter"",""1"",""2589""
","
","","","-1","","","16","4441","611","&#9789;","elianto","#f73b6a7A"," ","-1","0","0","[]","0","0","4","","","","","","","",""
"pit-trial","90","711617","0.0-2.0-17.1-4.1","battery-v0.2","","""event"",""trial"",""time""
""fullscreenenter"",""1"",""2589""
","
","
","""event"",""trial"",""time""
""fullscreenenter"",""1"",""2589""
","
","","","-1","","","16","4441","611","&#9789;","elianto","#f73b6a7A"," ","-1","0","-10","[]","0","0","4","","","","","","","",""
"pit-trial","91","716504","0.0-2.0-17.2-0.2","battery-v0.2","","""event"",""trial"",""time""
""fullscreenenter"",""1"",""2589""
","
","
","""event"",""trial"",""time""
""fullscreenenter"",""1"",""2589""
","
","","","-1","","","16","4441","611","&#9789;","elianto","#f73b6a7A"," ","-1","0","-10","[]","0","0","4","","","","","","","",""
"pit-trial","92","721381","0.0-2.0-17.2-1.2","battery-v0.2","","""event"",""trial"",""time""
""fullscreenenter"",""1"",""2589""
","
","
","""event"",""trial"",""time""
""fullscreenenter"",""1"",""2589""
","
","","","-1","","","16","4441","611","&#9789;","elianto","#f73b6a7A"," ","-1","0","-10","[]","0","0","4","","","","","","","",""
"pit-trial","93","726258","0.0-2.0-17.2-2.2","battery-v0.2","","""event"",""trial"",""time""
""fullscreenenter"",""1"",""2589""
","
","
","""event"",""trial"",""time""
""fullscreenenter"",""1"",""2589""
","
","","","-1","","","16","4441","611","&#9789;","elianto","#f73b6a7A"," ","-1","0","-10","[]","0","0","4","","","","","","","",""
"pit-trial","94","731133","0.0-2.0-17.2-3.2","battery-v0.2","","""event"",""trial"",""time""
""fullscreenenter"",""1"",""2589""
","
","
","""event"",""trial"",""time""
""fullscreenenter"",""1"",""2589""
","
","","","-1","","","16","4441","611","&#9789;","elianto","#f73b6a7A"," ","-1","0","0","[]","0","0","4","","","","","","","",""
"pit-trial","95","735999","0.0-2.0-17.2-4.2","battery-v0.2","","""event"",""trial"",""time""
""fullscreenenter"",""1"",""2589""
","
","
","""event"",""trial"",""time""
""fullscreenenter"",""1"",""2589""
","
","","","-1","","","16","4441","611","&#9789;","elianto","#f73b6a7A"," ","-1","0","-10","[]","0","0","4","","","","","","","",""
"pit-trial","96","740872","0.0-2.0-17.3-0.3","battery-v0.2","","""event"",""trial"",""time""
""fullscreenenter"",""1"",""2589""
","
","
","""event"",""trial"",""time""
""fullscreenenter"",""1"",""2589""
","
","","","-1","","","16","4441","611","&#9789;","elianto","#f73b6a7A"," ","-1","0","-10","[]","0","0","4","","","","","","","",""
"pit-trial","97","745743","0.0-2.0-17.3-1.3","battery-v0.2","","""event"",""trial"",""time""
""fullscreenenter"",""1"",""2589""
","
","
","""event"",""trial"",""time""
""fullscreenenter"",""1"",""2589""
","
","","","-1","","","16","4441","611","&#9789;","elianto","#f73b6a7A"," ","-1","0","-10","[]","0","0","4","","","","","","","",""
"pit-trial","98","750616","0.0-2.0-17.3-2.3","battery-v0.2","","""event"",""trial"",""time""
""fullscreenenter"",""1"",""2589""
","
","
","""event"",""trial"",""time""
""fullscreenenter"",""1"",""2589""
","
","","","-1","","","16","4441","611","&#9789;","elianto","#f73b6a7A"," ","-1","0","-10","[]","0","0","4","","","","","","","",""
"pit-trial","99","755490","0.0-2.0-17.3-3.3","battery-v0.2","","""event"",""trial"",""time""
""fullscreenenter"",""1"",""2589""
","
","
","""event"",""trial"",""time""
""fullscreenenter"",""1"",""2589""
","
","","","-1","","","16","4441","611","&#9789;","elianto","#f73b6a7A"," ","-1","0","0","[]","0","0","4","","","","","","","",""
"pit-trial","100","760361","0.0-2.0-17.3-4.3","battery-v0.2","","""event"",""trial"",""time""
""fullscreenenter"",""1"",""2589""
","
","
","""event"",""trial"",""time""
""fullscreenenter"",""1"",""2589""
","
","","","-1","","","16","4441","611","&#9789;","elianto","#f73b6a7A"," ","-1","0","-10","[]","0","0","4","","","","","","","",""
"call-function","101","760365","0.0-2.0-18.0","battery-v0.2","","""event"",""trial"",""time""
""fullscreenenter"",""1"",""2589""
","
","
","""event"",""trial"",""time""
""fullscreenenter"",""1"",""2589""
","
","","","","","","","","","","","","","","","","","","","","","","","","","","",""
"pit-instructions","102","837189","0.0-2.0-19.0","battery-v0.2","","""event"",""trial"",""time""
""fullscreenenter"",""1"",""2589""
","
","
","""event"",""trial"",""time""
""fullscreenenter"",""1"",""2589""
","
","","[{""page_index"":0,""viewing_time"":10985.800000011921},{""page_index"":1,""viewing_time"":9275.5},{""page_index"":2,""viewing_time"":10116.699999988079},{""page_index"":3,""viewing_time"":7995},{""page_index"":4,""viewing_time"":8794.90000000596},{""page_index"":5,""viewing_time"":8525.09999999404},{""page_index"":6,""viewing_time"":8598.700000017881},{""page_index"":7,""viewing_time"":7414.0999999940395},{""page_index"":8,""viewing_time"":5112.800000011921}]","76819.40000000596","","","","","","","","","","","","","","","","","","","","","","","",""
"pit-comprehension","103","843536","0.0-2.0-20.0-0.0","battery-v0.2","","""event"",""trial"",""time""
""fullscreenenter"",""1"",""2589""
","
","
","""event"",""trial"",""time""
""fullscreenenter"",""1"",""2589""
","
","","","6331.4000000059605","[""SPACE""]","0","16","4441","611","","","","","","","","","","","","","","","","","","",""
"pit-instructions","104","846808","0.0-2.0-20.0-1.0","battery-v0.2","","""event"",""trial"",""time""
""fullscreenenter"",""1"",""2589""
","
","
","""event"",""trial"",""time""
""fullscreenenter"",""1"",""2589""
","
","","[{""page_index"":0,""viewing_time"":3189.0999999940395}]","3189.9000000059605","","","","","","","","","","","","","","","","","","","","","","","",""
"pit-comprehension","105","855147","0.0-2.0-21.0-0.0","battery-v0.2","","""event"",""trial"",""time""
""fullscreenenter"",""1"",""2589""
","
","
","""event"",""trial"",""time""
""fullscreenenter"",""1"",""2589""
","
","","","8326.5","[""10""]","0","16","4441","611","","","","","","","","","","","","","","","","","","",""
"pit-instructions","106","857851","0.0-2.0-21.0-1.0","battery-v0.2","","""event"",""trial"",""time""
""fullscreenenter"",""1"",""2589""
","
","
","""event"",""trial"",""time""
""fullscreenenter"",""1"",""2589""
","
","","[{""page_index"":0,""viewing_time"":2613.4000000059605}]","2614.0999999940395","","","","","","","","","","","","","","","","","","","","","","","",""
"pit-comprehension","107","867130","0.0-2.0-22.0-0.0","battery-v0.2","","""event"",""trial"",""time""
""fullscreenenter"",""1"",""2589""
","
","
","""event"",""trial"",""time""
""fullscreenenter"",""1"",""2589""
","
","","","9271.59999999404","[""0""]","0","16","4441","611","","","","","","","","","","","","","","","","","","",""
"pit-instructions","108","870487","0.0-2.0-22.0-1.0","battery-v0.2","","""event"",""trial"",""time""
""fullscreenenter"",""1"",""2589""
","
","
","""event"",""trial"",""time""
""fullscreenenter"",""1"",""2589""
","
","","[{""page_index"":0,""viewing_time"":3268.0999999940395}]","3268.7999999821186","","","","","","","","","","","","","","","","","","","","","","","",""
"pit-comprehension","109","879604","0.0-2.0-23.0-0.0","battery-v0.2","","""event"",""trial"",""time""
""fullscreenenter"",""1"",""2589""
","
","
","""event"",""trial"",""time""
""fullscreenenter"",""1"",""2589""
","
","","","9105.5","[""True""]","0","16","4441","611","","","","","","","","","","","","","","","","","","",""
"pit-instructions","110","882073","0.0-2.0-23.0-1.0","battery-v0.2","","""event"",""trial"",""time""
""fullscreenenter"",""1"",""2589""
","
","
","""event"",""trial"",""time""
""fullscreenenter"",""1"",""2589""
","
","","[{""page_index"":0,""viewing_time"":2372.899999976158}]","2373.399999976158","","","","","","","","","","","","","","","","","","","","","","","",""
"pit-comprehension","111","889586","0.0-2.0-24.0-0.0","battery-v0.2","","""event"",""trial"",""time""
""fullscreenenter"",""1"",""2589""
","
","
","""event"",""trial"",""time""
""fullscreenenter"",""1"",""2589""
","
","","","7503.799999982119","[""True""]","0","16","4441","611","","","","","","","","","","","","","","","","","","",""
"pit-instructions","112","891422","0.0-2.0-24.0-1.0","battery-v0.2","","""event"",""trial"",""time""
""fullscreenenter"",""1"",""2589""
","
","
","""event"",""trial"",""time""
""fullscreenenter"",""1"",""2589""
","
","","[{""page_index"":0,""viewing_time"":1751.300000011921}]","1751.7000000178814","","","","","","","","","","","","","","","","","","","","","","","",""
"pit-comprehension","113","898887","0.0-2.0-25.0-0.0","battery-v0.2","","""event"",""trial"",""time""
""fullscreenenter"",""1"",""2589""
","
","
","""event"",""trial"",""time""
""fullscreenenter"",""1"",""2589""
","
","","","7457.5999999940395","[""True""]","0","16","4441","611","","","","","","","","","","","","","","","","","","",""
"pit-instructions","114","900850","0.0-2.0-25.0-1.0","battery-v0.2","","""event"",""trial"",""time""
""fullscreenenter"",""1"",""2589""
","
","
","""event"",""trial"",""time""
""fullscreenenter"",""1"",""2589""
","
","","[{""page_index"":0,""viewing_time"":1851.800000011921}]","1852.699999988079","","","","","","","","","","","","","","","","","","","","","","","",""
"pit-comprehension","115","907373","0.0-2.0-26.0-0.0","battery-v0.2","","""event"",""trial"",""time""
""fullscreenenter"",""1"",""2589""
","
","
","""event"",""trial"",""time""
""fullscreenenter"",""1"",""2589""
","
","","","6509.4000000059605","[""False""]","0","16","4441","611","","","","","","","","","","","","","","","","","","",""
"pit-instructions","116","909309","0.0-2.0-26.0-1.0","battery-v0.2","","""event"",""trial"",""time""
""fullscreenenter"",""1"",""2589""
","
","
","""event"",""trial"",""time""
""fullscreenenter"",""1"",""2589""
","
","","[{""page_index"":0,""viewing_time"":1850.9000000059605}]","1852","","","","","","","","","","","","","","","","","","","","","","","",""
"pit-instructions","117","925737","0.0-3.0","battery-v0.2","","""event"",""trial"",""time""
""fullscreenenter"",""1"",""2589""
","
","
","""event"",""trial"",""time""
""fullscreenenter"",""1"",""2589""
","
","","[{""page_index"":0,""viewing_time"":4258.4000000059605},{""page_index"":1,""viewing_time"":5888.300000011921},{""page_index"":2,""viewing_time"":6274.5999999940395}]","16422","","","","","","","","","","","","","","","","","","","","","","","",""
"pit-trial","118","930632","0.0-4.0","battery-v0.2","","""event"",""trial"",""time""
""fullscreenenter"",""1"",""2589""
","
","
","""event"",""trial"",""time""
""fullscreenenter"",""1"",""2589""
","
","","","-1","","","16","4441","611","&#9728;","elianto","#f73b6a7A","-1","-1","1","0","[]","0","1","","","4441","1","0","4","lose","no-go","0"
"pit-trial","119","934185","0.0-5.0","battery-v0.2","","""event"",""trial"",""time""
""fullscreenenter"",""1"",""2589""
","
","
","""event"",""trial"",""time""
""fullscreenenter"",""1"",""2589""
","
","","","688.5999999940395","","","16","4441","611","&#9730;","elianto","#3366ff99"," "," ","1","+10","[1540]","1","1","","","4441","2","1","1","win","go","0"
"pit-trial","120","937833","0.0-6.0","battery-v0.2","","""event"",""trial"",""time""
""fullscreenenter"",""1"",""2589""
","
","
","""event"",""trial"",""time""
""fullscreenenter"",""1"",""2589""
","
","","","781","","","16","4441","611","&#9733;","elianto","#3366ff99","-1"," ","0","0","[1639.699999988079]","1","1","","","4441","3","2","2","win","no-go","0"
"pit-trial","121","942355","0.0-7.0","battery-v0.2","","""event"",""trial"",""time""
""fullscreenenter"",""1"",""2589""
","
","
","""event"",""trial"",""time""
""fullscreenenter"",""1"",""2589""
","
","","","1661.5","","","16","4441","611","&#9752;","elianto","#f73b6a7A"," "," ","1","0","[2511.600000023842]","1","1","","","4441","4","3","3","lose","go","0"
"pit-trial","122","945998","0.0-8.0","battery-v0.2","","""event"",""trial"",""time""
""fullscreenenter"",""1"",""2589""
","
","
","""event"",""trial"",""time""
""fullscreenenter"",""1"",""2589""
","
","","","762.6999999880791","","","16","4441","611","&#9730;","elianto","#3366ff99"," "," ","1","0","[1620.2999999821186]","1","1","","","4441","5","1","1","win","go","1"
"pit-trial","123","950095","0.0-9.0","battery-v0.2","","""event"",""trial"",""time""
""fullscreenenter"",""1"",""2589""
","
","
","""event"",""trial"",""time""
""fullscreenenter"",""1"",""2589""
","
","","","1208.9000000059605","","","16","4441","611","&#9752;","elianto","#f73b6a7A"," "," ","1","0","[2069.0999999940395]","1","1","","","4441","6","3","3","lose","go","0"
"pit-trial","124","953785","0.0-10.0","battery-v0.2","","""event"",""trial"",""time""
""fullscreenenter"",""1"",""2589""
","
","
","""event"",""trial"",""time""
""fullscreenenter"",""1"",""2589""
","
","","","814","","","16","4441","611","&#9728;","elianto","#f73b6a7A","-1"," ","0","0","[1664.4000000059605]","1","1","","","4441","7","0","4","lose","no-go","1"
"pit-trial","125","957268","0.0-11.0","battery-v0.2","","""event"",""trial"",""time""
""fullscreenenter"",""1"",""2589""
","
","
","""event"",""trial"",""time""
""fullscreenenter"",""1"",""2589""
","
","","","608","","","16","4441","611","&#9733;","elianto","#3366ff99","-1"," ","0","0","[1465.7999999821186]","1","1","","","4441","8","2","2","win","no-go","0"
"pit-trial","126","960971","0.0-12.0","battery-v0.2","","""event"",""trial"",""time""
""fullscreenenter"",""1"",""2589""
","
","
","""event"",""trial"",""time""
""fullscreenenter"",""1"",""2589""
","
","","","829.4000000059605","","","16","4441","611","&#9752;","elianto","#f73b6a7A"," "," ","1","-10","[1689.5]","1","1","","","4441","9","3","3","lose","go","1"
"pit-trial","127","964497","0.0-13.0","battery-v0.2","","""event"",""trial"",""time""
""fullscreenenter"",""1"",""2589""
","
","
","""event"",""trial"",""time""
""fullscreenenter"",""1"",""2589""
","
","","","657.5","","","16","4441","611","&#9733;","elianto","#3366ff99","-1"," ","0","0","[1513.9000000059605]","1","1","","","4441","10","2","2","win","no-go","0"
"pit-trial","128","968067","0.0-14.0","battery-v0.2","","""event"",""trial"",""time""
""fullscreenenter"",""1"",""2589""
","
","
","""event"",""trial"",""time""
""fullscreenenter"",""1"",""2589""
","
","","","703.1000000238419","","","16","4441","611","&#9730;","elianto","#3366ff99"," "," ","1","0","[1560.1000000238419]","1","1","","","4441","11","1","1","win","go","1"
"pit-trial","129","971835","0.0-15.0","battery-v0.2","","""event"",""trial"",""time""
""fullscreenenter"",""1"",""2589""
","
","
","""event"",""trial"",""time""
""fullscreenenter"",""1"",""2589""
","
","","","898.4000000059605","","","16","4441","611","&#9728;","elianto","#f73b6a7A","-1"," ","0","-10","[1756.800000011921]","1","1","","","4441","12","0","4","lose","no-go","0"
"pit-trial","130","976703","0.0-16.0","battery-v0.2","","""event"",""trial"",""time""
""fullscreenenter"",""1"",""2589""
","
","
","""event"",""trial"",""time""
""fullscreenenter"",""1"",""2589""
","
","","","-1","","","16","4441","611","&#9752;","elianto","#f73b6a7A"," ","-1","0","-10","[]","0","1","","","4441","13","3","3","lose","go","0"
"pit-trial","131","980203","0.0-17.0","battery-v0.2","","""event"",""trial"",""time""
""fullscreenenter"",""1"",""2589""
","
","
","""event"",""trial"",""time""
""fullscreenenter"",""1"",""2589""
","
","","","637","","","16","4441","611","&#9733;","elianto","#3366ff99","-1"," ","0","0","[1489.7000000178814]","1","1","","","4441","14","2","2","win","no-go","0"
"pit-trial","132","985083","0.0-18.0","battery-v0.2","","""event"",""trial"",""time""
""fullscreenenter"",""1"",""2589""
","
","
","""event"",""trial"",""time""
""fullscreenenter"",""1"",""2589""
","
","","","-1","","","16","4441","611","&#9728;","elianto","#f73b6a7A","-1","-1","1","0","[]","0","1","","","4441","15","0","4","lose","no-go","0"
"pit-trial","133","988691","0.0-19.0","battery-v0.2","","""event"",""trial"",""time""
""fullscreenenter"",""1"",""2589""
","
","
","""event"",""trial"",""time""
""fullscreenenter"",""1"",""2589""
","
","","","735.4000000059605","","","16","4441","611","&#9730;","elianto","#3366ff99"," "," ","1","+10","[1591.2999999821186]","1","1","","","4441","16","1","1","win","go","0"
"pit-trial","134","992331","0.0-20.0","battery-v0.2","","""event"",""trial"",""time""
""fullscreenenter"",""1"",""2589""
","
","
","""event"",""trial"",""time""
""fullscreenenter"",""1"",""2589""
","
","","","783.6000000238419","","","16","4441","611","&#9730;","elianto","#3366ff99"," "," ","1","+10","[1634.2000000178814]","1","1","","","4441","17","1","1","win","go","0"
"pit-trial","135","997205","0.0-21.0","battery-v0.2","","""event"",""trial"",""time""
""fullscreenenter"",""1"",""2589""
","
","
","""event"",""trial"",""time""
""fullscreenenter"",""1"",""2589""
","
","","","-1","","","16","4441","611","&#9728;","elianto","#f73b6a7A","-1","-1","1","0","[]","0","1","","","4441","18","0","4","lose","no-go","0"
"pit-trial","136","1000957","0.0-22.0","battery-v0.2","","""event"",""trial"",""time""
""fullscreenenter"",""1"",""2589""
","
","
","""event"",""trial"",""time""
""fullscreenenter"",""1"",""2589""
","
","","","884","","","16","4441","611","&#9733;","elianto","#3366ff99","-1"," ","0","0","[1735.2999999821186]","1","1","","","4441","19","2","2","win","no-go","0"
"pit-trial","137","1005835","0.0-23.0","battery-v0.2","","""event"",""trial"",""time""
""fullscreenenter"",""1"",""2589""
","
","
","""event"",""trial"",""time""
""fullscreenenter"",""1"",""2589""
","
","","","-1","","","16","4441","611","&#9752;","elianto","#f73b6a7A"," ","-1","0","-10","[]","0","1","","","4441","20","3","3","lose","go","0"
"pit-instructions","138","1020409","0.0-24.0","battery-v0.2","","""event"",""trial"",""time""
""fullscreenenter"",""1"",""2589""
","
","
","""event"",""trial"",""time""
""fullscreenenter"",""1"",""2589""
","
","","[{""page_index"":0,""viewing_time"":7629.5999999940395},{""page_index"":1,""viewing_time"":6939.200000017881}]","14570","","","","","","","","","","","","","","","","","","","","","","","",""
"pit-trial","139","1025297","0.0-25.0","battery-v0.2","","""event"",""trial"",""time""
""fullscreenenter"",""1"",""2589""
","
","
","""event"",""trial"",""time""
""fullscreenenter"",""1"",""2589""
","
","","","-1","","","16","4441","611","y","elianto","#f73b6a7A"," ","-1","0","-10","[]","0","2","","","4441","21","2","3","lose","go","0"
"pit-trial","140","1030171","0.0-26.0","battery-v0.2","","""event"",""trial"",""time""
""fullscreenenter"",""1"",""2589""
","
","
","""event"",""trial"",""time""
""fullscreenenter"",""1"",""2589""
","
","","","-1","","","16","4441","611","m","elianto","#f73b6a7A"," ","-1","0","-10","[]","0","2","","","4441","22","0","3","lose","go","0"
"pit-trial","141","1033790","0.0-27.0","battery-v0.2","","""event"",""trial"",""time""
""fullscreenenter"",""1"",""2589""
","
","
","""event"",""trial"",""time""
""fullscreenenter"",""1"",""2589""
","
","","","751.5999999940395","","","16","4441","611","r","elianto","#3366ff99","-1"," ","0","0","[1602.199999988079]","1","2","","","4441","23","1","2","win","no-go","0"
"pit-trial","142","1038681","0.0-28.0","battery-v0.2","","""event"",""trial"",""time""
""fullscreenenter"",""1"",""2589""
","
","
","""event"",""trial"",""time""
""fullscreenenter"",""1"",""2589""
","
","","","-1","","","16","4441","611","h","elianto","#f73b6a7A","-1","-1","1","0","[]","0","2","","","4441","24","3","4","lose","no-go","0"
"pit-trial","143","1043560","0.0-29.0","battery-v0.2","","""event"",""trial"",""time""
""fullscreenenter"",""1"",""2589""
","
","
","""event"",""trial"",""time""
""fullscreenenter"",""1"",""2589""
","
","","","-1","","","16","4441","611","m","elianto","#f73b6a7A"," ","-1","0","-10","[]","0","2","","","4441","25","0","3","lose","go","0"
"pit-trial","144","1048445","0.0-30.0","battery-v0.2","","""event"",""trial"",""time""
""fullscreenenter"",""1"",""2589""
","
","
","""event"",""trial"",""time""
""fullscreenenter"",""1"",""2589""
","
","","","-1","","","16","4441","611","y","elianto","#f73b6a7A"," ","-1","0","-10","[]","0","2","","","4441","26","2","3","lose","go","0"
"pit-trial","145","1051962","0.0-31.0","battery-v0.2","","""event"",""trial"",""time""
""fullscreenenter"",""1"",""2589""
","
","
","""event"",""trial"",""time""
""fullscreenenter"",""1"",""2589""
","
","","","649.5","","","16","4441","611","r","elianto","#3366ff99","-1"," ","0","0","[1503.5999999940395]","1","2","","","4441","27","1","2","win","no-go","0"
"pit-trial","146","1056826","0.0-32.0","battery-v0.2","","""event"",""trial"",""time""
""fullscreenenter"",""1"",""2589""
","
","
","""event"",""trial"",""time""
""fullscreenenter"",""1"",""2589""
","
","","","-1","","","16","4441","611","h","elianto","#f73b6a7A","-1","-1","1","0","[]","0","2","","","4441","28","3","4","lose","no-go","0"
"pit-trial","147","1061701","0.0-33.0","battery-v0.2","","""event"",""trial"",""time""
""fullscreenenter"",""1"",""2589""
","
","
","""event"",""trial"",""time""
""fullscreenenter"",""1"",""2589""
","
","","","-1","","","16","4441","611","y","elianto","#f73b6a7A"," ","-1","0","-10","[]","0","2","","","4441","29","2","3","lose","go","0"
"pit-trial","148","1066572","0.0-34.0","battery-v0.2","","""event"",""trial"",""time""
""fullscreenenter"",""1"",""2589""
","
","
","""event"",""trial"",""time""
""fullscreenenter"",""1"",""2589""
","
","","","-1","","","16","4441","611","m","elianto","#f73b6a7A"," ","-1","0","-10","[]","0","2","","","4441","30","0","3","lose","go","0"
"pit-trial","149","1071445","0.0-35.0","battery-v0.2","","""event"",""trial"",""time""
""fullscreenenter"",""1"",""2589""
","
","
","""event"",""trial"",""time""
""fullscreenenter"",""1"",""2589""
","
","","","-1","","","16","4441","611","h","elianto","#f73b6a7A","-1","-1","1","0","[]","0","2","","","4441","31","3","4","lose","no-go","0"
"pit-trial","150","1075027","0.0-36.0","battery-v0.2","","""event"",""trial"",""time""
""fullscreenenter"",""1"",""2589""
","
","
","""event"",""trial"",""time""
""fullscreenenter"",""1"",""2589""
","
","","","715.8000000119209","","","16","4441","611","r","elianto","#3366ff99","-1"," ","0","0","[1567.300000011921]","1","2","","","4441","32","1","2","win","no-go","0"
"pit-trial","151","1078595","0.0-37.0","battery-v0.2","","""event"",""trial"",""time""
""fullscreenenter"",""1"",""2589""
","
","
","""event"",""trial"",""time""
""fullscreenenter"",""1"",""2589""
","
","","","701","","","16","4441","611","r","elianto","#3366ff99","-1"," ","0","0","[1553.5]","1","2","","","4441","33","1","2","win","no-go","0"
"pit-trial","152","1083468","0.0-38.0","battery-v0.2","","""event"",""trial"",""time""
""fullscreenenter"",""1"",""2589""
","
","
","""event"",""trial"",""time""
""fullscreenenter"",""1"",""2589""
","
","","","-1","","","16","4441","611","m","elianto","#f73b6a7A"," ","-1","0","-10","[]","0","2","","","4441","34","0","3","lose","go","0"
"pit-trial","153","1088341","0.0-39.0","battery-v0.2","","""event"",""trial"",""time""
""fullscreenenter"",""1"",""2589""
","
","
","""event"",""trial"",""time""
""fullscreenenter"",""1"",""2589""
","
","","","-1","","","16","4441","611","y","elianto","#f73b6a7A"," ","-1","0","-10","[]","0","2","","","4441","35","2","3","lose","go","0"
"pit-trial","154","1093214","0.0-40.0","battery-v0.2","","""event"",""trial"",""time""
""fullscreenenter"",""1"",""2589""
","
","
","""event"",""trial"",""time""
""fullscreenenter"",""1"",""2589""
","
","","","-1","","","16","4441","611","h","elianto","#f73b6a7A","-1","-1","1","0","[]","0","2","","","4441","36","3","4","lose","no-go","0"
"pit-trial","155","1098082","0.0-41.0","battery-v0.2","","""event"",""trial"",""time""
""fullscreenenter"",""1"",""2589""
","
","
","""event"",""trial"",""time""
""fullscreenenter"",""1"",""2589""
","
","","","-1","","","16","4441","611","m","elianto","#f73b6a7A"," ","-1","0","0","[]","0","2","","","4441","37","0","3","lose","go","1"
"pit-trial","156","1102964","0.0-42.0","battery-v0.2","","""event"",""trial"",""time""
""fullscreenenter"",""1"",""2589""
","
","
","""event"",""trial"",""time""
""fullscreenenter"",""1"",""2589""
","
","","","-1","","","16","4441","611","h","elianto","#f73b6a7A","-1","-1","1","0","[]","0","2","","","4441","38","3","4","lose","no-go","0"
"pit-trial","157","1107840","0.0-43.0","battery-v0.2","","""event"",""trial"",""time""
""fullscreenenter"",""1"",""2589""
","
","
","""event"",""trial"",""time""
""fullscreenenter"",""1"",""2589""
","
","","","-1","","","16","4441","611","y","elianto","#f73b6a7A"," ","-1","0","0","[]","0","2","","","4441","39","2","3","lose","go","1"
"pit-trial","158","1111646","0.0-44.0","battery-v0.2","","""event"",""trial"",""time""
""fullscreenenter"",""1"",""2589""
","
","
","""event"",""trial"",""time""
""fullscreenenter"",""1"",""2589""
","
","","","941.8000000119209","","","16","4441","611","r","elianto","#3366ff99","-1"," ","0","0","[1791.800000011921]","1","2","","","4441","40","1","2","win","no-go","0"
"pit-trial","159","1115117","0.0-45.0","battery-v0.2","","""event"",""trial"",""time""
""fullscreenenter"",""1"",""2589""
","
","
","""event"",""trial"",""time""
""fullscreenenter"",""1"",""2589""
","
","","","593.4000000059605","","","16","4441","611","r","elianto","#3366ff99","-1"," ","0","0","[1453.7999999821186]","1","2","","","4441","41","1","2","win","no-go","0"
"pit-trial","160","1119984","0.0-46.0","battery-v0.2","","""event"",""trial"",""time""
""fullscreenenter"",""1"",""2589""
","
","
","""event"",""trial"",""time""
""fullscreenenter"",""1"",""2589""
","
","","","-1","","","16","4441","611","h","elianto","#f73b6a7A","-1","-1","1","-10","[]","0","2","","","4441","42","3","4","lose","no-go","1"
"pit-trial","161","1124857","0.0-47.0","battery-v0.2","","""event"",""trial"",""time""
""fullscreenenter"",""1"",""2589""
","
","
","""event"",""trial"",""time""
""fullscreenenter"",""1"",""2589""
","
","","","-1","","","16","4441","611","m","elianto","#f73b6a7A"," ","-1","0","-10","[]","0","2","","","4441","43","0","3","lose","go","0"
"pit-trial","162","1128887","0.0-48.0","battery-v0.2","","""event"",""trial"",""time""
""fullscreenenter"",""1"",""2589""
","
","
","""event"",""trial"",""time""
""fullscreenenter"",""1"",""2589""
","
","","","1166.0999999940395","","","16","4441","611","y","elianto","#f73b6a7A"," "," ","1","0","[2016.9000000059605]","1","2","","","4441","44","2","3","lose","go","0"
"pit-trial","163","1132612","0.0-49.0","battery-v0.2","","""event"",""trial"",""time""
""fullscreenenter"",""1"",""2589""
","
","
","""event"",""trial"",""time""
""fullscreenenter"",""1"",""2589""
","
","","","853.0999999940395","","","16","4441","611","h","elianto","#f73b6a7A","-1"," ","0","0","[1707.300000011921]","1","2","","","4441","45","3","4","lose","no-go","1"
"pit-trial","164","1136067","0.0-50.0","battery-v0.2","","""event"",""trial"",""time""
""fullscreenenter"",""1"",""2589""
","
","
","""event"",""trial"",""time""
""fullscreenenter"",""1"",""2589""
","
","","","586.4000000059605","","","16","4441","611","y","elianto","#f73b6a7A"," "," ","1","0","[1444.5]","1","2","","","4441","46","2","3","lose","go","0"
"pit-trial","165","1139554","0.0-51.0","battery-v0.2","","""event"",""trial"",""time""
""fullscreenenter"",""1"",""2589""
","
","
","""event"",""trial"",""time""
""fullscreenenter"",""1"",""2589""
","
","","","618.7999999821186","","","16","4441","611","r","elianto","#3366ff99","-1"," ","0","0","[1471.699999988079]","1","2","","","4441","47","1","2","win","no-go","0"
"pit-trial","166","1143052","0.0-52.0","battery-v0.2","","""event"",""trial"",""time""
""fullscreenenter"",""1"",""2589""
","
","
","""event"",""trial"",""time""
""fullscreenenter"",""1"",""2589""
","
","","","628.3000000119209","","","16","4441","611","m","elianto","#f73b6a7A"," "," ","1","-10","[1480.9000000059605]","1","2","","","4441","48","0","3","lose","go","1"
"pit-trial","167","1146208","0.0-53.0","battery-v0.2","","""event"",""trial"",""time""
""fullscreenenter"",""1"",""2589""
","
","
","""event"",""trial"",""time""
""fullscreenenter"",""1"",""2589""
","
","","","287","","","16","4441","611","m","elianto","#f73b6a7A"," "," ","1","-10","[1138.2000000178814]","1","2","","","4441","49","0","3","lose","go","1"
"pit-trial","168","1149280","0.0-54.0","battery-v0.2","","""event"",""trial"",""time""
""fullscreenenter"",""1"",""2589""
","
","
","""event"",""trial"",""time""
""fullscreenenter"",""1"",""2589""
","
","","","209","","","16","4441","611","r","elianto","#3366ff99","-1"," ","0","0","[1063.2999999821186]","1","2","","","4441","50","1","2","win","no-go","0"
"pit-trial","169","1152657","0.0-55.0","battery-v0.2","","""event"",""trial"",""time""
""fullscreenenter"",""1"",""2589""
","
","
","""event"",""trial"",""time""
""fullscreenenter"",""1"",""2589""
","
","","","512.5999999940395","","","16","4441","611","h","elianto","#f73b6a7A","-1"," ","0","-10","[1364.0999999940395]","1","2","","","4441","51","3","4","lose","no-go","0"
"pit-trial","170","1155692","0.0-56.0","battery-v0.2","","""event"",""trial"",""time""
""fullscreenenter"",""1"",""2589""
","
","
","""event"",""trial"",""time""
""fullscreenenter"",""1"",""2589""
","
","","","176","","","16","4441","611","y","elianto","#f73b6a7A"," "," ","1","0","[1030.5]","1","2","","","4441","52","2","3","lose","go","0"
"pit-trial","171","1159337","0.0-57.0","battery-v0.2","","""event"",""trial"",""time""
""fullscreenenter"",""1"",""2589""
","
","
","""event"",""trial"",""time""
""fullscreenenter"",""1"",""2589""
","
","","","773.4000000059605","","","16","4441","611","y","elianto","#f73b6a7A"," "," ","1","0","[1626.800000011921]","1","2","","","4441","53","2","3","lose","go","0"
"pit-trial","172","1164212","0.0-58.0","battery-v0.2","","""event"",""trial"",""time""
""fullscreenenter"",""1"",""2589""
","
","
","""event"",""trial"",""time""
""fullscreenenter"",""1"",""2589""
","
","","","-1","","","16","4441","611","m","elianto","#f73b6a7A"," ","-1","0","-10","[]","0","2","","","4441","54","0","3","lose","go","0"
"pit-trial","173","1167683","0.0-59.0","battery-v0.2","","""event"",""trial"",""time""
""fullscreenenter"",""1"",""2589""
","
","
","""event"",""trial"",""time""
""fullscreenenter"",""1"",""2589""
","
","","","609.5999999940395","","","16","4441","611","r","elianto","#3366ff99","-1"," ","0","0","[1462.5]","1","2","","","4441","55","1","2","win","no-go","0"
"pit-trial","174","1171369","0.0-60.0","battery-v0.2","","""event"",""trial"",""time""
""fullscreenenter"",""1"",""2589""
","
","
","""event"",""trial"",""time""
""fullscreenenter"",""1"",""2589""
","
","","","809.3000000119209","","","16","4441","611","h","elianto","#f73b6a7A","-1"," ","0","0","[1666.800000011921]","1","2","","","4441","56","3","4","lose","no-go","1"
"pit-trial","175","1175011","0.0-61.0","battery-v0.2","","""event"",""trial"",""time""
""fullscreenenter"",""1"",""2589""
","
","
","""event"",""trial"",""time""
""fullscreenenter"",""1"",""2589""
","
","","","777","","","16","4441","611","z","elianto","#3366ff99"," "," ","1","+10","[1633.7999999821186]","1","2","","","4441","57","4","1","win","go","0"
"pit-trial","176","1179154","0.0-62.0","battery-v0.2","","""event"",""trial"",""time""
""fullscreenenter"",""1"",""2589""
","
","
","""event"",""trial"",""time""
""fullscreenenter"",""1"",""2589""
","
","","","1275.199999988079","","","16","4441","611","y","elianto","#f73b6a7A"," "," ","1","0","[2128.2999999821186]","1","2","","","4441","58","2","3","lose","go","0"
"pit-trial","177","1184020","0.0-63.0","battery-v0.2","","""event"",""trial"",""time""
""fullscreenenter"",""1"",""2589""
","
","
","""event"",""trial"",""time""
""fullscreenenter"",""1"",""2589""
","
","","","-1","","","16","4441","611","h","elianto","#f73b6a7A","-1","-1","1","0","[]","0","2","","","4441","59","3","4","lose","no-go","0"
"pit-trial","178","1188022","0.0-64.0","battery-v0.2","","""event"",""trial"",""time""
""fullscreenenter"",""1"",""2589""
","
","
","""event"",""trial"",""time""
""fullscreenenter"",""1"",""2589""
","
","","","1136.6000000238419","","","16","4441","611","m","elianto","#f73b6a7A"," "," ","1","0","[1991]","1","2","","","4441","60","0","3","lose","go","0"
"pit-trial","179","1191524","0.0-65.0","battery-v0.2","","""event"",""trial"",""time""
""fullscreenenter"",""1"",""2589""
","
","
","""event"",""trial"",""time""
""fullscreenenter"",""1"",""2589""
","
","","","642.7000000178814","","","16","4441","611","z","elianto","#3366ff99"," "," ","1","+10","[1495.5999999940395]","1","2","","","4441","61","4","1","win","go","0"
"pit-trial","180","1195114","0.0-66.0","battery-v0.2","","""event"",""trial"",""time""
""fullscreenenter"",""1"",""2589""
","
","
","""event"",""trial"",""time""
""fullscreenenter"",""1"",""2589""
","
","","","722.5999999940395","","","16","4441","611","r","elianto","#3366ff99","-1"," ","0","0","[1574.0999999940395]","1","2","","","4441","62","1","2","win","no-go","0"
"pit-trial","181","1198944","0.0-67.0","battery-v0.2","","""event"",""trial"",""time""
""fullscreenenter"",""1"",""2589""
","
","
","""event"",""trial"",""time""
""fullscreenenter"",""1"",""2589""
","
","","","953.1000000238419","","","16","4441","611","h","elianto","#f73b6a7A","-1"," ","0","0","[1810.9000000059605]","1","2","","","4441","63","3","4","lose","no-go","1"
"pit-trial","182","1203812","0.0-68.0","battery-v0.2","","""event"",""trial"",""time""
""fullscreenenter"",""1"",""2589""
","
","
","""event"",""trial"",""time""
""fullscreenenter"",""1"",""2589""
","
","","","-1","","","16","4441","611","y","elianto","#f73b6a7A"," ","-1","0","-10","[]","0","2","","","4441","64","2","3","lose","go","0"
"pit-trial","183","1207473","0.0-69.0","battery-v0.2","","""event"",""trial"",""time""
""fullscreenenter"",""1"",""2589""
","
","
","""event"",""trial"",""time""
""fullscreenenter"",""1"",""2589""
","
","","","782.3000000119209","","","16","4441","611","c","elianto","#3366ff99","-1"," ","0","+10","[1640]","1","2","","","4441","65","5","2","win","no-go","1"
"pit-trial","184","1211280","0.0-70.0","battery-v0.2","","""event"",""trial"",""time""
""fullscreenenter"",""1"",""2589""
","
","
","""event"",""trial"",""time""
""fullscreenenter"",""1"",""2589""
","
","","","944.0999999940395","","","16","4441","611","z","elianto","#3366ff99"," "," ","1","+10","[1795.0999999940395]","1","2","","","4441","66","4","1","win","go","0"
"pit-trial","185","1216153","0.0-71.0","battery-v0.2","","""event"",""trial"",""time""
""fullscreenenter"",""1"",""2589""
","
","
","""event"",""trial"",""time""
""fullscreenenter"",""1"",""2589""
","
","","","-1","","","16","4441","611","r","elianto","#3366ff99","-1","-1","1","+10","[]","0","2","","","4441","67","1","2","win","no-go","0"
"pit-trial","186","1220394","0.0-72.0","battery-v0.2","","""event"",""trial"",""time""
""fullscreenenter"",""1"",""2589""
","
","
","""event"",""trial"",""time""
""fullscreenenter"",""1"",""2589""
","
","","","1374.699999988079","","","16","4441","611","h","elianto","#f73b6a7A","-1"," ","0","-10","[2225.5]","1","2","","","4441","68","3","4","lose","no-go","0"
"pit-trial","187","1224023","0.0-73.0","battery-v0.2","","""event"",""trial"",""time""
""fullscreenenter"",""1"",""2589""
","
","
","""event"",""trial"",""time""
""fullscreenenter"",""1"",""2589""
","
","","","754.3000000119209","","","16","4441","611","c","elianto","#3366ff99","-1"," ","0","0","[1611.699999988079]","1","2","","","4441","69","5","2","win","no-go","0"
"pit-trial","188","1228901","0.0-74.0","battery-v0.2","","""event"",""trial"",""time""
""fullscreenenter"",""1"",""2589""
","
","
","""event"",""trial"",""time""
""fullscreenenter"",""1"",""2589""
","
","","","-1","","","16","4441","611","r","elianto","#3366ff99","-1","-1","1","+10","[]","0","2","","","4441","70","1","2","win","no-go","0"
"pit-trial","189","1232633","0.0-75.0","battery-v0.2","","""event"",""trial"",""time""
""fullscreenenter"",""1"",""2589""
","
","
","""event"",""trial"",""time""
""fullscreenenter"",""1"",""2589""
","
","","","869.0999999940395","","","16","4441","611","y","elianto","#f73b6a7A"," "," ","1","0","[1725.4000000059605]","1","2","","","4441","71","2","3","lose","go","0"
"pit-trial","190","1236457","0.0-76.0","battery-v0.2","","""event"",""trial"",""time""
""fullscreenenter"",""1"",""2589""
","
","
","""event"",""trial"",""time""
""fullscreenenter"",""1"",""2589""
","
","","","959.0999999940395","","","16","4441","611","z","elianto","#3366ff99"," "," ","1","+10","[1815]","1","2","","","4441","72","4","1","win","go","0"
"pit-trial","191","1241322","0.0-77.0","battery-v0.2","","""event"",""trial"",""time""
""fullscreenenter"",""1"",""2589""
","
","
","""event"",""trial"",""time""
""fullscreenenter"",""1"",""2589""
","
","","","-1","","","16","4441","611","r","elianto","#3366ff99","-1","-1","1","+10","[]","0","2","","","4441","73","1","2","win","no-go","0"
"pit-trial","192","1246197","0.0-78.0","battery-v0.2","","""event"",""trial"",""time""
""fullscreenenter"",""1"",""2589""
","
","
","""event"",""trial"",""time""
""fullscreenenter"",""1"",""2589""
","
","","","-1","","","16","4441","611","h","elianto","#f73b6a7A","-1","-1","1","0","[2878.2999999821186]","1","2","","","4441","74","3","4","lose","no-go","0"
"pit-trial","193","1250002","0.0-79.0","battery-v0.2","","""event"",""trial"",""time""
""fullscreenenter"",""1"",""2589""
","
","
","""event"",""trial"",""time""
""fullscreenenter"",""1"",""2589""
","
","","","938.3999999761581","","","16","4441","611","z","elianto","#3366ff99"," "," ","1","+10","[1795.7000000178814]","1","2","","","4441","75","4","1","win","go","0"
"pit-trial","194","1253819","0.0-80.0","battery-v0.2","","""event"",""trial"",""time""
""fullscreenenter"",""1"",""2589""
","
","
","""event"",""trial"",""time""
""fullscreenenter"",""1"",""2589""
","
","","","954.5999999940395","","","16","4441","611","c","elianto","#3366ff99","-1"," ","0","0","[1806.199999988079]","1","2","","","4441","76","5","2","win","no-go","0"
"pit-trial","195","1257633","0.0-81.0","battery-v0.2","","""event"",""trial"",""time""
""fullscreenenter"",""1"",""2589""
","
","
","""event"",""trial"",""time""
""fullscreenenter"",""1"",""2589""
","
","","","954.8000000119209","","","16","4441","611","z","elianto","#3366ff99"," "," ","1","+10","[1806.300000011921]","1","2","","","4441","77","4","1","win","go","0"
"pit-trial","196","1261337","0.0-82.0","battery-v0.2","","""event"",""trial"",""time""
""fullscreenenter"",""1"",""2589""
","
","
","""event"",""trial"",""time""
""fullscreenenter"",""1"",""2589""
","
","","","830.1999999880791","","","16","4441","611","c","elianto","#3366ff99","-1"," ","0","0","[1683.4000000059605]","1","2","","","4441","78","5","2","win","no-go","0"
"pit-trial","197","1264835","0.0-83.0","battery-v0.2","","""event"",""trial"",""time""
""fullscreenenter"",""1"",""2589""
","
","
","""event"",""trial"",""time""
""fullscreenenter"",""1"",""2589""
","
","","","630.3000000119209","","","16","4441","611","z","elianto","#3366ff99"," "," ","1","+10","[1481.800000011921]","1","2","","","4441","79","4","1","win","go","0"
"pit-trial","198","1269476","0.0-84.0","battery-v0.2","","""event"",""trial"",""time""
""fullscreenenter"",""1"",""2589""
","
","
","""event"",""trial"",""time""
""fullscreenenter"",""1"",""2589""
","
","","","1773.2999999821186","","","16","4441","611","h","elianto","#f73b6a7A","-1"," ","0","-10","[2624.2999999821186]","1","2","","","4441","80","3","4","lose","no-go","0"
"pit-trial","199","1273094","0.0-85.0","battery-v0.2","","""event"",""trial"",""time""
""fullscreenenter"",""1"",""2589""
","
","
","""event"",""trial"",""time""
""fullscreenenter"",""1"",""2589""
","
","","","740.5999999940395","","","16","4441","611","z","elianto","#3366ff99"," "," ","1","+10","[1599.4000000059605]","1","2","","","4441","81","4","1","win","go","0"
"pit-trial","200","1277962","0.0-86.0","battery-v0.2","","""event"",""trial"",""time""
""fullscreenenter"",""1"",""2589""
","
","
","""event"",""trial"",""time""
""fullscreenenter"",""1"",""2589""
","
","","","-1","","","16","4441","611","c","elianto","#3366ff99","-1","-1","1","+10","[]","0","2","","","4441","82","5","2","win","no-go","0"
"pit-trial","201","1282841","0.0-87.0","battery-v0.2","","""event"",""trial"",""time""
""fullscreenenter"",""1"",""2589""
","
","
","""event"",""trial"",""time""
""fullscreenenter"",""1"",""2589""
","
","","","-1","","","16","4441","611","h","elianto","#f73b6a7A","-1","-1","1","0","[]","0","2","","","4441","83","3","4","lose","no-go","0"
"pit-trial","202","1286505","0.0-88.0","battery-v0.2","","""event"",""trial"",""time""
""fullscreenenter"",""1"",""2589""
","
","
","""event"",""trial"",""time""
""fullscreenenter"",""1"",""2589""
","
","","","798.7000000178814","","","16","4441","611","t","elianto","#f73b6a7A","-1"," ","0","-10","[1654.5]","1","2","","","4441","84","7","4","lose","no-go","0"
"pit-trial","203","1290318","0.0-89.0","battery-v0.2","","""event"",""trial"",""time""
""fullscreenenter"",""1"",""2589""
","
","
","""event"",""trial"",""time""
""fullscreenenter"",""1"",""2589""
","
","","","939.6999999880791","","","16","4441","611","b","elianto","#f73b6a7A"," "," ","1","-10","[1800.2999999821186]","1","2","","","4441","85","6","3","lose","go","1"
"pit-trial","204","1293805","0.0-90.0","battery-v0.2","","""event"",""trial"",""time""
""fullscreenenter"",""1"",""2589""
","
","
","""event"",""trial"",""time""
""fullscreenenter"",""1"",""2589""
","
","","","620.3000000119209","","","16","4441","611","t","elianto","#f73b6a7A","-1"," ","0","-10","[1470.800000011921]","1","2","","","4441","86","7","4","lose","no-go","0"
"pit-trial","205","1297495","0.0-91.0","battery-v0.2","","""event"",""trial"",""time""
""fullscreenenter"",""1"",""2589""
","
","
","""event"",""trial"",""time""
""fullscreenenter"",""1"",""2589""
","
","","","815","","","16","4441","611","z","elianto","#3366ff99"," "," ","1","+10","[1670.5]","1","2","","","4441","87","4","1","win","go","0"
"pit-trial","206","1300986","0.0-92.0","battery-v0.2","","""event"",""trial"",""time""
""fullscreenenter"",""1"",""2589""
","
","
","""event"",""trial"",""time""
""fullscreenenter"",""1"",""2589""
","
","","","624.5","","","16","4441","611","c","elianto","#3366ff99","-1"," ","0","0","[1478.199999988079]","1","2","","","4441","88","5","2","win","no-go","0"
"pit-trial","207","1305862","0.0-93.0","battery-v0.2","","""event"",""trial"",""time""
""fullscreenenter"",""1"",""2589""
","
","
","""event"",""trial"",""time""
""fullscreenenter"",""1"",""2589""
","
","","","-1","","","16","4441","611","c","elianto","#3366ff99","-1","-1","1","+10","[]","0","2","","","4441","89","5","2","win","no-go","0"
"pit-trial","208","1310735","0.0-94.0","battery-v0.2","","""event"",""trial"",""time""
""fullscreenenter"",""1"",""2589""
","
","
","""event"",""trial"",""time""
""fullscreenenter"",""1"",""2589""
","
","","","-1","","","16","4441","611","b","elianto","#f73b6a7A"," ","-1","0","-10","[]","0","2","","","4441","90","6","3","lose","go","0"
"pit-trial","209","1314418","0.0-95.0","battery-v0.2","","""event"",""trial"",""time""
""fullscreenenter"",""1"",""2589""
","
","
","""event"",""trial"",""time""
""fullscreenenter"",""1"",""2589""
","
","","","822.3999999761581","","","16","4441","611","z","elianto","#3366ff99"," "," ","1","+10","[1672.7999999821186]","1","2","","","4441","91","4","1","win","go","0"
"pit-trial","210","1318273","0.0-96.0","battery-v0.2","","""event"",""trial"",""time""
""fullscreenenter"",""1"",""2589""
","
","
","""event"",""trial"",""time""
""fullscreenenter"",""1"",""2589""
","
","","","990.5","","","16","4441","611","t","elianto","#f73b6a7A","-1"," ","0","-10","[1840.5]","1","2","","","4441","92","7","4","lose","no-go","0"
"pit-trial","211","1321939","0.0-97.0","battery-v0.2","","""event"",""trial"",""time""
""fullscreenenter"",""1"",""2589""
","
","
","""event"",""trial"",""time""
""fullscreenenter"",""1"",""2589""
","
","","","799.0999999940395","","","16","4441","611","f","elianto","#3366ff99"," "," ","1","+10","[1652.2000000178814]","1","2","","","4441","93","8","1","win","go","0"
"pit-trial","212","1326813","0.0-98.0","battery-v0.2","","""event"",""trial"",""time""
""fullscreenenter"",""1"",""2589""
","
","
","""event"",""trial"",""time""
""fullscreenenter"",""1"",""2589""
","
","","","-1","","","16","4441","611","c","elianto","#3366ff99","-1","-1","1","+10","[]","0","2","","","4441","94","5","2","win","no-go","0"
"pit-trial","213","1331687","0.0-99.0","battery-v0.2","","""event"",""trial"",""time""
""fullscreenenter"",""1"",""2589""
","
","
","""event"",""trial"",""time""
""fullscreenenter"",""1"",""2589""
","
","","","-1","","","16","4441","611","t","elianto","#f73b6a7A","-1","-1","1","0","[]","0","2","","","4441","95","7","4","lose","no-go","0"
"pit-trial","214","1335182","0.0-100.0","battery-v0.2","","""event"",""trial"",""time""
""fullscreenenter"",""1"",""2589""
","
","
","""event"",""trial"",""time""
""fullscreenenter"",""1"",""2589""
","
","","","627.7000000178814","","","16","4441","611","b","elianto","#f73b6a7A"," "," ","1","0","[1482.4000000059605]","1","2","","","4441","96","6","3","lose","go","0"
"pit-trial","215","1340056","0.0-101.0","battery-v0.2","","""event"",""trial"",""time""
""fullscreenenter"",""1"",""2589""
","
","
","""event"",""trial"",""time""
""fullscreenenter"",""1"",""2589""
","
","","","-1","","","16","4441","611","c","elianto","#3366ff99","-1","-1","1","+10","[]","0","2","","","4441","97","5","2","win","no-go","0"
"pit-trial","216","1343779","0.0-102.0","battery-v0.2","","""event"",""trial"",""time""
""fullscreenenter"",""1"",""2589""
","
","
","""event"",""trial"",""time""
""fullscreenenter"",""1"",""2589""
","
","","","854.5999999940395","","","16","4441","611","f","elianto","#3366ff99"," "," ","1","+10","[1705.2999999821186]","1","2","","","4441","98","8","1","win","go","0"
"pit-trial","217","1348651","0.0-103.0","battery-v0.2","","""event"",""trial"",""time""
""fullscreenenter"",""1"",""2589""
","
","
","""event"",""trial"",""time""
""fullscreenenter"",""1"",""2589""
","
","","","-1","","","16","4441","611","t","elianto","#f73b6a7A","-1","-1","1","0","[]","0","2","","","4441","99","7","4","lose","no-go","0"
"pit-trial","218","1352104","0.0-104.0","battery-v0.2","","""event"",""trial"",""time""
""fullscreenenter"",""1"",""2589""
","
","
","""event"",""trial"",""time""
""fullscreenenter"",""1"",""2589""
","
","","","583.4000000059605","","","16","4441","611","b","elianto","#f73b6a7A"," "," ","1","-10","[1438.5999999940395]","1","2","","","4441","100","6","3","lose","go","1"
"pit-trial","219","1355740","0.0-105.0","battery-v0.2","","""event"",""trial"",""time""
""fullscreenenter"",""1"",""2589""
","
","
","""event"",""trial"",""time""
""fullscreenenter"",""1"",""2589""
","
","","","778.5999999940395","","","16","4441","611","n","elianto","#3366ff99"," "," ","1","+10","[1630.300000011921]","1","2","","","4441","101","9","1","win","go","0"
"pit-trial","220","1359217","0.0-106.0","battery-v0.2","","""event"",""trial"",""time""
""fullscreenenter"",""1"",""2589""
","
","
","""event"",""trial"",""time""
""fullscreenenter"",""1"",""2589""
","
","","","615.5","","","16","4441","611","f","elianto","#3366ff99"," "," ","1","+10","[1466.7000000178814]","1","2","","","4441","102","8","1","win","go","0"
"pit-trial","221","1364101","0.0-107.0","battery-v0.2","","""event"",""trial"",""time""
""fullscreenenter"",""1"",""2589""
","
","
","""event"",""trial"",""time""
""fullscreenenter"",""1"",""2589""
","
","","","-1","","","16","4441","611","c","elianto","#3366ff99","-1","-1","1","+10","[]","0","2","","","4441","103","5","2","win","no-go","0"
"pit-trial","222","1368968","0.0-108.0","battery-v0.2","","""event"",""trial"",""time""
""fullscreenenter"",""1"",""2589""
","
","
","""event"",""trial"",""time""
""fullscreenenter"",""1"",""2589""
","
","","","-1","","","16","4441","611","t","elianto","#f73b6a7A","-1","-1","1","0","[]","0","2","","","4441","104","7","4","lose","no-go","0"
"pit-trial","223","1372524","0.0-109.0","battery-v0.2","","""event"",""trial"",""time""
""fullscreenenter"",""1"",""2589""
","
","
","""event"",""trial"",""time""
""fullscreenenter"",""1"",""2589""
","
","","","697.5","","","16","4441","611","z","elianto","#3366ff99"," "," ","1","+10","[1550.5]","1","2","","","4441","105","4","1","win","go","0"
"pit-trial","224","1376076","0.0-110.0","battery-v0.2","","""event"",""trial"",""time""
""fullscreenenter"",""1"",""2589""
","
","
","""event"",""trial"",""time""
""fullscreenenter"",""1"",""2589""
","
","","","675.6999999880791","","","16","4441","611","n","elianto","#3366ff99"," "," ","1","0","[1534.199999988079]","1","2","","","4441","106","9","1","win","go","1"
"pit-trial","225","1379767","0.0-111.0","battery-v0.2","","""event"",""trial"",""time""
""fullscreenenter"",""1"",""2589""
","
","
","""event"",""trial"",""time""
""fullscreenenter"",""1"",""2589""
","
","","","825.0999999940395","","","16","4441","611","f","elianto","#3366ff99"," "," ","1","+10","[1684.5999999940395]","1","2","","","4441","107","8","1","win","go","0"
"pit-trial","226","1384631","0.0-112.0","battery-v0.2","","""event"",""trial"",""time""
""fullscreenenter"",""1"",""2589""
","
","
","""event"",""trial"",""time""
""fullscreenenter"",""1"",""2589""
","
","","","-1","","","16","4441","611","b","elianto","#f73b6a7A"," ","-1","0","-10","[]","0","2","","","4441","108","6","3","lose","go","0"
"pit-trial","227","1388344","0.0-113.0","battery-v0.2","","""event"",""trial"",""time""
""fullscreenenter"",""1"",""2589""
","
","
","""event"",""trial"",""time""
""fullscreenenter"",""1"",""2589""
","
","","","846.0999999940395","","","16","4441","611","b","elianto","#f73b6a7A"," "," ","1","0","[1699.699999988079]","1","2","","","4441","109","6","3","lose","go","0"
"pit-trial","228","1391893","0.0-114.0","battery-v0.2","","""event"",""trial"",""time""
""fullscreenenter"",""1"",""2589""
","
","
","""event"",""trial"",""time""
""fullscreenenter"",""1"",""2589""
","
","","","671.7000000178814","","","16","4441","611","f","elianto","#3366ff99"," "," ","1","+10","[1528.7999999821186]","1","2","","","4441","110","8","1","win","go","0"
"pit-trial","229","1395352","0.0-115.0","battery-v0.2","","""event"",""trial"",""time""
""fullscreenenter"",""1"",""2589""
","
","
","""event"",""trial"",""time""
""fullscreenenter"",""1"",""2589""
","
","","","596.8999999761581","","","16","4441","611","n","elianto","#3366ff99"," "," ","1","+10","[1450.7999999821186]","1","2","","","4441","111","9","1","win","go","0"
"pit-trial","230","1399187","0.0-116.0","battery-v0.2","","""event"",""trial"",""time""
""fullscreenenter"",""1"",""2589""
","
","
","""event"",""trial"",""time""
""fullscreenenter"",""1"",""2589""
","
","","","971.5","","","16","4441","611","c","elianto","#3366ff99","-1"," ","0","0","[1824.699999988079]","1","2","","","4441","112","5","2","win","no-go","0"
"pit-trial","231","1402738","0.0-117.0","battery-v0.2","","""event"",""trial"",""time""
""fullscreenenter"",""1"",""2589""
","
","
","""event"",""trial"",""time""
""fullscreenenter"",""1"",""2589""
","
","","","691.1999999880791","","","16","4441","611","n","elianto","#3366ff99"," "," ","1","0","[1542.5]","1","2","","","4441","113","9","1","win","go","1"
"pit-trial","232","1406492","0.0-118.0","battery-v0.2","","""event"",""trial"",""time""
""fullscreenenter"",""1"",""2589""
","
","
","""event"",""trial"",""time""
""fullscreenenter"",""1"",""2589""
","
","","","883.7000000178814","","","16","4441","611","b","elianto","#f73b6a7A"," "," ","1","0","[1744.2999999821186]","1","2","","","4441","114","6","3","lose","go","0"
"pit-trial","233","1410060","0.0-119.0","battery-v0.2","","""event"",""trial"",""time""
""fullscreenenter"",""1"",""2589""
","
","
","""event"",""trial"",""time""
""fullscreenenter"",""1"",""2589""
","
","","","699.5","","","16","4441","611","c","elianto","#3366ff99","-1"," ","0","0","[1556.699999988079]","1","2","","","4441","115","5","2","win","no-go","0"
"pit-trial","234","1413640","0.0-120.0","battery-v0.2","","""event"",""trial"",""time""
""fullscreenenter"",""1"",""2589""
","
","
","""event"",""trial"",""time""
""fullscreenenter"",""1"",""2589""
","
","","","707.3000000119209","","","16","4441","611","f","elianto","#3366ff99"," "," ","1","+10","[1563.2999999821186]","1","2","","","4441","116","8","1","win","go","0"
"pit-trial","235","1418513","0.0-121.0","battery-v0.2","","""event"",""trial"",""time""
""fullscreenenter"",""1"",""2589""
","
","
","""event"",""trial"",""time""
""fullscreenenter"",""1"",""2589""
","
","","","-1","","","16","4441","611","c","elianto","#3366ff99","-1","-1","1","0","[]","0","2","","","4441","117","5","2","win","no-go","1"
"pit-trial","236","1422239","0.0-122.0","battery-v0.2","","""event"",""trial"",""time""
""fullscreenenter"",""1"",""2589""
","
","
","""event"",""trial"",""time""
""fullscreenenter"",""1"",""2589""
","
","","","860.2999999821186","","","16","4441","611","n","elianto","#3366ff99"," "," ","1","+10","[1712.199999988079]","1","2","","","4441","118","9","1","win","go","0"
"pit-trial","237","1427105","0.0-123.0","battery-v0.2","","""event"",""trial"",""time""
""fullscreenenter"",""1"",""2589""
","
","
","""event"",""trial"",""time""
""fullscreenenter"",""1"",""2589""
","
","","","-1","","","16","4441","611","b","elianto","#f73b6a7A"," ","-1","0","0","[]","0","2","","","4441","119","6","3","lose","go","1"
"pit-trial","238","1430643","0.0-124.0","battery-v0.2","","""event"",""trial"",""time""
""fullscreenenter"",""1"",""2589""
","
","
","""event"",""trial"",""time""
""fullscreenenter"",""1"",""2589""
","
","","","666.5","","","16","4441","611","f","elianto","#3366ff99"," "," ","1","+10","[1525.199999988079]","1","2","","","4441","120","8","1","win","go","0"
"pit-trial","239","1434428","0.0-125.0","battery-v0.2","","""event"",""trial"",""time""
""fullscreenenter"",""1"",""2589""
","
","
","""event"",""trial"",""time""
""fullscreenenter"",""1"",""2589""
","
","","","920.4000000059605","","","16","4441","611","b","elianto","#f73b6a7A"," "," ","1","0","[1773.5999999940395]","1","2","","","4441","121","6","3","lose","go","0"
"pit-trial","240","1439305","0.0-126.0","battery-v0.2","","""event"",""trial"",""time""
""fullscreenenter"",""1"",""2589""
","
","
","""event"",""trial"",""time""
""fullscreenenter"",""1"",""2589""
","
","","","-1","","","16","4441","611","t","elianto","#f73b6a7A","-1","-1","1","0","[]","0","2","","","4441","122","7","4","lose","no-go","0"
"pit-trial","241","1443055","0.0-127.0","battery-v0.2","","""event"",""trial"",""time""
""fullscreenenter"",""1"",""2589""
","
","
","""event"",""trial"",""time""
""fullscreenenter"",""1"",""2589""
","
","","","875.4000000059605","","","16","4441","611","n","elianto","#3366ff99"," "," ","1","+10","[1731.9000000059605]","1","2","","","4441","123","9","1","win","go","0"
"pit-trial","242","1447921","0.0-128.0","battery-v0.2","","""event"",""trial"",""time""
""fullscreenenter"",""1"",""2589""
","
","
","""event"",""trial"",""time""
""fullscreenenter"",""1"",""2589""
","
","","","-1","","","16","4441","611","f","elianto","#3366ff99"," ","-1","0","+10","[]","0","2","","","4441","124","8","1","win","go","1"
"pit-trial","243","1451890","0.0-129.0","battery-v0.2","","""event"",""trial"",""time""
""fullscreenenter"",""1"",""2589""
","
","
","""event"",""trial"",""time""
""fullscreenenter"",""1"",""2589""
","
","","","1099.2000000178814","","","16","4441","611","n","elianto","#3366ff99"," "," ","1","+10","[1956.2999999821186]","1","2","","","4441","125","9","1","win","go","0"
"pit-trial","244","1456759","0.0-130.0","battery-v0.2","","""event"",""trial"",""time""
""fullscreenenter"",""1"",""2589""
","
","
","""event"",""trial"",""time""
""fullscreenenter"",""1"",""2589""
","
","","","-1","","","16","4441","611","t","elianto","#f73b6a7A","-1","-1","1","0","[]","0","2","","","4441","126","7","4","lose","no-go","0"
"pit-trial","245","1460433","0.0-131.0","battery-v0.2","","""event"",""trial"",""time""
""fullscreenenter"",""1"",""2589""
","
","
","""event"",""trial"",""time""
""fullscreenenter"",""1"",""2589""
","
","","","808.7000000178814","","","16","4441","611","f","elianto","#3366ff99"," "," ","1","+10","[1660.0999999940395]","1","2","","","4441","127","8","1","win","go","0"
"pit-trial","246","1465311","0.0-132.0","battery-v0.2","","""event"",""trial"",""time""
""fullscreenenter"",""1"",""2589""
","
","
","""event"",""trial"",""time""
""fullscreenenter"",""1"",""2589""
","
","","","-1","","","16","4441","611","b","elianto","#f73b6a7A"," ","-1","0","-10","[]","0","2","","","4441","128","6","3","lose","go","0"
"pit-trial","247","1469030","0.0-133.0","battery-v0.2","","""event"",""trial"",""time""
""fullscreenenter"",""1"",""2589""
","
","
","""event"",""trial"",""time""
""fullscreenenter"",""1"",""2589""
","
","","","853.8000000119209","","","16","4441","611","n","elianto","#3366ff99"," "," ","1","+10","[1707.1000000238419]","1","2","","","4441","129","9","1","win","go","0"
"pit-trial","248","1472891","0.0-134.0","battery-v0.2","","""event"",""trial"",""time""
""fullscreenenter"",""1"",""2589""
","
","
","""event"",""trial"",""time""
""fullscreenenter"",""1"",""2589""
","
","","","992","","","16","4441","611","b","elianto","#f73b6a7A"," "," ","1","-10","[1849.2000000178814]","1","2","","","4441","130","6","3","lose","go","1"
"pit-trial","249","1476569","0.0-135.0","battery-v0.2","","""event"",""trial"",""time""
""fullscreenenter"",""1"",""2589""
","
","
","""event"",""trial"",""time""
""fullscreenenter"",""1"",""2589""
","
","","","811.3000000119209","","","16","4441","611","t","elianto","#f73b6a7A","-1"," ","0","0","[1664.0999999940395]","1","2","","","4441","131","7","4","lose","no-go","1"
"pit-trial","250","1480089","0.0-136.0","battery-v0.2","","""event"",""trial"",""time""
""fullscreenenter"",""1"",""2589""
","
","
","""event"",""trial"",""time""
""fullscreenenter"",""1"",""2589""
","
","","","654.4000000059605","","","16","4441","611","f","elianto","#3366ff99"," "," ","1","+10","[1508.2000000178814]","1","2","","","4441","132","8","1","win","go","0"
"pit-trial","251","1483823","0.0-137.0","battery-v0.2","","""event"",""trial"",""time""
""fullscreenenter"",""1"",""2589""
","
","
","""event"",""trial"",""time""
""fullscreenenter"",""1"",""2589""
","
","","","863.5999999940395","","","16","4441","611","f","elianto","#3366ff99"," "," ","1","+10","[1713.7999999821186]","1","2","","","4441","133","8","1","win","go","0"
"pit-trial","252","1488689","0.0-138.0","battery-v0.2","","""event"",""trial"",""time""
""fullscreenenter"",""1"",""2589""
","
","
","""event"",""trial"",""time""
""fullscreenenter"",""1"",""2589""
","
","","","-1","","","16","4441","611","b","elianto","#f73b6a7A"," ","-1","0","-10","[]","0","2","","","4441","134","6","3","lose","go","0"
"pit-trial","253","1492173","0.0-139.0","battery-v0.2","","""event"",""trial"",""time""
""fullscreenenter"",""1"",""2589""
","
","
","""event"",""trial"",""time""
""fullscreenenter"",""1"",""2589""
","
","","","615.9000000059605","","","16","4441","611","n","elianto","#3366ff99"," "," ","1","0","[1471.300000011921]","1","2","","","4441","135","9","1","win","go","1"
"pit-trial","254","1497042","0.0-140.0","battery-v0.2","","""event"",""trial"",""time""
""fullscreenenter"",""1"",""2589""
","
","
","""event"",""trial"",""time""
""fullscreenenter"",""1"",""2589""
","
","","","-1","","","16","4441","611","t","elianto","#f73b6a7A","-1","-1","1","0","[]","0","2","","","4441","136","7","4","lose","no-go","0"
"pit-trial","255","1500631","0.0-141.0","battery-v0.2","","""event"",""trial"",""time""
""fullscreenenter"",""1"",""2589""
","
","
","""event"",""trial"",""time""
""fullscreenenter"",""1"",""2589""
","
","","","706.5999999940395","","","16","4441","611","n","elianto","#3366ff99"," "," ","1","+10","[1568.2000000178814]","1","2","","","4441","137","9","1","win","go","0"
"pit-trial","256","1505500","0.0-142.0","battery-v0.2","","""event"",""trial"",""time""
""fullscreenenter"",""1"",""2589""
","
","
","""event"",""trial"",""time""
""fullscreenenter"",""1"",""2589""
","
","","","-1","","","16","4441","611","f","elianto","#3366ff99"," ","-1","0","0","[]","0","2","","","4441","138","8","1","win","go","0"
"pit-trial","257","1510370","0.0-143.0","battery-v0.2","","""event"",""trial"",""time""
""fullscreenenter"",""1"",""2589""
","
","
","""event"",""trial"",""time""
""fullscreenenter"",""1"",""2589""
","
","","","-1","","","16","4441","611","t","elianto","#f73b6a7A","-1","-1","1","0","[]","0","2","","","4441","139","7","4","lose","no-go","0"
"pit-trial","258","1515241","0.0-144.0","battery-v0.2","","""event"",""trial"",""time""
""fullscreenenter"",""1"",""2589""
","
","
","""event"",""trial"",""time""
""fullscreenenter"",""1"",""2589""
","
","","","-1","","","16","4441","611","b","elianto","#f73b6a7A"," ","-1","0","0","[]","0","2","","","4441","140","6","3","lose","go","1"
"pit-instructions","259","1533197","0.0-145.0","battery-v0.2","","""event"",""trial"",""time""
""fullscreenenter"",""1"",""2589""
","
","
","""event"",""trial"",""time""
""fullscreenenter"",""1"",""2589""
","
","","[{""page_index"":0,""viewing_time"":9832.5},{""page_index"":1,""viewing_time"":8118}]","17951.19999998808","","","","","","","","","","","","","","","","","","","","","","","",""
"pit-trial","260","1536890","0.0-146.0","battery-v0.2","","""event"",""trial"",""time""
""fullscreenenter"",""1"",""2589""
","
","
","""event"",""trial"",""time""
""fullscreenenter"",""1"",""2589""
","
","","","820.5","","","16","4441","611","d","elianto","#3366ff99"," "," ","1","+10","[1673]","1","3","","","4441","141","1","1","win","go","0"
"pit-trial","261","1541766","0.0-147.0","battery-v0.2","","""event"",""trial"",""time""
""fullscreenenter"",""1"",""2589""
","
","
","""event"",""trial"",""time""
""fullscreenenter"",""1"",""2589""
","
","","","-1","","","16","4441","611","j","elianto","#f73b6a7A","-1","-1","1","0","[]","0","3","","","4441","142","0","4","lose","no-go","0"
"pit-trial","262","1546640","0.0-148.0","battery-v0.2","","""event"",""trial"",""time""
""fullscreenenter"",""1"",""2589""
","
","
","""event"",""trial"",""time""
""fullscreenenter"",""1"",""2589""
","
","","","-1","","","16","4441","611","e","elianto","#f73b6a7A","-1","-1","1","0","[]","0","3","","","4441","143","2","4","lose","no-go","0"
"pit-trial","263","1551513","0.0-149.0","battery-v0.2","","""event"",""trial"",""time""
""fullscreenenter"",""1"",""2589""
","
","
","""event"",""trial"",""time""
""fullscreenenter"",""1"",""2589""
","
","","","-1","","","16","4441","611","w","elianto","#f73b6a7A"," ","-1","0","-10","[]","0","3","","","4441","144","3","3","lose","go","0"
"pit-trial","264","1555366","0.0-150.0","battery-v0.2","","""event"",""trial"",""time""
""fullscreenenter"",""1"",""2589""
","
","
","""event"",""trial"",""time""
""fullscreenenter"",""1"",""2589""
","
","","","982.6999999880791","","","16","4441","611","w","elianto","#f73b6a7A"," "," ","1","0","[1833.699999988079]","1","3","","","4441","145","3","3","lose","go","0"
"pit-trial","265","1558906","0.0-151.0","battery-v0.2","","""event"",""trial"",""time""
""fullscreenenter"",""1"",""2589""
","
","
","""event"",""trial"",""time""
""fullscreenenter"",""1"",""2589""
","
","","","674.8000000119209","","","16","4441","611","d","elianto","#3366ff99"," "," ","1","+10","[1528.0999999940395]","1","3","","","4441","146","1","1","win","go","0"
"pit-trial","266","1563793","0.0-152.0","battery-v0.2","","""event"",""trial"",""time""
""fullscreenenter"",""1"",""2589""
","
","
","""event"",""trial"",""time""
""fullscreenenter"",""1"",""2589""
","
","","","-1","","","16","4441","611","j","elianto","#f73b6a7A","-1","-1","1","-10","[]","0","3","","","4441","147","0","4","lose","no-go","1"
"pit-trial","267","1568662","0.0-153.0","battery-v0.2","","""event"",""trial"",""time""
""fullscreenenter"",""1"",""2589""
","
","
","""event"",""trial"",""time""
""fullscreenenter"",""1"",""2589""
","
","","","-1","","","16","4441","611","e","elianto","#f73b6a7A","-1","-1","1","0","[]","0","3","","","4441","148","2","4","lose","no-go","0"
"pit-trial","268","1573529","0.0-154.0","battery-v0.2","","""event"",""trial"",""time""
""fullscreenenter"",""1"",""2589""
","
","
","""event"",""trial"",""time""
""fullscreenenter"",""1"",""2589""
","
