"trial_type","trial_index","time_elapsed","internal_node_id","task_version","subject_id","interactions","blur_events","focus_events","fullscreenenter_events","fullscreenexit_events","success","view_history","rt","responses","num_errors","age","subject","participantId","rune","rune_set","hex","correct","choice","accuracy","outcome","keys","total_keys","block","practice","value","sub","trial","stimulus","robot","valence","action","sham"
"pavlovia","0","17","0.0-0.0","battery-v0.2","","""event"",""trial"",""time""
""fullscreenenter"",""1"",""3012""
","
","
","""event"",""trial"",""time""
""fullscreenenter"",""1"",""3012""
","
","","","","","","","","","","","","","","","","","","","","","","","","","","",""
"fullscreen","1","4006","0.0-1.0","battery-v0.2","","""event"",""trial"",""time""
""fullscreenenter"",""1"",""3012""
","
","
","""event"",""trial"",""time""
""fullscreenenter"",""1"",""3012""
","
","true","","","","","","","","","","","","","","","","","","","","","","","","","",""
"pit-instructions","2","8517","0.0-2.0-0.0","battery-v0.2","","""event"",""trial"",""time""
""fullscreenenter"",""1"",""3012""
","
","
","""event"",""trial"",""time""
""fullscreenenter"",""1"",""3012""
","
","","[{""page_index"":0,""viewing_time"":4507}]","4507.399999976158","","","","","","","","","","","","","","","","","","","","","","","",""
"pit-comprehension","3","13538","0.0-2.0-1.0-0.0","battery-v0.2","","""event"",""trial"",""time""
""fullscreenenter"",""1"",""3012""
","
","
","""event"",""trial"",""time""
""fullscreenenter"",""1"",""3012""
","
","","","5016.9000000059605","[""shark""]","0","11","9606","1855","","","","","","","","","","","","","","","","","","",""
"pit-instructions","4","15658","0.0-2.0-1.0-1.0","battery-v0.2","","""event"",""trial"",""time""
""fullscreenenter"",""1"",""3012""
","
","
","""event"",""trial"",""time""
""fullscreenenter"",""1"",""3012""
","
","","[{""page_index"":0,""viewing_time"":2113.5}]","2113.800000011921","","","","","","","","","","","","","","","","","","","","","","","",""
"pit-comprehension","5","20178","0.0-2.0-2.0-0.0","battery-v0.2","","""event"",""trial"",""time""
""fullscreenenter"",""1"",""3012""
","
","
","""event"",""trial"",""time""
""fullscreenenter"",""1"",""3012""
","
","","","4515.600000023842","[""tiger""]","0","11","9606","1855","","","","","","","","","","","","","","","","","","",""
"pit-instructions","6","22078","0.0-2.0-2.0-1.0","battery-v0.2","","""event"",""trial"",""time""
""fullscreenenter"",""1"",""3012""
","
","
","""event"",""trial"",""time""
""fullscreenenter"",""1"",""3012""
","
","","[{""page_index"":0,""viewing_time"":1895.5999999940395}]","1895.800000011921","","","","","","","","","","","","","","","","","","","","","","","",""
"pit-instructions","7","117760","0.0-2.0-3.0","battery-v0.2","","""event"",""trial"",""time""
""fullscreenenter"",""1"",""3012""
","
","
","""event"",""trial"",""time""
""fullscreenenter"",""1"",""3012""
","
","","[{""page_index"":0,""viewing_time"":9285.699999988079},{""page_index"":1,""viewing_time"":5958.4000000059605},{""page_index"":2,""viewing_time"":7460.0999999940395},{""page_index"":3,""viewing_time"":6233.5},{""page_index"":4,""viewing_time"":5553.5999999940395},{""page_index"":5,""viewing_time"":5746.4000000059605},{""page_index"":6,""viewing_time"":7063.700000017881},{""page_index"":7,""viewing_time"":6794.5999999940395},{""page_index"":8,""viewing_time"":6764.0999999940395},{""page_index"":9,""viewing_time"":8353.90000000596},{""page_index"":10,""viewing_time"":7962.9000000059605},{""page_index"":11,""viewing_time"":7031.299999982119},{""page_index"":12,""viewing_time"":6848.200000017881},{""page_index"":13,""viewing_time"":4622}]","95679.29999998212","","","","","","","","","","","","","","","","","","","","","","","",""
"pit-trial","8","120790","0.0-2.0-4.0-0.0","battery-v0.2","","""event"",""trial"",""time""
""fullscreenenter"",""1"",""3012""
","
","
","""event"",""trial"",""time""
""fullscreenenter"",""1"",""3012""
","
","","","171.7999999821186","","","11","9606","1855","&#9784;","elianto","#FFFFF080"," "," ","1","&#10004","[1022.9000000059605]","1","0","0","","","","","","","",""
"pit-trial","9","124082","0.0-2.0-4.1-0.1","battery-v0.2","","""event"",""trial"",""time""
""fullscreenenter"",""1"",""3012""
","
","
","""event"",""trial"",""time""
""fullscreenenter"",""1"",""3012""
","
","","","428.89999997615814","","","11","9606","1855","&#9784;","elianto","#FFFFF080"," "," ","1","&#10004","[1280.2999999821186]","1","0","0","","","","","","","",""
"pit-trial","10","127550","0.0-2.0-4.2-0.2","battery-v0.2","","""event"",""trial"",""time""
""fullscreenenter"",""1"",""3012""
","
","
","""event"",""trial"",""time""
""fullscreenenter"",""1"",""3012""
","
","","","603","","","11","9606","1855","&#9784;","elianto","#FFFFF080"," "," ","1","&#10004","[1462]","1","0","0","","","","","","","",""
"pit-trial","11","130965","0.0-2.0-4.3-0.3","battery-v0.2","","""event"",""trial"",""time""
""fullscreenenter"",""1"",""3012""
","
","
","""event"",""trial"",""time""
""fullscreenenter"",""1"",""3012""
","
","","","549.5","","","11","9606","1855","&#9784;","elianto","#FFFFF080"," "," ","1","&#10004","[1404.5]","1","0","0","","","","","","","",""
"pit-trial","12","134470","0.0-2.0-4.4-0.4","battery-v0.2","","""event"",""trial"",""time""
""fullscreenenter"",""1"",""3012""
","
","
","""event"",""trial"",""time""
""fullscreenenter"",""1"",""3012""
","
","","","639.5999999940395","","","11","9606","1855","&#9784;","elianto","#FFFFF080"," "," ","1","&#10004","[1495.800000011921]","1","0","0","","","","","","","",""
"pit-instructions","13","154613","0.0-2.0-5.0","battery-v0.2","","""event"",""trial"",""time""
""fullscreenenter"",""1"",""3012""
","
","
","""event"",""trial"",""time""
""fullscreenenter"",""1"",""3012""
","
","","[{""page_index"":0,""viewing_time"":4770.5},{""page_index"":1,""viewing_time"":5324.0999999940395},{""page_index"":2,""viewing_time"":4780.5},{""page_index"":3,""viewing_time"":5264.200000017881}]","20139.59999999404","","","","","","","","","","","","","","","","","","","","","","","",""
"pit-trial","14","159482","0.0-2.0-6.0-0.0","battery-v0.2","","""event"",""trial"",""time""
""fullscreenenter"",""1"",""3012""
","
","
","""event"",""trial"",""time""
""fullscreenenter"",""1"",""3012""
","
","","","-1","","","11","9606","1855","&#9854;","elianto","#FFFFF080","-1","-1","1","&#10004","[]","0","0","1","","","","","","","",""
"pit-trial","15","164351","0.0-2.0-6.1-0.1","battery-v0.2","","""event"",""trial"",""time""
""fullscreenenter"",""1"",""3012""
","
","
","""event"",""trial"",""time""
""fullscreenenter"",""1"",""3012""
","
","","","-1","","","11","9606","1855","&#9854;","elianto","#FFFFF080","-1","-1","1","&#10004","[]","0","0","1","","","","","","","",""
"pit-trial","16","169217","0.0-2.0-6.2-0.2","battery-v0.2","","""event"",""trial"",""time""
""fullscreenenter"",""1"",""3012""
","
","
","""event"",""trial"",""time""
""fullscreenenter"",""1"",""3012""
","
","","","-1","","","11","9606","1855","&#9854;","elianto","#FFFFF080","-1","-1","1","&#10004","[]","0","0","1","","","","","","","",""
"pit-trial","17","174082","0.0-2.0-6.3-0.3","battery-v0.2","","""event"",""trial"",""time""
""fullscreenenter"",""1"",""3012""
","
","
","""event"",""trial"",""time""
""fullscreenenter"",""1"",""3012""
","
","","","-1","","","11","9606","1855","&#9854;","elianto","#FFFFF080","-1","-1","1","&#10004","[]","0","0","1","","","","","","","",""
"pit-trial","18","178951","0.0-2.0-6.4-0.4","battery-v0.2","","""event"",""trial"",""time""
""fullscreenenter"",""1"",""3012""
","
","
","""event"",""trial"",""time""
""fullscreenenter"",""1"",""3012""
","
","","","-1","","","11","9606","1855","&#9854;","elianto","#FFFFF080","-1","-1","1","&#10004","[]","0","0","1","","","","","","","",""
"pit-instructions","19","298489","0.0-2.0-7.0","battery-v0.2","","""event"",""trial"",""time""
""fullscreenenter"",""1"",""3012""
","
","
","""event"",""trial"",""time""
""fullscreenenter"",""1"",""3012""
","
","","[{""page_index"":0,""viewing_time"":8633.200000017881},{""page_index"":1,""viewing_time"":6849.5},{""page_index"":2,""viewing_time"":6102.0999999940395},{""page_index"":3,""viewing_time"":6854.4000000059605},{""page_index"":4,""viewing_time"":5131.799999982119},{""page_index"":5,""viewing_time"":5163.300000011921},{""page_index"":6,""viewing_time"":6280.9000000059605},{""page_index"":7,""viewing_time"":7446.899999976158},{""page_index"":8,""viewing_time"":7247.300000011921},{""page_index"":9,""viewing_time"":6362.699999988079},{""page_index"":10,""viewing_time"":6151.300000011921},{""page_index"":11,""viewing_time"":4124.5},{""page_index"":12,""viewing_time"":6848.9000000059605},{""page_index"":13,""viewing_time"":7022.299999982119},{""page_index"":14,""viewing_time"":7384.800000011921},{""page_index"":15,""viewing_time"":7093.199999988079},{""page_index"":16,""viewing_time"":7442.100000023842},{""page_index"":17,""viewing_time"":7395.0999999940395}]","119534.80000001192","","","","","","","","","","","","","","","","","","","","","","","",""
"pit-trial","20","301848","0.0-2.0-8.0-0.0","battery-v0.2","","""event"",""trial"",""time""
""fullscreenenter"",""1"",""3012""
","
","
","""event"",""trial"",""time""
""fullscreenenter"",""1"",""3012""
","
","","","486.7999999821186","","","11","9606","1855","&#9776;","elianto","#3366ff99"," "," ","1","+10","[1344]","1","0","1","","","","","","","",""
"pit-trial","21","305199","0.0-2.0-8.0-1.0","battery-v0.2","","""event"",""trial"",""time""
""fullscreenenter"",""1"",""3012""
","
","
","""event"",""trial"",""time""
""fullscreenenter"",""1"",""3012""
","
","","","488.40000000596046","","","11","9606","1855","&#9776;","elianto","#3366ff99"," "," ","1","+10","[1343.300000011921]","1","0","1","","","","","","","",""
"pit-trial","22","308511","0.0-2.0-8.0-2.0","battery-v0.2","","""event"",""trial"",""time""
""fullscreenenter"",""1"",""3012""
","
","
","""event"",""trial"",""time""
""fullscreenenter"",""1"",""3012""
","
","","","448.90000000596046","","","11","9606","1855","&#9776;","elianto","#3366ff99"," "," ","1","+10","[1305.4000000059605,1519.2999999821186]","2","0","1","","","","","","","",""
"pit-trial","23","311953","0.0-2.0-8.0-3.0","battery-v0.2","","""event"",""trial"",""time""
""fullscreenenter"",""1"",""3012""
","
","
","""event"",""trial"",""time""
""fullscreenenter"",""1"",""3012""
","
","","","578.9000000059605","","","11","9606","1855","&#9776;","elianto","#3366ff99"," "," ","1","0","[1431.699999988079]","1","0","1","","","","","","","",""
"pit-trial","24","315242","0.0-2.0-8.0-4.0","battery-v0.2","","""event"",""trial"",""time""
""fullscreenenter"",""1"",""3012""
","
","
","""event"",""trial"",""time""
""fullscreenenter"",""1"",""3012""
","
","","","421.40000000596046","","","11","9606","1855","&#9776;","elianto","#3366ff99"," "," ","1","+10","[1273.5999999940395]","1","0","1","","","","","","","",""
"pit-trial","25","318512","0.0-2.0-8.1-0.1","battery-v0.2","","""event"",""trial"",""time""
""fullscreenenter"",""1"",""3012""
","
","
","""event"",""trial"",""time""
""fullscreenenter"",""1"",""3012""
","
","","","406.5","","","11","9606","1855","&#9776;","elianto","#3366ff99"," "," ","1","+10","[1262.4000000059605]","1","0","1","","","","","","","",""
"pit-trial","26","321761","0.0-2.0-8.1-1.1","battery-v0.2","","""event"",""trial"",""time""
""fullscreenenter"",""1"",""3012""
","
","
","""event"",""trial"",""time""
""fullscreenenter"",""1"",""3012""
","
","","","375.59999999403954","","","11","9606","1855","&#9776;","elianto","#3366ff99"," "," ","1","+10","[1234.199999988079]","1","0","1","","","","","","","",""
"pit-trial","27","324967","0.0-2.0-8.1-2.1","battery-v0.2","","""event"",""trial"",""time""
""fullscreenenter"",""1"",""3012""
","
","
","""event"",""trial"",""time""
""fullscreenenter"",""1"",""3012""
","
","","","339.30000001192093","","","11","9606","1855","&#9776;","elianto","#3366ff99"," "," ","1","+10","[1197.5]","1","0","1","","","","","","","",""
"pit-trial","28","328296","0.0-2.0-8.1-3.1","battery-v0.2","","""event"",""trial"",""time""
""fullscreenenter"",""1"",""3012""
","
","
","""event"",""trial"",""time""
""fullscreenenter"",""1"",""3012""
","
","","","465.89999997615814","","","11","9606","1855","&#9776;","elianto","#3366ff99"," "," ","1","0","[1317.7999999821186]","1","0","1","","","","","","","",""
"pit-trial","29","331527","0.0-2.0-8.1-4.1","battery-v0.2","","""event"",""trial"",""time""
""fullscreenenter"",""1"",""3012""
","
","
","""event"",""trial"",""time""
""fullscreenenter"",""1"",""3012""
","
","","","367.59999999403954","","","11","9606","1855","&#9776;","elianto","#3366ff99"," "," ","1","+10","[1218.4000000059605]","1","0","1","","","","","","","",""
"pit-trial","30","334855","0.0-2.0-8.2-0.2","battery-v0.2","","""event"",""trial"",""time""
""fullscreenenter"",""1"",""3012""
","
","
","""event"",""trial"",""time""
""fullscreenenter"",""1"",""3012""
","
","","","469","","","11","9606","1855","&#9776;","elianto","#3366ff99"," "," ","1","+10","[1320.1000000238419]","1","0","1","","","","","","","",""
"pit-trial","31","338125","0.0-2.0-8.2-1.2","battery-v0.2","","""event"",""trial"",""time""
""fullscreenenter"",""1"",""3012""
","
","
","""event"",""trial"",""time""
""fullscreenenter"",""1"",""3012""
","
","","","407","","","11","9606","1855","&#9776;","elianto","#3366ff99"," "," ","1","+10","[1259.5]","1","0","1","","","","","","","",""
"pit-trial","32","341581","0.0-2.0-8.2-2.2","battery-v0.2","","""event"",""trial"",""time""
""fullscreenenter"",""1"",""3012""
","
","
","""event"",""trial"",""time""
""fullscreenenter"",""1"",""3012""
","
","","","592.6999999880791","","","11","9606","1855","&#9776;","elianto","#3366ff99"," "," ","1","+10","[1449.2999999821186]","1","0","1","","","","","","","",""
"pit-trial","33","345005","0.0-2.0-8.2-3.2","battery-v0.2","","""event"",""trial"",""time""
""fullscreenenter"",""1"",""3012""
","
","
","""event"",""trial"",""time""
""fullscreenenter"",""1"",""3012""
","
","","","564.6999999880791","","","11","9606","1855","&#9776;","elianto","#3366ff99"," "," ","1","0","[1420.2999999821186]","1","0","1","","","","","","","",""
"pit-trial","34","348294","0.0-2.0-8.2-4.2","battery-v0.2","","""event"",""trial"",""time""
""fullscreenenter"",""1"",""3012""
","
","
","""event"",""trial"",""time""
""fullscreenenter"",""1"",""3012""
","
","","","426.80000001192093","","","11","9606","1855","&#9776;","elianto","#3366ff99"," "," ","1","+10","[1282.699999988079]","1","0","1","","","","","","","",""
"call-function","35","348296","0.0-2.0-9.0","battery-v0.2","","""event"",""trial"",""time""
""fullscreenenter"",""1"",""3012""
","
","
","""event"",""trial"",""time""
""fullscreenenter"",""1"",""3012""
","
","","","","","","","","","","","","","","","","","","","","","","","","","","",""
"pit-instructions","36","391657","0.0-2.0-10.0","battery-v0.2","","""event"",""trial"",""time""
""fullscreenenter"",""1"",""3012""
","
","
","""event"",""trial"",""time""
""fullscreenenter"",""1"",""3012""
","
","","[{""page_index"":0,""viewing_time"":8568},{""page_index"":1,""viewing_time"":7197},{""page_index"":2,""viewing_time"":10904},{""page_index"":3,""viewing_time"":9121.700000017881},{""page_index"":4,""viewing_time"":7569.5999999940395}]","43360.70000001788","","","","","","","","","","","","","","","","","","","","","","","",""
"pit-trial","37","395182","0.0-2.0-11.0-0.0","battery-v0.2","","""event"",""trial"",""time""
""fullscreenenter"",""1"",""3012""
","
","
","""event"",""trial"",""time""
""fullscreenenter"",""1"",""3012""
","
","","","656.2000000178814","","","11","9606","1855","&#9761;","elianto","#3366ff99","-1"," ","0","0","[1515.5999999940395]","1","0","2","","","","","","","",""
"pit-trial","38","398525","0.0-2.0-11.0-1.0","battery-v0.2","","""event"",""trial"",""time""
""fullscreenenter"",""1"",""3012""
","
","
","""event"",""trial"",""time""
""fullscreenenter"",""1"",""3012""
","
","","","481.2000000178814","","","11","9606","1855","&#9761;","elianto","#3366ff99","-1"," ","0","0","[1333.5]","1","0","2","","","","","","","",""
"pit-trial","39","403392","0.0-2.0-11.0-2.0","battery-v0.2","","""event"",""trial"",""time""
""fullscreenenter"",""1"",""3012""
","
","
","""event"",""trial"",""time""
""fullscreenenter"",""1"",""3012""
","
","","","-1","","","11","9606","1855","&#9761;","elianto","#3366ff99","-1","-1","1","+10","[]","0","0","2","","","","","","","",""
"pit-trial","40","408265","0.0-2.0-11.0-3.0","battery-v0.2","","""event"",""trial"",""time""
""fullscreenenter"",""1"",""3012""
","
","
","""event"",""trial"",""time""
""fullscreenenter"",""1"",""3012""
","
","","","-1","","","11","9606","1855","&#9761;","elianto","#3366ff99","-1","-1","1","0","[]","0","0","2","","","","","","","",""
"pit-trial","41","413132","0.0-2.0-11.0-4.0","battery-v0.2","","""event"",""trial"",""time""
""fullscreenenter"",""1"",""3012""
","
","
","""event"",""trial"",""time""
""fullscreenenter"",""1"",""3012""
","
","","","-1","","","11","9606","1855","&#9761;","elianto","#3366ff99","-1","-1","1","+10","[]","0","0","2","","","","","","","",""
"pit-trial","42","417999","0.0-2.0-11.1-0.1","battery-v0.2","","""event"",""trial"",""time""
""fullscreenenter"",""1"",""3012""
","
","
","""event"",""trial"",""time""
""fullscreenenter"",""1"",""3012""
","
","","","-1","","","11","9606","1855","&#9761;","elianto","#3366ff99","-1","-1","1","+10","[]","0","0","2","","","","","","","",""
"pit-trial","43","422865","0.0-2.0-11.1-1.1","battery-v0.2","","""event"",""trial"",""time""
""fullscreenenter"",""1"",""3012""
","
","
","""event"",""trial"",""time""
""fullscreenenter"",""1"",""3012""
","
","","","-1","","","11","9606","1855","&#9761;","elianto","#3366ff99","-1","-1","1","+10","[]","0","0","2","","","","","","","",""
"pit-trial","44","427729","0.0-2.0-11.1-2.1","battery-v0.2","","""event"",""trial"",""time""
""fullscreenenter"",""1"",""3012""
","
","
","""event"",""trial"",""time""
""fullscreenenter"",""1"",""3012""
","
","","","-1","","","11","9606","1855","&#9761;","elianto","#3366ff99","-1","-1","1","+10","[]","0","0","2","","","","","","","",""
"pit-trial","45","431281","0.0-2.0-11.1-3.1","battery-v0.2","","""event"",""trial"",""time""
""fullscreenenter"",""1"",""3012""
","
","
","""event"",""trial"",""time""
""fullscreenenter"",""1"",""3012""
","
","","","685.3000000119209","","","11","9606","1855","&#9761;","elianto","#3366ff99","-1"," ","0","+10","[1541]","1","0","2","","","","","","","",""
"pit-trial","46","434550","0.0-2.0-11.1-4.1","battery-v0.2","","""event"",""trial"",""time""
""fullscreenenter"",""1"",""3012""
","
","
","""event"",""trial"",""time""
""fullscreenenter"",""1"",""3012""
","
","","","403.80000001192093","","","11","9606","1855","&#9761;","elianto","#3366ff99","-1"," ","0","0","[1261]","1","0","2","","","","","","","",""
"pit-trial","47","437830","0.0-2.0-11.2-0.2","battery-v0.2","","""event"",""trial"",""time""
""fullscreenenter"",""1"",""3012""
","
","
","""event"",""trial"",""time""
""fullscreenenter"",""1"",""3012""
","
","","","419.69999998807907","","","11","9606","1855","&#9761;","elianto","#3366ff99","-1"," ","0","0","[1270.300000011921]","1","0","2","","","","","","","",""
"pit-trial","48","440742","0.0-2.0-11.2-1.2","battery-v0.2","","""event"",""trial"",""time""
""fullscreenenter"",""1"",""3012""
","
","
","""event"",""trial"",""time""
""fullscreenenter"",""1"",""3012""
","
","","","47.5","","","11","9606","1855","&#9761;","elianto","#3366ff99","-1"," ","0","0","[901.8000000119209]","1","0","2","","","","","","","",""
"pit-trial","49","445606","0.0-2.0-11.2-2.2","battery-v0.2","","""event"",""trial"",""time""
""fullscreenenter"",""1"",""3012""
","
","
","""event"",""trial"",""time""
""fullscreenenter"",""1"",""3012""
","
","","","-1","","","11","9606","1855","&#9761;","elianto","#3366ff99","-1","-1","1","+10","[]","0","0","2","","","","","","","",""
"pit-trial","50","450470","0.0-2.0-11.2-3.2","battery-v0.2","","""event"",""trial"",""time""
""fullscreenenter"",""1"",""3012""
","
","
","""event"",""trial"",""time""
""fullscreenenter"",""1"",""3012""
","
","","","-1","","","11","9606","1855","&#9761;","elianto","#3366ff99","-1","-1","1","0","[]","0","0","2","","","","","","","",""
"pit-trial","51","455334","0.0-2.0-11.2-4.2","battery-v0.2","","""event"",""trial"",""time""
""fullscreenenter"",""1"",""3012""
","
","
","""event"",""trial"",""time""
""fullscreenenter"",""1"",""3012""
","
","","","-1","","","11","9606","1855","&#9761;","elianto","#3366ff99","-1","-1","1","+10","[]","0","0","2","","","","","","","",""
"pit-trial","52","460198","0.0-2.0-11.3-0.3","battery-v0.2","","""event"",""trial"",""time""
""fullscreenenter"",""1"",""3012""
","
","
","""event"",""trial"",""time""
""fullscreenenter"",""1"",""3012""
","
","","","-1","","","11","9606","1855","&#9761;","elianto","#3366ff99","-1","-1","1","+10","[]","0","0","2","","","","","","","",""
"pit-trial","53","465062","0.0-2.0-11.3-1.3","battery-v0.2","","""event"",""trial"",""time""
""fullscreenenter"",""1"",""3012""
","
","
","""event"",""trial"",""time""
""fullscreenenter"",""1"",""3012""
","
","","","-1","","","11","9606","1855","&#9761;","elianto","#3366ff99","-1","-1","1","+10","[]","0","0","2","","","","","","","",""
"pit-trial","54","469932","0.0-2.0-11.3-2.3","battery-v0.2","","""event"",""trial"",""time""
""fullscreenenter"",""1"",""3012""
","
","
","""event"",""trial"",""time""
""fullscreenenter"",""1"",""3012""
","
","","","-1","","","11","9606","1855","&#9761;","elianto","#3366ff99","-1","-1","1","+10","[]","0","0","2","","","","","","","",""
"pit-trial","55","474801","0.0-2.0-11.3-3.3","battery-v0.2","","""event"",""trial"",""time""
""fullscreenenter"",""1"",""3012""
","
","
","""event"",""trial"",""time""
""fullscreenenter"",""1"",""3012""
","
","","","-1","","","11","9606","1855","&#9761;","elianto","#3366ff99","-1","-1","1","0","[]","0","0","2","","","","","","","",""
"pit-trial","56","479669","0.0-2.0-11.3-4.3","battery-v0.2","","""event"",""trial"",""time""
""fullscreenenter"",""1"",""3012""
","
","
","""event"",""trial"",""time""
""fullscreenenter"",""1"",""3012""
","
","","","-1","","","11","9606","1855","&#9761;","elianto","#3366ff99","-1","-1","1","+10","[]","0","0","2","","","","","","","",""
"call-function","57","479671","0.0-2.0-12.0","battery-v0.2","","""event"",""trial"",""time""
""fullscreenenter"",""1"",""3012""
","
","
","""event"",""trial"",""time""
""fullscreenenter"",""1"",""3012""
","
","","","","","","","","","","","","","","","","","","","","","","","","","","",""
"pit-instructions","58","512513","0.0-2.0-13.0","battery-v0.2","","""event"",""trial"",""time""
""fullscreenenter"",""1"",""3012""
","
","
","""event"",""trial"",""time""
""fullscreenenter"",""1"",""3012""
","
","","[{""page_index"":0,""viewing_time"":5410.699999988079},{""page_index"":1,""viewing_time"":7341.700000017881},{""page_index"":2,""viewing_time"":4561.199999988079},{""page_index"":3,""viewing_time"":11316.90000000596},{""page_index"":4,""viewing_time"":4202}]","32832.80000001192","","","","","","","","","","","","","","","","","","","","","","","",""
"pit-trial","59","515983","0.0-2.0-14.0-0.0","battery-v0.2","","""event"",""trial"",""time""
""fullscreenenter"",""1"",""3012""
","
","
","""event"",""trial"",""time""
""fullscreenenter"",""1"",""3012""
","
","","","596.1000000238419","","","11","9606","1855","&#9826;","elianto","#f73b6a7A","-1"," ","0","-10","[1457.199999988079]","1","0","3","","","","","","","",""
"pit-trial","60","520850","0.0-2.0-14.0-1.0","battery-v0.2","","""event"",""trial"",""time""
""fullscreenenter"",""1"",""3012""
","
","
","""event"",""trial"",""time""
""fullscreenenter"",""1"",""3012""
","
","","","-1","","","11","9606","1855","&#9826;","elianto","#f73b6a7A","-1","-1","1","0","[]","0","0","3","","","","","","","",""
"pit-trial","61","525718","0.0-2.0-14.0-2.0","battery-v0.2","","""event"",""trial"",""time""
""fullscreenenter"",""1"",""3012""
","
","
","""event"",""trial"",""time""
""fullscreenenter"",""1"",""3012""
","
","","","-1","","","11","9606","1855","&#9826;","elianto","#f73b6a7A","-1","-1","1","0","[]","0","0","3","","","","","","","",""
"pit-trial","62","530576","0.0-2.0-14.0-3.0","battery-v0.2","","""event"",""trial"",""time""
""fullscreenenter"",""1"",""3012""
","
","
","""event"",""trial"",""time""
""fullscreenenter"",""1"",""3012""
","
","","","-1","","","11","9606","1855","&#9826;","elianto","#f73b6a7A","-1","-1","1","-10","[593.8000000119209]","1","0","3","","","","","","","",""
"pit-trial","63","535439","0.0-2.0-14.0-4.0","battery-v0.2","","""event"",""trial"",""time""
""fullscreenenter"",""1"",""3012""
","
","
","""event"",""trial"",""time""
""fullscreenenter"",""1"",""3012""
","
","","","-1","","","11","9606","1855","&#9826;","elianto","#f73b6a7A","-1","-1","1","0","[]","0","0","3","","","","","","","",""
"pit-trial","64","540307","0.0-2.0-14.1-0.1","battery-v0.2","","""event"",""trial"",""time""
""fullscreenenter"",""1"",""3012""
","
","
","""event"",""trial"",""time""
""fullscreenenter"",""1"",""3012""
","
","","","-1","","","11","9606","1855","&#9826;","elianto","#f73b6a7A","-1","-1","1","0","[]","0","0","3","","","","","","","",""
"pit-trial","65","545166","0.0-2.0-14.1-1.1","battery-v0.2","","""event"",""trial"",""time""
""fullscreenenter"",""1"",""3012""
","
","
","""event"",""trial"",""time""
""fullscreenenter"",""1"",""3012""
","
","","","-1","","","11","9606","1855","&#9826;","elianto","#f73b6a7A","-1","-1","1","0","[]","0","0","3","","","","","","","",""
"pit-trial","66","550022","0.0-2.0-14.1-2.1","battery-v0.2","","""event"",""trial"",""time""
""fullscreenenter"",""1"",""3012""
","
","
","""event"",""trial"",""time""
""fullscreenenter"",""1"",""3012""
","
","","","-1","","","11","9606","1855","&#9826;","elianto","#f73b6a7A","-1","-1","1","0","[]","0","0","3","","","","","","","",""
"pit-trial","67","554886","0.0-2.0-14.1-3.1","battery-v0.2","","""event"",""trial"",""time""
""fullscreenenter"",""1"",""3012""
","
","
","""event"",""trial"",""time""
""fullscreenenter"",""1"",""3012""
","
","","","-1","","","11","9606","1855","&#9826;","elianto","#f73b6a7A","-1","-1","1","-10","[]","0","0","3","","","","","","","",""
"pit-trial","68","559750","0.0-2.0-14.1-4.1","battery-v0.2","","""event"",""trial"",""time""
""fullscreenenter"",""1"",""3012""
","
","
","""event"",""trial"",""time""
""fullscreenenter"",""1"",""3012""
","
","","","-1","","","11","9606","1855","&#9826;","elianto","#f73b6a7A","-1","-1","1","0","[]","0","0","3","","","","","","","",""
"pit-trial","69","564614","0.0-2.0-14.2-0.2","battery-v0.2","","""event"",""trial"",""time""
""fullscreenenter"",""1"",""3012""
","
","
","""event"",""trial"",""time""
""fullscreenenter"",""1"",""3012""
","
","","","-1","","","11","9606","1855","&#9826;","elianto","#f73b6a7A","-1","-1","1","0","[]","0","0","3","","","","","","","",""
"pit-trial","70","569478","0.0-2.0-14.2-1.2","battery-v0.2","","""event"",""trial"",""time""
""fullscreenenter"",""1"",""3012""
","
","
","""event"",""trial"",""time""
""fullscreenenter"",""1"",""3012""
","
","","","-1","","","11","9606","1855","&#9826;","elianto","#f73b6a7A","-1","-1","1","0","[]","0","0","3","","","","","","","",""
"pit-trial","71","574342","0.0-2.0-14.2-2.2","battery-v0.2","","""event"",""trial"",""time""
""fullscreenenter"",""1"",""3012""
","
","
","""event"",""trial"",""time""
""fullscreenenter"",""1"",""3012""
","
","","","-1","","","11","9606","1855","&#9826;","elianto","#f73b6a7A","-1","-1","1","0","[]","0","0","3","","","","","","","",""
"pit-trial","72","579206","0.0-2.0-14.2-3.2","battery-v0.2","","""event"",""trial"",""time""
""fullscreenenter"",""1"",""3012""
","
","
","""event"",""trial"",""time""
""fullscreenenter"",""1"",""3012""
","
","","","-1","","","11","9606","1855","&#9826;","elianto","#f73b6a7A","-1","-1","1","-10","[]","0","0","3","","","","","","","",""
"pit-trial","73","584070","0.0-2.0-14.2-4.2","battery-v0.2","","""event"",""trial"",""time""
""fullscreenenter"",""1"",""3012""
","
","
","""event"",""trial"",""time""
""fullscreenenter"",""1"",""3012""
","
","","","-1","","","11","9606","1855","&#9826;","elianto","#f73b6a7A","-1","-1","1","0","[]","0","0","3","","","","","","","",""
"pit-trial","74","588934","0.0-2.0-14.3-0.3","battery-v0.2","","""event"",""trial"",""time""
""fullscreenenter"",""1"",""3012""
","
","
","""event"",""trial"",""time""
""fullscreenenter"",""1"",""3012""
","
","","","-1","","","11","9606","1855","&#9826;","elianto","#f73b6a7A","-1","-1","1","0","[]","0","0","3","","","","","","","",""
"pit-trial","75","593798","0.0-2.0-14.3-1.3","battery-v0.2","","""event"",""trial"",""time""
""fullscreenenter"",""1"",""3012""
","
","
","""event"",""trial"",""time""
""fullscreenenter"",""1"",""3012""
","
","","","-1","","","11","9606","1855","&#9826;","elianto","#f73b6a7A","-1","-1","1","0","[]","0","0","3","","","","","","","",""
"pit-trial","76","598662","0.0-2.0-14.3-2.3","battery-v0.2","","""event"",""trial"",""time""
""fullscreenenter"",""1"",""3012""
","
","
","""event"",""trial"",""time""
""fullscreenenter"",""1"",""3012""
","
","","","-1","","","11","9606","1855","&#9826;","elianto","#f73b6a7A","-1","-1","1","0","[]","0","0","3","","","","","","","",""
"pit-trial","77","603526","0.0-2.0-14.3-3.3","battery-v0.2","","""event"",""trial"",""time""
""fullscreenenter"",""1"",""3012""
","
","
","""event"",""trial"",""time""
""fullscreenenter"",""1"",""3012""
","
","","","-1","","","11","9606","1855","&#9826;","elianto","#f73b6a7A","-1","-1","1","-10","[]","0","0","3","","","","","","","",""
"pit-trial","78","608390","0.0-2.0-14.3-4.3","battery-v0.2","","""event"",""trial"",""time""
""fullscreenenter"",""1"",""3012""
","
","
","""event"",""trial"",""time""
""fullscreenenter"",""1"",""3012""
","
","","","-1","","","11","9606","1855","&#9826;","elianto","#f73b6a7A","-1","-1","1","0","[]","0","0","3","","","","","","","",""
"call-function","79","608392","0.0-2.0-15.0","battery-v0.2","","""event"",""trial"",""time""
""fullscreenenter"",""1"",""3012""
","
","
","""event"",""trial"",""time""
""fullscreenenter"",""1"",""3012""
","
","","","","","","","","","","","","","","","","","","","","","","","","","","",""
"pit-instructions","80","632830","0.0-2.0-16.0","battery-v0.2","","""event"",""trial"",""time""
""fullscreenenter"",""1"",""3012""
","
","
","""event"",""trial"",""time""
""fullscreenenter"",""1"",""3012""
","
","","[{""page_index"":0,""viewing_time"":6644.200000017881},{""page_index"":1,""viewing_time"":8634.09999999404},{""page_index"":2,""viewing_time"":4572.300000011921},{""page_index"":3,""viewing_time"":4586}]","24437.20000001788","","","","","","","","","","","","","","","","","","","","","","","",""
"pit-trial","81","636095","0.0-2.0-17.0-0.0","battery-v0.2","","""event"",""trial"",""time""
""fullscreenenter"",""1"",""3012""
","
","
","""event"",""trial"",""time""
""fullscreenenter"",""1"",""3012""
","
","","","403.5","","","11","9606","1855","&#9789;","elianto","#f73b6a7A"," "," ","1","0","[1257.300000011921]","1","0","4","","","","","","","",""
"pit-trial","82","639342","0.0-2.0-17.0-1.0","battery-v0.2","","""event"",""trial"",""time""
""fullscreenenter"",""1"",""3012""
","
","
","""event"",""trial"",""time""
""fullscreenenter"",""1"",""3012""
","
","","","387.09999999403954","","","11","9606","1855","&#9789;","elianto","#f73b6a7A"," "," ","1","0","[1237.5]","1","0","4","","","","","","","",""
"pit-trial","83","642363","0.0-2.0-17.0-2.0","battery-v0.2","","""event"",""trial"",""time""
""fullscreenenter"",""1"",""3012""
","
","
","""event"",""trial"",""time""
""fullscreenenter"",""1"",""3012""
","
","","","162.80000001192093","","","11","9606","1855","&#9789;","elianto","#f73b6a7A"," "," ","1","0","[1013.5999999940395]","1","0","4","","","","","","","",""
"pit-trial","84","645370","0.0-2.0-17.0-3.0","battery-v0.2","","""event"",""trial"",""time""
""fullscreenenter"",""1"",""3012""
","
","
","""event"",""trial"",""time""
""fullscreenenter"",""1"",""3012""
","
","","","139.90000000596046","","","11","9606","1855","&#9789;","elianto","#f73b6a7A"," "," ","1","-10","[996.7999999821186]","1","0","4","","","","","","","",""
"pit-trial","85","648402","0.0-2.0-17.0-4.0","battery-v0.2","","""event"",""trial"",""time""
""fullscreenenter"",""1"",""3012""
","
","
","""event"",""trial"",""time""
""fullscreenenter"",""1"",""3012""
","
","","","166.2000000178814","","","11","9606","1855","&#9789;","elianto","#f73b6a7A"," "," ","1","0","[1022.2000000178814]","1","0","4","","","","","","","",""
"pit-trial","86","651662","0.0-2.0-17.1-0.1","battery-v0.2","","""event"",""trial"",""time""
""fullscreenenter"",""1"",""3012""
","
","
","""event"",""trial"",""time""
""fullscreenenter"",""1"",""3012""
","
","","","398.19999998807907","","","11","9606","1855","&#9789;","elianto","#f73b6a7A"," "," ","1","0","[1251.0999999940395]","1","0","4","","","","","","","",""
"pit-trial","87","654894","0.0-2.0-17.1-1.1","battery-v0.2","","""event"",""trial"",""time""
""fullscreenenter"",""1"",""3012""
","
","
","""event"",""trial"",""time""
""fullscreenenter"",""1"",""3012""
","
","","","372.2999999821186","","","11","9606","1855","&#9789;","elianto","#f73b6a7A"," "," ","1","0","[1228.7999999821186]","1","0","4","","","","","","","",""
"pit-trial","88","658222","0.0-2.0-17.1-2.1","battery-v0.2","","""event"",""trial"",""time""
""fullscreenenter"",""1"",""3012""
","
","
","""event"",""trial"",""time""
""fullscreenenter"",""1"",""3012""
","
","","","465.5","","","11","9606","1855","&#9789;","elianto","#f73b6a7A"," "," ","1","0","[1320.5999999940395]","1","0","4","","","","","","","",""
"pit-trial","89","661543","0.0-2.0-17.1-3.1","battery-v0.2","","""event"",""trial"",""time""
""fullscreenenter"",""1"",""3012""
","
","
","""event"",""trial"",""time""
""fullscreenenter"",""1"",""3012""
","
","","","463.40000000596046","","","11","9606","1855","&#9789;","elianto","#f73b6a7A"," "," ","1","-10","[1315.300000011921]","1","0","4","","","","","","","",""
"pit-trial","90","664810","0.0-2.0-17.1-4.1","battery-v0.2","","""event"",""trial"",""time""
""fullscreenenter"",""1"",""3012""
","
","
","""event"",""trial"",""time""
""fullscreenenter"",""1"",""3012""
","
","","","401.7999999821186","","","11","9606","1855","&#9789;","elianto","#f73b6a7A"," "," ","1","0","[1254.5999999940395]","1","0","4","","","","","","","",""
"pit-trial","91","667962","0.0-2.0-17.2-0.2","battery-v0.2","","""event"",""trial"",""time""
""fullscreenenter"",""1"",""3012""
","
","
","""event"",""trial"",""time""
""fullscreenenter"",""1"",""3012""
","
","","","287.69999998807907","","","11","9606","1855","&#9789;","elianto","#f73b6a7A"," "," ","1","0","[1138.199999988079]","1","0","4","","","","","","","",""
"pit-trial","92","672399","0.0-2.0-17.2-1.2","battery-v0.2","","""event"",""trial"",""time""
""fullscreenenter"",""1"",""3012""
","
","
","""event"",""trial"",""time""
""fullscreenenter"",""1"",""3012""
","
","","","1564.7999999821186","","","11","9606","1855","&#9789;","elianto","#f73b6a7A"," "," ","1","0","[2425.5]","1","0","4","","","","","","","",""
"pit-trial","93","675514","0.0-2.0-17.2-2.2","battery-v0.2","","""event"",""trial"",""time""
""fullscreenenter"",""1"",""3012""
","
","
","""event"",""trial"",""time""
""fullscreenenter"",""1"",""3012""
","
","","","247.80000001192093","","","11","9606","1855","&#9789;","elianto","#f73b6a7A"," "," ","1","0","[1100.300000011921]","1","0","4","","","","","","","",""
"pit-trial","94","678527","0.0-2.0-17.2-3.2","battery-v0.2","","""event"",""trial"",""time""
""fullscreenenter"",""1"",""3012""
","
","
","""event"",""trial"",""time""
""fullscreenenter"",""1"",""3012""
","
","","","146.30000001192093","","","11","9606","1855","&#9789;","elianto","#f73b6a7A"," "," ","1","-10","[1008.5]","1","0","4","","","","","","","",""
"pit-trial","95","681839","0.0-2.0-17.2-4.2","battery-v0.2","","""event"",""trial"",""time""
""fullscreenenter"",""1"",""3012""
","
","
","""event"",""trial"",""time""
""fullscreenenter"",""1"",""3012""
","
","","","447.2000000178814","","","11","9606","1855","&#9789;","elianto","#f73b6a7A"," "," ","1","0","[1302.8999999761581]","1","0","4","","","","","","","",""
"pit-trial","96","685183","0.0-2.0-17.3-0.3","battery-v0.2","","""event"",""trial"",""time""
""fullscreenenter"",""1"",""3012""
","
","
","""event"",""trial"",""time""
""fullscreenenter"",""1"",""3012""
","
","","","483.90000000596046","","","11","9606","1855","&#9789;","elianto","#f73b6a7A"," "," ","1","0","[1334.300000011921,1497.5]","2","0","4","","","","","","","",""
"pit-trial","97","688351","0.0-2.0-17.3-1.3","battery-v0.2","","""event"",""trial"",""time""
""fullscreenenter"",""1"",""3012""
","
","
","""event"",""trial"",""time""
""fullscreenenter"",""1"",""3012""
","
","","","300.89999997615814","","","11","9606","1855","&#9789;","elianto","#f73b6a7A"," "," ","1","0","[1156.5]","1","0","4","","","","","","","",""
"pit-trial","98","691775","0.0-2.0-17.3-2.3","battery-v0.2","","""event"",""trial"",""time""
""fullscreenenter"",""1"",""3012""
","
","
","""event"",""trial"",""time""
""fullscreenenter"",""1"",""3012""
","
","","","564.1999999880791","","","11","9606","1855","&#9789;","elianto","#f73b6a7A"," "," ","1","0","[1420.4000000059605]","1","0","4","","","","","","","",""
"pit-trial","99","695055","0.0-2.0-17.3-3.3","battery-v0.2","","""event"",""trial"",""time""
""fullscreenenter"",""1"",""3012""
","
","
","""event"",""trial"",""time""
""fullscreenenter"",""1"",""3012""
","
","","","419.7000000178814","","","11","9606","1855","&#9789;","elianto","#f73b6a7A"," "," ","1","-10","[1270.300000011921]","1","0","4","","","","","","","",""
"pit-trial","100","698399","0.0-2.0-17.3-4.3","battery-v0.2","","""event"",""trial"",""time""
""fullscreenenter"",""1"",""3012""
","
","
","""event"",""trial"",""time""
""fullscreenenter"",""1"",""3012""
","
","","","487.7999999821186","","","11","9606","1855","&#9789;","elianto","#f73b6a7A"," "," ","1","0","[1339.300000011921]","1","0","4","","","","","","","",""
"call-function","101","698402","0.0-2.0-18.0","battery-v0.2","","""event"",""trial"",""time""
""fullscreenenter"",""1"",""3012""
","
","
","""event"",""trial"",""time""
""fullscreenenter"",""1"",""3012""
","
","","","","","","","","","","","","","","","","","","","","","","","","","","",""
"pit-instructions","102","777881","0.0-2.0-19.0","battery-v0.2","","""event"",""trial"",""time""
""fullscreenenter"",""1"",""3012""
","
","
","""event"",""trial"",""time""
""fullscreenenter"",""1"",""3012""
","
","","[{""page_index"":0,""viewing_time"":6545.5999999940395},{""page_index"":1,""viewing_time"":6157.199999988079},{""page_index"":2,""viewing_time"":13672},{""page_index"":3,""viewing_time"":13276.40000000596},{""page_index"":4,""viewing_time"":8426.5},{""page_index"":5,""viewing_time"":9569.199999988079},{""page_index"":6,""viewing_time"":8772.200000017881},{""page_index"":7,""viewing_time"":8350.40000000596},{""page_index"":8,""viewing_time"":4709.199999988079}]","79479.09999999404","","","","","","","","","","","","","","","","","","","","","","","",""
"pit-comprehension","103","783403","0.0-2.0-20.0-0.0","battery-v0.2","","""event"",""trial"",""time""
""fullscreenenter"",""1"",""3012""
","
","
","""event"",""trial"",""time""
""fullscreenenter"",""1"",""3012""
","
","","","5518.5999999940395","[""SPACE""]","0","11","9606","1855","","","","","","","","","","","","","","","","","","",""
"pit-instructions","104","786433","0.0-2.0-20.0-1.0","battery-v0.2","","""event"",""trial"",""time""
""fullscreenenter"",""1"",""3012""
","
","
","""event"",""trial"",""time""
""fullscreenenter"",""1"",""3012""
","
","","[{""page_index"":0,""viewing_time"":2996.199999988079}]","2996.5","","","","","","","","","","","","","","","","","","","","","","","",""
"pit-comprehension","105","792962","0.0-2.0-21.0-0.0","battery-v0.2","","""event"",""trial"",""time""
""fullscreenenter"",""1"",""3012""
","
","
","""event"",""trial"",""time""
""fullscreenenter"",""1"",""3012""
","
","","","6525.199999988079","[""10""]","0","11","9606","1855","","","","","","","","","","","","","","","","","","",""
"pit-instructions","106","795680","0.0-2.0-21.0-1.0","battery-v0.2","","""event"",""trial"",""time""
""fullscreenenter"",""1"",""3012""
","
","
","""event"",""trial"",""time""
""fullscreenenter"",""1"",""3012""
","
","","[{""page_index"":0,""viewing_time"":2682.399999976158}]","2682.7999999821186","","","","","","","","","","","","","","","","","","","","","","","",""
"pit-comprehension","107","803126","0.0-2.0-22.0-0.0","battery-v0.2","","""event"",""trial"",""time""
""fullscreenenter"",""1"",""3012""
","
","
","""event"",""trial"",""time""
""fullscreenenter"",""1"",""3012""
","
","","","7441.5","[""0""]","0","11","9606","1855","","","","","","","","","","","","","","","","","","",""
"pit-instructions","108","805601","0.0-2.0-22.0-1.0","battery-v0.2","","""event"",""trial"",""time""
""fullscreenenter"",""1"",""3012""
","
","
","""event"",""trial"",""time""
""fullscreenenter"",""1"",""3012""
","
","","[{""page_index"":0,""viewing_time"":2440.0999999940395}]","2440.4000000059605","","","","","","","","","","","","","","","","","","","","","","","",""
"pit-comprehension","109","815290","0.0-2.0-23.0-0.0","battery-v0.2","","""event"",""trial"",""time""
""fullscreenenter"",""1"",""3012""
","
","
","""event"",""trial"",""time""
""fullscreenenter"",""1"",""3012""
","
","","","9685.300000011921","[""True""]","0","11","9606","1855","","","","","","","","","","","","","","","","","","",""
"pit-instructions","110","817239","0.0-2.0-23.0-1.0","battery-v0.2","","""event"",""trial"",""time""
""fullscreenenter"",""1"",""3012""
","
","
","""event"",""trial"",""time""
""fullscreenenter"",""1"",""3012""
","
","","[{""page_index"":0,""viewing_time"":1912.5}]","1912.800000011921","","","","","","","","","","","","","","","","","","","","","","","",""
"pit-comprehension","111","826200","0.0-2.0-24.0-0.0","battery-v0.2","","""event"",""trial"",""time""
""fullscreenenter"",""1"",""3012""
","
","
","""event"",""trial"",""time""
""fullscreenenter"",""1"",""3012""
","
","","","8957.899999976158","[""True""]","0","11","9606","1855","","","","","","","","","","","","","","","","","","",""
"pit-instructions","112","828062","0.0-2.0-24.0-1.0","battery-v0.2","","""event"",""trial"",""time""
""fullscreenenter"",""1"",""3012""
","
","
","""event"",""trial"",""time""
""fullscreenenter"",""1"",""3012""
","
","","[{""page_index"":0,""viewing_time"":1826.800000011921}]","1827.1000000238419","","","","","","","","","","","","","","","","","","","","","","","",""
"pit-comprehension","113","840283","0.0-2.0-25.0-0.0","battery-v0.2","","""event"",""trial"",""time""
""fullscreenenter"",""1"",""3012""
","
","
","""event"",""trial"",""time""
""fullscreenenter"",""1"",""3012""
","
","","","12218.09999999404","[""True""]","0","11","9606","1855","","","","","","","","","","","","","","","","","","",""
"pit-instructions","114","845155","0.0-2.0-25.0-1.0","battery-v0.2","","""event"",""trial"",""time""
""fullscreenenter"",""1"",""3012""
","
","
","""event"",""trial"",""time""
""fullscreenenter"",""1"",""3012""
","
","","[{""page_index"":0,""viewing_time"":4834.699999988079}]","4835","","","","","","","","","","","","","","","","","","","","","","","",""
"pit-comprehension","115","852426","0.0-2.0-26.0-0.0","battery-v0.2","","""event"",""trial"",""time""
""fullscreenenter"",""1"",""3012""
","
","
","""event"",""trial"",""time""
""fullscreenenter"",""1"",""3012""
","
","","","7267.0999999940395","[""False""]","0","11","9606","1855","","","","","","","","","","","","","","","","","","",""
"pit-instructions","116","856232","0.0-2.0-26.0-1.0","battery-v0.2","","""event"",""trial"",""time""
""fullscreenenter"",""1"",""3012""
","
","
","""event"",""trial"",""time""
""fullscreenenter"",""1"",""3012""
","
","","[{""page_index"":0,""viewing_time"":3769.9000000059605}]","3770.4000000059605","","","","","","","","","","","","","","","","","","","","","","","",""
"pit-instructions","117","874158","0.0-3.0","battery-v0.2","","""event"",""trial"",""time""
""fullscreenenter"",""1"",""3012""
","
","
","""event"",""trial"",""time""
""fullscreenenter"",""1"",""3012""
","
","","[{""page_index"":0,""viewing_time"":4220.699999988079},{""page_index"":1,""viewing_time"":5988.800000011921},{""page_index"":2,""viewing_time"":7714.0999999940395}]","17923.899999976158","","","","","","","","","","","","","","","","","","","","","","","",""
"pit-trial","118","877481","0.0-4.0","battery-v0.2","","""event"",""trial"",""time""
""fullscreenenter"",""1"",""3012""
","
","
","""event"",""trial"",""time""
""fullscreenenter"",""1"",""3012""
","
","","","456.90000000596046","","","11","9606","1855","&#9728;","elianto","#f73b6a7A","-1"," ","0","-10","[1313.5]","1","1","","","9606","1","0","4","lose","no-go","0"
"pit-trial","119","880991","0.0-5.0","battery-v0.2","","""event"",""trial"",""time""
""fullscreenenter"",""1"",""3012""
","
","
","""event"",""trial"",""time""
""fullscreenenter"",""1"",""3012""
","
","","","647.9000000059605","","","11","9606","1855","&#9733;","elianto","#3366ff99","-1"," ","0","0","[1501.5999999940395]","1","1","","","9606","2","2","2","win","no-go","0"
"pit-trial","120","884635","0.0-6.0","battery-v0.2","","""event"",""trial"",""time""
""fullscreenenter"",""1"",""3012""
","
","
","""event"",""trial"",""time""
""fullscreenenter"",""1"",""3012""
","
","","","781","","","11","9606","1855","&#9730;","elianto","#3366ff99"," "," ","1","0","[1634.4000000059605]","1","1","","","9606","3","1","1","win","go","1"
"pit-trial","121","889505","0.0-7.0","battery-v0.2","","""event"",""trial"",""time""
""fullscreenenter"",""1"",""3012""
","
","
","""event"",""trial"",""time""
""fullscreenenter"",""1"",""3012""
","
","","","-1","","","11","9606","1855","&#9752;","elianto","#f73b6a7A"," ","-1","0","-10","[]","0","1","","","9606","4","3","3","lose","go","0"
"pit-trial","122","894371","0.0-8.0","battery-v0.2","","""event"",""trial"",""time""
""fullscreenenter"",""1"",""3012""
","
","
","""event"",""trial"",""time""
""fullscreenenter"",""1"",""3012""
","
","","","-1","","","11","9606","1855","&#9733;","elianto","#3366ff99","-1","-1","1","0","[]","0","1","","","9606","5","2","2","win","no-go","1"
"pit-trial","123","898334","0.0-9.0","battery-v0.2","","""event"",""trial"",""time""
""fullscreenenter"",""1"",""3012""
","
","
","""event"",""trial"",""time""
""fullscreenenter"",""1"",""3012""
","
","","","1105","","","11","9606","1855","&#9728;","elianto","#f73b6a7A","-1"," ","0","-10","[1955.7999999821186]","1","1","","","9606","6","0","4","lose","no-go","0"
"pit-trial","124","902179","0.0-10.0","battery-v0.2","","""event"",""trial"",""time""
""fullscreenenter"",""1"",""3012""
","
","
","""event"",""trial"",""time""
""fullscreenenter"",""1"",""3012""
","
","","","982","","","11","9606","1855","&#9752;","elianto","#f73b6a7A"," "," ","1","0","[1836.300000011921]","1","1","","","9606","7","3","3","lose","go","0"
"pit-trial","125","906179","0.0-11.0","battery-v0.2","","""event"",""trial"",""time""
""fullscreenenter"",""1"",""3012""
","
","
","""event"",""trial"",""time""
""fullscreenenter"",""1"",""3012""
","
","","","1129.0999999940395","","","11","9606","1855","&#9730;","elianto","#3366ff99"," "," ","1","+10","[1989.199999988079]","1","1","","","9606","8","1","1","win","go","0"
"pit-trial","126","909848","0.0-12.0","battery-v0.2","","""event"",""trial"",""time""
""fullscreenenter"",""1"",""3012""
","
","
","""event"",""trial"",""time""
""fullscreenenter"",""1"",""3012""
","
","","","803.1999999880791","","","11","9606","1855","&#9730;","elianto","#3366ff99"," "," ","1","+10","[1664.0999999940395]","1","1","","","9606","9","1","1","win","go","0"
"pit-trial","127","914711","0.0-13.0","battery-v0.2","","""event"",""trial"",""time""
""fullscreenenter"",""1"",""3012""
","
","
","""event"",""trial"",""time""
""fullscreenenter"",""1"",""3012""
","
","","","-1","","","11","9606","1855","&#9733;","elianto","#3366ff99","-1","-1","1","+10","[]","0","1","","","9606","10","2","2","win","no-go","0"
"pit-trial","128","919576","0.0-14.0","battery-v0.2","","""event"",""trial"",""time""
""fullscreenenter"",""1"",""3012""
","
","
","""event"",""trial"",""time""
""fullscreenenter"",""1"",""3012""
","
","","","-1","","","11","9606","1855","&#9728;","elianto","#f73b6a7A","-1","-1","1","0","[]","0","1","","","9606","11","0","4","lose","no-go","0"
"pit-trial","129","923256","0.0-15.0","battery-v0.2","","""event"",""trial"",""time""
""fullscreenenter"",""1"",""3012""
","
","
","""event"",""trial"",""time""
""fullscreenenter"",""1"",""3012""
","
","","","812.7999999821186","","","11","9606","1855","&#9752;","elianto","#f73b6a7A"," "," ","1","-10","[1668]","1","1","","","9606","12","3","3","lose","go","1"
"pit-trial","130","928120","0.0-16.0","battery-v0.2","","""event"",""trial"",""time""
""fullscreenenter"",""1"",""3012""
","
","
","""event"",""trial"",""time""
""fullscreenenter"",""1"",""3012""
","
","","","-1","","","11","9606","1855","&#9728;","elianto","#f73b6a7A","-1","-1","1","0","[]","0","1","","","9606","13","0","4","lose","no-go","0"
"pit-trial","131","931747","0.0-17.0","battery-v0.2","","""event"",""trial"",""time""
""fullscreenenter"",""1"",""3012""
","
","
","""event"",""trial"",""time""
""fullscreenenter"",""1"",""3012""
","
","","","767.5","","","11","9606","1855","&#9730;","elianto","#3366ff99"," "," ","1","+10","[1617.6000000238419]","1","1","","","9606","14","1","1","win","go","0"
"pit-trial","132","936407","0.0-18.0","battery-v0.2","","""event"",""trial"",""time""
""fullscreenenter"",""1"",""3012""
","
","
","""event"",""trial"",""time""
""fullscreenenter"",""1"",""3012""
","
","","","1799.699999988079","","","11","9606","1855","&#9752;","elianto","#f73b6a7A"," "," ","1","-10","[2656.5]","1","1","","","9606","15","3","3","lose","go","1"
"pit-trial","133","941271","0.0-19.0","battery-v0.2","","""event"",""trial"",""time""
""fullscreenenter"",""1"",""3012""
","
","
","""event"",""trial"",""time""
""fullscreenenter"",""1"",""3012""
","
","","","-1","","","11","9606","1855","&#9733;","elianto","#3366ff99","-1","-1","1","+10","[]","0","1","","","9606","16","2","2","win","no-go","0"
"pit-trial","134","945011","0.0-20.0","battery-v0.2","","""event"",""trial"",""time""
""fullscreenenter"",""1"",""3012""
","
","
","""event"",""trial"",""time""
""fullscreenenter"",""1"",""3012""
","
","","","875.5","","","11","9606","1855","&#9730;","elianto","#3366ff99"," "," ","1","+10","[1726.4000000059605]","1","1","","","9606","17","1","1","win","go","0"
"pit-trial","135","949880","0.0-21.0","battery-v0.2","","""event"",""trial"",""time""
""fullscreenenter"",""1"",""3012""
","
","
","""event"",""trial"",""time""
""fullscreenenter"",""1"",""3012""
","
","","","-1","","","11","9606","1855","&#9728;","elianto","#f73b6a7A","-1","-1","1","0","[]","0","1","","","9606","18","0","4","lose","no-go","0"
"pit-trial","136","954744","0.0-22.0","battery-v0.2","","""event"",""trial"",""time""
""fullscreenenter"",""1"",""3012""
","
","
","""event"",""trial"",""time""
""fullscreenenter"",""1"",""3012""
","
","","","-1","","","11","9606","1855","&#9752;","elianto","#f73b6a7A"," ","-1","0","-10","[]","0","1","","","9606","19","3","3","lose","go","0"
"pit-trial","137","959608","0.0-23.0","battery-v0.2","","""event"",""trial"",""time""
""fullscreenenter"",""1"",""3012""
","
","
","""event"",""trial"",""time""
""fullscreenenter"",""1"",""3012""
","
","","","-1","","","11","9606","1855","&#9733;","elianto","#3366ff99","-1","-1","1","+10","[]","0","1","","","9606","20","2","2","win","no-go","0"
"pit-instructions","138","972671","0.0-24.0","battery-v0.2","","""event"",""trial"",""time""
""fullscreenenter"",""1"",""3012""
","
","
","""event"",""trial"",""time""
""fullscreenenter"",""1"",""3012""
","
","","[{""page_index"":0,""viewing_time"":6285.9000000059605},{""page_index"":1,""viewing_time"":6774.5999999940395}]","13060.90000000596","","","","","","","","","","","","","","","","","","","","","","","",""
"pit-trial","139","975946","0.0-25.0","battery-v0.2","","""event"",""trial"",""time""
""fullscreenenter"",""1"",""3012""
","
","
","""event"",""trial"",""time""
""fullscreenenter"",""1"",""3012""
","
","","","408","","","11","9606","1855","t","elianto","#f73b6a7A"," "," ","1","-10","[1258.9000000059605]","1","2","","","9606","21","2","3","lose","go","1"
"pit-trial","140","979498","0.0-26.0","battery-v0.2","","""event"",""trial"",""time""
""fullscreenenter"",""1"",""3012""
","
","
","""event"",""trial"",""time""
""fullscreenenter"",""1"",""3012""
","
","","","681.3999999761581","","","11","9606","1855","f","elianto","#3366ff99","-1"," ","0","0","[1538.699999988079,1684.5999999940395]","2","2","","","9606","22","1","2","win","no-go","0"
"pit-trial","141","983482","0.0-27.0","battery-v0.2","","""event"",""trial"",""time""
""fullscreenenter"",""1"",""3012""
","
","
","""event"",""trial"",""time""
""fullscreenenter"",""1"",""3012""
","
","","","1114.7999999821186","","","11","9606","1855","n","elianto","#f73b6a7A"," "," ","1","0","[1972.0999999940395]","1","2","","","9606","23","0","3","lose","go","0"
"pit-trial","142","987272","0.0-28.0","battery-v0.2","","""event"",""trial"",""time""
""fullscreenenter"",""1"",""3012""
","
","
","""event"",""trial"",""time""
""fullscreenenter"",""1"",""3012""
","
","","","926.8999999761581","","","11","9606","1855","b","elianto","#f73b6a7A","-1"," ","0","-10","[1780.0999999940395]","1","2","","","9606","24","3","4","lose","no-go","0"
"pit-trial","143","992138","0.0-29.0","battery-v0.2","","""event"",""trial"",""time""
""fullscreenenter"",""1"",""3012""
","
","
","""event"",""trial"",""time""
""fullscreenenter"",""1"",""3012""
","
","","","-1","","","11","9606","1855","t","elianto","#f73b6a7A"," ","-1","0","-10","[]","0","2","","","9606","25","2","3","lose","go","0"
"pit-trial","144","997011","0.0-30.0","battery-v0.2","","""event"",""trial"",""time""
""fullscreenenter"",""1"",""3012""
","
","
","""event"",""trial"",""time""
""fullscreenenter"",""1"",""3012""
","
","","","-1","","","11","9606","1855","n","elianto","#f73b6a7A"," ","-1","0","-10","[]","0","2","","","9606","26","0","3","lose","go","0"
"pit-trial","145","1000672","0.0-31.0","battery-v0.2","","""event"",""trial"",""time""
""fullscreenenter"",""1"",""3012""
","
","
","""event"",""trial"",""time""
""fullscreenenter"",""1"",""3012""
","
","","","790.7000000178814","","","11","9606","1855","b","elianto","#f73b6a7A","-1"," ","0","-10","[1650]","1","2","","","9606","27","3","4","lose","no-go","0"
"pit-trial","146","1004443","0.0-32.0","battery-v0.2","","""event"",""trial"",""time""
""fullscreenenter"",""1"",""3012""
","
","
","""event"",""trial"",""time""
""fullscreenenter"",""1"",""3012""
","
","","","901.1999999880791","","","11","9606","1855","f","elianto","#3366ff99","-1"," ","0","+10","[1756.7000000178814,1991]","2","2","","","9606","28","1","2","win","no-go","1"
"pit-trial","147","1008177","0.0-33.0","battery-v0.2","","""event"",""trial"",""time""
""fullscreenenter"",""1"",""3012""
","
","
","""event"",""trial"",""time""
""fullscreenenter"",""1"",""3012""
","
","","","866.8000000119209","","","11","9606","1855","f","elianto","#3366ff99","-1"," ","0","0","[1727.9000000059605]","1","2","","","9606","29","1","2","win","no-go","0"
"pit-trial","148","1012710","0.0-34.0","battery-v0.2","","""event"",""trial"",""time""
""fullscreenenter"",""1"",""3012""
","
","
","""event"",""trial"",""time""
""fullscreenenter"",""1"",""3012""
","
","","","1675.699999988079","","","11","9606","1855","t","elianto","#f73b6a7A"," "," ","1","0","[2528.2999999821186,2681.399999976158]","2","2","","","9606","30","2","3","lose","go","0"
"pit-trial","149","1017574","0.0-35.0","battery-v0.2","","""event"",""trial"",""time""
""fullscreenenter"",""1"",""3012""
","
","
","""event"",""trial"",""time""
""fullscreenenter"",""1"",""3012""
","
","","","-1","","","11","9606","1855","n","elianto","#f73b6a7A"," ","-1","0","-10","[]","0","2","","","9606","31","0","3","lose","go","0"
"pit-trial","150","1022438","0.0-36.0","battery-v0.2","","""event"",""trial"",""time""
""fullscreenenter"",""1"",""3012""
","
","
","""event"",""trial"",""time""
""fullscreenenter"",""1"",""3012""
","
","","","-1","","","11","9606","1855","b","elianto","#f73b6a7A","-1","-1","1","0","[]","0","2","","","9606","32","3","4","lose","no-go","0"
"pit-trial","151","1025936","0.0-37.0","battery-v0.2","","""event"",""trial"",""time""
""fullscreenenter"",""1"",""3012""
","
","
","""event"",""trial"",""time""
""fullscreenenter"",""1"",""3012""
","
","","","640.7000000178814","","","11","9606","1855","f","elianto","#3366ff99","-1"," ","0","0","[1491.300000011921,1603.5999999940395]","2","2","","","9606","33","1","2","win","no-go","0"
"pit-trial","152","1030800","0.0-38.0","battery-v0.2","","""event"",""trial"",""time""
""fullscreenenter"",""1"",""3012""
","
","
","""event"",""trial"",""time""
""fullscreenenter"",""1"",""3012""
","
","","","-1","","","11","9606","1855","t","elianto","#f73b6a7A"," ","-1","0","0","[]","0","2","","","9606","34","2","3","lose","go","1"
"pit-trial","153","1035312","0.0-39.0","battery-v0.2","","""event"",""trial"",""time""
""fullscreenenter"",""1"",""3012""
","
","
","""event"",""trial"",""time""
""fullscreenenter"",""1"",""3012""
","
","","","1652.5","","","11","9606","1855","n","elianto","#f73b6a7A"," "," ","1","0","[2505.100000023842,2662.2000000178814,2693,2812.4000000059605]","4","2","","","9606","35","0","3","lose","go","0"
"pit-trial","154","1040176","0.0-40.0","battery-v0.2","","""event"",""trial"",""time""
""fullscreenenter"",""1"",""3012""
","
","
","""event"",""trial"",""time""
""fullscreenenter"",""1"",""3012""
","
","","","-1","","","11","9606","1855","b","elianto","#f73b6a7A","-1","-1","1","0","[]","0","2","","","9606","36","3","4","lose","no-go","0"
"pit-trial","155","1044448","0.0-41.0","battery-v0.2","","""event"",""trial"",""time""
""fullscreenenter"",""1"",""3012""
","
","
","""event"",""trial"",""time""
""fullscreenenter"",""1"",""3012""
","
","","","1381.4000000059605","","","11","9606","1855","t","elianto","#f73b6a7A"," "," ","1","0","[2261.600000023842]","1","2","","","9606","37","2","3","lose","go","0"
"pit-trial","156","1048447","0.0-42.0","battery-v0.2","","""event"",""trial"",""time""
""fullscreenenter"",""1"",""3012""
","
","
","""event"",""trial"",""time""
""fullscreenenter"",""1"",""3012""
","
","","","1136.5999999940395","","","11","9606","1855","n","elianto","#f73b6a7A"," "," ","1","0","[1989.3999999761581]","1","2","","","9606","38","0","3","lose","go","0"
"pit-trial","157","1052265","0.0-43.0","battery-v0.2","","""event"",""trial"",""time""
""fullscreenenter"",""1"",""3012""
","
","
","""event"",""trial"",""time""
""fullscreenenter"",""1"",""3012""
","
","","","959.8000000119209","","","11","9606","1855","f","elianto","#3366ff99","-1"," ","0","0","[1812.5999999940395]","1","2","","","9606","39","1","2","win","no-go","0"
"pit-trial","158","1057126","0.0-44.0","battery-v0.2","","""event"",""trial"",""time""
""fullscreenenter"",""1"",""3012""
","
","
","""event"",""trial"",""time""
""fullscreenenter"",""1"",""3012""
","
","","","-1","","","11","9606","1855","b","elianto","#f73b6a7A","-1","-1","1","0","[]","0","2","","","9606","40","3","4","lose","no-go","0"
"pit-trial","159","1060929","0.0-45.0","battery-v0.2","","""event"",""trial"",""time""
""fullscreenenter"",""1"",""3012""
","
","
","""event"",""trial"",""time""
""fullscreenenter"",""1"",""3012""
","
","","","934.3000000119209","","","11","9606","1855","n","elianto","#f73b6a7A"," "," ","1","0","[1790]","1","2","","","9606","41","0","3","lose","go","0"
"pit-trial","160","1065120","0.0-46.0","battery-v0.2","","""event"",""trial"",""time""
""fullscreenenter"",""1"",""3012""
","
","
","""event"",""trial"",""time""
""fullscreenenter"",""1"",""3012""
","
","","","1326.4000000059605","","","11","9606","1855","t","elianto","#f73b6a7A"," "," ","1","0","[2180.2999999821186]","1","2","","","9606","42","2","3","lose","go","0"
"pit-trial","161","1069983","0.0-47.0","battery-v0.2","","""event"",""trial"",""time""
""fullscreenenter"",""1"",""3012""
","
","
","""event"",""trial"",""time""
""fullscreenenter"",""1"",""3012""
","
","","","-1","","","11","9606","1855","b","elianto","#f73b6a7A","-1","-1","1","0","[]","0","2","","","9606","43","3","4","lose","no-go","0"
"pit-trial","162","1074838","0.0-48.0","battery-v0.2","","""event"",""trial"",""time""
""fullscreenenter"",""1"",""3012""
","
","
","""event"",""trial"",""time""
""fullscreenenter"",""1"",""3012""
","
","","","-1","","","11","9606","1855","f","elianto","#3366ff99","-1","-1","1","0","[]","0","2","","","9606","44","1","2","win","no-go","1"
"pit-trial","163","1079009","0.0-49.0","battery-v0.2","","""event"",""trial"",""time""
""fullscreenenter"",""1"",""3012""
","
","
","""event"",""trial"",""time""
""fullscreenenter"",""1"",""3012""
","
","","","1305.800000011921","","","11","9606","1855","t","elianto","#f73b6a7A"," "," ","1","0","[2161.5]","1","2","","","9606","45","2","3","lose","go","0"
"pit-trial","164","1082513","0.0-50.0","battery-v0.2","","""event"",""trial"",""time""
""fullscreenenter"",""1"",""3012""
","
","
","""event"",""trial"",""time""
""fullscreenenter"",""1"",""3012""
","
","","","632.7000000178814","","","11","9606","1855","n","elianto","#f73b6a7A"," "," ","1","0","[1492]","1","2","","","9606","46","0","3","lose","go","0"
"pit-trial","165","1087376","0.0-51.0","battery-v0.2","","""event"",""trial"",""time""
""fullscreenenter"",""1"",""3012""
","
","
","""event"",""trial"",""time""
""fullscreenenter"",""1"",""3012""
","
","","","-1","","","11","9606","1855","b","elianto","#f73b6a7A","-1","-1","1","0","[]","0","2","","","9606","47","3","4","lose","no-go","0"
"pit-trial","166","1091232","0.0-52.0","battery-v0.2","","""event"",""trial"",""time""
""fullscreenenter"",""1"",""3012""
","
","
","""event"",""trial"",""time""
""fullscreenenter"",""1"",""3012""
","
","","","992.9000000059605","","","11","9606","1855","f","elianto","#3366ff99","-1"," ","0","0","[1844.0999999940395,1965.199999988079]","2","2","","","9606","48","1","2","win","no-go","0"
"pit-trial","167","1095174","0.0-53.0","battery-v0.2","","""event"",""trial"",""time""
""fullscreenenter"",""1"",""3012""
","
","
","""event"",""trial"",""time""
""fullscreenenter"",""1"",""3012""
","
","","","1082.5999999940395","","","11","9606","1855","t","elianto","#f73b6a7A"," "," ","1","-10","[1934.5999999940395]","1","2","","","9606","49","2","3","lose","go","1"
"pit-trial","168","1099215","0.0-54.0","battery-v0.2","","""event"",""trial"",""time""
""fullscreenenter"",""1"",""3012""
","
","
","""event"",""trial"",""time""
""fullscreenenter"",""1"",""3012""
","
","","","1177.8999999761581","","","11","9606","1855","f","elianto","#3366ff99","-1"," ","0","0","[2033.199999988079,2180.699999988079]","2","2","","","9606","50","1","2","win","no-go","0"
"pit-trial","169","1102848","0.0-55.0","battery-v0.2","","""event"",""trial"",""time""
""fullscreenenter"",""1"",""3012""
","
","
","""event"",""trial"",""time""
""fullscreenenter"",""1"",""3012""
","
","","","771.2000000178814","","","11","9606","1855","n","elianto","#f73b6a7A"," "," ","1","0","[1624.3999999761581]","1","2","","","9606","51","0","3","lose","go","0"
"pit-trial","170","1107711","0.0-56.0","battery-v0.2","","""event"",""trial"",""time""
""fullscreenenter"",""1"",""3012""
","
","
","""event"",""trial"",""time""
""fullscreenenter"",""1"",""3012""
","
","","","-1","","","11","9606","1855","b","elianto","#f73b6a7A","-1","-1","1","0","[]","0","2","","","9606","52","3","4","lose","no-go","0"
"pit-trial","171","1112576","0.0-57.0","battery-v0.2","","""event"",""trial"",""time""
""fullscreenenter"",""1"",""3012""
","
","
","""event"",""trial"",""time""
""fullscreenenter"",""1"",""3012""
","
","","","-1","","","11","9606","1855","f","elianto","#3366ff99","-1","-1","1","+10","[]","0","2","","","9606","53","1","2","win","no-go","0"
"pit-trial","172","1116480","0.0-58.0","battery-v0.2","","""event"",""trial"",""time""
""fullscreenenter"",""1"",""3012""
","
","
","""event"",""trial"",""time""
""fullscreenenter"",""1"",""3012""
","
","","","1039.8999999761581","","","11","9606","1855","n","elianto","#f73b6a7A"," "," ","1","-10","[1890.9000000059605]","1","2","","","9606","54","0","3","lose","go","1"
"pit-trial","173","1121099","0.0-59.0","battery-v0.2","","""event"",""trial"",""time""
""fullscreenenter"",""1"",""3012""
","
","
","""event"",""trial"",""time""
""fullscreenenter"",""1"",""3012""
","
","","","1752.800000011921","","","11","9606","1855","t","elianto","#f73b6a7A"," "," ","1","0","[2607.4000000059605]","1","2","","","9606","55","2","3","lose","go","0"
"pit-trial","174","1125969","0.0-60.0","battery-v0.2","","""event"",""trial"",""time""
""fullscreenenter"",""1"",""3012""
","
","
","""event"",""trial"",""time""
""fullscreenenter"",""1"",""3012""
","
","","","-1","","","11","9606","1855","b","elianto","#f73b6a7A","-1","-1","1","0","[]","0","2","","","9606","56","3","4","lose","no-go","0"
"pit-trial","175","1129616","0.0-61.0","battery-v0.2","","""event"",""trial"",""time""
""fullscreenenter"",""1"",""3012""
","
","
","""event"",""trial"",""time""
""fullscreenenter"",""1"",""3012""
","
","","","784.4000000059605","","","11","9606","1855","n","elianto","#f73b6a7A"," "," ","1","0","[1635.5999999940395]","1","2","","","9606","57","0","3","lose","go","0"
"pit-trial","176","1133680","0.0-62.0","battery-v0.2","","""event"",""trial"",""time""
""fullscreenenter"",""1"",""3012""
","
","
","""event"",""trial"",""time""
""fullscreenenter"",""1"",""3012""
","
","","","1199","","","11","9606","1855","c","elianto","#3366ff99"," "," ","1","+10","[2050.9000000059605]","1","2","","","9606","58","4","1","win","go","0"
"pit-trial","177","1137752","0.0-63.0","battery-v0.2","","""event"",""trial"",""time""
""fullscreenenter"",""1"",""3012""
","
","
","""event"",""trial"",""time""
""fullscreenenter"",""1"",""3012""
","
","","","1208.800000011921","","","11","9606","1855","t","elianto","#f73b6a7A"," "," ","1","0","[2061.5999999940395]","1","2","","","9606","59","2","3","lose","go","0"
"pit-trial","178","1142614","0.0-64.0","battery-v0.2","","""event"",""trial"",""time""
""fullscreenenter"",""1"",""3012""
","
","
","""event"",""trial"",""time""
""fullscreenenter"",""1"",""3012""
","
","","","-1","","","11","9606","1855","b","elianto","#f73b6a7A","-1","-1","1","0","[]","0","2","","","9606","60","3","4","lose","no-go","0"
"pit-trial","179","1147478","0.0-65.0","battery-v0.2","","""event"",""trial"",""time""
""fullscreenenter"",""1"",""3012""
","
","
","""event"",""trial"",""time""
""fullscreenenter"",""1"",""3012""
","
","","","-1","","","11","9606","1855","b","elianto","#f73b6a7A","-1","-1","1","0","[]","0","2","","","9606","61","3","4","lose","no-go","0"
"pit-trial","180","1151217","0.0-66.0","battery-v0.2","","""event"",""trial"",""time""
""fullscreenenter"",""1"",""3012""
","
","
","""event"",""trial"",""time""
""fullscreenenter"",""1"",""3012""
","
","","","871.2999999821186","","","11","9606","1855","f","elianto","#3366ff99","-1"," ","0","0","[1726.2999999821186]","1","2","","","9606","62","1","2","win","no-go","0"
"pit-trial","181","1154870","0.0-67.0","battery-v0.2","","""event"",""trial"",""time""
""fullscreenenter"",""1"",""3012""
","
","
","""event"",""trial"",""time""
""fullscreenenter"",""1"",""3012""
","
","","","797.1999999880791","","","11","9606","1855","c","elianto","#3366ff99"," "," ","1","0","[1647.800000011921]","1","2","","","9606","63","4","1","win","go","1"
"pit-trial","182","1158832","0.0-68.0","battery-v0.2","","""event"",""trial"",""time""
""fullscreenenter"",""1"",""3012""
","
","
","""event"",""trial"",""time""
""fullscreenenter"",""1"",""3012""
","
","","","1095.2999999821186","","","11","9606","1855","t","elianto","#f73b6a7A"," "," ","1","-10","[1950.2999999821186]","1","2","","","9606","64","2","3","lose","go","1"
"pit-trial","183","1162704","0.0-69.0","battery-v0.2","","""event"",""trial"",""time""
""fullscreenenter"",""1"",""3012""
","
","
","""event"",""trial"",""time""
""fullscreenenter"",""1"",""3012""
","
","","","1010.4000000059605","","","11","9606","1855","c","elianto","#3366ff99"," "," ","1","+10","[1863]","1","2","","","9606","65","4","1","win","go","0"
"pit-trial","184","1167567","0.0-70.0","battery-v0.2","","""event"",""trial"",""time""
""fullscreenenter"",""1"",""3012""
","
","
","""event"",""trial"",""time""
""fullscreenenter"",""1"",""3012""
","
","","","-1","","","11","9606","1855","b","elianto","#f73b6a7A","-1","-1","1","0","[]","0","2","","","9606","66","3","4","lose","no-go","0"
"pit-trial","185","1171382","0.0-71.0","battery-v0.2","","""event"",""trial"",""time""
""fullscreenenter"",""1"",""3012""
","
","
","""event"",""trial"",""time""
""fullscreenenter"",""1"",""3012""
","
","","","958.7000000178814","","","11","9606","1855","z","elianto","#3366ff99","-1"," ","0","0","[1811.4000000059605]","1","2","","","9606","67","5","2","win","no-go","0"
"pit-trial","186","1175025","0.0-72.0","battery-v0.2","","""event"",""trial"",""time""
""fullscreenenter"",""1"",""3012""
","
","
","""event"",""trial"",""time""
""fullscreenenter"",""1"",""3012""
","
","","","783.2999999821186","","","11","9606","1855","f","elianto","#3366ff99","-1"," ","0","0","[1634.4000000059605,1793]","2","2","","","9606","68","1","2","win","no-go","0"
"pit-trial","187","1179071","0.0-73.0","battery-v0.2","","""event"",""trial"",""time""
""fullscreenenter"",""1"",""3012""
","
","
","""event"",""trial"",""time""
""fullscreenenter"",""1"",""3012""
","
","","","1188.2999999821186","","","11","9606","1855","t","elianto","#f73b6a7A"," "," ","1","0","[2040.8999999761581]","1","2","","","9606","69","2","3","lose","go","0"
"pit-trial","188","1183937","0.0-74.0","battery-v0.2","","""event"",""trial"",""time""
""fullscreenenter"",""1"",""3012""
","
","
","""event"",""trial"",""time""
""fullscreenenter"",""1"",""3012""
","
","","","-1","","","11","9606","1855","f","elianto","#3366ff99","-1","-1","1","+10","[]","0","2","","","9606","70","1","2","win","no-go","0"
"pit-trial","189","1187760","0.0-75.0","battery-v0.2","","""event"",""trial"",""time""
""fullscreenenter"",""1"",""3012""
","
","
","""event"",""trial"",""time""
""fullscreenenter"",""1"",""3012""
","
","","","961.9000000059605","","","11","9606","1855","c","elianto","#3366ff99"," "," ","1","+10","[1812.4000000059605]","1","2","","","9606","71","4","1","win","go","0"
"pit-trial","190","1191702","0.0-76.0","battery-v0.2","","""event"",""trial"",""time""
""fullscreenenter"",""1"",""3012""
","
","
","""event"",""trial"",""time""
""fullscreenenter"",""1"",""3012""
","
","","","1081.800000011921","","","11","9606","1855","z","elianto","#3366ff99","-1"," ","0","0","[1933,2124.5]","2","2","","","9606","72","5","2","win","no-go","0"
"pit-trial","191","1196568","0.0-77.0","battery-v0.2","","""event"",""trial"",""time""
""fullscreenenter"",""1"",""3012""
","
","
","""event"",""trial"",""time""
""fullscreenenter"",""1"",""3012""
","
","","","-1","","","11","9606","1855","f","elianto","#3366ff99","-1","-1","1","+10","[]","0","2","","","9606","73","1","2","win","no-go","0"
"pit-trial","192","1201430","0.0-78.0","battery-v0.2","","""event"",""trial"",""time""
""fullscreenenter"",""1"",""3012""
","
","
","""event"",""trial"",""time""
""fullscreenenter"",""1"",""3012""
","
","","","-1","","","11","9606","1855","z","elianto","#3366ff99","-1","-1","1","+10","[]","0","2","","","9606","74","5","2","win","no-go","0"
"pit-trial","193","1205361","0.0-79.0","battery-v0.2","","""event"",""trial"",""time""
""fullscreenenter"",""1"",""3012""
","
","
","""event"",""trial"",""time""
""fullscreenenter"",""1"",""3012""
","
","","","1062.199999988079","","","11","9606","1855","c","elianto","#3366ff99"," "," ","1","+10","[1918.7999999821186]","1","2","","","9606","75","4","1","win","go","0"
"pit-trial","194","1210224","0.0-80.0","battery-v0.2","","""event"",""trial"",""time""
""fullscreenenter"",""1"",""3012""
","
","
","""event"",""trial"",""time""
""fullscreenenter"",""1"",""3012""
","
","","","-1","","","11","9606","1855","b","elianto","#f73b6a7A","-1","-1","1","0","[]","0","2","","","9606","76","3","4","lose","no-go","0"
"pit-trial","195","1214032","0.0-81.0","battery-v0.2","","""event"",""trial"",""time""
""fullscreenenter"",""1"",""3012""
","
","
","""event"",""trial"",""time""
""fullscreenenter"",""1"",""3012""
","
","","","939.1000000238419","","","11","9606","1855","c","elianto","#3366ff99"," "," ","1","+10","[1795.1000000238419]","1","2","","","9606","77","4","1","win","go","0"
"pit-trial","196","1217782","0.0-82.0","battery-v0.2","","""event"",""trial"",""time""
""fullscreenenter"",""1"",""3012""
","
","
","""event"",""trial"",""time""
""fullscreenenter"",""1"",""3012""
","
","","","886.9000000059605","","","11","9606","1855","b","elianto","#f73b6a7A","-1"," ","0","-10","[1738.800000011921,1906.6000000238419]","2","2","","","9606","78","3","4","lose","no-go","0"
"pit-trial","197","1221552","0.0-83.0","battery-v0.2","","""event"",""trial"",""time""
""fullscreenenter"",""1"",""3012""
","
","
","""event"",""trial"",""time""
""fullscreenenter"",""1"",""3012""
","
","","","906.5","","","11","9606","1855","c","elianto","#3366ff99"," "," ","1","+10","[1757.6000000238419]","1","2","","","9606","79","4","1","win","go","0"
"pit-trial","198","1226416","0.0-84.0","battery-v0.2","","""event"",""trial"",""time""
""fullscreenenter"",""1"",""3012""
","
","
","""event"",""trial"",""time""
""fullscreenenter"",""1"",""3012""
","
","","","-1","","","11","9606","1855","z","elianto","#3366ff99","-1","-1","1","+10","[]","0","2","","","9606","80","5","2","win","no-go","0"
"pit-trial","199","1230369","0.0-85.0","battery-v0.2","","""event"",""trial"",""time""
""fullscreenenter"",""1"",""3012""
","
","
","""event"",""trial"",""time""
""fullscreenenter"",""1"",""3012""
","
","","","1088.4000000059605","","","11","9606","1855","y","elianto","#f73b6a7A","-1"," ","0","0","[1939.5]","1","2","","","9606","81","7","4","lose","no-go","1"
"pit-trial","200","1235232","0.0-86.0","battery-v0.2","","""event"",""trial"",""time""
""fullscreenenter"",""1"",""3012""
","
","
","""event"",""trial"",""time""
""fullscreenenter"",""1"",""3012""
","
","","","-1","","","11","9606","1855","z","elianto","#3366ff99","-1","-1","1","+10","[]","0","2","","","9606","82","5","2","win","no-go","0"
"pit-trial","201","1240095","0.0-87.0","battery-v0.2","","""event"",""trial"",""time""
""fullscreenenter"",""1"",""3012""
","
","
","""event"",""trial"",""time""
""fullscreenenter"",""1"",""3012""
","
","","","-1","","","11","9606","1855","b","elianto","#f73b6a7A","-1","-1","1","0","[]","0","2","","","9606","83","3","4","lose","no-go","0"
"pit-trial","202","1244256","0.0-88.0","battery-v0.2","","""event"",""trial"",""time""
""fullscreenenter"",""1"",""3012""
","
","
","""event"",""trial"",""time""
""fullscreenenter"",""1"",""3012""
","
","","","1299.4000000059605","","","11","9606","1855","c","elianto","#3366ff99"," "," ","1","+10","[2151.4000000059605,2284.300000011921]","2","2","","","9606","84","4","1","win","go","0"
"pit-trial","203","1249121","0.0-89.0","battery-v0.2","","""event"",""trial"",""time""
""fullscreenenter"",""1"",""3012""
","
","
","""event"",""trial"",""time""
""fullscreenenter"",""1"",""3012""
","
","","","-1","","","11","9606","1855","h","elianto","#f73b6a7A"," ","-1","0","-10","[]","0","2","","","9606","85","6","3","lose","go","0"
"pit-trial","204","1253984","0.0-90.0","battery-v0.2","","""event"",""trial"",""time""
""fullscreenenter"",""1"",""3012""
","
","
","""event"",""trial"",""time""
""fullscreenenter"",""1"",""3012""
","
","","","-1","","","11","9606","1855","z","elianto","#3366ff99","-1","-1","1","+10","[]","0","2","","","9606","86","5","2","win","no-go","0"
"pit-trial","205","1257888","0.0-91.0","battery-v0.2","","""event"",""trial"",""time""
""fullscreenenter"",""1"",""3012""
","
","
","""event"",""trial"",""time""
""fullscreenenter"",""1"",""3012""
","
","","","1042.5","","","11","9606","1855","y","elianto","#f73b6a7A","-1"," ","0","-10","[1893]","1","2","","","9606","87","7","4","lose","no-go","0"
"pit-trial","206","1261830","0.0-92.0","battery-v0.2","","""event"",""trial"",""time""
""fullscreenenter"",""1"",""3012""
","
","
","""event"",""trial"",""time""
""fullscreenenter"",""1"",""3012""
","
","","","1081","","","11","9606","1855","c","elianto","#3366ff99"," "," ","1","+10","[1932.9000000059605,2135.4000000059605]","2","2","","","9606","88","4","1","win","go","0"
"pit-trial","207","1266697","0.0-93.0","battery-v0.2","","""event"",""trial"",""time""
""fullscreenenter"",""1"",""3012""
","
","
","""event"",""trial"",""time""
""fullscreenenter"",""1"",""3012""
","
","","","-1","","","11","9606","1855","y","elianto","#f73b6a7A","-1","-1","1","0","[]","0","2","","","9606","89","7","4","lose","no-go","0"
"pit-trial","208","1271569","0.0-94.0","battery-v0.2","","""event"",""trial"",""time""
""fullscreenenter"",""1"",""3012""
","
","
","""event"",""trial"",""time""
""fullscreenenter"",""1"",""3012""
","
","","","-1","","","11","9606","1855","z","elianto","#3366ff99","-1","-1","1","+10","[]","0","2","","","9606","90","5","2","win","no-go","0"
"pit-trial","209","1275238","0.0-95.0","battery-v0.2","","""event"",""trial"",""time""
""fullscreenenter"",""1"",""3012""
","
","
","""event"",""trial"",""time""
""fullscreenenter"",""1"",""3012""
","
","","","811.2000000178814","","","11","9606","1855","c","elianto","#3366ff99"," "," ","1","+10","[1661.6000000238419]","1","2","","","9606","91","4","1","win","go","0"
"pit-trial","210","1279686","0.0-96.0","battery-v0.2","","""event"",""trial"",""time""
""fullscreenenter"",""1"",""3012""
","
","
","""event"",""trial"",""time""
""fullscreenenter"",""1"",""3012""
","
","","","1582.800000011921","","","11","9606","1855","h","elianto","#f73b6a7A"," "," ","1","-10","[2438.9000000059605]","1","2","","","9606","92","6","3","lose","go","1"
"pit-trial","211","1284550","0.0-97.0","battery-v0.2","","""event"",""trial"",""time""
""fullscreenenter"",""1"",""3012""
","
","
","""event"",""trial"",""time""
""fullscreenenter"",""1"",""3012""
","
","","","-1","","","11","9606","1855","z","elianto","#3366ff99","-1","-1","1","0","[]","0","2","","","9606","93","5","2","win","no-go","1"
"pit-trial","212","1289414","0.0-98.0","battery-v0.2","","""event"",""trial"",""time""
""fullscreenenter"",""1"",""3012""
","
","
","""event"",""trial"",""time""
""fullscreenenter"",""1"",""3012""
","
","","","-1","","","11","9606","1855","y","elianto","#f73b6a7A","-1","-1","1","0","[]","0","2","","","9606","94","7","4","lose","no-go","0"
"pit-trial","213","1294278","0.0-99.0","battery-v0.2","","""event"",""trial"",""time""
""fullscreenenter"",""1"",""3012""
","
","
","""event"",""trial"",""time""
""fullscreenenter"",""1"",""3012""
","
","","","-1","","","11","9606","1855","h","elianto","#f73b6a7A"," ","-1","0","0","[]","0","2","","","9606","95","6","3","lose","go","1"
"pit-trial","214","1298303","0.0-100.0","battery-v0.2","","""event"",""trial"",""time""
""fullscreenenter"",""1"",""3012""
","
","
","""event"",""trial"",""time""
""fullscreenenter"",""1"",""3012""
","
","","","1161.7000000178814","","","11","9606","1855","r","elianto","#3366ff99"," "," ","1","0","[2015.800000011921,2210.2000000178814]","2","2","","","9606","96","8","1","win","go","1"
"pit-trial","215","1303169","0.0-101.0","battery-v0.2","","""event"",""trial"",""time""
""fullscreenenter"",""1"",""3012""
","
","
","""event"",""trial"",""time""
""fullscreenenter"",""1"",""3012""
","
","","","-1","","","11","9606","1855","y","elianto","#f73b6a7A","-1","-1","1","0","[]","0","2","","","9606","97","7","4","lose","no-go","0"
"pit-trial","216","1308032","0.0-102.0","battery-v0.2","","""event"",""trial"",""time""
""fullscreenenter"",""1"",""3012""
","
","
","""event"",""trial"",""time""
""fullscreenenter"",""1"",""3012""
","
","","","-1","","","11","9606","1855","h","elianto","#f73b6a7A"," ","-1","0","0","[]","0","2","","","9606","98","6","3","lose","go","1"
"pit-trial","217","1312823","0.0-103.0","battery-v0.2","","""event"",""trial"",""time""
""fullscreenenter"",""1"",""3012""
","
","
","""event"",""trial"",""time""
""fullscreenenter"",""1"",""3012""
","
","","","1928.5999999940395","","","11","9606","1855","r","elianto","#3366ff99"," "," ","1","+10","[2780.800000011921]","1","2","","","9606","99","8","1","win","go","0"
"pit-trial","218","1317686","0.0-104.0","battery-v0.2","","""event"",""trial"",""time""
""fullscreenenter"",""1"",""3012""
","
","
","""event"",""trial"",""time""
""fullscreenenter"",""1"",""3012""
","
","","","-1","","","11","9606","1855","z","elianto","#3366ff99","-1","-1","1","0","[]","0","2","","","9606","100","5","2","win","no-go","1"
"pit-trial","219","1321313","0.0-105.0","battery-v0.2","","""event"",""trial"",""time""
""fullscreenenter"",""1"",""3012""
","
","
","""event"",""trial"",""time""
""fullscreenenter"",""1"",""3012""
","
","","","761.6999999880791","","","11","9606","1855","r","elianto","#3366ff99"," "," ","1","+10","[1616.9000000059605]","1","2","","","9606","101","8","1","win","go","0"
"pit-trial","220","1326176","0.0-106.0","battery-v0.2","","""event"",""trial"",""time""
""fullscreenenter"",""1"",""3012""
","
","
","""event"",""trial"",""time""
""fullscreenenter"",""1"",""3012""
","
","","","-1","","","11","9606","1855","y","elianto","#f73b6a7A","-1","-1","1","0","[]","0","2","","","9606","102","7","4","lose","no-go","0"
"pit-trial","221","1330112","0.0-107.0","battery-v0.2","","""event"",""trial"",""time""
""fullscreenenter"",""1"",""3012""
","
","
","""event"",""trial"",""time""
""fullscreenenter"",""1"",""3012""
","
","","","1072","","","11","9606","1855","m","elianto","#3366ff99"," "," ","1","0","[1926.0999999940395]","1","2","","","9606","103","9","1","win","go","1"
"pit-trial","222","1334976","0.0-108.0","battery-v0.2","","""event"",""trial"",""time""
""fullscreenenter"",""1"",""3012""
","
","
","""event"",""trial"",""time""
""fullscreenenter"",""1"",""3012""
","
","","","-1","","","11","9606","1855","z","elianto","#3366ff99","-1","-1","1","+10","[]","0","2","","","9606","104","5","2","win","no-go","0"
"pit-trial","223","1339840","0.0-109.0","battery-v0.2","","""event"",""trial"",""time""
""fullscreenenter"",""1"",""3012""
","
","
","""event"",""trial"",""time""
""fullscreenenter"",""1"",""3012""
","
","","","-1","","","11","9606","1855","h","elianto","#f73b6a7A"," ","-1","0","0","[]","0","2","","","9606","105","6","3","lose","go","1"
"pit-trial","224","1343873","0.0-110.0","battery-v0.2","","""event"",""trial"",""time""
""fullscreenenter"",""1"",""3012""
","
","
","""event"",""trial"",""time""
""fullscreenenter"",""1"",""3012""
","
","","","1172.0999999940395","","","11","9606","1855","m","elianto","#3366ff99"," "," ","1","+10","[2023.5]","1","2","","","9606","106","9","1","win","go","0"
"pit-trial","225","1347547","0.0-111.0","battery-v0.2","","""event"",""trial"",""time""
""fullscreenenter"",""1"",""3012""
","
","
","""event"",""trial"",""time""
""fullscreenenter"",""1"",""3012""
","
","","","812.0999999940395","","","11","9606","1855","c","elianto","#3366ff99"," "," ","1","+10","[1665.9000000059605]","1","2","","","9606","107","4","1","win","go","0"
"pit-trial","226","1352416","0.0-112.0","battery-v0.2","","""event"",""trial"",""time""
""fullscreenenter"",""1"",""3012""
","
","
","""event"",""trial"",""time""
""fullscreenenter"",""1"",""3012""
","
","","","-1","","","11","9606","1855","r","elianto","#3366ff99"," ","-1","0","0","[3471]","1","2","","","9606","108","8","1","win","go","0"
"pit-trial","227","1357280","0.0-113.0","battery-v0.2","","""event"",""trial"",""time""
""fullscreenenter"",""1"",""3012""
","
","
","""event"",""trial"",""time""
""fullscreenenter"",""1"",""3012""
","
","","","-1","","","11","9606","1855","h","elianto","#f73b6a7A"," ","-1","0","-10","[]","0","2","","","9606","109","6","3","lose","go","0"
"pit-trial","228","1360992","0.0-114.0","battery-v0.2","","""event"",""trial"",""time""
""fullscreenenter"",""1"",""3012""
","
","
","""event"",""trial"",""time""
""fullscreenenter"",""1"",""3012""
","
","","","853.3000000119209","","","11","9606","1855","m","elianto","#3366ff99"," "," ","1","0","[1706.6000000238419]","1","2","","","9606","110","9","1","win","go","1"
"pit-trial","229","1365856","0.0-115.0","battery-v0.2","","""event"",""trial"",""time""
""fullscreenenter"",""1"",""3012""
","
","
","""event"",""trial"",""time""
""fullscreenenter"",""1"",""3012""
","
","","","-1","","","11","9606","1855","z","elianto","#3366ff99","-1","-1","1","+10","[]","0","2","","","9606","111","5","2","win","no-go","0"
"pit-trial","230","1370293","0.0-116.0","battery-v0.2","","""event"",""trial"",""time""
""fullscreenenter"",""1"",""3012""
","
","
","""event"",""trial"",""time""
""fullscreenenter"",""1"",""3012""
","
","","","1569.300000011921","","","11","9606","1855","r","elianto","#3366ff99"," "," ","1","+10","[2423.399999976158]","1","2","","","9606","112","8","1","win","go","0"
"pit-trial","231","1374605","0.0-117.0","battery-v0.2","","""event"",""trial"",""time""
""fullscreenenter"",""1"",""3012""
","
","
","""event"",""trial"",""time""
""fullscreenenter"",""1"",""3012""
","
","","","1445.2000000178814","","","11","9606","1855","m","elianto","#3366ff99"," "," ","1","+10","[2301.0999999940395]","1","2","","","9606","113","9","1","win","go","0"
"pit-trial","232","1379472","0.0-118.0","battery-v0.2","","""event"",""trial"",""time""
""fullscreenenter"",""1"",""3012""
","
","
","""event"",""trial"",""time""
""fullscreenenter"",""1"",""3012""
","
","","","-1","","","11","9606","1855","z","elianto","#3366ff99","-1","-1","1","+10","[]","0","2","","","9606","114","5","2","win","no-go","0"
"pit-trial","233","1384338","0.0-119.0","battery-v0.2","","""event"",""trial"",""time""
""fullscreenenter"",""1"",""3012""
","
","
","""event"",""trial"",""time""
""fullscreenenter"",""1"",""3012""
","
","","","-1","","","11","9606","1855","h","elianto","#f73b6a7A"," ","-1","0","-10","[]","0","2","","","9606","115","6","3","lose","go","0"
"pit-trial","234","1388595","0.0-120.0","battery-v0.2","","""event"",""trial"",""time""
""fullscreenenter"",""1"",""3012""
","
","
","""event"",""trial"",""time""
""fullscreenenter"",""1"",""3012""
","
","","","1390.0999999940395","","","11","9606","1855","r","elianto","#3366ff99"," "," ","1","+10","[2246]","1","2","","","9606","116","8","1","win","go","0"
"pit-trial","235","1393461","0.0-121.0","battery-v0.2","","""event"",""trial"",""time""
""fullscreenenter"",""1"",""3012""
","
","
","""event"",""trial"",""time""
""fullscreenenter"",""1"",""3012""
","
","","","-1","","","11","9606","1855","z","elianto","#3366ff99","-1","-1","1","+10","[]","0","2","","","9606","117","5","2","win","no-go","0"
"pit-trial","236","1398325","0.0-122.0","battery-v0.2","","""event"",""trial"",""time""
""fullscreenenter"",""1"",""3012""
","
","
","""event"",""trial"",""time""
""fullscreenenter"",""1"",""3012""
","
","","","-1","","","11","9606","1855","m","elianto","#3366ff99"," ","-1","0","0","[]","0","2","","","9606","118","9","1","win","go","0"
"pit-trial","237","1402559","0.0-123.0","battery-v0.2","","""event"",""trial"",""time""
""fullscreenenter"",""1"",""3012""
","
","
","""event"",""trial"",""time""
""fullscreenenter"",""1"",""3012""
","
","","","1368.7000000178814","","","11","9606","1855","r","elianto","#3366ff99"," "," ","1","+10","[2224.7000000178814]","1","2","","","9606","119","8","1","win","go","0"
"pit-trial","238","1407425","0.0-124.0","battery-v0.2","","""event"",""trial"",""time""
""fullscreenenter"",""1"",""3012""
","
","
","""event"",""trial"",""time""
""fullscreenenter"",""1"",""3012""
","
","","","-1","","","11","9606","1855","h","elianto","#f73b6a7A"," ","-1","0","-10","[]","0","2","","","9606","120","6","3","lose","go","0"
"pit-trial","239","1411201","0.0-125.0","battery-v0.2","","""event"",""trial"",""time""
""fullscreenenter"",""1"",""3012""
","
","
","""event"",""trial"",""time""
""fullscreenenter"",""1"",""3012""
","
","","","918.1000000238419","","","11","9606","1855","m","elianto","#3366ff99"," "," ","1","+10","[1769]","1","2","","","9606","121","9","1","win","go","0"
"pit-trial","240","1416065","0.0-126.0","battery-v0.2","","""event"",""trial"",""time""
""fullscreenenter"",""1"",""3012""
","
","
","""event"",""trial"",""time""
""fullscreenenter"",""1"",""3012""
","
","","","-1","","","11","9606","1855","y","elianto","#f73b6a7A","-1","-1","1","0","[]","0","2","","","9606","122","7","4","lose","no-go","0"
"pit-trial","241","1420759","0.0-127.0","battery-v0.2","","""event"",""trial"",""time""
""fullscreenenter"",""1"",""3012""
","
","
","""event"",""trial"",""time""
""fullscreenenter"",""1"",""3012""
","
","","","1835.9000000059605","","","11","9606","1855","h","elianto","#f73b6a7A"," "," ","1","0","[2686.2000000178814]","1","2","","","9606","123","6","3","lose","go","0"
"pit-trial","242","1424817","0.0-128.0","battery-v0.2","","""event"",""trial"",""time""
""fullscreenenter"",""1"",""3012""
","
","
","""event"",""trial"",""time""
""fullscreenenter"",""1"",""3012""
","
","","","1193.0999999940395","","","11","9606","1855","r","elianto","#3366ff99"," "," ","1","+10","[2048]","1","2","","","9606","124","8","1","win","go","0"
"pit-trial","243","1428347","0.0-129.0","battery-v0.2","","""event"",""trial"",""time""
""fullscreenenter"",""1"",""3012""
","
","
","""event"",""trial"",""time""
""fullscreenenter"",""1"",""3012""
","
","","","664.8000000119209","","","11","9606","1855","m","elianto","#3366ff99"," "," ","1","+10","[1515.300000011921,1707.300000011921]","2","2","","","9606","125","9","1","win","go","0"
"pit-trial","244","1433218","0.0-130.0","battery-v0.2","","""event"",""trial"",""time""
""fullscreenenter"",""1"",""3012""
","
","
","""event"",""trial"",""time""
""fullscreenenter"",""1"",""3012""
","
","","","-1","","","11","9606","1855","y","elianto","#f73b6a7A","-1","-1","1","-10","[3752.5,3936.899999976158]","2","2","","","9606","126","7","4","lose","no-go","1"
"pit-trial","245","1437191","0.0-131.0","battery-v0.2","","""event"",""trial"",""time""
""fullscreenenter"",""1"",""3012""
","
","
","""event"",""trial"",""time""
""fullscreenenter"",""1"",""3012""
","
","","","1115.9000000059605","","","11","9606","1855","r","elianto","#3366ff99"," "," ","1","+10","[1966.5]","1","2","","","9606","127","8","1","win","go","0"
"pit-trial","246","1442034","0.0-132.0","battery-v0.2","","""event"",""trial"",""time""
""fullscreenenter"",""1"",""3012""
","
","
","""event"",""trial"",""time""
""fullscreenenter"",""1"",""3012""
","
","","","1975.7000000178814","","","11","9606","1855","h","elianto","#f73b6a7A"," "," ","1","0","[2832.5]","1","2","","","9606","128","6","3","lose","go","0"
"pit-trial","247","1445735","0.0-133.0","battery-v0.2","","""event"",""trial"",""time""
""fullscreenenter"",""1"",""3012""
","
","
","""event"",""trial"",""time""
""fullscreenenter"",""1"",""3012""
","
","","","847","","","11","9606","1855","h","elianto","#f73b6a7A"," "," ","1","0","[1697.699999988079]","1","2","","","9606","129","6","3","lose","go","0"
"pit-trial","248","1450599","0.0-134.0","battery-v0.2","","""event"",""trial"",""time""
""fullscreenenter"",""1"",""3012""
","
","
","""event"",""trial"",""time""
""fullscreenenter"",""1"",""3012""
","
","","","-1","","","11","9606","1855","y","elianto","#f73b6a7A","-1","-1","1","0","[]","0","2","","","9606","130","7","4","lose","no-go","0"
"pit-trial","249","1454231","0.0-135.0","battery-v0.2","","""event"",""trial"",""time""
""fullscreenenter"",""1"",""3012""
","
","
","""event"",""trial"",""time""
""fullscreenenter"",""1"",""3012""
","
","","","771.4000000059605","","","11","9606","1855","r","elianto","#3366ff99"," "," ","1","+10","[1623]","1","2","","","9606","131","8","1","win","go","0"
"pit-trial","250","1458055","0.0-136.0","battery-v0.2","","""event"",""trial"",""time""
""fullscreenenter"",""1"",""3012""
","
","
","""event"",""trial"",""time""
""fullscreenenter"",""1"",""3012""
","
","","","968","","","11","9606","1855","m","elianto","#3366ff99"," "," ","1","+10","[1818.9000000059605]","1","2","","","9606","132","9","1","win","go","0"
"pit-trial","251","1461687","0.0-137.0","battery-v0.2","","""event"",""trial"",""time""
""fullscreenenter"",""1"",""3012""
","
","
","""event"",""trial"",""time""
""fullscreenenter"",""1"",""3012""
","
","","","769.9000000059605","","","11","9606","1855","m","elianto","#3366ff99"," "," ","1","+10","[1625,1826.2000000178814]","2","2","","","9606","133","9","1","win","go","0"
"pit-trial","252","1465554","0.0-138.0","battery-v0.2","","""event"",""trial"",""time""
""fullscreenenter"",""1"",""3012""
","
","
","""event"",""trial"",""time""
""fullscreenenter"",""1"",""3012""
","
","","","1001.5","","","11","9606","1855","h","elianto","#f73b6a7A"," "," ","1","0","[1857.800000011921]","1","2","","","9606","134","6","3","lose","go","0"
"pit-trial","253","1470034","0.0-139.0","battery-v0.2","","""event"",""trial"",""time""
""fullscreenenter"",""1"",""3012""
","
","
","""event"",""trial"",""time""
""fullscreenenter"",""1"",""3012""
","
","","","1617.5","","","11","9606","1855","r","elianto","#3366ff99"," "," ","1","+10","[2469.199999988079]","1","2","","","9606","135","8","1","win","go","0"
"pit-trial","254","1474898","0.0-140.0","battery-v0.2","","""event"",""trial"",""time""
""fullscreenenter"",""1"",""3012""
","
","
","""event"",""trial"",""time""
""fullscreenenter"",""1"",""3012""
","
","","","-1","","","11","9606","1855","y","elianto","#f73b6a7A","-1","-1","1","0","[2887.7999999821186]","1","2","","","9606","136","7","4","lose","no-go","0"
"pit-trial","255","1479762","0.0-141.0","battery-v0.2","","""event"",""trial"",""time""
""fullscreenenter"",""1"",""3012""
","
","
","""event"",""trial"",""time""
""fullscreenenter"",""1"",""3012""
","
","","","-1","","","11","9606","1855","m","elianto","#3366ff99"," ","-1","0","0","[3053.5]","1","2","","","9606","137","9","1","win","go","0"
"pit-trial","256","1484375","0.0-142.0","battery-v0.2","","""event"",""trial"",""time""
""fullscreenenter"",""1"",""3012""
","
","
","""event"",""trial"",""time""
""fullscreenenter"",""1"",""3012""
","
","","","1758","","","11","9606","1855","h","elianto","#f73b6a7A"," "," ","1","0","[2609.199999988079]","1","2","","","9606","138","6","3","lose","go","0"
"pit-trial","257","1488632","0.0-143.0","battery-v0.2","","""event"",""trial"",""time""
""fullscreenenter"",""1"",""3012""
","
","
","""event"",""trial"",""time""
""fullscreenenter"",""1"",""3012""
","
","","","1395.800000011921","","","11","9606","1855","y","elianto","#f73b6a7A","-1"," ","0","-10","[2250]","1","2","","","9606","139","7","4","lose","no-go","0"
"pit-trial","258","1492235","0.0-144.0","battery-v0.2","","""event"",""trial"",""time""
""fullscreenenter"",""1"",""3012""
","
","
","""event"",""trial"",""time""
""fullscreenenter"",""1"",""3012""
","
","","","737.0999999940395","","","11","9606","1855","r","elianto","#3366ff99"," "," ","1","+10","[1589]","1","2","","","9606","140","8","1","win","go","0"
"pit-instructions","259","1540740","0.0-145.0","battery-v0.2","","""event"",""trial"",""time""
""fullscreenenter"",""1"",""3012""
","
","
","""event"",""trial"",""time""
""fullscreenenter"",""1"",""3012""
","
","","[{""page_index"":0,""viewing_time"":38926.20000001788},{""page_index"":1,""viewing_time"":9576.299999982119}]","48503","","","","","","","","","","","","","","","","","","","","","","","",""
"pit-trial","260","1544008","0.0-146.0","battery-v0.2","","""event"",""trial"",""time""
""fullscreenenter"",""1"",""3012""
","
","
","""event"",""trial"",""time""
""fullscreenenter"",""1"",""3012""
","
","","","401.90000000596046","","","11","9606","1855","g","elianto","#f73b6a7A"," "," ","1","0","[1255.7000000178814]","1","3","","","9606","141","3","3","lose","go","0"
"pit-trial","261","1548165","0.0-147.0","battery-v0.2","","""event"",""trial"",""time""
""fullscreenenter"",""1"",""3012""
","
","
","""event"",""trial"",""time""
""fullscreenenter"",""1"",""3012""
","
","","","1290.6000000238419","","","11","9606","1855","l","elianto","#3366ff99"," "," ","1","+10","[2147.0999999940395]","1","3","","","9606","142","1","1","win","go","0"
"pit-trial","262","1551808","0.0-148.0","battery-v0.2","","""event"",""trial"",""time""
""fullscreenenter"",""1"",""3012""
","
","
","""event"",""trial"",""time""
""fullscreenenter"",""1"",""3012""
","
","","","782.5","","","11","9606","1855","a","elianto","#f73b6a7A","-1"," ","0","0","[1634.0999999940395]","1","3","","","9606","143","2","4","lose","no-go","1"
"pit-trial","263","1555299","0.0-149.0","battery-v0.2","","""event"",""trial"",""time""
""fullscreenenter"",""1"",""3012""
","
","
","""event"",""trial"",""time""
""fullscreenenter"",""1"",""3012""
","
","","","622.1999999880791","","","11","9606","1855","u","elianto","#f73b6a7A","-1"," ","0","-10","[1477.199999988079]","1","3","","","9606","144","0","4","lose","no-go","0"
"pit-trial","264","1560165","0.0-150.0","battery-v0.2","","""event"",""trial"",""time""
""fullscreenenter"",""1"",""3012""
","
","
","""event"",""trial"",""time""
""fullscreenenter"",""1"",""3012""
","
","","","-1","","","11","9606","1855","g","elianto","#f73b6a7A"," ","-1","0","0","[]","0","3","","","9606","145","3","3","lose","go","1"
"pit-trial","265","1564409","0.0-151.0","battery-v0.2","","""event"",""trial"",""time""
""fullscreenenter"",""1"",""3012""
","
","
","""event"",""trial"",""time""
""fullscreenenter"",""1"",""3012""
","
","","","1383","","","11","9606","1855","a","elianto","#f73b6a7A","-1"," ","0","-10","[2234.5]","1","3","","","9606","146","2","4","lose","no-go","0"
"pit-trial","266","1568309","0.0-152.0","battery-v0.2","","""event"",""trial"",""time""
""fullscreenenter"",""1"",""3012""
","
","
","""event"",""trial"",""time""
""fullscreenenter"",""1"",""3012""
","
