"trial_type","trial_index","time_elapsed","internal_node_id","task_version","subject_id","interactions","blur_events","focus_events","fullscreenenter_events","fullscreenexit_events","success","view_history","rt","responses","num_errors","age","subject","participantId","rune","rune_set","hex","correct","choice","accuracy","outcome","keys","total_keys","block","practice","value","sub","trial","stimulus","robot","valence","action","sham"
"pavlovia","0","23","0.0-0.0","battery-v0.2","","""event"",""trial"",""time""
""fullscreenenter"",""1"",""4878""
","
","
","""event"",""trial"",""time""
""fullscreenenter"",""1"",""4878""
","
","","","","","","","","","","","","","","","","","","","","","","","","","","",""
"fullscreen","1","5859","0.0-1.0","battery-v0.2","","""event"",""trial"",""time""
""fullscreenenter"",""1"",""4878""
","
","
","""event"",""trial"",""time""
""fullscreenenter"",""1"",""4878""
","
","true","","","","","","","","","","","","","","","","","","","","","","","","","",""
"pit-instructions","2","12508","0.0-2.0-0.0","battery-v0.2","","""event"",""trial"",""time""
""fullscreenenter"",""1"",""4878""
","
","
","""event"",""trial"",""time""
""fullscreenenter"",""1"",""4878""
","
","","[{""page_index"":0,""viewing_time"":6634.800000071526}]","6636.100000023842","","","","","","","","","","","","","","","","","","","","","","","",""
"pit-comprehension","3","16847","0.0-2.0-1.0-0.0","battery-v0.2","","""event"",""trial"",""time""
""fullscreenenter"",""1"",""4878""
","
","
","""event"",""trial"",""time""
""fullscreenenter"",""1"",""4878""
","
","","","4325.899999976158","[""shark""]","0","24","5891","510","","","","","","","","","","","","","","","","","","",""
"pit-instructions","4","19318","0.0-2.0-1.0-1.0","battery-v0.2","","""event"",""trial"",""time""
""fullscreenenter"",""1"",""4878""
","
","
","""event"",""trial"",""time""
""fullscreenenter"",""1"",""4878""
","
","","[{""page_index"":0,""viewing_time"":2415.7999999523163}]","2417","","","","","","","","","","","","","","","","","","","","","","","",""
"pit-comprehension","5","21567","0.0-2.0-2.0-0.0","battery-v0.2","","""event"",""trial"",""time""
""fullscreenenter"",""1"",""4878""
","
","
","""event"",""trial"",""time""
""fullscreenenter"",""1"",""4878""
","
","","","2238.2999999523163","[""tiger""]","0","24","5891","510","","","","","","","","","","","","","","","","","","",""
"pit-instructions","6","22564","0.0-2.0-2.0-1.0","battery-v0.2","","""event"",""trial"",""time""
""fullscreenenter"",""1"",""4878""
","
","
","""event"",""trial"",""time""
""fullscreenenter"",""1"",""4878""
","
","","[{""page_index"":0,""viewing_time"":991.3999999761581}]","992.3999999761581","","","","","","","","","","","","","","","","","","","","","","","",""
"pit-instructions","7","123933","0.0-2.0-3.0","battery-v0.2","","""event"",""trial"",""time""
""fullscreenenter"",""1"",""4878""
","
","
","""event"",""trial"",""time""
""fullscreenenter"",""1"",""4878""
","
","","[{""page_index"":0,""viewing_time"":7902.699999928474},{""page_index"":1,""viewing_time"":6677.899999976158},{""page_index"":2,""viewing_time"":6738.700000047684},{""page_index"":3,""viewing_time"":6249.200000047684},{""page_index"":4,""viewing_time"":6069.199999928474},{""page_index"":5,""viewing_time"":6021.399999976158},{""page_index"":6,""viewing_time"":8755.800000071526},{""page_index"":7,""viewing_time"":6917.100000023842},{""page_index"":8,""viewing_time"":6491.199999928474},{""page_index"":9,""viewing_time"":13108},{""page_index"":10,""viewing_time"":7030.700000047684},{""page_index"":11,""viewing_time"":7152.799999952316},{""page_index"":12,""viewing_time"":6943.399999976158},{""page_index"":13,""viewing_time"":5298.700000047684}]","101358.89999997616","","","","","","","","","","","","","","","","","","","","","","","",""
"pit-trial","8","127327","0.0-2.0-4.0-0.0","battery-v0.2","","""event"",""trial"",""time""
""fullscreenenter"",""1"",""4878""
","
","
","""event"",""trial"",""time""
""fullscreenenter"",""1"",""4878""
","
","","","518.8000000715256","","","24","5891","510","&#9784;","elianto","#FFFFF080"," "," ","1","&#10004","[1370.1000000238419]","1","0","0","","","","","","","",""
"pit-trial","9","130993","0.0-2.0-4.1-0.1","battery-v0.2","","""event"",""trial"",""time""
""fullscreenenter"",""1"",""4878""
","
","
","""event"",""trial"",""time""
""fullscreenenter"",""1"",""4878""
","
","","","793.5","","","24","5891","510","&#9784;","elianto","#FFFFF080"," "," ","1","&#10004","[1647]","1","0","0","","","","","","","",""
"pit-trial","10","134531","0.0-2.0-4.2-0.2","battery-v0.2","","""event"",""trial"",""time""
""fullscreenenter"",""1"",""4878""
","
","
","""event"",""trial"",""time""
""fullscreenenter"",""1"",""4878""
","
","","","670.6999999284744","","","24","5891","510","&#9784;","elianto","#FFFFF080"," "," ","1","&#10004","[1522.8999999761581]","1","0","0","","","","","","","",""
"pit-trial","11","138042","0.0-2.0-4.3-0.3","battery-v0.2","","""event"",""trial"",""time""
""fullscreenenter"",""1"",""4878""
","
","
","""event"",""trial"",""time""
""fullscreenenter"",""1"",""4878""
","
","","","640.4000000953674","","","24","5891","510","&#9784;","elianto","#FFFFF080"," "," ","1","&#10004","[1495.3000000715256]","1","0","0","","","","","","","",""
"pit-trial","12","141485","0.0-2.0-4.4-0.4","battery-v0.2","","""event"",""trial"",""time""
""fullscreenenter"",""1"",""4878""
","
","
","""event"",""trial"",""time""
""fullscreenenter"",""1"",""4878""
","
","","","580.6000000238419","","","24","5891","510","&#9784;","elianto","#FFFFF080"," "," ","1","&#10004","[1434]","1","0","0","","","","","","","",""
"pit-instructions","13","162533","0.0-2.0-5.0","battery-v0.2","","""event"",""trial"",""time""
""fullscreenenter"",""1"",""4878""
","
","
","""event"",""trial"",""time""
""fullscreenenter"",""1"",""4878""
","
","","[{""page_index"":0,""viewing_time"":4846.899999976158},{""page_index"":1,""viewing_time"":5696.100000023842},{""page_index"":2,""viewing_time"":5202.099999904633},{""page_index"":3,""viewing_time"":5292.5}]","21039.699999928474","","","","","","","","","","","","","","","","","","","","","","","",""
"pit-trial","14","167410","0.0-2.0-6.0-0.0","battery-v0.2","","""event"",""trial"",""time""
""fullscreenenter"",""1"",""4878""
","
","
","""event"",""trial"",""time""
""fullscreenenter"",""1"",""4878""
","
","","","-1","","","24","5891","510","&#9854;","elianto","#FFFFF080","-1","-1","1","&#10004","[]","0","0","1","","","","","","","",""
"pit-trial","15","172294","0.0-2.0-6.1-0.1","battery-v0.2","","""event"",""trial"",""time""
""fullscreenenter"",""1"",""4878""
","
","
","""event"",""trial"",""time""
""fullscreenenter"",""1"",""4878""
","
","","","-1","","","24","5891","510","&#9854;","elianto","#FFFFF080","-1","-1","1","&#10004","[]","0","0","1","","","","","","","",""
"pit-trial","16","177175","0.0-2.0-6.2-0.2","battery-v0.2","","""event"",""trial"",""time""
""fullscreenenter"",""1"",""4878""
","
","
","""event"",""trial"",""time""
""fullscreenenter"",""1"",""4878""
","
","","","-1","","","24","5891","510","&#9854;","elianto","#FFFFF080","-1","-1","1","&#10004","[]","0","0","1","","","","","","","",""
"pit-trial","17","182055","0.0-2.0-6.3-0.3","battery-v0.2","","""event"",""trial"",""time""
""fullscreenenter"",""1"",""4878""
","
","
","""event"",""trial"",""time""
""fullscreenenter"",""1"",""4878""
","
","","","-1","","","24","5891","510","&#9854;","elianto","#FFFFF080","-1","-1","1","&#10004","[]","0","0","1","","","","","","","",""
"pit-trial","18","186943","0.0-2.0-6.4-0.4","battery-v0.2","","""event"",""trial"",""time""
""fullscreenenter"",""1"",""4878""
","
","
","""event"",""trial"",""time""
""fullscreenenter"",""1"",""4878""
","
","","","-1","","","24","5891","510","&#9854;","elianto","#FFFFF080","-1","-1","1","&#10004","[]","0","0","1","","","","","","","",""
"pit-instructions","19","320978","0.0-2.0-7.0","battery-v0.2","","""event"",""trial"",""time""
""fullscreenenter"",""1"",""4878""
","
","
","""event"",""trial"",""time""
""fullscreenenter"",""1"",""4878""
","
","","[{""page_index"":0,""viewing_time"":19470.199999928474},{""page_index"":1,""viewing_time"":7197.800000071526},{""page_index"":2,""viewing_time"":6361.699999928474},{""page_index"":3,""viewing_time"":6588.899999976158},{""page_index"":4,""viewing_time"":5835.400000095367},{""page_index"":5,""viewing_time"":5453.199999928474},{""page_index"":6,""viewing_time"":4945.5},{""page_index"":7,""viewing_time"":8211.5},{""page_index"":8,""viewing_time"":7444.700000047684},{""page_index"":9,""viewing_time"":6229.199999928474},{""page_index"":10,""viewing_time"":7114.100000023842},{""page_index"":11,""viewing_time"":6270.600000023842},{""page_index"":12,""viewing_time"":7230.600000023842},{""page_index"":13,""viewing_time"":7286},{""page_index"":14,""viewing_time"":7798.100000023842},{""page_index"":15,""viewing_time"":6586.799999952316},{""page_index"":16,""viewing_time"":6599},{""page_index"":17,""viewing_time"":7402.899999976158}]","134027","","","","","","","","","","","","","","","","","","","","","","","",""
"pit-trial","20","324492","0.0-2.0-8.0-0.0","battery-v0.2","","""event"",""trial"",""time""
""fullscreenenter"",""1"",""4878""
","
","
","""event"",""trial"",""time""
""fullscreenenter"",""1"",""4878""
","
","","","643.1000000238419","","","24","5891","510","&#9776;","elianto","#3366ff99"," "," ","1","+10","[1501.1999999284744]","1","0","1","","","","","","","",""
"pit-trial","21","327949","0.0-2.0-8.0-1.0","battery-v0.2","","""event"",""trial"",""time""
""fullscreenenter"",""1"",""4878""
","
","
","""event"",""trial"",""time""
""fullscreenenter"",""1"",""4878""
","
","","","597.5","","","24","5891","510","&#9776;","elianto","#3366ff99"," "," ","1","+10","[1449.3999999761581]","1","0","1","","","","","","","",""
"pit-trial","22","331229","0.0-2.0-8.0-2.0","battery-v0.2","","""event"",""trial"",""time""
""fullscreenenter"",""1"",""4878""
","
","
","""event"",""trial"",""time""
""fullscreenenter"",""1"",""4878""
","
","","","406.89999997615814","","","24","5891","510","&#9776;","elianto","#3366ff99"," "," ","1","+10","[1261.6000000238419]","1","0","1","","","","","","","",""
"pit-trial","23","334539","0.0-2.0-8.0-3.0","battery-v0.2","","""event"",""trial"",""time""
""fullscreenenter"",""1"",""4878""
","
","
","""event"",""trial"",""time""
""fullscreenenter"",""1"",""4878""
","
","","","448.2999999523163","","","24","5891","510","&#9776;","elianto","#3366ff99"," "," ","1","0","[1302.1000000238419]","1","0","1","","","","","","","",""
"pit-trial","24","337912","0.0-2.0-8.0-4.0","battery-v0.2","","""event"",""trial"",""time""
""fullscreenenter"",""1"",""4878""
","
","
","""event"",""trial"",""time""
""fullscreenenter"",""1"",""4878""
","
","","","508.5","","","24","5891","510","&#9776;","elianto","#3366ff99"," "," ","1","+10","[1362.8999999761581]","1","0","1","","","","","","","",""
"pit-trial","25","341281","0.0-2.0-8.1-0.1","battery-v0.2","","""event"",""trial"",""time""
""fullscreenenter"",""1"",""4878""
","
","
","""event"",""trial"",""time""
""fullscreenenter"",""1"",""4878""
","
","","","497.60000002384186","","","24","5891","510","&#9776;","elianto","#3366ff99"," "," ","1","+10","[1349.7000000476837]","1","0","1","","","","","","","",""
"pit-trial","26","344661","0.0-2.0-8.1-1.1","battery-v0.2","","""event"",""trial"",""time""
""fullscreenenter"",""1"",""4878""
","
","
","""event"",""trial"",""time""
""fullscreenenter"",""1"",""4878""
","
","","","517.1000000238419","","","24","5891","510","&#9776;","elianto","#3366ff99"," "," ","1","+10","[1371.5]","1","0","1","","","","","","","",""
"pit-trial","27","348753","0.0-2.0-8.1-2.1","battery-v0.2","","""event"",""trial"",""time""
""fullscreenenter"",""1"",""4878""
","
","
","""event"",""trial"",""time""
""fullscreenenter"",""1"",""4878""
","
","","","1215.5","","","24","5891","510","&#9776;","elianto","#3366ff99"," "," ","1","+10","[2069.8000000715256]","1","0","1","","","","","","","",""
"pit-trial","28","352100","0.0-2.0-8.1-3.1","battery-v0.2","","""event"",""trial"",""time""
""fullscreenenter"",""1"",""4878""
","
","
","""event"",""trial"",""time""
""fullscreenenter"",""1"",""4878""
","
","","","485.39999997615814","","","24","5891","510","&#9776;","elianto","#3366ff99"," "," ","1","0","[1339.6000000238419]","1","0","1","","","","","","","",""
"pit-trial","29","355413","0.0-2.0-8.1-4.1","battery-v0.2","","""event"",""trial"",""time""
""fullscreenenter"",""1"",""4878""
","
","
","""event"",""trial"",""time""
""fullscreenenter"",""1"",""4878""
","
","","","439.60000002384186","","","24","5891","510","&#9776;","elianto","#3366ff99"," "," ","1","+10","[1292]","1","0","1","","","","","","","",""
"pit-trial","30","358671","0.0-2.0-8.2-0.2","battery-v0.2","","""event"",""trial"",""time""
""fullscreenenter"",""1"",""4878""
","
","
","""event"",""trial"",""time""
""fullscreenenter"",""1"",""4878""
","
","","","395","","","24","5891","510","&#9776;","elianto","#3366ff99"," "," ","1","+10","[1248]","1","0","1","","","","","","","",""
"pit-trial","31","363555","0.0-2.0-8.2-1.2","battery-v0.2","","""event"",""trial"",""time""
""fullscreenenter"",""1"",""4878""
","
","
","""event"",""trial"",""time""
""fullscreenenter"",""1"",""4878""
","
","","","-1","","","24","5891","510","&#9776;","elianto","#3366ff99"," ","-1","0","0","[]","0","0","1","","","","","","","",""
"pit-trial","32","366968","0.0-2.0-8.2-2.2","battery-v0.2","","""event"",""trial"",""time""
""fullscreenenter"",""1"",""4878""
","
","
","""event"",""trial"",""time""
""fullscreenenter"",""1"",""4878""
","
","","","545.7999999523163","","","24","5891","510","&#9776;","elianto","#3366ff99"," "," ","1","+10","[1398.6000000238419]","1","0","1","","","","","","","",""
"pit-trial","33","369990","0.0-2.0-8.2-3.2","battery-v0.2","","""event"",""trial"",""time""
""fullscreenenter"",""1"",""4878""
","
","
","""event"",""trial"",""time""
""fullscreenenter"",""1"",""4878""
","
","","","159.59999990463257","","","24","5891","510","&#9776;","elianto","#3366ff99"," "," ","1","0","[1013.4000000953674]","1","0","1","","","","","","","",""
"pit-trial","34","373382","0.0-2.0-8.2-4.2","battery-v0.2","","""event"",""trial"",""time""
""fullscreenenter"",""1"",""4878""
","
","
","""event"",""trial"",""time""
""fullscreenenter"",""1"",""4878""
","
","","","527.6000000238419","","","24","5891","510","&#9776;","elianto","#3366ff99"," "," ","1","+10","[1381.6999999284744]","1","0","1","","","","","","","",""
"call-function","35","373385","0.0-2.0-9.0","battery-v0.2","","""event"",""trial"",""time""
""fullscreenenter"",""1"",""4878""
","
","
","""event"",""trial"",""time""
""fullscreenenter"",""1"",""4878""
","
","","","","","","","","","","","","","","","","","","","","","","","","","","",""
"pit-instructions","36","416254","0.0-2.0-10.0","battery-v0.2","","""event"",""trial"",""time""
""fullscreenenter"",""1"",""4878""
","
","
","""event"",""trial"",""time""
""fullscreenenter"",""1"",""4878""
","
","","[{""page_index"":0,""viewing_time"":6057.600000023842},{""page_index"":1,""viewing_time"":7935.300000071526},{""page_index"":2,""viewing_time"":12025.199999928474},{""page_index"":3,""viewing_time"":9022.200000047684},{""page_index"":4,""viewing_time"":7826}]","42868.700000047684","","","","","","","","","","","","","","","","","","","","","","","",""
"pit-trial","37","419702","0.0-2.0-11.0-0.0","battery-v0.2","","""event"",""trial"",""time""
""fullscreenenter"",""1"",""4878""
","
","
","""event"",""trial"",""time""
""fullscreenenter"",""1"",""4878""
","
","","","577","","","24","5891","510","&#9761;","elianto","#3366ff99","-1"," ","0","0","[1437.0999999046326]","1","0","2","","","","","","","",""
"pit-trial","38","423272","0.0-2.0-11.0-1.0","battery-v0.2","","""event"",""trial"",""time""
""fullscreenenter"",""1"",""4878""
","
","
","""event"",""trial"",""time""
""fullscreenenter"",""1"",""4878""
","
","","","703.3999999761581","","","24","5891","510","&#9761;","elianto","#3366ff99","-1"," ","0","0","[1558]","1","0","2","","","","","","","",""
"pit-trial","39","428158","0.0-2.0-11.0-2.0","battery-v0.2","","""event"",""trial"",""time""
""fullscreenenter"",""1"",""4878""
","
","
","""event"",""trial"",""time""
""fullscreenenter"",""1"",""4878""
","
","","","-1","","","24","5891","510","&#9761;","elianto","#3366ff99","-1","-1","1","+10","[]","0","0","2","","","","","","","",""
"pit-trial","40","433026","0.0-2.0-11.0-3.0","battery-v0.2","","""event"",""trial"",""time""
""fullscreenenter"",""1"",""4878""
","
","
","""event"",""trial"",""time""
""fullscreenenter"",""1"",""4878""
","
","","","-1","","","24","5891","510","&#9761;","elianto","#3366ff99","-1","-1","1","0","[]","0","0","2","","","","","","","",""
"pit-trial","41","437903","0.0-2.0-11.0-4.0","battery-v0.2","","""event"",""trial"",""time""
""fullscreenenter"",""1"",""4878""
","
","
","""event"",""trial"",""time""
""fullscreenenter"",""1"",""4878""
","
","","","-1","","","24","5891","510","&#9761;","elianto","#3366ff99","-1","-1","1","+10","[]","0","0","2","","","","","","","",""
"pit-trial","42","442788","0.0-2.0-11.1-0.1","battery-v0.2","","""event"",""trial"",""time""
""fullscreenenter"",""1"",""4878""
","
","
","""event"",""trial"",""time""
""fullscreenenter"",""1"",""4878""
","
","","","-1","","","24","5891","510","&#9761;","elianto","#3366ff99","-1","-1","1","+10","[]","0","0","2","","","","","","","",""
"pit-trial","43","446286","0.0-2.0-11.1-1.1","battery-v0.2","","""event"",""trial"",""time""
""fullscreenenter"",""1"",""4878""
","
","
","""event"",""trial"",""time""
""fullscreenenter"",""1"",""4878""
","
","","","632.3000000715256","","","24","5891","510","&#9761;","elianto","#3366ff99","-1"," ","0","0","[1487.1000000238419]","1","0","2","","","","","","","",""
"pit-trial","44","449499","0.0-2.0-11.1-2.1","battery-v0.2","","""event"",""trial"",""time""
""fullscreenenter"",""1"",""4878""
","
","
","""event"",""trial"",""time""
""fullscreenenter"",""1"",""4878""
","
","","","353.5","","","24","5891","510","&#9761;","elianto","#3366ff99","-1"," ","0","0","[1207.8999999761581]","1","0","2","","","","","","","",""
"pit-trial","45","452823","0.0-2.0-11.1-3.1","battery-v0.2","","""event"",""trial"",""time""
""fullscreenenter"",""1"",""4878""
","
","
","""event"",""trial"",""time""
""fullscreenenter"",""1"",""4878""
","
","","","461.10000002384186","","","24","5891","510","&#9761;","elianto","#3366ff99","-1"," ","0","+10","[1313.3999999761581]","1","0","2","","","","","","","",""
"pit-trial","46","457709","0.0-2.0-11.1-4.1","battery-v0.2","","""event"",""trial"",""time""
""fullscreenenter"",""1"",""4878""
","
","
","""event"",""trial"",""time""
""fullscreenenter"",""1"",""4878""
","
","","","-1","","","24","5891","510","&#9761;","elianto","#3366ff99","-1","-1","1","+10","[]","0","0","2","","","","","","","",""
"pit-trial","47","462580","0.0-2.0-11.2-0.2","battery-v0.2","","""event"",""trial"",""time""
""fullscreenenter"",""1"",""4878""
","
","
","""event"",""trial"",""time""
""fullscreenenter"",""1"",""4878""
","
","","","-1","","","24","5891","510","&#9761;","elianto","#3366ff99","-1","-1","1","+10","[]","0","0","2","","","","","","","",""
"pit-trial","48","467450","0.0-2.0-11.2-1.2","battery-v0.2","","""event"",""trial"",""time""
""fullscreenenter"",""1"",""4878""
","
","
","""event"",""trial"",""time""
""fullscreenenter"",""1"",""4878""
","
","","","-1","","","24","5891","510","&#9761;","elianto","#3366ff99","-1","-1","1","+10","[]","0","0","2","","","","","","","",""
"pit-trial","49","472315","0.0-2.0-11.2-2.2","battery-v0.2","","""event"",""trial"",""time""
""fullscreenenter"",""1"",""4878""
","
","
","""event"",""trial"",""time""
""fullscreenenter"",""1"",""4878""
","
","","","-1","","","24","5891","510","&#9761;","elianto","#3366ff99","-1","-1","1","+10","[]","0","0","2","","","","","","","",""
"pit-trial","50","475680","0.0-2.0-11.2-3.2","battery-v0.2","","""event"",""trial"",""time""
""fullscreenenter"",""1"",""4878""
","
","
","""event"",""trial"",""time""
""fullscreenenter"",""1"",""4878""
","
","","","496.8000000715256","","","24","5891","510","&#9761;","elianto","#3366ff99","-1"," ","0","+10","[1348.2999999523163]","1","0","2","","","","","","","",""
"pit-trial","51","480552","0.0-2.0-11.2-4.2","battery-v0.2","","""event"",""trial"",""time""
""fullscreenenter"",""1"",""4878""
","
","
","""event"",""trial"",""time""
""fullscreenenter"",""1"",""4878""
","
","","","-1","","","24","5891","510","&#9761;","elianto","#3366ff99","-1","-1","1","+10","[]","0","0","2","","","","","","","",""
"pit-trial","52","485420","0.0-2.0-11.3-0.3","battery-v0.2","","""event"",""trial"",""time""
""fullscreenenter"",""1"",""4878""
","
","
","""event"",""trial"",""time""
""fullscreenenter"",""1"",""4878""
","
","","","-1","","","24","5891","510","&#9761;","elianto","#3366ff99","-1","-1","1","+10","[]","0","0","2","","","","","","","",""
"pit-trial","53","490299","0.0-2.0-11.3-1.3","battery-v0.2","","""event"",""trial"",""time""
""fullscreenenter"",""1"",""4878""
","
","
","""event"",""trial"",""time""
""fullscreenenter"",""1"",""4878""
","
","","","-1","","","24","5891","510","&#9761;","elianto","#3366ff99","-1","-1","1","+10","[]","0","0","2","","","","","","","",""
"pit-trial","54","494081","0.0-2.0-11.3-2.3","battery-v0.2","","""event"",""trial"",""time""
""fullscreenenter"",""1"",""4878""
","
","
","""event"",""trial"",""time""
""fullscreenenter"",""1"",""4878""
","
","","","911.7999999523163","","","24","5891","510","&#9761;","elianto","#3366ff99","-1"," ","0","0","[1764.7000000476837]","1","0","2","","","","","","","",""
"pit-trial","55","498961","0.0-2.0-11.3-3.3","battery-v0.2","","""event"",""trial"",""time""
""fullscreenenter"",""1"",""4878""
","
","
","""event"",""trial"",""time""
""fullscreenenter"",""1"",""4878""
","
","","","-1","","","24","5891","510","&#9761;","elianto","#3366ff99","-1","-1","1","0","[]","0","0","2","","","","","","","",""
"pit-trial","56","503833","0.0-2.0-11.3-4.3","battery-v0.2","","""event"",""trial"",""time""
""fullscreenenter"",""1"",""4878""
","
","
","""event"",""trial"",""time""
""fullscreenenter"",""1"",""4878""
","
","","","-1","","","24","5891","510","&#9761;","elianto","#3366ff99","-1","-1","1","+10","[]","0","0","2","","","","","","","",""
"call-function","57","503838","0.0-2.0-12.0","battery-v0.2","","""event"",""trial"",""time""
""fullscreenenter"",""1"",""4878""
","
","
","""event"",""trial"",""time""
""fullscreenenter"",""1"",""4878""
","
","","","","","","","","","","","","","","","","","","","","","","","","","","",""
"pit-instructions","58","566603","0.0-2.0-13.0","battery-v0.2","","""event"",""trial"",""time""
""fullscreenenter"",""1"",""4878""
","
","
","""event"",""trial"",""time""
""fullscreenenter"",""1"",""4878""
","
","","[{""page_index"":0,""viewing_time"":20986.600000023842},{""page_index"":1,""viewing_time"":11043.899999976158},{""page_index"":2,""viewing_time"":9922},{""page_index"":3,""viewing_time"":12910.199999928474},{""page_index"":4,""viewing_time"":7896.900000095367}]","62761.60000002384","","","","","","","","","","","","","","","","","","","","","","","",""
"pit-trial","59","569956","0.0-2.0-14.0-0.0","battery-v0.2","","""event"",""trial"",""time""
""fullscreenenter"",""1"",""4878""
","
","
","""event"",""trial"",""time""
""fullscreenenter"",""1"",""4878""
","
","","","490.3000000715256","","","24","5891","510","&#9826;","elianto","#f73b6a7A","-1"," ","0","-10","[1341.1000000238419]","1","0","3","","","","","","","",""
"pit-trial","60","574828","0.0-2.0-14.0-1.0","battery-v0.2","","""event"",""trial"",""time""
""fullscreenenter"",""1"",""4878""
","
","
","""event"",""trial"",""time""
""fullscreenenter"",""1"",""4878""
","
","","","-1","","","24","5891","510","&#9826;","elianto","#f73b6a7A","-1","-1","1","0","[]","0","0","3","","","","","","","",""
"pit-trial","61","579701","0.0-2.0-14.0-2.0","battery-v0.2","","""event"",""trial"",""time""
""fullscreenenter"",""1"",""4878""
","
","
","""event"",""trial"",""time""
""fullscreenenter"",""1"",""4878""
","
","","","-1","","","24","5891","510","&#9826;","elianto","#f73b6a7A","-1","-1","1","0","[]","0","0","3","","","","","","","",""
"pit-trial","62","584574","0.0-2.0-14.0-3.0","battery-v0.2","","""event"",""trial"",""time""
""fullscreenenter"",""1"",""4878""
","
","
","""event"",""trial"",""time""
""fullscreenenter"",""1"",""4878""
","
","","","-1","","","24","5891","510","&#9826;","elianto","#f73b6a7A","-1","-1","1","-10","[]","0","0","3","","","","","","","",""
"pit-trial","63","589446","0.0-2.0-14.0-4.0","battery-v0.2","","""event"",""trial"",""time""
""fullscreenenter"",""1"",""4878""
","
","
","""event"",""trial"",""time""
""fullscreenenter"",""1"",""4878""
","
","","","-1","","","24","5891","510","&#9826;","elianto","#f73b6a7A","-1","-1","1","0","[]","0","0","3","","","","","","","",""
"pit-trial","64","594317","0.0-2.0-14.1-0.1","battery-v0.2","","""event"",""trial"",""time""
""fullscreenenter"",""1"",""4878""
","
","
","""event"",""trial"",""time""
""fullscreenenter"",""1"",""4878""
","
","","","-1","","","24","5891","510","&#9826;","elianto","#f73b6a7A","-1","-1","1","0","[]","0","0","3","","","","","","","",""
"pit-trial","65","599188","0.0-2.0-14.1-1.1","battery-v0.2","","""event"",""trial"",""time""
""fullscreenenter"",""1"",""4878""
","
","
","""event"",""trial"",""time""
""fullscreenenter"",""1"",""4878""
","
","","","-1","","","24","5891","510","&#9826;","elianto","#f73b6a7A","-1","-1","1","0","[]","0","0","3","","","","","","","",""
"pit-trial","66","604061","0.0-2.0-14.1-2.1","battery-v0.2","","""event"",""trial"",""time""
""fullscreenenter"",""1"",""4878""
","
","
","""event"",""trial"",""time""
""fullscreenenter"",""1"",""4878""
","
","","","-1","","","24","5891","510","&#9826;","elianto","#f73b6a7A","-1","-1","1","0","[]","0","0","3","","","","","","","",""
"pit-trial","67","608942","0.0-2.0-14.1-3.1","battery-v0.2","","""event"",""trial"",""time""
""fullscreenenter"",""1"",""4878""
","
","
","""event"",""trial"",""time""
""fullscreenenter"",""1"",""4878""
","
","","","-1","","","24","5891","510","&#9826;","elianto","#f73b6a7A","-1","-1","1","-10","[]","0","0","3","","","","","","","",""
"pit-trial","68","613823","0.0-2.0-14.1-4.1","battery-v0.2","","""event"",""trial"",""time""
""fullscreenenter"",""1"",""4878""
","
","
","""event"",""trial"",""time""
""fullscreenenter"",""1"",""4878""
","
","","","-1","","","24","5891","510","&#9826;","elianto","#f73b6a7A","-1","-1","1","0","[]","0","0","3","","","","","","","",""
"pit-trial","69","618698","0.0-2.0-14.2-0.2","battery-v0.2","","""event"",""trial"",""time""
""fullscreenenter"",""1"",""4878""
","
","
","""event"",""trial"",""time""
""fullscreenenter"",""1"",""4878""
","
","","","-1","","","24","5891","510","&#9826;","elianto","#f73b6a7A","-1","-1","1","0","[]","0","0","3","","","","","","","",""
"pit-trial","70","623571","0.0-2.0-14.2-1.2","battery-v0.2","","""event"",""trial"",""time""
""fullscreenenter"",""1"",""4878""
","
","
","""event"",""trial"",""time""
""fullscreenenter"",""1"",""4878""
","
","","","-1","","","24","5891","510","&#9826;","elianto","#f73b6a7A","-1","-1","1","0","[]","0","0","3","","","","","","","",""
"pit-trial","71","628438","0.0-2.0-14.2-2.2","battery-v0.2","","""event"",""trial"",""time""
""fullscreenenter"",""1"",""4878""
","
","
","""event"",""trial"",""time""
""fullscreenenter"",""1"",""4878""
","
","","","-1","","","24","5891","510","&#9826;","elianto","#f73b6a7A","-1","-1","1","0","[]","0","0","3","","","","","","","",""
"pit-trial","72","633315","0.0-2.0-14.2-3.2","battery-v0.2","","""event"",""trial"",""time""
""fullscreenenter"",""1"",""4878""
","
","
","""event"",""trial"",""time""
""fullscreenenter"",""1"",""4878""
","
","","","-1","","","24","5891","510","&#9826;","elianto","#f73b6a7A","-1","-1","1","-10","[]","0","0","3","","","","","","","",""
"pit-trial","73","638183","0.0-2.0-14.2-4.2","battery-v0.2","","""event"",""trial"",""time""
""fullscreenenter"",""1"",""4878""
","
","
","""event"",""trial"",""time""
""fullscreenenter"",""1"",""4878""
","
","","","-1","","","24","5891","510","&#9826;","elianto","#f73b6a7A","-1","-1","1","0","[]","0","0","3","","","","","","","",""
"pit-trial","74","643060","0.0-2.0-14.3-0.3","battery-v0.2","","""event"",""trial"",""time""
""fullscreenenter"",""1"",""4878""
","
","
","""event"",""trial"",""time""
""fullscreenenter"",""1"",""4878""
","
","","","-1","","","24","5891","510","&#9826;","elianto","#f73b6a7A","-1","-1","1","0","[]","0","0","3","","","","","","","",""
"pit-trial","75","647936","0.0-2.0-14.3-1.3","battery-v0.2","","""event"",""trial"",""time""
""fullscreenenter"",""1"",""4878""
","
","
","""event"",""trial"",""time""
""fullscreenenter"",""1"",""4878""
","
","","","-1","","","24","5891","510","&#9826;","elianto","#f73b6a7A","-1","-1","1","0","[]","0","0","3","","","","","","","",""
"pit-trial","76","652813","0.0-2.0-14.3-2.3","battery-v0.2","","""event"",""trial"",""time""
""fullscreenenter"",""1"",""4878""
","
","
","""event"",""trial"",""time""
""fullscreenenter"",""1"",""4878""
","
","","","-1","","","24","5891","510","&#9826;","elianto","#f73b6a7A","-1","-1","1","0","[]","0","0","3","","","","","","","",""
"pit-trial","77","657695","0.0-2.0-14.3-3.3","battery-v0.2","","""event"",""trial"",""time""
""fullscreenenter"",""1"",""4878""
","
","
","""event"",""trial"",""time""
""fullscreenenter"",""1"",""4878""
","
","","","-1","","","24","5891","510","&#9826;","elianto","#f73b6a7A","-1","-1","1","-10","[]","0","0","3","","","","","","","",""
"pit-trial","78","662571","0.0-2.0-14.3-4.3","battery-v0.2","","""event"",""trial"",""time""
""fullscreenenter"",""1"",""4878""
","
","
","""event"",""trial"",""time""
""fullscreenenter"",""1"",""4878""
","
","","","-1","","","24","5891","510","&#9826;","elianto","#f73b6a7A","-1","-1","1","0","[]","0","0","3","","","","","","","",""
"call-function","79","662575","0.0-2.0-15.0","battery-v0.2","","""event"",""trial"",""time""
""fullscreenenter"",""1"",""4878""
","
","
","""event"",""trial"",""time""
""fullscreenenter"",""1"",""4878""
","
","","","","","","","","","","","","","","","","","","","","","","","","","","",""
"pit-instructions","80","699877","0.0-2.0-16.0","battery-v0.2","","""event"",""trial"",""time""
""fullscreenenter"",""1"",""4878""
","
","
","""event"",""trial"",""time""
""fullscreenenter"",""1"",""4878""
","
","","[{""page_index"":0,""viewing_time"":13619.700000047684},{""page_index"":1,""viewing_time"":11153.100000023842},{""page_index"":2,""viewing_time"":6750.699999928474},{""page_index"":3,""viewing_time"":5776.100000023842}]","37300.700000047684","","","","","","","","","","","","","","","","","","","","","","","",""
"pit-trial","81","704760","0.0-2.0-17.0-0.0","battery-v0.2","","""event"",""trial"",""time""
""fullscreenenter"",""1"",""4878""
","
","
","""event"",""trial"",""time""
""fullscreenenter"",""1"",""4878""
","
","","","-1","","","24","5891","510","&#9789;","elianto","#f73b6a7A"," ","-1","0","-10","[]","0","0","4","","","","","","","",""
"pit-trial","82","709636","0.0-2.0-17.0-1.0","battery-v0.2","","""event"",""trial"",""time""
""fullscreenenter"",""1"",""4878""
","
","
","""event"",""trial"",""time""
""fullscreenenter"",""1"",""4878""
","
","","","-1","","","24","5891","510","&#9789;","elianto","#f73b6a7A"," ","-1","0","-10","[]","0","0","4","","","","","","","",""
"pit-trial","83","714499","0.0-2.0-17.0-2.0","battery-v0.2","","""event"",""trial"",""time""
""fullscreenenter"",""1"",""4878""
","
","
","""event"",""trial"",""time""
""fullscreenenter"",""1"",""4878""
","
","","","-1","","","24","5891","510","&#9789;","elianto","#f73b6a7A"," ","-1","0","-10","[]","0","0","4","","","","","","","",""
"pit-trial","84","719369","0.0-2.0-17.0-3.0","battery-v0.2","","""event"",""trial"",""time""
""fullscreenenter"",""1"",""4878""
","
","
","""event"",""trial"",""time""
""fullscreenenter"",""1"",""4878""
","
","","","-1","","","24","5891","510","&#9789;","elianto","#f73b6a7A"," ","-1","0","0","[]","0","0","4","","","","","","","",""
"pit-trial","85","724262","0.0-2.0-17.0-4.0","battery-v0.2","","""event"",""trial"",""time""
""fullscreenenter"",""1"",""4878""
","
","
","""event"",""trial"",""time""
""fullscreenenter"",""1"",""4878""
","
","","","-1","","","24","5891","510","&#9789;","elianto","#f73b6a7A"," ","-1","0","-10","[]","0","0","4","","","","","","","",""
"pit-trial","86","729131","0.0-2.0-17.1-0.1","battery-v0.2","","""event"",""trial"",""time""
""fullscreenenter"",""1"",""4878""
","
","
","""event"",""trial"",""time""
""fullscreenenter"",""1"",""4878""
","
","","","-1","","","24","5891","510","&#9789;","elianto","#f73b6a7A"," ","-1","0","-10","[]","0","0","4","","","","","","","",""
"pit-trial","87","734001","0.0-2.0-17.1-1.1","battery-v0.2","","""event"",""trial"",""time""
""fullscreenenter"",""1"",""4878""
","
","
","""event"",""trial"",""time""
""fullscreenenter"",""1"",""4878""
","
","","","-1","","","24","5891","510","&#9789;","elianto","#f73b6a7A"," ","-1","0","-10","[]","0","0","4","","","","","","","",""
"pit-trial","88","738886","0.0-2.0-17.1-2.1","battery-v0.2","","""event"",""trial"",""time""
""fullscreenenter"",""1"",""4878""
","
","
","""event"",""trial"",""time""
""fullscreenenter"",""1"",""4878""
","
","","","-1","","","24","5891","510","&#9789;","elianto","#f73b6a7A"," ","-1","0","-10","[]","0","0","4","","","","","","","",""
"pit-trial","89","743764","0.0-2.0-17.1-3.1","battery-v0.2","","""event"",""trial"",""time""
""fullscreenenter"",""1"",""4878""
","
","
","""event"",""trial"",""time""
""fullscreenenter"",""1"",""4878""
","
","","","-1","","","24","5891","510","&#9789;","elianto","#f73b6a7A"," ","-1","0","0","[]","0","0","4","","","","","","","",""
"pit-trial","90","748644","0.0-2.0-17.1-4.1","battery-v0.2","","""event"",""trial"",""time""
""fullscreenenter"",""1"",""4878""
","
","
","""event"",""trial"",""time""
""fullscreenenter"",""1"",""4878""
","
","","","-1","","","24","5891","510","&#9789;","elianto","#f73b6a7A"," ","-1","0","-10","[]","0","0","4","","","","","","","",""
"pit-trial","91","753531","0.0-2.0-17.2-0.2","battery-v0.2","","""event"",""trial"",""time""
""fullscreenenter"",""1"",""4878""
","
","
","""event"",""trial"",""time""
""fullscreenenter"",""1"",""4878""
","
","","","-1","","","24","5891","510","&#9789;","elianto","#f73b6a7A"," ","-1","0","-10","[]","0","0","4","","","","","","","",""
"pit-trial","92","758404","0.0-2.0-17.2-1.2","battery-v0.2","","""event"",""trial"",""time""
""fullscreenenter"",""1"",""4878""
","
","
","""event"",""trial"",""time""
""fullscreenenter"",""1"",""4878""
","
","","","-1","","","24","5891","510","&#9789;","elianto","#f73b6a7A"," ","-1","0","-10","[]","0","0","4","","","","","","","",""
"pit-trial","93","763285","0.0-2.0-17.2-2.2","battery-v0.2","","""event"",""trial"",""time""
""fullscreenenter"",""1"",""4878""
","
","
","""event"",""trial"",""time""
""fullscreenenter"",""1"",""4878""
","
","","","-1","","","24","5891","510","&#9789;","elianto","#f73b6a7A"," ","-1","0","-10","[]","0","0","4","","","","","","","",""
"pit-trial","94","768156","0.0-2.0-17.2-3.2","battery-v0.2","","""event"",""trial"",""time""
""fullscreenenter"",""1"",""4878""
","
","
","""event"",""trial"",""time""
""fullscreenenter"",""1"",""4878""
","
","","","-1","","","24","5891","510","&#9789;","elianto","#f73b6a7A"," ","-1","0","0","[]","0","0","4","","","","","","","",""
"pit-trial","95","773038","0.0-2.0-17.2-4.2","battery-v0.2","","""event"",""trial"",""time""
""fullscreenenter"",""1"",""4878""
","
","
","""event"",""trial"",""time""
""fullscreenenter"",""1"",""4878""
","
","","","-1","","","24","5891","510","&#9789;","elianto","#f73b6a7A"," ","-1","0","-10","[]","0","0","4","","","","","","","",""
"pit-trial","96","777910","0.0-2.0-17.3-0.3","battery-v0.2","","""event"",""trial"",""time""
""fullscreenenter"",""1"",""4878""
","
","
","""event"",""trial"",""time""
""fullscreenenter"",""1"",""4878""
","
","","","-1","","","24","5891","510","&#9789;","elianto","#f73b6a7A"," ","-1","0","-10","[]","0","0","4","","","","","","","",""
"pit-trial","97","782783","0.0-2.0-17.3-1.3","battery-v0.2","","""event"",""trial"",""time""
""fullscreenenter"",""1"",""4878""
","
","
","""event"",""trial"",""time""
""fullscreenenter"",""1"",""4878""
","
","","","-1","","","24","5891","510","&#9789;","elianto","#f73b6a7A"," ","-1","0","-10","[]","0","0","4","","","","","","","",""
"pit-trial","98","787668","0.0-2.0-17.3-2.3","battery-v0.2","","""event"",""trial"",""time""
""fullscreenenter"",""1"",""4878""
","
","
","""event"",""trial"",""time""
""fullscreenenter"",""1"",""4878""
","
","","","-1","","","24","5891","510","&#9789;","elianto","#f73b6a7A"," ","-1","0","-10","[]","0","0","4","","","","","","","",""
"pit-trial","99","792538","0.0-2.0-17.3-3.3","battery-v0.2","","""event"",""trial"",""time""
""fullscreenenter"",""1"",""4878""
","
","
","""event"",""trial"",""time""
""fullscreenenter"",""1"",""4878""
","
","","","-1","","","24","5891","510","&#9789;","elianto","#f73b6a7A"," ","-1","0","0","[]","0","0","4","","","","","","","",""
"pit-trial","100","797413","0.0-2.0-17.3-4.3","battery-v0.2","","""event"",""trial"",""time""
""fullscreenenter"",""1"",""4878""
","
","
","""event"",""trial"",""time""
""fullscreenenter"",""1"",""4878""
","
","","","-1","","","24","5891","510","&#9789;","elianto","#f73b6a7A"," ","-1","0","-10","[]","0","0","4","","","","","","","",""
"call-function","101","797416","0.0-2.0-18.0","battery-v0.2","","""event"",""trial"",""time""
""fullscreenenter"",""1"",""4878""
","
","
","""event"",""trial"",""time""
""fullscreenenter"",""1"",""4878""
","
","","","","","","","","","","","","","","","","","","","","","","","","","","",""
"pit-instructions","102","943882","0.0-2.0-19.0","battery-v0.2","","""event"",""trial"",""time""
""fullscreenenter"",""1"",""4878""
","
","
","""event"",""trial"",""time""
""fullscreenenter"",""1"",""4878""
","
","","[{""page_index"":0,""viewing_time"":8381.300000071526},{""page_index"":1,""viewing_time"":7227},{""page_index"":2,""viewing_time"":13513.799999952316},{""page_index"":3,""viewing_time"":8035.100000023842},{""page_index"":4,""viewing_time"":82396.20000004768},{""page_index"":5,""viewing_time"":8318.799999952316},{""page_index"":6,""viewing_time"":8325.899999976158},{""page_index"":7,""viewing_time"":6182.5},{""page_index"":8,""viewing_time"":4082.5}]","146464.70000004768","","","","","","","","","","","","","","","","","","","","","","","",""
"pit-comprehension","103","948395","0.0-2.0-20.0-0.0","battery-v0.2","","""event"",""trial"",""time""
""fullscreenenter"",""1"",""4878""
","
","
","""event"",""trial"",""time""
""fullscreenenter"",""1"",""4878""
","
","","","4501.300000071526","[""SPACE""]","0","24","5891","510","","","","","","","","","","","","","","","","","","",""
"pit-instructions","104","951247","0.0-2.0-20.0-1.0","battery-v0.2","","""event"",""trial"",""time""
""fullscreenenter"",""1"",""4878""
","
","
","""event"",""trial"",""time""
""fullscreenenter"",""1"",""4878""
","
","","[{""page_index"":0,""viewing_time"":2719.100000023842}]","2720.8000000715256","","","","","","","","","","","","","","","","","","","","","","","",""
"pit-comprehension","105","955775","0.0-2.0-21.0-0.0","battery-v0.2","","""event"",""trial"",""time""
""fullscreenenter"",""1"",""4878""
","
","
","""event"",""trial"",""time""
""fullscreenenter"",""1"",""4878""
","
","","","4515","[""10""]","0","24","5891","510","","","","","","","","","","","","","","","","","","",""
"pit-instructions","106","958169","0.0-2.0-21.0-1.0","battery-v0.2","","""event"",""trial"",""time""
""fullscreenenter"",""1"",""4878""
","
","
","""event"",""trial"",""time""
""fullscreenenter"",""1"",""4878""
","
","","[{""page_index"":0,""viewing_time"":2270.6999999284744}]","2271.6999999284744","","","","","","","","","","","","","","","","","","","","","","","",""
"pit-comprehension","107","964574","0.0-2.0-22.0-0.0","battery-v0.2","","""event"",""trial"",""time""
""fullscreenenter"",""1"",""4878""
","
","
","""event"",""trial"",""time""
""fullscreenenter"",""1"",""4878""
","
","","","6391","[""-10""]","1","24","5891","510","","","","","","","","","","","","","","","","","","",""
"pit-instructions","108","967226","0.0-2.0-22.0-1.0","battery-v0.2","","""event"",""trial"",""time""
""fullscreenenter"",""1"",""4878""
","
","
","""event"",""trial"",""time""
""fullscreenenter"",""1"",""4878""
","
","","[{""page_index"":0,""viewing_time"":2498.899999976158}]","2500","","","","","","","","","","","","","","","","","","","","","","","",""
"pit-instructions","109","972331","0.0-2.0-22.0-2.0-0.0","battery-v0.2","","""event"",""trial"",""time""
""fullscreenenter"",""1"",""4878""
","
","
","""event"",""trial"",""time""
""fullscreenenter"",""1"",""4878""
","
","","[{""page_index"":0,""viewing_time"":5099.600000023842}]","5100.799999952316","","","","","","","","","","","","","","","","","","","","","","","",""
"pit-comprehension","110","979464","0.0-2.0-22.1-0.1","battery-v0.2","","""event"",""trial"",""time""
""fullscreenenter"",""1"",""4878""
","
","
","""event"",""trial"",""time""
""fullscreenenter"",""1"",""4878""
","
","","","7122.100000023842","[""0""]","0","24","5891","510","","","","","","","","","","","","","","","","","","",""
"pit-instructions","111","981989","0.0-2.0-22.1-1.1","battery-v0.2","","""event"",""trial"",""time""
""fullscreenenter"",""1"",""4878""
","
","
","""event"",""trial"",""time""
""fullscreenenter"",""1"",""4878""
","
","","[{""page_index"":0,""viewing_time"":2357.2000000476837}]","2358.8000000715256","","","","","","","","","","","","","","","","","","","","","","","",""
"pit-comprehension","112","1002953","0.0-2.0-23.0-0.0","battery-v0.2","","""event"",""trial"",""time""
""fullscreenenter"",""1"",""4878""
","
","
","""event"",""trial"",""time""
""fullscreenenter"",""1"",""4878""
","
","","","20952","[""True""]","0","24","5891","510","","","","","","","","","","","","","","","","","","",""
"pit-instructions","113","1004944","0.0-2.0-23.0-1.0","battery-v0.2","","""event"",""trial"",""time""
""fullscreenenter"",""1"",""4878""
","
","
","""event"",""trial"",""time""
""fullscreenenter"",""1"",""4878""
","
","","[{""page_index"":0,""viewing_time"":1826.3999999761581}]","1827.3999999761581","","","","","","","","","","","","","","","","","","","","","","","",""
"pit-comprehension","114","1012393","0.0-2.0-24.0-0.0","battery-v0.2","","""event"",""trial"",""time""
""fullscreenenter"",""1"",""4878""
","
","
","""event"",""trial"",""time""
""fullscreenenter"",""1"",""4878""
","
","","","7437.700000047684","[""True""]","0","24","5891","510","","","","","","","","","","","","","","","","","","",""
"pit-instructions","115","1014608","0.0-2.0-24.0-1.0","battery-v0.2","","""event"",""trial"",""time""
""fullscreenenter"",""1"",""4878""
","
","
","""event"",""trial"",""time""
""fullscreenenter"",""1"",""4878""
","
","","[{""page_index"":0,""viewing_time"":2055.2000000476837}]","2056.100000023842","","","","","","","","","","","","","","","","","","","","","","","",""
"pit-comprehension","116","1021420","0.0-2.0-25.0-0.0","battery-v0.2","","""event"",""trial"",""time""
""fullscreenenter"",""1"",""4878""
","
","
","""event"",""trial"",""time""
""fullscreenenter"",""1"",""4878""
","
","","","6802.200000047684","[""True""]","0","24","5891","510","","","","","","","","","","","","","","","","","","",""
"pit-instructions","117","1023573","0.0-2.0-25.0-1.0","battery-v0.2","","""event"",""trial"",""time""
""fullscreenenter"",""1"",""4878""
","
","
","""event"",""trial"",""time""
""fullscreenenter"",""1"",""4878""
","
","","[{""page_index"":0,""viewing_time"":1960.8000000715256}]","1961.8000000715256","","","","","","","","","","","","","","","","","","","","","","","",""
"pit-comprehension","118","1029946","0.0-2.0-26.0-0.0","battery-v0.2","","""event"",""trial"",""time""
""fullscreenenter"",""1"",""4878""
","
","
","""event"",""trial"",""time""
""fullscreenenter"",""1"",""4878""
","
","","","6361.399999976158","[""False""]","0","24","5891","510","","","","","","","","","","","","","","","","","","",""
"pit-instructions","119","1032202","0.0-2.0-26.0-1.0","battery-v0.2","","""event"",""trial"",""time""
""fullscreenenter"",""1"",""4878""
","
","
","""event"",""trial"",""time""
""fullscreenenter"",""1"",""4878""
","
","","[{""page_index"":0,""viewing_time"":2093.4000000953674}]","2094.8000000715256","","","","","","","","","","","","","","","","","","","","","","","",""
"pit-instructions","120","1080828","0.0-3.0","battery-v0.2","","""event"",""trial"",""time""
""fullscreenenter"",""1"",""4878""
","
","
","""event"",""trial"",""time""
""fullscreenenter"",""1"",""4878""
","
","","[{""page_index"":0,""viewing_time"":16161.400000095367},{""page_index"":1,""viewing_time"":25648.899999976158},{""page_index"":2,""viewing_time"":6805.399999976158}]","48617.60000002384","","","","","","","","","","","","","","","","","","","","","","","",""
"pit-trial","121","1084616","0.0-4.0","battery-v0.2","","""event"",""trial"",""time""
""fullscreenenter"",""1"",""4878""
","
","
","""event"",""trial"",""time""
""fullscreenenter"",""1"",""4878""
","
","","","898.1999999284744","","","24","5891","510","&#9733;","elianto","#3366ff99","-1"," ","0","+10","[1753.6000000238419]","1","1","","","5891","1","2","2","win","no-go","1"
"pit-trial","122","1088477","0.0-5.0","battery-v0.2","","""event"",""trial"",""time""
""fullscreenenter"",""1"",""4878""
","
","
","""event"",""trial"",""time""
""fullscreenenter"",""1"",""4878""
","
","","","987","","","24","5891","510","&#9752;","elianto","#f73b6a7A"," "," ","1","0","[1837.2000000476837]","1","1","","","5891","2","3","3","lose","go","0"
"pit-trial","123","1093357","0.0-6.0","battery-v0.2","","""event"",""trial"",""time""
""fullscreenenter"",""1"",""4878""
","
","
","""event"",""trial"",""time""
""fullscreenenter"",""1"",""4878""
","
","","","-1","","","24","5891","510","&#9728;","elianto","#f73b6a7A","-1","-1","1","0","[]","0","1","","","5891","3","0","4","lose","no-go","0"
"pit-trial","124","1096918","0.0-7.0","battery-v0.2","","""event"",""trial"",""time""
""fullscreenenter"",""1"",""4878""
","
","
","""event"",""trial"",""time""
""fullscreenenter"",""1"",""4878""
","
","","","674.8000000715256","","","24","5891","510","&#9730;","elianto","#3366ff99"," "," ","1","+10","[1535.2000000476837]","1","1","","","5891","4","1","1","win","go","0"
"pit-trial","125","1101798","0.0-8.0","battery-v0.2","","""event"",""trial"",""time""
""fullscreenenter"",""1"",""4878""
","
","
","""event"",""trial"",""time""
""fullscreenenter"",""1"",""4878""
","
","","","-1","","","24","5891","510","&#9728;","elianto","#f73b6a7A","-1","-1","1","0","[]","0","1","","","5891","5","0","4","lose","no-go","0"
"pit-trial","126","1106690","0.0-9.0","battery-v0.2","","""event"",""trial"",""time""
""fullscreenenter"",""1"",""4878""
","
","
","""event"",""trial"",""time""
""fullscreenenter"",""1"",""4878""
","
","","","-1","","","24","5891","510","&#9752;","elianto","#f73b6a7A"," ","-1","0","-10","[]","0","1","","","5891","6","3","3","lose","go","0"
"pit-trial","127","1110608","0.0-10.0","battery-v0.2","","""event"",""trial"",""time""
""fullscreenenter"",""1"",""4878""
","
","
","""event"",""trial"",""time""
""fullscreenenter"",""1"",""4878""
","
","","","1039.2000000476837","","","24","5891","510","&#9733;","elianto","#3366ff99","-1"," ","0","0","[1893.8000000715256]","1","1","","","5891","7","2","2","win","no-go","0"
"pit-trial","128","1114285","0.0-11.0","battery-v0.2","","""event"",""trial"",""time""
""fullscreenenter"",""1"",""4878""
","
","
","""event"",""trial"",""time""
""fullscreenenter"",""1"",""4878""
","
","","","811.2000000476837","","","24","5891","510","&#9730;","elianto","#3366ff99"," "," ","1","+10","[1665.2000000476837]","1","1","","","5891","8","1","1","win","go","0"
"pit-trial","129","1118098","0.0-12.0","battery-v0.2","","""event"",""trial"",""time""
""fullscreenenter"",""1"",""4878""
","
","
","""event"",""trial"",""time""
""fullscreenenter"",""1"",""4878""
","
","","","944.5","","","24","5891","510","&#9752;","elianto","#f73b6a7A"," "," ","1","0","[1799]","1","1","","","5891","9","3","3","lose","go","0"
"pit-trial","130","1121648","0.0-13.0","battery-v0.2","","""event"",""trial"",""time""
""fullscreenenter"",""1"",""4878""
","
","
","""event"",""trial"",""time""
""fullscreenenter"",""1"",""4878""
","
","","","682.9000000953674","","","24","5891","510","&#9730;","elianto","#3366ff99"," "," ","1","+10","[1536.7000000476837]","1","1","","","5891","10","1","1","win","go","0"
"pit-trial","131","1126517","0.0-14.0","battery-v0.2","","""event"",""trial"",""time""
""fullscreenenter"",""1"",""4878""
","
","
","""event"",""trial"",""time""
""fullscreenenter"",""1"",""4878""
","
","","","-1","","","24","5891","510","&#9728;","elianto","#f73b6a7A","-1","-1","1","0","[]","0","1","","","5891","11","0","4","lose","no-go","0"
"pit-trial","132","1131218","0.0-15.0","battery-v0.2","","""event"",""trial"",""time""
""fullscreenenter"",""1"",""4878""
","
","
","""event"",""trial"",""time""
""fullscreenenter"",""1"",""4878""
","
","","","1835.1000000238419","","","24","5891","510","&#9733;","elianto","#3366ff99","-1"," ","0","0","[2686.8000000715256]","1","1","","","5891","12","2","2","win","no-go","0"
"pit-trial","133","1136092","0.0-16.0","battery-v0.2","","""event"",""trial"",""time""
""fullscreenenter"",""1"",""4878""
","
","
","""event"",""trial"",""time""
""fullscreenenter"",""1"",""4878""
","
","","","-1","","","24","5891","510","&#9728;","elianto","#f73b6a7A","-1","-1","1","0","[]","0","1","","","5891","13","0","4","lose","no-go","0"
"pit-trial","134","1139772","0.0-17.0","battery-v0.2","","""event"",""trial"",""time""
""fullscreenenter"",""1"",""4878""
","
","
","""event"",""trial"",""time""
""fullscreenenter"",""1"",""4878""
","
","","","818.2000000476837","","","24","5891","510","&#9733;","elianto","#3366ff99","-1"," ","0","0","[1670.8000000715256]","1","1","","","5891","14","2","2","win","no-go","0"
"pit-trial","135","1143419","0.0-18.0","battery-v0.2","","""event"",""trial"",""time""
""fullscreenenter"",""1"",""4878""
","
","
","""event"",""trial"",""time""
""fullscreenenter"",""1"",""4878""
","
","","","780.1000000238419","","","24","5891","510","&#9730;","elianto","#3366ff99"," "," ","1","0","[1630.9000000953674]","1","1","","","5891","15","1","1","win","go","1"
"pit-trial","136","1147044","0.0-19.0","battery-v0.2","","""event"",""trial"",""time""
""fullscreenenter"",""1"",""4878""
","
","
","""event"",""trial"",""time""
""fullscreenenter"",""1"",""4878""
","
","","","752.6000000238419","","","24","5891","510","&#9752;","elianto","#f73b6a7A"," "," ","1","0","[1603.8999999761581]","1","1","","","5891","16","3","3","lose","go","0"
"pit-trial","137","1150480","0.0-20.0","battery-v0.2","","""event"",""trial"",""time""
""fullscreenenter"",""1"",""4878""
","
","
","""event"",""trial"",""time""
""fullscreenenter"",""1"",""4878""
","
","","","568.3999999761581","","","24","5891","510","&#9728;","elianto","#f73b6a7A","-1"," ","0","-10","[1419.9000000953674]","1","1","","","5891","17","0","4","lose","no-go","0"
"pit-trial","138","1155349","0.0-21.0","battery-v0.2","","""event"",""trial"",""time""
""fullscreenenter"",""1"",""4878""
","
","
","""event"",""trial"",""time""
""fullscreenenter"",""1"",""4878""
","
","","","-1","","","24","5891","510","&#9752;","elianto","#f73b6a7A"," ","-1","0","-10","[]","0","1","","","5891","18","3","3","lose","go","0"
"pit-trial","139","1158883","0.0-22.0","battery-v0.2","","""event"",""trial"",""time""
""fullscreenenter"",""1"",""4878""
","
","
","""event"",""trial"",""time""
""fullscreenenter"",""1"",""4878""
","
","","","669.8999999761581","","","24","5891","510","&#9733;","elianto","#3366ff99","-1"," ","0","+10","[1524.1000000238419]","1","1","","","5891","19","2","2","win","no-go","1"
"pit-trial","140","1162246","0.0-23.0","battery-v0.2","","""event"",""trial"",""time""
""fullscreenenter"",""1"",""4878""
","
","
","""event"",""trial"",""time""
""fullscreenenter"",""1"",""4878""
","
","","","496.5","","","24","5891","510","&#9730;","elianto","#3366ff99"," "," ","1","+10","[1350.3999999761581]","1","1","","","5891","20","1","1","win","go","0"
"pit-instructions","141","1174927","0.0-24.0","battery-v0.2","","""event"",""trial"",""time""
""fullscreenenter"",""1"",""4878""
","
","
","""event"",""trial"",""time""
""fullscreenenter"",""1"",""4878""
","
","","[{""page_index"":0,""viewing_time"":5921.199999928474},{""page_index"":1,""viewing_time"":6754.899999976158}]","12677.599999904633","","","","","","","","","","","","","","","","","","","","","","","",""
"pit-trial","142","1178800","0.0-25.0","battery-v0.2","","""event"",""trial"",""time""
""fullscreenenter"",""1"",""4878""
","
","
","""event"",""trial"",""time""
""fullscreenenter"",""1"",""4878""
","
","","","991.3000000715256","","","24","5891","510","a","elianto","#f73b6a7A"," "," ","1","0","[1850.2000000476837]","1","2","","","5891","21","2","3","lose","go","0"
"pit-trial","143","1183670","0.0-26.0","battery-v0.2","","""event"",""trial"",""time""
""fullscreenenter"",""1"",""4878""
","
","
","""event"",""trial"",""time""
""fullscreenenter"",""1"",""4878""
","
","","","-1","","","24","5891","510","g","elianto","#f73b6a7A","-1","-1","1","0","[]","0","2","","","5891","22","3","4","lose","no-go","0"
"pit-trial","144","1187071","0.0-27.0","battery-v0.2","","""event"",""trial"",""time""
""fullscreenenter"",""1"",""4878""
","
","
","""event"",""trial"",""time""
""fullscreenenter"",""1"",""4878""
","
","","","525.8999999761581","","","24","5891","510","l","elianto","#3366ff99","-1"," ","0","0","[1384.9000000953674]","1","2","","","5891","23","1","2","win","no-go","0"
"pit-trial","145","1191940","0.0-28.0","battery-v0.2","","""event"",""trial"",""time""
""fullscreenenter"",""1"",""4878""
","
","
","""event"",""trial"",""time""
""fullscreenenter"",""1"",""4878""
","
","","","-1","","","24","5891","510","u","elianto","#f73b6a7A"," ","-1","0","0","[]","0","2","","","5891","24","0","3","lose","go","1"
"pit-trial","146","1195402","0.0-29.0","battery-v0.2","","""event"",""trial"",""time""
""fullscreenenter"",""1"",""4878""
","
","
","""event"",""trial"",""time""
""fullscreenenter"",""1"",""4878""
","
","","","575.7999999523163","","","24","5891","510","l","elianto","#3366ff99","-1"," ","0","+10","[1434.8000000715256]","1","2","","","5891","25","1","2","win","no-go","1"
"pit-trial","147","1200291","0.0-30.0","battery-v0.2","","""event"",""trial"",""time""
""fullscreenenter"",""1"",""4878""
","
","
","""event"",""trial"",""time""
""fullscreenenter"",""1"",""4878""
","
","","","-1","","","24","5891","510","g","elianto","#f73b6a7A","-1","-1","1","0","[]","0","2","","","5891","26","3","4","lose","no-go","0"
"pit-trial","148","1203722","0.0-31.0","battery-v0.2","","""event"",""trial"",""time""
""fullscreenenter"",""1"",""4878""
","
","
","""event"",""trial"",""time""
""fullscreenenter"",""1"",""4878""
","
","","","551.1000000238419","","","24","5891","510","u","elianto","#f73b6a7A"," "," ","1","0","[1404.6000000238419]","1","2","","","5891","27","0","3","lose","go","0"
"pit-trial","149","1208591","0.0-32.0","battery-v0.2","","""event"",""trial"",""time""
""fullscreenenter"",""1"",""4878""
","
","
","""event"",""trial"",""time""
""fullscreenenter"",""1"",""4878""
","
","","","-1","","","24","5891","510","a","elianto","#f73b6a7A"," ","-1","0","-10","[]","0","2","","","5891","28","2","3","lose","go","0"
"pit-trial","150","1212164","0.0-33.0","battery-v0.2","","""event"",""trial"",""time""
""fullscreenenter"",""1"",""4878""
","
","
","""event"",""trial"",""time""
""fullscreenenter"",""1"",""4878""
","
","","","699.5","","","24","5891","510","l","elianto","#3366ff99","-1"," ","0","0","[1553]","1","2","","","5891","29","1","2","win","no-go","0"
"pit-trial","151","1215964","0.0-34.0","battery-v0.2","","""event"",""trial"",""time""
""fullscreenenter"",""1"",""4878""
","
","
","""event"",""trial"",""time""
""fullscreenenter"",""1"",""4878""
","
","","","926.5","","","24","5891","510","u","elianto","#f73b6a7A"," "," ","1","0","[1780.6999999284744]","1","2","","","5891","30","0","3","lose","go","0"
"pit-trial","152","1220828","0.0-35.0","battery-v0.2","","""event"",""trial"",""time""
""fullscreenenter"",""1"",""4878""
","
","
","""event"",""trial"",""time""
""fullscreenenter"",""1"",""4878""
","
","","","-1","","","24","5891","510","a","elianto","#f73b6a7A"," ","-1","0","-10","[]","0","2","","","5891","31","2","3","lose","go","0"
"pit-trial","153","1224736","0.0-36.0","battery-v0.2","","""event"",""trial"",""time""
""fullscreenenter"",""1"",""4878""
","
","
","""event"",""trial"",""time""
""fullscreenenter"",""1"",""4878""
","
","","","1045.2999999523163","","","24","5891","510","g","elianto","#f73b6a7A","-1"," ","0","-10","[1897.6999999284744]","1","2","","","5891","32","3","4","lose","no-go","0"
"pit-trial","154","1228163","0.0-37.0","battery-v0.2","","""event"",""trial"",""time""
""fullscreenenter"",""1"",""4878""
","
","
","""event"",""trial"",""time""
""fullscreenenter"",""1"",""4878""
","
","","","555","","","24","5891","510","l","elianto","#3366ff99","-1"," ","0","0","[1409.7999999523163]","1","2","","","5891","33","1","2","win","no-go","0"
"pit-trial","155","1231998","0.0-38.0","battery-v0.2","","""event"",""trial"",""time""
""fullscreenenter"",""1"",""4878""
","
","
","""event"",""trial"",""time""
""fullscreenenter"",""1"",""4878""
","
","","","968.2999999523163","","","24","5891","510","u","elianto","#f73b6a7A"," "," ","1","-10","[1822.5]","1","2","","","5891","34","0","3","lose","go","1"
"pit-trial","156","1236870","0.0-39.0","battery-v0.2","","""event"",""trial"",""time""
""fullscreenenter"",""1"",""4878""
","
","
","""event"",""trial"",""time""
""fullscreenenter"",""1"",""4878""
","
","","","-1","","","24","5891","510","a","elianto","#f73b6a7A"," ","-1","0","-10","[]","0","2","","","5891","35","2","3","lose","go","0"
"pit-trial","157","1241744","0.0-40.0","battery-v0.2","","""event"",""trial"",""time""
""fullscreenenter"",""1"",""4878""
","
","
","""event"",""trial"",""time""
""fullscreenenter"",""1"",""4878""
","
","","","-1","","","24","5891","510","g","elianto","#f73b6a7A","-1","-1","1","0","[]","0","2","","","5891","36","3","4","lose","no-go","0"
"pit-trial","158","1246615","0.0-41.0","battery-v0.2","","""event"",""trial"",""time""
""fullscreenenter"",""1"",""4878""
","
","
","""event"",""trial"",""time""
""fullscreenenter"",""1"",""4878""
","
","","","-1","","","24","5891","510","a","elianto","#f73b6a7A"," ","-1","0","-10","[]","0","2","","","5891","37","2","3","lose","go","0"
"pit-trial","159","1249972","0.0-42.0","battery-v0.2","","""event"",""trial"",""time""
""fullscreenenter"",""1"",""4878""
","
","
","""event"",""trial"",""time""
""fullscreenenter"",""1"",""4878""
","
","","","489.10000002384186","","","24","5891","510","l","elianto","#3366ff99","-1"," ","0","0","[1342.7999999523163]","1","2","","","5891","38","1","2","win","no-go","0"
"pit-trial","160","1254850","0.0-43.0","battery-v0.2","","""event"",""trial"",""time""
""fullscreenenter"",""1"",""4878""
","
","
","""event"",""trial"",""time""
""fullscreenenter"",""1"",""4878""
","
","","","-1","","","24","5891","510","u","elianto","#f73b6a7A"," ","-1","0","0","[]","0","2","","","5891","39","0","3","lose","go","1"
"pit-trial","161","1259721","0.0-44.0","battery-v0.2","","""event"",""trial"",""time""
""fullscreenenter"",""1"",""4878""
","
","
","""event"",""trial"",""time""
""fullscreenenter"",""1"",""4878""
","
","","","-1","","","24","5891","510","g","elianto","#f73b6a7A","-1","-1","1","-10","[]","0","2","","","5891","40","3","4","lose","no-go","1"
"pit-trial","162","1263324","0.0-45.0","battery-v0.2","","""event"",""trial"",""time""
""fullscreenenter"",""1"",""4878""
","
","
","""event"",""trial"",""time""
""fullscreenenter"",""1"",""4878""
","
","","","741.0999999046326","","","24","5891","510","l","elianto","#3366ff99","-1"," ","0","0","[1593.5]","1","2","","","5891","41","1","2","win","no-go","0"
"pit-trial","163","1268202","0.0-46.0","battery-v0.2","","""event"",""trial"",""time""
""fullscreenenter"",""1"",""4878""
","
","
","""event"",""trial"",""time""
""fullscreenenter"",""1"",""4878""
","
","","","-1","","","24","5891","510","g","elianto","#f73b6a7A","-1","-1","1","0","[]","0","2","","","5891","42","3","4","lose","no-go","0"
"pit-trial","164","1273082","0.0-47.0","battery-v0.2","","""event"",""trial"",""time""
""fullscreenenter"",""1"",""4878""
","
","
","""event"",""trial"",""time""
""fullscreenenter"",""1"",""4878""
","
","","","-1","","","24","5891","510","u","elianto","#f73b6a7A"," ","-1","0","-10","[]","0","2","","","5891","43","0","3","lose","go","0"
"pit-trial","165","1277955","0.0-48.0","battery-v0.2","","""event"",""trial"",""time""
""fullscreenenter"",""1"",""4878""
","
","
","""event"",""trial"",""time""
""fullscreenenter"",""1"",""4878""
","
","","","-1","","","24","5891","510","a","elianto","#f73b6a7A"," ","-1","0","-10","[]","0","2","","","5891","44","2","3","lose","go","0"
"pit-trial","166","1281862","0.0-49.0","battery-v0.2","","""event"",""trial"",""time""
""fullscreenenter"",""1"",""4878""
","
","
","""event"",""trial"",""time""
""fullscreenenter"",""1"",""4878""
","
","","","1031.3999999761581","","","24","5891","510","a","elianto","#f73b6a7A"," "," ","1","0","[1889.2999999523163]","1","2","","","5891","45","2","3","lose","go","0"
"pit-trial","167","1285338","0.0-50.0","battery-v0.2","","""event"",""trial"",""time""
""fullscreenenter"",""1"",""4878""
","
","
","""event"",""trial"",""time""
""fullscreenenter"",""1"",""4878""
","
","","","606.5","","","24","5891","510","l","elianto","#3366ff99","-1"," ","0","+10","[1460.2999999523163]","1","2","","","5891","46","1","2","win","no-go","1"
"pit-trial","168","1290206","0.0-51.0","battery-v0.2","","""event"",""trial"",""time""
""fullscreenenter"",""1"",""4878""
","
","
","""event"",""trial"",""time""
""fullscreenenter"",""1"",""4878""
","
","","","-1","","","24","5891","510","g","elianto","#f73b6a7A","-1","-1","1","0","[]","0","2","","","5891","47","3","4","lose","no-go","0"
"pit-trial","169","1295086","0.0-52.0","battery-v0.2","","""event"",""trial"",""time""
""fullscreenenter"",""1"",""4878""
","
","
","""event"",""trial"",""time""
""fullscreenenter"",""1"",""4878""
","
","","","-1","","","24","5891","510","u","elianto","#f73b6a7A"," ","-1","0","-10","[]","0","2","","","5891","48","0","3","lose","go","0"
"pit-trial","170","1299033","0.0-53.0","battery-v0.2","","""event"",""trial"",""time""
""fullscreenenter"",""1"",""4878""
","
","
","""event"",""trial"",""time""
""fullscreenenter"",""1"",""4878""
","
","","","1083","","","24","5891","510","a","elianto","#f73b6a7A"," "," ","1","0","[1936.6999999284744]","1","2","","","5891","49","2","3","lose","go","0"
"pit-trial","171","1303903","0.0-54.0","battery-v0.2","","""event"",""trial"",""time""
""fullscreenenter"",""1"",""4878""
","
","
","""event"",""trial"",""time""
""fullscreenenter"",""1"",""4878""
","
","","","-1","","","24","5891","510","u","elianto","#f73b6a7A"," ","-1","0","-10","[]","0","2","","","5891","50","0","3","lose","go","0"
"pit-trial","172","1307446","0.0-55.0","battery-v0.2","","""event"",""trial"",""time""
""fullscreenenter"",""1"",""4878""
","
","
","""event"",""trial"",""time""
""fullscreenenter"",""1"",""4878""
","
","","","677.9000000953674","","","24","5891","510","l","elianto","#3366ff99","-1"," ","0","0","[1531.2000000476837]","1","2","","","5891","51","1","2","win","no-go","0"
"pit-trial","173","1312321","0.0-56.0","battery-v0.2","","""event"",""trial"",""time""
""fullscreenenter"",""1"",""4878""
","
","
","""event"",""trial"",""time""
""fullscreenenter"",""1"",""4878""
","
","","","-1","","","24","5891","510","g","elianto","#f73b6a7A","-1","-1","1","0","[]","0","2","","","5891","52","3","4","lose","no-go","0"
"pit-trial","174","1317192","0.0-57.0","battery-v0.2","","""event"",""trial"",""time""
""fullscreenenter"",""1"",""4878""
","
","
","""event"",""trial"",""time""
""fullscreenenter"",""1"",""4878""
","
","","","-1","","","24","5891","510","u","elianto","#f73b6a7A"," ","-1","0","-10","[]","0","2","","","5891","53","0","3","lose","go","0"
"pit-trial","175","1321143","0.0-58.0","battery-v0.2","","""event"",""trial"",""time""
""fullscreenenter"",""1"",""4878""
","
","
","""event"",""trial"",""time""
""fullscreenenter"",""1"",""4878""
","
","","","1080.5","","","24","5891","510","a","elianto","#f73b6a7A"," "," ","1","0","[1934.7000000476837]","1","2","","","5891","54","2","3","lose","go","0"
"pit-trial","176","1325060","0.0-59.0","battery-v0.2","","""event"",""trial"",""time""
""fullscreenenter"",""1"",""4878""
","
","
","""event"",""trial"",""time""
""fullscreenenter"",""1"",""4878""
","
","","","1048.3999999761581","","","24","5891","510","g","elianto","#f73b6a7A","-1"," ","0","0","[1903.2000000476837]","1","2","","","5891","55","3","4","lose","no-go","1"
"pit-trial","177","1328765","0.0-60.0","battery-v0.2","","""event"",""trial"",""time""
""fullscreenenter"",""1"",""4878""
","
","
","""event"",""trial"",""time""
""fullscreenenter"",""1"",""4878""
","
","","","842.2000000476837","","","24","5891","510","l","elianto","#3366ff99","-1"," ","0","0","[1696.8000000715256]","1","2","","","5891","56","1","2","win","no-go","0"
"pit-trial","178","1333647","0.0-61.0","battery-v0.2","","""event"",""trial"",""time""
""fullscreenenter"",""1"",""4878""
","
","
","""event"",""trial"",""time""
""fullscreenenter"",""1"",""4878""
","
","","","-1","","","24","5891","510","u","elianto","#f73b6a7A"," ","-1","0","-10","[]","0","2","","","5891","57","0","3","lose","go","0"
"pit-trial","179","1337071","0.0-62.0","battery-v0.2","","""event"",""trial"",""time""
""fullscreenenter"",""1"",""4878""
","
","
","""event"",""trial"",""time""
""fullscreenenter"",""1"",""4878""
","
","","","556.1000000238419","","","24","5891","510","p","elianto","#3366ff99"," "," ","1","+10","[1410]","1","2","","","5891","58","4","1","win","go","0"
"pit-trial","180","1341946","0.0-63.0","battery-v0.2","","""event"",""trial"",""time""
""fullscreenenter"",""1"",""4878""
","
","
","""event"",""trial"",""time""
""fullscreenenter"",""1"",""4878""
","
","","","-1","","","24","5891","510","a","elianto","#f73b6a7A"," ","-1","0","-10","[]","0","2","","","5891","59","2","3","lose","go","0"
"pit-trial","181","1345993","0.0-64.0","battery-v0.2","","""event"",""trial"",""time""
""fullscreenenter"",""1"",""4878""
","
","
","""event"",""trial"",""time""
""fullscreenenter"",""1"",""4878""
","
","","","1186.8999999761581","","","24","5891","510","g","elianto","#f73b6a7A","-1"," ","0","-10","[2040.6000000238419]","1","2","","","5891","60","3","4","lose","no-go","0"
"pit-trial","182","1349439","0.0-65.0","battery-v0.2","","""event"",""trial"",""time""
""fullscreenenter"",""1"",""4878""
","
","
","""event"",""trial"",""time""
""fullscreenenter"",""1"",""4878""
","
","","","579","","","24","5891","510","l","elianto","#3366ff99","-1"," ","0","0","[1433.7000000476837]","1","2","","","5891","61","1","2","win","no-go","0"
"pit-trial","183","1353044","0.0-66.0","battery-v0.2","","""event"",""trial"",""time""
""fullscreenenter"",""1"",""4878""
","
","
","""event"",""trial"",""time""
""fullscreenenter"",""1"",""4878""
","
","","","733.1000000238419","","","24","5891","510","p","elianto","#3366ff99"," "," ","1","+10","[1587]","1","2","","","5891","62","4","1","win","go","0"
"pit-trial","184","1357913","0.0-67.0","battery-v0.2","","""event"",""trial"",""time""
""fullscreenenter"",""1"",""4878""
","
","
","""event"",""trial"",""time""
""fullscreenenter"",""1"",""4878""
","
","","","-1","","","24","5891","510","a","elianto","#f73b6a7A"," ","-1","0","-10","[]","0","2","","","5891","63","2","3","lose","go","0"
"pit-trial","185","1362788","0.0-68.0","battery-v0.2","","""event"",""trial"",""time""
""fullscreenenter"",""1"",""4878""
","
","
","""event"",""trial"",""time""
""fullscreenenter"",""1"",""4878""
","
","","","-1","","","24","5891","510","g","elianto","#f73b6a7A","-1","-1","1","-10","[]","0","2","","","5891","64","3","4","lose","no-go","1"
"pit-trial","186","1366412","0.0-69.0","battery-v0.2","","""event"",""trial"",""time""
""fullscreenenter"",""1"",""4878""
","
","
","""event"",""trial"",""time""
""fullscreenenter"",""1"",""4878""
","
","","","755.3999999761581","","","24","5891","510","s","elianto","#3366ff99","-1"," ","0","0","[1609.1000000238419]","1","2","","","5891","65","5","2","win","no-go","0"
"pit-trial","187","1369972","0.0-70.0","battery-v0.2","","""event"",""trial"",""time""
""fullscreenenter"",""1"",""4878""
","
","
","""event"",""trial"",""time""
""fullscreenenter"",""1"",""4878""
","
","","","690.1000000238419","","","24","5891","510","l","elianto","#3366ff99","-1"," ","0","0","[1544.2999999523163]","1","2","","","5891","66","1","2","win","no-go","0"
"pit-trial","188","1373476","0.0-71.0","battery-v0.2","","""event"",""trial"",""time""
""fullscreenenter"",""1"",""4878""
","
","
","""event"",""trial"",""time""
""fullscreenenter"",""1"",""4878""
","
","","","631.6000000238419","","","24","5891","510","p","elianto","#3366ff99"," "," ","1","+10","[1485.2000000476837]","1","2","","","5891","67","4","1","win","go","0"
"pit-trial","189","1378352","0.0-72.0","battery-v0.2","","""event"",""trial"",""time""
""fullscreenenter"",""1"",""4878""
","
","
","""event"",""trial"",""time""
""fullscreenenter"",""1"",""4878""
","
","","","-1","","","24","5891","510","g","elianto","#f73b6a7A","-1","-1","1","0","[]","0","2","","","5891","68","3","4","lose","no-go","0"
"pit-trial","190","1383223","0.0-73.0","battery-v0.2","","""event"",""trial"",""time""
""fullscreenenter"",""1"",""4878""
","
","
","""event"",""trial"",""time""
""fullscreenenter"",""1"",""4878""
","
","","","-1","","","24","5891","510","a","elianto","#f73b6a7A"," ","-1","0","-10","[]","0","2","","","5891","69","2","3","lose","go","0"
"pit-trial","191","1388107","0.0-74.0","battery-v0.2","","""event"",""trial"",""time""
""fullscreenenter"",""1"",""4878""
","
","
","""event"",""trial"",""time""
""fullscreenenter"",""1"",""4878""
","
","","","-1","","","24","5891","510","p","elianto","#3366ff99"," ","-1","0","0","[]","0","2","","","5891","70","4","1","win","go","0"
"pit-trial","192","1392980","0.0-75.0","battery-v0.2","","""event"",""trial"",""time""
""fullscreenenter"",""1"",""4878""
","
","
","""event"",""trial"",""time""
""fullscreenenter"",""1"",""4878""
","
","","","-1","","","24","5891","510","l","elianto","#3366ff99","-1","-1","1","+10","[3040.5999999046326]","1","2","","","5891","71","1","2","win","no-go","0"
"pit-trial","193","1396503","0.0-76.0","battery-v0.2","","""event"",""trial"",""time""
""fullscreenenter"",""1"",""4878""
","
","
","""event"",""trial"",""time""
""fullscreenenter"",""1"",""4878""
","
","","","653","","","24","5891","510","s","elianto","#3366ff99","-1"," ","0","0","[1506.7999999523163]","1","2","","","5891","72","5","2","win","no-go","0"
"pit-trial","194","1400234","0.0-77.0","battery-v0.2","","""event"",""trial"",""time""
""fullscreenenter"",""1"",""4878""
","
","
","""event"",""trial"",""time""
""fullscreenenter"",""1"",""4878""
","
","","","868.7999999523163","","","24","5891","510","s","elianto","#3366ff99","-1"," ","0","0","[1724.4000000953674]","1","2","","","5891","73","5","2","win","no-go","0"
"pit-trial","195","1404556","0.0-78.0","battery-v0.2","","""event"",""trial"",""time""
""fullscreenenter"",""1"",""4878""
","
","
","""event"",""trial"",""time""
""fullscreenenter"",""1"",""4878""
","
","","","1450.3000000715256","","","24","5891","510","l","elianto","#3366ff99","-1"," ","0","0","[2303.899999976158]","1","2","","","5891","74","1","2","win","no-go","0"
"pit-trial","196","1407964","0.0-79.0","battery-v0.2","","""event"",""trial"",""time""
""fullscreenenter"",""1"",""4878""
","
","
","""event"",""trial"",""time""
""fullscreenenter"",""1"",""4878""
","
","","","548.6999999284744","","","24","5891","510","p","elianto","#3366ff99"," "," ","1","+10","[1402]","1","2","","","5891","75","4","1","win","go","0"
"pit-trial","197","1412835","0.0-80.0","battery-v0.2","","""event"",""trial"",""time""
""fullscreenenter"",""1"",""4878""
","
","
","""event"",""trial"",""time""
""fullscreenenter"",""1"",""4878""
","
","","","-1","","","24","5891","510","g","elianto","#f73b6a7A","-1","-1","1","0","[]","0","2","","","5891","76","3","4","lose","no-go","0"
"pit-trial","198","1417707","0.0-81.0","battery-v0.2","","""event"",""trial"",""time""
""fullscreenenter"",""1"",""4878""
","
","
","""event"",""trial"",""time""
""fullscreenenter"",""1"",""4878""
","
","","","-1","","","24","5891","510","g","elianto","#f73b6a7A","-1","-1","1","-10","[]","0","2","","","5891","77","3","4","lose","no-go","1"
"pit-trial","199","1421665","0.0-82.0","battery-v0.2","","""event"",""trial"",""time""
""fullscreenenter"",""1"",""4878""
","
","
","""event"",""trial"",""time""
""fullscreenenter"",""1"",""4878""
","
","","","1088","","","24","5891","510","p","elianto","#3366ff99"," "," ","1","+10","[1942.1000000238419]","1","2","","","5891","78","4","1","win","go","0"
"pit-trial","200","1425599","0.0-83.0","battery-v0.2","","""event"",""trial"",""time""
""fullscreenenter"",""1"",""4878""
","
","
","""event"",""trial"",""time""
""fullscreenenter"",""1"",""4878""
","
","","","1070.3999999761581","","","24","5891","510","s","elianto","#3366ff99","-1"," ","0","0","[1923.1999999284744]","1","2","","","5891","79","5","2","win","no-go","0"
"pit-trial","201","1429816","0.0-84.0","battery-v0.2","","""event"",""trial"",""time""
""fullscreenenter"",""1"",""4878""
","
","
","""event"",""trial"",""time""
""fullscreenenter"",""1"",""4878""
","
","","","1344.6999999284744","","","24","5891","510","p","elianto","#3366ff99"," "," ","1","+10","[2199]","1","2","","","5891","80","4","1","win","go","0"
"pit-trial","202","1434697","0.0-85.0","battery-v0.2","","""event"",""trial"",""time""
""fullscreenenter"",""1"",""4878""
","
","
","""event"",""trial"",""time""
""fullscreenenter"",""1"",""4878""
","
","","","-1","","","24","5891","510","g","elianto","#f73b6a7A","-1","-1","1","0","[]","0","2","","","5891","81","3","4","lose","no-go","0"
"pit-trial","203","1438117","0.0-86.0","battery-v0.2","","""event"",""trial"",""time""
""fullscreenenter"",""1"",""4878""
","
","
","""event"",""trial"",""time""
""fullscreenenter"",""1"",""4878""
","
","","","547.2999999523163","","","24","5891","510","p","elianto","#3366ff99"," "," ","1","+10","[1401.1000000238419]","1","2","","","5891","82","4","1","win","go","0"
"pit-trial","204","1442987","0.0-87.0","battery-v0.2","","""event"",""trial"",""time""
""fullscreenenter"",""1"",""4878""
","
","
","""event"",""trial"",""time""
""fullscreenenter"",""1"",""4878""
","
","","","-1","","","24","5891","510","e","elianto","#f73b6a7A","-1","-1","1","-10","[]","0","2","","","5891","83","7","4","lose","no-go","1"
"pit-trial","205","1446415","0.0-88.0","battery-v0.2","","""event"",""trial"",""time""
""fullscreenenter"",""1"",""4878""
","
","
","""event"",""trial"",""time""
""fullscreenenter"",""1"",""4878""
","
","","","557.3000000715256","","","24","5891","510","s","elianto","#3366ff99","-1"," ","0","0","[1409.6000000238419]","1","2","","","5891","84","5","2","win","no-go","0"
"pit-trial","206","1451288","0.0-89.0","battery-v0.2","","""event"",""trial"",""time""
""fullscreenenter"",""1"",""4878""
","
","
","""event"",""trial"",""time""
""fullscreenenter"",""1"",""4878""
","
","","","-1","","","24","5891","510","w","elianto","#f73b6a7A"," ","-1","0","-10","[]","0","2","","","5891","85","6","3","lose","go","0"
"pit-trial","207","1454683","0.0-90.0","battery-v0.2","","""event"",""trial"",""time""
""fullscreenenter"",""1"",""4878""
","
","
","""event"",""trial"",""time""
""fullscreenenter"",""1"",""4878""
","
","","","526.7000000476837","","","24","5891","510","s","elianto","#3366ff99","-1"," ","0","0","[1380.5]","1","2","","","5891","86","5","2","win","no-go","0"
"pit-trial","208","1459556","0.0-91.0","battery-v0.2","","""event"",""trial"",""time""
""fullscreenenter"",""1"",""4878""
","
","
","""event"",""trial"",""time""
""fullscreenenter"",""1"",""4878""
","
","","","-1","","","24","5891","510","e","elianto","#f73b6a7A","-1","-1","1","0","[]","0","2","","","5891","87","7","4","lose","no-go","0"
"pit-trial","209","1463041","0.0-92.0","battery-v0.2","","""event"",""trial"",""time""
""fullscreenenter"",""1"",""4878""
","
","
","""event"",""trial"",""time""
""fullscreenenter"",""1"",""4878""
","
","","","617.6000000238419","","","24","5891","510","p","elianto","#3366ff99"," "," ","1","+10","[1471.5]","1","2","","","5891","88","4","1","win","go","0"
"pit-trial","210","1467908","0.0-93.0","battery-v0.2","","""event"",""trial"",""time""
""fullscreenenter"",""1"",""4878""
","
","
","""event"",""trial"",""time""
""fullscreenenter"",""1"",""4878""
","
","","","-1","","","24","5891","510","w","elianto","#f73b6a7A"," ","-1","0","0","[]","0","2","","","5891","89","6","3","lose","go","1"
"pit-trial","211","1471345","0.0-94.0","battery-v0.2","","""event"",""trial"",""time""
""fullscreenenter"",""1"",""4878""
","
","
","""event"",""trial"",""time""
""fullscreenenter"",""1"",""4878""
","
","","","566.3999999761581","","","24","5891","510","e","elianto","#f73b6a7A","-1"," ","0","-10","[1420.2999999523163]","1","2","","","5891","90","7","4","lose","no-go","0"
"pit-trial","212","1474939","0.0-95.0","battery-v0.2","","""event"",""trial"",""time""
""fullscreenenter"",""1"",""4878""
","
","
","""event"",""trial"",""time""
""fullscreenenter"",""1"",""4878""
","
","","","717.8000000715256","","","24","5891","510","p","elianto","#3366ff99"," "," ","1","+10","[1572.2000000476837]","1","2","","","5891","91","4","1","win","go","0"
"pit-trial","213","1478411","0.0-96.0","battery-v0.2","","""event"",""trial"",""time""
""fullscreenenter"",""1"",""4878""
","
","
","""event"",""trial"",""time""
""fullscreenenter"",""1"",""4878""
","
","","","606.8999999761581","","","24","5891","510","s","elianto","#3366ff99","-1"," ","0","+10","[1459.3999999761581]","1","2","","","5891","92","5","2","win","no-go","1"
"pit-trial","214","1481855","0.0-97.0","battery-v0.2","","""event"",""trial"",""time""
""fullscreenenter"",""1"",""4878""
","
","
","""event"",""trial"",""time""
""fullscreenenter"",""1"",""4878""
","
","","","576","","","24","5891","510","s","elianto","#3366ff99","-1"," ","0","0","[1427.5]","1","2","","","5891","93","5","2","win","no-go","0"
"pit-trial","215","1485703","0.0-98.0","battery-v0.2","","""event"",""trial"",""time""
""fullscreenenter"",""1"",""4878""
","
","
","""event"",""trial"",""time""
""fullscreenenter"",""1"",""4878""
","
","","","979.7999999523163","","","24","5891","510","e","elianto","#f73b6a7A","-1"," ","0","-10","[1833.1999999284744]","1","2","","","5891","94","7","4","lose","no-go","0"
"pit-trial","216","1489056","0.0-99.0","battery-v0.2","","""event"",""trial"",""time""
""fullscreenenter"",""1"",""4878""
","
","
","""event"",""trial"",""time""
""fullscreenenter"",""1"",""4878""
","
","","","480.8000000715256","","","24","5891","510","d","elianto","#3366ff99"," "," ","1","+10","[1334.8000000715256]","1","2","","","5891","95","8","1","win","go","0"
"pit-trial","217","1493936","0.0-100.0","battery-v0.2","","""event"",""trial"",""time""
""fullscreenenter"",""1"",""4878""
","
","
","""event"",""trial"",""time""
""fullscreenenter"",""1"",""4878""
","
","","","-1","","","24","5891","510","w","elianto","#f73b6a7A"," ","-1","0","-10","[]","0","2","","","5891","96","6","3","lose","go","0"
"pit-trial","218","1498813","0.0-101.0","battery-v0.2","","""event"",""trial"",""time""
""fullscreenenter"",""1"",""4878""
","
","
","""event"",""trial"",""time""
""fullscreenenter"",""1"",""4878""
","
","","","-1","","","24","5891","510","e","elianto","#f73b6a7A","-1","-1","1","0","[]","0","2","","","5891","97","7","4","lose","no-go","0"
"pit-trial","219","1502184","0.0-102.0","battery-v0.2","","""event"",""trial"",""time""
""fullscreenenter"",""1"",""4878""
","
","
","""event"",""trial"",""time""
""fullscreenenter"",""1"",""4878""
","
","","","503.89999997615814","","","24","5891","510","d","elianto","#3366ff99"," "," ","1","+10","[1357.6999999284744]","1","2","","","5891","98","8","1","win","go","0"
"pit-trial","220","1507058","0.0-103.0","battery-v0.2","","""event"",""trial"",""time""
""fullscreenenter"",""1"",""4878""
","
","
","""event"",""trial"",""time""
""fullscreenenter"",""1"",""4878""
","
","","","-1","","","24","5891","510","w","elianto","#f73b6a7A"," ","-1","0","-10","[]","0","2","","","5891","99","6","3","lose","go","0"
"pit-trial","221","1510499","0.0-104.0","battery-v0.2","","""event"",""trial"",""time""
""fullscreenenter"",""1"",""4878""
","
","
","""event"",""trial"",""time""
""fullscreenenter"",""1"",""4878""
","
","","","579.1000000238419","","","24","5891","510","s","elianto","#3366ff99","-1"," ","0","0","[1431.5]","1","2","","","5891","100","5","2","win","no-go","0"
"pit-trial","222","1515373","0.0-105.0","battery-v0.2","","""event"",""trial"",""time""
""fullscreenenter"",""1"",""4878""
","
","
","""event"",""trial"",""time""
""fullscreenenter"",""1"",""4878""
","
","","","-1","","","24","5891","510","e","elianto","#f73b6a7A","-1","-1","1","0","[]","0","2","","","5891","101","7","4","lose","no-go","0"
"pit-trial","223","1518831","0.0-106.0","battery-v0.2","","""event"",""trial"",""time""
""fullscreenenter"",""1"",""4878""
","
","
","""event"",""trial"",""time""
""fullscreenenter"",""1"",""4878""
","
","","","593.2000000476837","","","24","5891","510","s","elianto","#3366ff99","-1"," ","0","0","[1447.2999999523163]","1","2","","","5891","102","5","2","win","no-go","0"
"pit-trial","224","1522214","0.0-107.0","battery-v0.2","","""event"",""trial"",""time""
""fullscreenenter"",""1"",""4878""
","
","
","""event"",""trial"",""time""
""fullscreenenter"",""1"",""4878""
","
","","","513.5","","","24","5891","510","d","elianto","#3366ff99"," "," ","1","+10","[1367.3000000715256]","1","2","","","5891","103","8","1","win","go","0"
"pit-trial","225","1525617","0.0-108.0","battery-v0.2","","""event"",""trial"",""time""
""fullscreenenter"",""1"",""4878""
","
","
","""event"",""trial"",""time""
""fullscreenenter"",""1"",""4878""
","
","","","531.8999999761581","","","24","5891","510","j","elianto","#3366ff99"," "," ","1","+10","[1385.3999999761581]","1","2","","","5891","104","9","1","win","go","0"
"pit-trial","226","1529029","0.0-109.0","battery-v0.2","","""event"",""trial"",""time""
""fullscreenenter"",""1"",""4878""
","
","
","""event"",""trial"",""time""
""fullscreenenter"",""1"",""4878""
","
","","","544.8999999761581","","","24","5891","510","j","elianto","#3366ff99"," "," ","1","+10","[1403.6999999284744]","1","2","","","5891","105","9","1","win","go","0"
"pit-trial","227","1532422","0.0-110.0","battery-v0.2","","""event"",""trial"",""time""
""fullscreenenter"",""1"",""4878""
","
","
","""event"",""trial"",""time""
""fullscreenenter"",""1"",""4878""
","
","","","527","","","24","5891","510","p","elianto","#3366ff99"," "," ","1","+10","[1381.1000000238419]","1","2","","","5891","106","4","1","win","go","0"
"pit-trial","228","1535749","0.0-111.0","battery-v0.2","","""event"",""trial"",""time""
""fullscreenenter"",""1"",""4878""
","
","
","""event"",""trial"",""time""
""fullscreenenter"",""1"",""4878""
","
","","","464","","","24","5891","510","d","elianto","#3366ff99"," "," ","1","+10","[1317.6000000238419]","1","2","","","5891","107","8","1","win","go","0"
"pit-trial","229","1540627","0.0-112.0","battery-v0.2","","""event"",""trial"",""time""
""fullscreenenter"",""1"",""4878""
","
","
","""event"",""trial"",""time""
""fullscreenenter"",""1"",""4878""
","
","","","-1","","","24","5891","510","w","elianto","#f73b6a7A"," ","-1","0","0","[]","0","2","","","5891","108","6","3","lose","go","1"
"pit-trial","230","1544130","0.0-113.0","battery-v0.2","","""event"",""trial"",""time""
""fullscreenenter"",""1"",""4878""
","
","
","""event"",""trial"",""time""
""fullscreenenter"",""1"",""4878""
","
","","","632.5","","","24","5891","510","s","elianto","#3366ff99","-1"," ","0","0","[1483.8999999761581]","1","2","","","5891","109","5","2","win","no-go","0"
"pit-trial","231","1547550","0.0-114.0","battery-v0.2","","""event"",""trial"",""time""
""fullscreenenter"",""1"",""4878""
","
","
","""event"",""trial"",""time""
""fullscreenenter"",""1"",""4878""
","
","","","555.8999999761581","","","24","5891","510","j","elianto","#3366ff99"," "," ","1","0","[1409.5999999046326]","1","2","","","5891","110","9","1","win","go","1"
"pit-trial","232","1552423","0.0-115.0","battery-v0.2","","""event"",""trial"",""time""
""fullscreenenter"",""1"",""4878""
","
","
","""event"",""trial"",""time""
""fullscreenenter"",""1"",""4878""
","
","","","-1","","","24","5891","510","w","elianto","#f73b6a7A"," ","-1","0","-10","[]","0","2","","","5891","111","6","3","lose","go","0"
"pit-trial","233","1555783","0.0-116.0","battery-v0.2","","""event"",""trial"",""time""
""fullscreenenter"",""1"",""4878""
","
","
","""event"",""trial"",""time""
""fullscreenenter"",""1"",""4878""
","
","","","494.2000000476837","","","24","5891","510","d","elianto","#3366ff99"," "," ","1","0","[1348.1000000238419]","1","2","","","5891","112","8","1","win","go","1"
"pit-trial","234","1559274","0.0-117.0","battery-v0.2","","""event"",""trial"",""time""
""fullscreenenter"",""1"",""4878""
","
","
","""event"",""trial"",""time""
""fullscreenenter"",""1"",""4878""
","
","","","622.8999999761581","","","24","5891","510","w","elianto","#f73b6a7A"," "," ","1","0","[1476.8999999761581]","1","2","","","5891","113","6","3","lose","go","0"
"pit-trial","235","1562645","0.0-118.0","battery-v0.2","","""event"",""trial"",""time""
""fullscreenenter"",""1"",""4878""
","
","
","""event"",""trial"",""time""
""fullscreenenter"",""1"",""4878""
","
","","","501.2999999523163","","","24","5891","510","s","elianto","#3366ff99","-1"," ","0","0","[1355.3999999761581]","1","2","","","5891","114","5","2","win","no-go","0"
"pit-trial","236","1566089","0.0-119.0","battery-v0.2","","""event"",""trial"",""time""
""fullscreenenter"",""1"",""4878""
","
","
","""event"",""trial"",""time""
""fullscreenenter"",""1"",""4878""
","
","","","570.8999999761581","","","24","5891","510","j","elianto","#3366ff99"," "," ","1","0","[1425.1000000238419]","1","2","","","5891","115","9","1","win","go","1"
"pit-trial","237","1569620","0.0-120.0","battery-v0.2","","""event"",""trial"",""time""
""fullscreenenter"",""1"",""4878""
","
","
","""event"",""trial"",""time""
""fullscreenenter"",""1"",""4878""
","
","","","657.3999999761581","","","24","5891","510","d","elianto","#3366ff99"," "," ","1","+10","[1510.8999999761581]","1","2","","","5891","116","8","1","win","go","0"
"pit-trial","238","1573150","0.0-121.0","battery-v0.2","","""event"",""trial"",""time""
""fullscreenenter"",""1"",""4878""
","
","
","""event"",""trial"",""time""
""fullscreenenter"",""1"",""4878""
","
","","","665.2000000476837","","","24","5891","510","s","elianto","#3366ff99","-1"," ","0","+10","[1519.5]","1","2","","","5891","117","5","2","win","no-go","1"
"pit-trial","239","1578028","0.0-122.0","battery-v0.2","","""event"",""trial"",""time""
""fullscreenenter"",""1"",""4878""
","
","
","""event"",""trial"",""time""
""fullscreenenter"",""1"",""4878""
","
","","","-1","","","24","5891","510","w","elianto","#f73b6a7A"," ","-1","0","-10","[]","0","2","","","5891","118","6","3","lose","go","0"
"pit-trial","240","1582250","0.0-123.0","battery-v0.2","","""event"",""trial"",""time""
""fullscreenenter"",""1"",""4878""
","
","
","""event"",""trial"",""time""
""fullscreenenter"",""1"",""4878""
","
","","","1351.1000000238419","","","24","5891","510","j","elianto","#3366ff99"," "," ","1","+10","[2204]","1","2","","","5891","119","9","1","win","go","0"
"pit-trial","241","1586986","0.0-124.0","battery-v0.2","","""event"",""trial"",""time""
""fullscreenenter"",""1"",""4878""
","
","
","""event"",""trial"",""time""
""fullscreenenter"",""1"",""4878""
","
","","","1868.2000000476837","","","24","5891","510","d","elianto","#3366ff99"," "," ","1","+10","[2720.7999999523163]","1","2","","","5891","120","8","1","win","go","0"
"pit-trial","242","1591853","0.0-125.0","battery-v0.2","","""event"",""trial"",""time""
""fullscreenenter"",""1"",""4878""
","
","
","""event"",""trial"",""time""
""fullscreenenter"",""1"",""4878""
","
","","","-1","","","24","5891","510","w","elianto","#f73b6a7A"," ","-1","0","-10","[]","0","2","","","5891","121","6","3","lose","go","0"
"pit-trial","243","1596740","0.0-126.0","battery-v0.2","","""event"",""trial"",""time""
""fullscreenenter"",""1"",""4878""
","
","
","""event"",""trial"",""time""
""fullscreenenter"",""1"",""4878""
","
","","","-1","","","24","5891","510","e","elianto","#f73b6a7A","-1","-1","1","0","[]","0","2","","","5891","122","7","4","lose","no-go","0"
"pit-trial","244","1600876","0.0-127.0","battery-v0.2","","""event"",""trial"",""time""
""fullscreenenter"",""1"",""4878""
","
","
","""event"",""trial"",""time""
""fullscreenenter"",""1"",""4878""
","
","","","1270.8999999761581","","","24","5891","510","d","elianto","#3366ff99"," "," ","1","+10","[2122.399999976158]","1","2","","","5891","123","8","1","win","go","0"
"pit-trial","245","1604388","0.0-128.0","battery-v0.2","","""event"",""trial"",""time""
""fullscreenenter"",""1"",""4878""
","
","
","""event"",""trial"",""time""
""fullscreenenter"",""1"",""4878""
","
","","","642.3000000715256","","","24","5891","510","j","elianto","#3366ff99"," "," ","1","+10","[1494.8000000715256,3494.7000000476837]","2","2","","","5891","124","9","1","win","go","0"
"pit-trial","246","1609256","0.0-129.0","battery-v0.2","","""event"",""trial"",""time""
""fullscreenenter"",""1"",""4878""
","
","
","""event"",""trial"",""time""
""fullscreenenter"",""1"",""4878""
","
","","","-1","","","24","5891","510","e","elianto","#f73b6a7A","-1","-1","1","0","[]","0","2","","","5891","125","7","4","lose","no-go","0"
"pit-trial","247","1612710","0.0-130.0","battery-v0.2","","""event"",""trial"",""time""
""fullscreenenter"",""1"",""4878""
","
","
","""event"",""trial"",""time""
""fullscreenenter"",""1"",""4878""
","
","","","591.7000000476837","","","24","5891","510","j","elianto","#3366ff99"," "," ","1","+10","[1445.5999999046326]","1","2","","","5891","126","9","1","win","go","0"
"pit-trial","248","1617588","0.0-131.0","battery-v0.2","","""event"",""trial"",""time""
""fullscreenenter"",""1"",""4878""
","
","
","""event"",""trial"",""time""
""fullscreenenter"",""1"",""4878""
","
","","","-1","","","24","5891","510","w","elianto","#f73b6a7A"," ","-1","0","-10","[]","0","2","","","5891","127","6","3","lose","go","0"
"pit-trial","249","1620976","0.0-132.0","battery-v0.2","","""event"",""trial"",""time""
""fullscreenenter"",""1"",""4878""
","
","
","""event"",""trial"",""time""
""fullscreenenter"",""1"",""4878""
","
","","","519.1000000238419","","","24","5891","510","d","elianto","#3366ff99"," "," ","1","+10","[1372.6999999284744]","1","2","","","5891","128","8","1","win","go","0"
"pit-trial","250","1624584","0.0-133.0","battery-v0.2","","""event"",""trial"",""time""
""fullscreenenter"",""1"",""4878""
","
","
","""event"",""trial"",""time""
""fullscreenenter"",""1"",""4878""
","
","","","742.7000000476837","","","24","5891","510","j","elianto","#3366ff99"," "," ","1","+10","[1596.5]","1","2","","","5891","129","9","1","win","go","0"
"pit-trial","251","1629465","0.0-134.0","battery-v0.2","","""event"",""trial"",""time""
""fullscreenenter"",""1"",""4878""
","
","
","""event"",""trial"",""time""
""fullscreenenter"",""1"",""4878""
","
","","","-1","","","24","5891","510","w","elianto","#f73b6a7A"," ","-1","0","-10","[]","0","2","","","5891","130","6","3","lose","go","0"
"pit-trial","252","1632942","0.0-135.0","battery-v0.2","","""event"",""trial"",""time""
""fullscreenenter"",""1"",""4878""
","
","
","""event"",""trial"",""time""
""fullscreenenter"",""1"",""4878""
","
","","","603.0999999046326","","","24","5891","510","d","elianto","#3366ff99"," "," ","1","+10","[1457.4000000953674]","1","2","","","5891","131","8","1","win","go","0"
"pit-trial","253","1637098","0.0-136.0","battery-v0.2","","""event"",""trial"",""time""
""fullscreenenter"",""1"",""4878""
","
","
","""event"",""trial"",""time""
""fullscreenenter"",""1"",""4878""
","
","","","1287","","","24","5891","510","e","elianto","#f73b6a7A","-1"," ","0","0","[2140.5]","1","2","","","5891","132","7","4","lose","no-go","1"
"pit-trial","254","1641965","0.0-137.0","battery-v0.2","","""event"",""trial"",""time""
""fullscreenenter"",""1"",""4878""
","
","
","""event"",""trial"",""time""
""fullscreenenter"",""1"",""4878""
","
","","","-1","","","24","5891","510","w","elianto","#f73b6a7A"," ","-1","0","-10","[]","0","2","","","5891","133","6","3","lose","go","0"
"pit-trial","255","1645495","0.0-138.0","battery-v0.2","","""event"",""trial"",""time""
""fullscreenenter"",""1"",""4878""
","
","
","""event"",""trial"",""time""
""fullscreenenter"",""1"",""4878""
","
","","","663.2999999523163","","","24","5891","510","j","elianto","#3366ff99"," "," ","1","+10","[1517.3999999761581]","1","2","","","5891","134","9","1","win","go","0"
"pit-trial","256","1648921","0.0-139.0","battery-v0.2","","""event"",""trial"",""time""
""fullscreenenter"",""1"",""4878""
","
","
","""event"",""trial"",""time""
""fullscreenenter"",""1"",""4878""
","
","","","554.2999999523163","","","24","5891","510","d","elianto","#3366ff99"," "," ","1","+10","[1408.2999999523163]","1","2","","","5891","135","8","1","win","go","0"
"pit-trial","257","1653795","0.0-140.0","battery-v0.2","","""event"",""trial"",""time""
""fullscreenenter"",""1"",""4878""
","
","
","""event"",""trial"",""time""
""fullscreenenter"",""1"",""4878""
","
","","","-1","","","24","5891","510","e","elianto","#f73b6a7A","-1","-1","1","0","[3571.7999999523163]","1","2","","","5891","136","7","4","lose","no-go","0"
"pit-trial","258","1658666","0.0-141.0","battery-v0.2","","""event"",""trial"",""time""
""fullscreenenter"",""1"",""4878""
","
","
","""event"",""trial"",""time""
""fullscreenenter"",""1"",""4878""
","
","","","-1","","","24","5891","510","w","elianto","#f73b6a7A"," ","-1","0","-10","[]","0","2","","","5891","137","6","3","lose","go","0"
"pit-trial","259","1662055","0.0-142.0","battery-v0.2","","""event"",""trial"",""time""
""fullscreenenter"",""1"",""4878""
","
","
","""event"",""trial"",""time""
""fullscreenenter"",""1"",""4878""
","
","","","523.7000000476837","","","24","5891","510","d","elianto","#3366ff99"," "," ","1","+10","[1377.7000000476837]","1","2","","","5891","138","8","1","win","go","0"
"pit-trial","260","1665571","0.0-143.0","battery-v0.2","","""event"",""trial"",""time""
""fullscreenenter"",""1"",""4878""
","
","
","""event"",""trial"",""time""
""fullscreenenter"",""1"",""4878""
","
","","","643.2000000476837","","","24","5891","510","e","elianto","#f73b6a7A","-1"," ","0","-10","[1497.5]","1","2","","","5891","139","7","4","lose","no-go","0"
"pit-trial","261","1668984","0.0-144.0","battery-v0.2","","""event"",""trial"",""time""
""fullscreenenter"",""1"",""4878""
","
","
","""event"",""trial"",""time""
""fullscreenenter"",""1"",""4878""
","
","","","548.7999999523163","","","24","5891","510","j","elianto","#3366ff99"," "," ","1","0","[1401.3000000715256]","1","2","","","5891","140","9","1","win","go","1"
"pit-instructions","262","1704184","0.0-145.0","battery-v0.2","","""event"",""trial"",""time""
""fullscreenenter"",""1"",""4878""
","
","
","""event"",""trial"",""time""
""fullscreenenter"",""1"",""4878""
","
","","[{""page_index"":0,""viewing_time"":26782.599999904633},{""page_index"":1,""viewing_time"":8413.100000023842}]","35196.699999928474","","","","","","","","","","","","","","","","","","","","","","","",""
"pit-trial","263","1709075","0.0-146.0","battery-v0.2","","""event"",""trial"",""time""
""fullscreenenter"",""1"",""4878""
","
","
","""event"",""trial"",""time""
""fullscreenenter"",""1"",""4878""
","
","","","-1","","","24","5891","510","b","elianto","#f73b6a7A"," ","-1","0","-10","[]","0","3","","","5891","141","3","3","lose","go","0"
"pit-trial","264","1712600","0.0-147.0","battery-v0.2","","""event"",""trial"",""time""
""fullscreenenter"",""1"",""4878""
","
","
","""event"",""trial"",""time""
""fullscreenenter"",""1"",""4878""
","
","","","656.2999999523163","","","24","5891","510","t","elianto","#f73b6a7A","-1"," ","0","-10","[1510.5]","1","3","","","5891","142","2","4","lose","no-go","0"
"pit-trial","265","1717486","0.0-148.0","battery-v0.2","","""event"",""trial"",""time""
""fullscreenenter"",""1"",""4878""
","
","
","""event"",""trial"",""time""
""fullscreenenter"",""1"",""4878""
","
","","","-1","","","24","5891","510","n","elianto","#f73b6a7A","-1","-1","1","-10","[]","0","3","","","5891","143","0","4","lose","no-go","1"
"pit-trial","266","1720969","0.0-149.0","battery-v0.2","","""event"",""trial"",""time""
""fullscreenenter"",""1"",""4878""
","
","
","""event"",""trial"",""time""
""fullscreenenter"",""1"",""4878""
","
","","","613.8999999761581","","","24","5891","510","f","elianto","#3366ff99"," "," ","1","+10","[1467.8000000715256]","1","3","","","5891","144","1","1","win","go","0"
"pit-trial","267","1724373","0.0-150.0","battery-v0.2","","""event"",""trial"",""time""
""fullscreenenter"",""1"",""4878""
","
","
","""event"",""trial"",""time""
""fullscreenenter"",""1"",""4878""
","
","","","541.7999999523163","","","24","5891","510","f","elianto","#3366ff99"," "," ","1","+10","[1395.5]","1","3","","","5891","145","1","1","win","go","0"
"pit-trial","268","1729236","0.0-151.0","battery-v0.2","","""event"",""trial"",""time""
""fullscreenenter"",""1"",""4878""
","
","
","""event"",""trial"",""time""
""fullscreenenter"",""1"",""4878""
","
","","","-1","","","24","5891","510","t","elianto","#f73b6a7A","-1","-1","1","-10","[]","0","3","","","5891","146","2","4","lose","no-go","1"
"pit-trial","269","1734120","0.0-152.0","battery-v0.2","","""event"",""trial"",""time""
