"trial_type","trial_index","time_elapsed","internal_node_id","task_version","subject_id","interactions","blur_events","focus_events","fullscreenenter_events","fullscreenexit_events","success","view_history","rt","responses","num_errors","age","subject","participantId","rune","rune_set","hex","correct","choice","accuracy","outcome","keys","total_keys","block","practice","value","sub","trial","stimulus","robot","valence","action","sham"
"pavlovia","0","5","0.0-0.0","battery-v0.2","","""event"",""trial"",""time""
""fullscreenenter"",""1"",""5254""
""fullscreenenter"",""1"",""5254""
","
","
","""event"",""trial"",""time""
""fullscreenenter"",""1"",""5254""
""fullscreenenter"",""1"",""5254""
","
","","","","","","","","","","","","","","","","","","","","","","","","","","",""
"fullscreen","1","6232","0.0-1.0","battery-v0.2","","""event"",""trial"",""time""
""fullscreenenter"",""1"",""5254""
""fullscreenenter"",""1"",""5254""
","
","
","""event"",""trial"",""time""
""fullscreenenter"",""1"",""5254""
""fullscreenenter"",""1"",""5254""
","
","true","","","","","","","","","","","","","","","","","","","","","","","","","",""
"pit-instructions","2","12061","0.0-2.0-0.0","battery-v0.2","","""event"",""trial"",""time""
""fullscreenenter"",""1"",""5254""
""fullscreenenter"",""1"",""5254""
","
","
","""event"",""trial"",""time""
""fullscreenenter"",""1"",""5254""
""fullscreenenter"",""1"",""5254""
","
","","[{""page_index"":0,""viewing_time"":5819}]","5819","","","","","","","","","","","","","","","","","","","","","","","",""
"pit-comprehension","3","15313","0.0-2.0-1.0-0.0","battery-v0.2","","""event"",""trial"",""time""
""fullscreenenter"",""1"",""5254""
""fullscreenenter"",""1"",""5254""
","
","
","""event"",""trial"",""time""
""fullscreenenter"",""1"",""5254""
""fullscreenenter"",""1"",""5254""
","
","","","3206.0000000000036","[""shark""]","0","16","18667","2300","","","","","","","","","","","","","","","","","","",""
"pit-instructions","4","16446","0.0-2.0-1.0-1.0","battery-v0.2","","""event"",""trial"",""time""
""fullscreenenter"",""1"",""5254""
""fullscreenenter"",""1"",""5254""
","
","
","""event"",""trial"",""time""
""fullscreenenter"",""1"",""5254""
""fullscreenenter"",""1"",""5254""
","
","","[{""page_index"":0,""viewing_time"":1122}]","1122","","","","","","","","","","","","","","","","","","","","","","","",""
"pit-comprehension","5","19138","0.0-2.0-2.0-0.0","battery-v0.2","","""event"",""trial"",""time""
""fullscreenenter"",""1"",""5254""
""fullscreenenter"",""1"",""5254""
","
","
","""event"",""trial"",""time""
""fullscreenenter"",""1"",""5254""
""fullscreenenter"",""1"",""5254""
","
","","","2686","[""tiger""]","0","16","18667","2300","","","","","","","","","","","","","","","","","","",""
"pit-instructions","6","19770","0.0-2.0-2.0-1.0","battery-v0.2","","""event"",""trial"",""time""
""fullscreenenter"",""1"",""5254""
""fullscreenenter"",""1"",""5254""
","
","
","""event"",""trial"",""time""
""fullscreenenter"",""1"",""5254""
""fullscreenenter"",""1"",""5254""
","
","","[{""page_index"":0,""viewing_time"":625}]","625","","","","","","","","","","","","","","","","","","","","","","","",""
"pit-instructions","7","141625","0.0-2.0-3.0","battery-v0.2","","""event"",""trial"",""time""
""fullscreenenter"",""1"",""5254""
""fullscreenenter"",""1"",""5254""
","
","
","""event"",""trial"",""time""
""fullscreenenter"",""1"",""5254""
""fullscreenenter"",""1"",""5254""
","
","","[{""page_index"":0,""viewing_time"":10087},{""page_index"":1,""viewing_time"":9346},{""page_index"":2,""viewing_time"":13702},{""page_index"":3,""viewing_time"":5922.000000000007},{""page_index"":4,""viewing_time"":23063.999999999993},{""page_index"":5,""viewing_time"":5991},{""page_index"":6,""viewing_time"":6097},{""page_index"":7,""viewing_time"":6507},{""page_index"":8,""viewing_time"":6153},{""page_index"":9,""viewing_time"":8448.000000000015},{""page_index"":10,""viewing_time"":7452.999999999985},{""page_index"":11,""viewing_time"":7599},{""page_index"":12,""viewing_time"":6694},{""page_index"":13,""viewing_time"":4787}]","121850","","","","","","","","","","","","","","","","","","","","","","","",""
"pit-trial","8","144681","0.0-2.0-4.0-0.0","battery-v0.2","","""event"",""trial"",""time""
""fullscreenenter"",""1"",""5254""
""fullscreenenter"",""1"",""5254""
","
","
","""event"",""trial"",""time""
""fullscreenenter"",""1"",""5254""
""fullscreenenter"",""1"",""5254""
","
","","","194","","","16","18667","2300","&#9784;","elianto","#FFFFF080"," "," ","1","&#10004","[1043.999999999971]","1","0","0","","","","","","","",""
"pit-trial","9","147687","0.0-2.0-4.1-0.1","battery-v0.2","","""event"",""trial"",""time""
""fullscreenenter"",""1"",""5254""
""fullscreenenter"",""1"",""5254""
","
","
","""event"",""trial"",""time""
""fullscreenenter"",""1"",""5254""
""fullscreenenter"",""1"",""5254""
","
","","","150","","","16","18667","2300","&#9784;","elianto","#FFFFF080"," "," ","1","&#10004","[103.0000000000291,1000]","2","0","0","","","","","","","",""
"pit-trial","10","150631","0.0-2.0-4.2-0.2","battery-v0.2","","""event"",""trial"",""time""
""fullscreenenter"",""1"",""5254""
""fullscreenenter"",""1"",""5254""
","
","
","""event"",""trial"",""time""
""fullscreenenter"",""1"",""5254""
""fullscreenenter"",""1"",""5254""
","
","","","85.0000000000291","","","16","18667","2300","&#9784;","elianto","#FFFFF080"," "," ","1","&#10004","[936.0000000000291]","1","0","0","","","","","","","",""
"pit-trial","11","153647","0.0-2.0-4.3-0.3","battery-v0.2","","""event"",""trial"",""time""
""fullscreenenter"",""1"",""5254""
""fullscreenenter"",""1"",""5254""
","
","
","""event"",""trial"",""time""
""fullscreenenter"",""1"",""5254""
""fullscreenenter"",""1"",""5254""
","
","","","159","","","16","18667","2300","&#9784;","elianto","#FFFFF080"," "," ","1","&#10004","[1009.9999999999709]","1","0","0","","","","","","","",""
"pit-trial","12","156831","0.0-2.0-4.4-0.4","battery-v0.2","","""event"",""trial"",""time""
""fullscreenenter"",""1"",""5254""
""fullscreenenter"",""1"",""5254""
","
","
","""event"",""trial"",""time""
""fullscreenenter"",""1"",""5254""
""fullscreenenter"",""1"",""5254""
","
","","","328","","","16","18667","2300","&#9784;","elianto","#FFFFF080"," "," ","1","&#10004","[1178]","1","0","0","","","","","","","",""
"pit-instructions","13","176767","0.0-2.0-5.0","battery-v0.2","","""event"",""trial"",""time""
""fullscreenenter"",""1"",""5254""
""fullscreenenter"",""1"",""5254""
","
","
","""event"",""trial"",""time""
""fullscreenenter"",""1"",""5254""
""fullscreenenter"",""1"",""5254""
","
","","[{""page_index"":0,""viewing_time"":4777},{""page_index"":1,""viewing_time"":5582},{""page_index"":2,""viewing_time"":4562},{""page_index"":3,""viewing_time"":5006}]","19927","","","","","","","","","","","","","","","","","","","","","","","",""
"pit-trial","14","181624","0.0-2.0-6.0-0.0","battery-v0.2","","""event"",""trial"",""time""
""fullscreenenter"",""1"",""5254""
""fullscreenenter"",""1"",""5254""
","
","
","""event"",""trial"",""time""
""fullscreenenter"",""1"",""5254""
""fullscreenenter"",""1"",""5254""
","
","","","-1","","","16","18667","2300","&#9854;","elianto","#FFFFF080","-1","-1","1","&#10004","[]","0","0","1","","","","","","","",""
"pit-trial","15","186485","0.0-2.0-6.1-0.1","battery-v0.2","","""event"",""trial"",""time""
""fullscreenenter"",""1"",""5254""
""fullscreenenter"",""1"",""5254""
","
","
","""event"",""trial"",""time""
""fullscreenenter"",""1"",""5254""
""fullscreenenter"",""1"",""5254""
","
","","","-1","","","16","18667","2300","&#9854;","elianto","#FFFFF080","-1","-1","1","&#10004","[]","0","0","1","","","","","","","",""
"pit-trial","16","191343","0.0-2.0-6.2-0.2","battery-v0.2","","""event"",""trial"",""time""
""fullscreenenter"",""1"",""5254""
""fullscreenenter"",""1"",""5254""
","
","
","""event"",""trial"",""time""
""fullscreenenter"",""1"",""5254""
""fullscreenenter"",""1"",""5254""
","
","","","-1","","","16","18667","2300","&#9854;","elianto","#FFFFF080","-1","-1","1","&#10004","[]","0","0","1","","","","","","","",""
"pit-trial","17","196200","0.0-2.0-6.3-0.3","battery-v0.2","","""event"",""trial"",""time""
""fullscreenenter"",""1"",""5254""
""fullscreenenter"",""1"",""5254""
","
","
","""event"",""trial"",""time""
""fullscreenenter"",""1"",""5254""
""fullscreenenter"",""1"",""5254""
","
","","","-1","","","16","18667","2300","&#9854;","elianto","#FFFFF080","-1","-1","1","&#10004","[]","0","0","1","","","","","","","",""
"pit-trial","18","201058","0.0-2.0-6.4-0.4","battery-v0.2","","""event"",""trial"",""time""
""fullscreenenter"",""1"",""5254""
""fullscreenenter"",""1"",""5254""
","
","
","""event"",""trial"",""time""
""fullscreenenter"",""1"",""5254""
""fullscreenenter"",""1"",""5254""
","
","","","-1","","","16","18667","2300","&#9854;","elianto","#FFFFF080","-1","-1","1","&#10004","[]","0","0","1","","","","","","","",""
"pit-instructions","19","338747","0.0-2.0-7.0","battery-v0.2","","""event"",""trial"",""time""
""fullscreenenter"",""1"",""5254""
""fullscreenenter"",""1"",""5254""
","
","
","""event"",""trial"",""time""
""fullscreenenter"",""1"",""5254""
""fullscreenenter"",""1"",""5254""
","
","","[{""page_index"":0,""viewing_time"":5698},{""page_index"":1,""viewing_time"":6579},{""page_index"":2,""viewing_time"":5570},{""page_index"":3,""viewing_time"":5871},{""page_index"":4,""viewing_time"":5618},{""page_index"":5,""viewing_time"":6063},{""page_index"":6,""viewing_time"":6858},{""page_index"":7,""viewing_time"":8056},{""page_index"":8,""viewing_time"":6208.999999999971},{""page_index"":9,""viewing_time"":7354.000000000029},{""page_index"":10,""viewing_time"":8588},{""page_index"":11,""viewing_time"":5533},{""page_index"":12,""viewing_time"":8273.000000000058},{""page_index"":13,""viewing_time"":9018.999999999942},{""page_index"":14,""viewing_time"":21655},{""page_index"":15,""viewing_time"":7826.000000000058},{""page_index"":16,""viewing_time"":6459.999999999942},{""page_index"":17,""viewing_time"":6451.000000000058}]","137681.00000000006","","","","","","","","","","","","","","","","","","","","","","","",""
"pit-trial","20","342188","0.0-2.0-8.0-0.0","battery-v0.2","","""event"",""trial"",""time""
""fullscreenenter"",""1"",""5254""
""fullscreenenter"",""1"",""5254""
","
","
","""event"",""trial"",""time""
""fullscreenenter"",""1"",""5254""
""fullscreenenter"",""1"",""5254""
","
","","","585","","","16","18667","2300","&#9776;","elianto","#3366ff99"," "," ","1","+10","[1435]","1","0","1","","","","","","","",""
"pit-trial","21","345488","0.0-2.0-8.0-1.0","battery-v0.2","","""event"",""trial"",""time""
""fullscreenenter"",""1"",""5254""
""fullscreenenter"",""1"",""5254""
","
","
","""event"",""trial"",""time""
""fullscreenenter"",""1"",""5254""
""fullscreenenter"",""1"",""5254""
","
","","","442.9999999999418","","","16","18667","2300","&#9776;","elianto","#3366ff99"," "," ","1","+10","[1294]","1","0","1","","","","","","","",""
"pit-trial","22","348751","0.0-2.0-8.0-2.0","battery-v0.2","","""event"",""trial"",""time""
""fullscreenenter"",""1"",""5254""
""fullscreenenter"",""1"",""5254""
","
","
","""event"",""trial"",""time""
""fullscreenenter"",""1"",""5254""
""fullscreenenter"",""1"",""5254""
","
","","","405","","","16","18667","2300","&#9776;","elianto","#3366ff99"," "," ","1","+10","[1256]","1","0","1","","","","","","","",""
"pit-trial","23","352045","0.0-2.0-8.0-3.0","battery-v0.2","","""event"",""trial"",""time""
""fullscreenenter"",""1"",""5254""
""fullscreenenter"",""1"",""5254""
","
","
","""event"",""trial"",""time""
""fullscreenenter"",""1"",""5254""
""fullscreenenter"",""1"",""5254""
","
","","","438.0000000000582","","","16","18667","2300","&#9776;","elianto","#3366ff99"," "," ","1","0","[1289.0000000000582]","1","0","1","","","","","","","",""
"pit-trial","24","355334","0.0-2.0-8.0-4.0","battery-v0.2","","""event"",""trial"",""time""
""fullscreenenter"",""1"",""5254""
""fullscreenenter"",""1"",""5254""
","
","
","""event"",""trial"",""time""
""fullscreenenter"",""1"",""5254""
""fullscreenenter"",""1"",""5254""
","
","","","431","","","16","18667","2300","&#9776;","elianto","#3366ff99"," "," ","1","+10","[1282]","1","0","1","","","","","","","",""
"pit-trial","25","358593","0.0-2.0-8.1-0.1","battery-v0.2","","""event"",""trial"",""time""
""fullscreenenter"",""1"",""5254""
""fullscreenenter"",""1"",""5254""
","
","
","""event"",""trial"",""time""
""fullscreenenter"",""1"",""5254""
""fullscreenenter"",""1"",""5254""
","
","","","401","","","16","18667","2300","&#9776;","elianto","#3366ff99"," "," ","1","+10","[1252]","1","0","1","","","","","","","",""
"pit-trial","26","361813","0.0-2.0-8.1-1.1","battery-v0.2","","""event"",""trial"",""time""
""fullscreenenter"",""1"",""5254""
""fullscreenenter"",""1"",""5254""
","
","
","""event"",""trial"",""time""
""fullscreenenter"",""1"",""5254""
""fullscreenenter"",""1"",""5254""
","
","","","363","","","16","18667","2300","&#9776;","elianto","#3366ff99"," "," ","1","+10","[1214]","1","0","1","","","","","","","",""
"pit-trial","27","365072","0.0-2.0-8.1-2.1","battery-v0.2","","""event"",""trial"",""time""
""fullscreenenter"",""1"",""5254""
""fullscreenenter"",""1"",""5254""
","
","
","""event"",""trial"",""time""
""fullscreenenter"",""1"",""5254""
""fullscreenenter"",""1"",""5254""
","
","","","404","","","16","18667","2300","&#9776;","elianto","#3366ff99"," "," ","1","+10","[1253]","1","0","1","","","","","","","",""
"pit-trial","28","368353","0.0-2.0-8.1-3.1","battery-v0.2","","""event"",""trial"",""time""
""fullscreenenter"",""1"",""5254""
""fullscreenenter"",""1"",""5254""
","
","
","""event"",""trial"",""time""
""fullscreenenter"",""1"",""5254""
""fullscreenenter"",""1"",""5254""
","
","","","424","","","16","18667","2300","&#9776;","elianto","#3366ff99"," "," ","1","0","[1274]","1","0","1","","","","","","","",""
"pit-trial","29","371462","0.0-2.0-8.1-4.1","battery-v0.2","","""event"",""trial"",""time""
""fullscreenenter"",""1"",""5254""
""fullscreenenter"",""1"",""5254""
","
","
","""event"",""trial"",""time""
""fullscreenenter"",""1"",""5254""
""fullscreenenter"",""1"",""5254""
","
","","","251.0000000000582","","","16","18667","2300","&#9776;","elianto","#3366ff99"," "," ","1","+10","[1102.0000000000582]","1","0","1","","","","","","","",""
"pit-trial","30","374672","0.0-2.0-8.2-0.2","battery-v0.2","","""event"",""trial"",""time""
""fullscreenenter"",""1"",""5254""
""fullscreenenter"",""1"",""5254""
","
","
","""event"",""trial"",""time""
""fullscreenenter"",""1"",""5254""
""fullscreenenter"",""1"",""5254""
","
","","","354","","","16","18667","2300","&#9776;","elianto","#3366ff99"," "," ","1","+10","[1204]","1","0","1","","","","","","","",""
"pit-trial","31","377931","0.0-2.0-8.2-1.2","battery-v0.2","","""event"",""trial"",""time""
""fullscreenenter"",""1"",""5254""
""fullscreenenter"",""1"",""5254""
","
","
","""event"",""trial"",""time""
""fullscreenenter"",""1"",""5254""
""fullscreenenter"",""1"",""5254""
","
","","","402","","","16","18667","2300","&#9776;","elianto","#3366ff99"," "," ","1","+10","[1252]","1","0","1","","","","","","","",""
"pit-trial","32","381115","0.0-2.0-8.2-2.2","battery-v0.2","","""event"",""trial"",""time""
""fullscreenenter"",""1"",""5254""
""fullscreenenter"",""1"",""5254""
","
","
","""event"",""trial"",""time""
""fullscreenenter"",""1"",""5254""
""fullscreenenter"",""1"",""5254""
","
","","","328","","","16","18667","2300","&#9776;","elianto","#3366ff99"," "," ","1","+10","[1178]","1","0","1","","","","","","","",""
"pit-trial","33","384301","0.0-2.0-8.2-3.2","battery-v0.2","","""event"",""trial"",""time""
""fullscreenenter"",""1"",""5254""
""fullscreenenter"",""1"",""5254""
","
","
","""event"",""trial"",""time""
""fullscreenenter"",""1"",""5254""
""fullscreenenter"",""1"",""5254""
","
","","","329.0000000000582","","","16","18667","2300","&#9776;","elianto","#3366ff99"," "," ","1","0","[1179.0000000000582]","1","0","1","","","","","","","",""
"pit-trial","34","387418","0.0-2.0-8.2-4.2","battery-v0.2","","""event"",""trial"",""time""
""fullscreenenter"",""1"",""5254""
""fullscreenenter"",""1"",""5254""
","
","
","""event"",""trial"",""time""
""fullscreenenter"",""1"",""5254""
""fullscreenenter"",""1"",""5254""
","
","","","260","","","16","18667","2300","&#9776;","elianto","#3366ff99"," "," ","1","+10","[1111]","1","0","1","","","","","","","",""
"call-function","35","387422","0.0-2.0-9.0","battery-v0.2","","""event"",""trial"",""time""
""fullscreenenter"",""1"",""5254""
""fullscreenenter"",""1"",""5254""
","
","
","""event"",""trial"",""time""
""fullscreenenter"",""1"",""5254""
""fullscreenenter"",""1"",""5254""
","
","","","","","","","","","","","","","","","","","","","","","","","","","","",""
"pit-instructions","36","434119","0.0-2.0-10.0","battery-v0.2","","""event"",""trial"",""time""
""fullscreenenter"",""1"",""5254""
""fullscreenenter"",""1"",""5254""
","
","
","""event"",""trial"",""time""
""fullscreenenter"",""1"",""5254""
""fullscreenenter"",""1"",""5254""
","
","","[{""page_index"":0,""viewing_time"":5503},{""page_index"":1,""viewing_time"":8901},{""page_index"":2,""viewing_time"":10450},{""page_index"":3,""viewing_time"":11356.000000000058},{""page_index"":4,""viewing_time"":10485.999999999942}]","46697","","","","","","","","","","","","","","","","","","","","","","","",""
"pit-trial","37","437699","0.0-2.0-11.0-0.0","battery-v0.2","","""event"",""trial"",""time""
""fullscreenenter"",""1"",""5254""
""fullscreenenter"",""1"",""5254""
","
","
","""event"",""trial"",""time""
""fullscreenenter"",""1"",""5254""
""fullscreenenter"",""1"",""5254""
","
","","","722.0000000000582","","","16","18667","2300","&#9761;","elianto","#3366ff99","-1"," ","0","0","[1573.0000000000582]","1","0","2","","","","","","","",""
"pit-trial","38","440903","0.0-2.0-11.0-1.0","battery-v0.2","","""event"",""trial"",""time""
""fullscreenenter"",""1"",""5254""
""fullscreenenter"",""1"",""5254""
","
","
","""event"",""trial"",""time""
""fullscreenenter"",""1"",""5254""
""fullscreenenter"",""1"",""5254""
","
","","","347","","","16","18667","2300","&#9761;","elianto","#3366ff99","-1"," ","0","0","[1198]","1","0","2","","","","","","","",""
"pit-trial","39","443938","0.0-2.0-11.0-2.0","battery-v0.2","","""event"",""trial"",""time""
""fullscreenenter"",""1"",""5254""
""fullscreenenter"",""1"",""5254""
","
","
","""event"",""trial"",""time""
""fullscreenenter"",""1"",""5254""
""fullscreenenter"",""1"",""5254""
","
","","","178","","","16","18667","2300","&#9761;","elianto","#3366ff99","-1"," ","0","0","[1029]","1","0","2","","","","","","","",""
"pit-trial","40","447031","0.0-2.0-11.0-3.0","battery-v0.2","","""event"",""trial"",""time""
""fullscreenenter"",""1"",""5254""
""fullscreenenter"",""1"",""5254""
","
","
","""event"",""trial"",""time""
""fullscreenenter"",""1"",""5254""
""fullscreenenter"",""1"",""5254""
","
","","","234.9999999999418","","","16","18667","2300","&#9761;","elianto","#3366ff99","-1"," ","0","+10","[1085.9999999999418]","1","0","2","","","","","","","",""
"pit-trial","41","449999","0.0-2.0-11.0-4.0","battery-v0.2","","""event"",""trial"",""time""
""fullscreenenter"",""1"",""5254""
""fullscreenenter"",""1"",""5254""
","
","
","""event"",""trial"",""time""
""fullscreenenter"",""1"",""5254""
""fullscreenenter"",""1"",""5254""
","
","","","112","","","16","18667","2300","&#9761;","elianto","#3366ff99","-1"," ","0","0","[962]","1","0","2","","","","","","","",""
"pit-trial","42","453181","0.0-2.0-11.1-0.1","battery-v0.2","","""event"",""trial"",""time""
""fullscreenenter"",""1"",""5254""
""fullscreenenter"",""1"",""5254""
","
","
","""event"",""trial"",""time""
""fullscreenenter"",""1"",""5254""
""fullscreenenter"",""1"",""5254""
","
","","","324","","","16","18667","2300","&#9761;","elianto","#3366ff99","-1"," ","0","0","[1175]","1","0","2","","","","","","","",""
"pit-trial","43","456342","0.0-2.0-11.1-1.1","battery-v0.2","","""event"",""trial"",""time""
""fullscreenenter"",""1"",""5254""
""fullscreenenter"",""1"",""5254""
","
","
","""event"",""trial"",""time""
""fullscreenenter"",""1"",""5254""
""fullscreenenter"",""1"",""5254""
","
","","","305","","","16","18667","2300","&#9761;","elianto","#3366ff99","-1"," ","0","0","[1155]","1","0","2","","","","","","","",""
"pit-trial","44","459556","0.0-2.0-11.1-2.1","battery-v0.2","","""event"",""trial"",""time""
""fullscreenenter"",""1"",""5254""
""fullscreenenter"",""1"",""5254""
","
","
","""event"",""trial"",""time""
""fullscreenenter"",""1"",""5254""
""fullscreenenter"",""1"",""5254""
","
","","","358","","","16","18667","2300","&#9761;","elianto","#3366ff99","-1"," ","0","0","[1209]","1","0","2","","","","","","","",""
"pit-trial","45","462596","0.0-2.0-11.1-3.1","battery-v0.2","","""event"",""trial"",""time""
""fullscreenenter"",""1"",""5254""
""fullscreenenter"",""1"",""5254""
","
","
","""event"",""trial"",""time""
""fullscreenenter"",""1"",""5254""
""fullscreenenter"",""1"",""5254""
","
","","","181.9999999999418","","","16","18667","2300","&#9761;","elianto","#3366ff99","-1"," ","0","+10","[1032.9999999999418]","1","0","2","","","","","","","",""
"pit-trial","46","465812","0.0-2.0-11.1-4.1","battery-v0.2","","""event"",""trial"",""time""
""fullscreenenter"",""1"",""5254""
""fullscreenenter"",""1"",""5254""
","
","
","""event"",""trial"",""time""
""fullscreenenter"",""1"",""5254""
""fullscreenenter"",""1"",""5254""
","
","","","360.0000000000582","","","16","18667","2300","&#9761;","elianto","#3366ff99","-1"," ","0","0","[1210]","1","0","2","","","","","","","",""
"pit-trial","47","468828","0.0-2.0-11.2-0.2","battery-v0.2","","""event"",""trial"",""time""
""fullscreenenter"",""1"",""5254""
""fullscreenenter"",""1"",""5254""
","
","
","""event"",""trial"",""time""
""fullscreenenter"",""1"",""5254""
""fullscreenenter"",""1"",""5254""
","
","","","159","","","16","18667","2300","&#9761;","elianto","#3366ff99","-1"," ","0","0","[1009]","1","0","2","","","","","","","",""
"pit-trial","48","472957","0.0-2.0-11.2-1.2","battery-v0.2","","""event"",""trial"",""time""
""fullscreenenter"",""1"",""5254""
""fullscreenenter"",""1"",""5254""
","
","
","""event"",""trial"",""time""
""fullscreenenter"",""1"",""5254""
""fullscreenenter"",""1"",""5254""
","
","","","1272.0000000000582","","","16","18667","2300","&#9761;","elianto","#3366ff99","-1"," ","0","0","[2122.000000000058,2527]","2","0","2","","","","","","","",""
"pit-trial","49","476583","0.0-2.0-11.2-2.2","battery-v0.2","","""event"",""trial"",""time""
""fullscreenenter"",""1"",""5254""
""fullscreenenter"",""1"",""5254""
","
","
","""event"",""trial"",""time""
""fullscreenenter"",""1"",""5254""
""fullscreenenter"",""1"",""5254""
","
","","","769","","","16","18667","2300","&#9761;","elianto","#3366ff99","-1"," ","0","0","[1619]","1","0","2","","","","","","","",""
"pit-trial","50","479814","0.0-2.0-11.2-3.2","battery-v0.2","","""event"",""trial"",""time""
""fullscreenenter"",""1"",""5254""
""fullscreenenter"",""1"",""5254""
","
","
","""event"",""trial"",""time""
""fullscreenenter"",""1"",""5254""
""fullscreenenter"",""1"",""5254""
","
","","","374","","","16","18667","2300","&#9761;","elianto","#3366ff99","-1"," ","0","+10","[1225]","1","0","2","","","","","","","",""
"pit-trial","51","483103","0.0-2.0-11.2-4.2","battery-v0.2","","""event"",""trial"",""time""
""fullscreenenter"",""1"",""5254""
""fullscreenenter"",""1"",""5254""
","
","
","""event"",""trial"",""time""
""fullscreenenter"",""1"",""5254""
""fullscreenenter"",""1"",""5254""
","
","","","434","","","16","18667","2300","&#9761;","elianto","#3366ff99","-1"," ","0","0","[1282.9999999999418]","1","0","2","","","","","","","",""
"pit-trial","52","486218","0.0-2.0-11.3-0.3","battery-v0.2","","""event"",""trial"",""time""
""fullscreenenter"",""1"",""5254""
""fullscreenenter"",""1"",""5254""
","
","
","""event"",""trial"",""time""
""fullscreenenter"",""1"",""5254""
""fullscreenenter"",""1"",""5254""
","
","","","258","","","16","18667","2300","&#9761;","elianto","#3366ff99","-1"," ","0","0","[1109]","1","0","2","","","","","","","",""
"pit-trial","53","489444","0.0-2.0-11.3-1.3","battery-v0.2","","""event"",""trial"",""time""
""fullscreenenter"",""1"",""5254""
""fullscreenenter"",""1"",""5254""
","
","
","""event"",""trial"",""time""
""fullscreenenter"",""1"",""5254""
""fullscreenenter"",""1"",""5254""
","
","","","370","","","16","18667","2300","&#9761;","elianto","#3366ff99","-1"," ","0","0","[1219.9999999999418]","1","0","2","","","","","","","",""
"pit-trial","54","492355","0.0-2.0-11.3-2.3","battery-v0.2","","""event"",""trial"",""time""
""fullscreenenter"",""1"",""5254""
""fullscreenenter"",""1"",""5254""
","
","
","""event"",""trial"",""time""
""fullscreenenter"",""1"",""5254""
""fullscreenenter"",""1"",""5254""
","
","","","53","","","16","18667","2300","&#9761;","elianto","#3366ff99","-1"," ","0","0","[904.9999999999418]","1","0","2","","","","","","","",""
"pit-trial","55","495394","0.0-2.0-11.3-3.3","battery-v0.2","","""event"",""trial"",""time""
""fullscreenenter"",""1"",""5254""
""fullscreenenter"",""1"",""5254""
","
","
","""event"",""trial"",""time""
""fullscreenenter"",""1"",""5254""
""fullscreenenter"",""1"",""5254""
","
","","","181","","","16","18667","2300","&#9761;","elianto","#3366ff99","-1"," ","0","+10","[1032]","1","0","2","","","","","","","",""
"pit-trial","56","498324","0.0-2.0-11.3-4.3","battery-v0.2","","""event"",""trial"",""time""
""fullscreenenter"",""1"",""5254""
""fullscreenenter"",""1"",""5254""
","
","
","""event"",""trial"",""time""
""fullscreenenter"",""1"",""5254""
""fullscreenenter"",""1"",""5254""
","
","","","70","","","16","18667","2300","&#9761;","elianto","#3366ff99","-1"," ","0","0","[924]","1","0","2","","","","","","","",""
"call-function","57","498328","0.0-2.0-12.0","battery-v0.2","","""event"",""trial"",""time""
""fullscreenenter"",""1"",""5254""
""fullscreenenter"",""1"",""5254""
","
","
","""event"",""trial"",""time""
""fullscreenenter"",""1"",""5254""
""fullscreenenter"",""1"",""5254""
","
","","","","","","","","","","","","","","","","","","","","","","","","","","",""
"pit-instructions","58","528060","0.0-2.0-13.0","battery-v0.2","","""event"",""trial"",""time""
""fullscreenenter"",""1"",""5254""
""fullscreenenter"",""1"",""5254""
","
","
","""event"",""trial"",""time""
""fullscreenenter"",""1"",""5254""
""fullscreenenter"",""1"",""5254""
","
","","[{""page_index"":0,""viewing_time"":4752},{""page_index"":1,""viewing_time"":6846},{""page_index"":2,""viewing_time"":3624.999999999942},{""page_index"":3,""viewing_time"":10043.000000000058},{""page_index"":4,""viewing_time"":4464}]","29731","","","","","","","","","","","","","","","","","","","","","","","",""
"pit-trial","59","531056","0.0-2.0-14.0-0.0","battery-v0.2","","""event"",""trial"",""time""
""fullscreenenter"",""1"",""5254""
""fullscreenenter"",""1"",""5254""
","
","
","""event"",""trial"",""time""
""fullscreenenter"",""1"",""5254""
""fullscreenenter"",""1"",""5254""
","
","","","139","","","16","18667","2300","&#9826;","elianto","#f73b6a7A","-1"," ","0","-10","[990]","1","0","3","","","","","","","",""
"pit-trial","60","535913","0.0-2.0-14.0-1.0","battery-v0.2","","""event"",""trial"",""time""
""fullscreenenter"",""1"",""5254""
""fullscreenenter"",""1"",""5254""
","
","
","""event"",""trial"",""time""
""fullscreenenter"",""1"",""5254""
""fullscreenenter"",""1"",""5254""
","
","","","-1","","","16","18667","2300","&#9826;","elianto","#f73b6a7A","-1","-1","1","0","[]","0","0","3","","","","","","","",""
"pit-trial","61","540770","0.0-2.0-14.0-2.0","battery-v0.2","","""event"",""trial"",""time""
""fullscreenenter"",""1"",""5254""
""fullscreenenter"",""1"",""5254""
","
","
","""event"",""trial"",""time""
""fullscreenenter"",""1"",""5254""
""fullscreenenter"",""1"",""5254""
","
","","","-1","","","16","18667","2300","&#9826;","elianto","#f73b6a7A","-1","-1","1","0","[]","0","0","3","","","","","","","",""
"pit-trial","62","545628","0.0-2.0-14.0-3.0","battery-v0.2","","""event"",""trial"",""time""
""fullscreenenter"",""1"",""5254""
""fullscreenenter"",""1"",""5254""
","
","
","""event"",""trial"",""time""
""fullscreenenter"",""1"",""5254""
""fullscreenenter"",""1"",""5254""
","
","","","-1","","","16","18667","2300","&#9826;","elianto","#f73b6a7A","-1","-1","1","-10","[]","0","0","3","","","","","","","",""
"pit-trial","63","548893","0.0-2.0-14.0-4.0","battery-v0.2","","""event"",""trial"",""time""
""fullscreenenter"",""1"",""5254""
""fullscreenenter"",""1"",""5254""
","
","
","""event"",""trial"",""time""
""fullscreenenter"",""1"",""5254""
""fullscreenenter"",""1"",""5254""
","
","","","408","","","16","18667","2300","&#9826;","elianto","#f73b6a7A","-1"," ","0","-10","[1259]","1","0","3","","","","","","","",""
"pit-trial","64","553751","0.0-2.0-14.1-0.1","battery-v0.2","","""event"",""trial"",""time""
""fullscreenenter"",""1"",""5254""
""fullscreenenter"",""1"",""5254""
","
","
","""event"",""trial"",""time""
""fullscreenenter"",""1"",""5254""
""fullscreenenter"",""1"",""5254""
","
","","","-1","","","16","18667","2300","&#9826;","elianto","#f73b6a7A","-1","-1","1","0","[]","0","0","3","","","","","","","",""
"pit-trial","65","558608","0.0-2.0-14.1-1.1","battery-v0.2","","""event"",""trial"",""time""
""fullscreenenter"",""1"",""5254""
""fullscreenenter"",""1"",""5254""
","
","
","""event"",""trial"",""time""
""fullscreenenter"",""1"",""5254""
""fullscreenenter"",""1"",""5254""
","
","","","-1","","","16","18667","2300","&#9826;","elianto","#f73b6a7A","-1","-1","1","0","[]","0","0","3","","","","","","","",""
"pit-trial","66","561894","0.0-2.0-14.1-2.1","battery-v0.2","","""event"",""trial"",""time""
""fullscreenenter"",""1"",""5254""
""fullscreenenter"",""1"",""5254""
","
","
","""event"",""trial"",""time""
""fullscreenenter"",""1"",""5254""
""fullscreenenter"",""1"",""5254""
","
","","","429","","","16","18667","2300","&#9826;","elianto","#f73b6a7A","-1"," ","0","-10","[1280]","1","0","3","","","","","","","",""
"pit-trial","67","565518","0.0-2.0-14.1-3.1","battery-v0.2","","""event"",""trial"",""time""
""fullscreenenter"",""1"",""5254""
""fullscreenenter"",""1"",""5254""
","
","
","""event"",""trial"",""time""
""fullscreenenter"",""1"",""5254""
""fullscreenenter"",""1"",""5254""
","
","","","767","","","16","18667","2300","&#9826;","elianto","#f73b6a7A","-1"," ","0","0","[1618]","1","0","3","","","","","","","",""
"pit-trial","68","570375","0.0-2.0-14.1-4.1","battery-v0.2","","""event"",""trial"",""time""
""fullscreenenter"",""1"",""5254""
""fullscreenenter"",""1"",""5254""
","
","
","""event"",""trial"",""time""
""fullscreenenter"",""1"",""5254""
""fullscreenenter"",""1"",""5254""
","
","","","-1","","","16","18667","2300","&#9826;","elianto","#f73b6a7A","-1","-1","1","0","[]","0","0","3","","","","","","","",""
"pit-trial","69","575233","0.0-2.0-14.2-0.2","battery-v0.2","","""event"",""trial"",""time""
""fullscreenenter"",""1"",""5254""
""fullscreenenter"",""1"",""5254""
","
","
","""event"",""trial"",""time""
""fullscreenenter"",""1"",""5254""
""fullscreenenter"",""1"",""5254""
","
","","","-1","","","16","18667","2300","&#9826;","elianto","#f73b6a7A","-1","-1","1","0","[]","0","0","3","","","","","","","",""
"pit-trial","70","580089","0.0-2.0-14.2-1.2","battery-v0.2","","""event"",""trial"",""time""
""fullscreenenter"",""1"",""5254""
""fullscreenenter"",""1"",""5254""
","
","
","""event"",""trial"",""time""
""fullscreenenter"",""1"",""5254""
""fullscreenenter"",""1"",""5254""
","
","","","-1","","","16","18667","2300","&#9826;","elianto","#f73b6a7A","-1","-1","1","0","[]","0","0","3","","","","","","","",""
"pit-trial","71","583557","0.0-2.0-14.2-2.2","battery-v0.2","","""event"",""trial"",""time""
""fullscreenenter"",""1"",""5254""
""fullscreenenter"",""1"",""5254""
","
","
","""event"",""trial"",""time""
""fullscreenenter"",""1"",""5254""
""fullscreenenter"",""1"",""5254""
","
","","","611","","","16","18667","2300","&#9826;","elianto","#f73b6a7A","-1"," ","0","-10","[1462]","1","0","3","","","","","","","",""
"pit-trial","72","586780","0.0-2.0-14.2-3.2","battery-v0.2","","""event"",""trial"",""time""
""fullscreenenter"",""1"",""5254""
""fullscreenenter"",""1"",""5254""
","
","
","""event"",""trial"",""time""
""fullscreenenter"",""1"",""5254""
""fullscreenenter"",""1"",""5254""
","
","","","366","","","16","18667","2300","&#9826;","elianto","#f73b6a7A","-1"," ","0","0","[1217]","1","0","3","","","","","","","",""
"pit-trial","73","591637","0.0-2.0-14.2-4.2","battery-v0.2","","""event"",""trial"",""time""
""fullscreenenter"",""1"",""5254""
""fullscreenenter"",""1"",""5254""
","
","
","""event"",""trial"",""time""
""fullscreenenter"",""1"",""5254""
""fullscreenenter"",""1"",""5254""
","
","","","-1","","","16","18667","2300","&#9826;","elianto","#f73b6a7A","-1","-1","1","0","[]","0","0","3","","","","","","","",""
"pit-trial","74","596495","0.0-2.0-14.3-0.3","battery-v0.2","","""event"",""trial"",""time""
""fullscreenenter"",""1"",""5254""
""fullscreenenter"",""1"",""5254""
","
","
","""event"",""trial"",""time""
""fullscreenenter"",""1"",""5254""
""fullscreenenter"",""1"",""5254""
","
","","","-1","","","16","18667","2300","&#9826;","elianto","#f73b6a7A","-1","-1","1","0","[]","0","0","3","","","","","","","",""
"pit-trial","75","601352","0.0-2.0-14.3-1.3","battery-v0.2","","""event"",""trial"",""time""
""fullscreenenter"",""1"",""5254""
""fullscreenenter"",""1"",""5254""
","
","
","""event"",""trial"",""time""
""fullscreenenter"",""1"",""5254""
""fullscreenenter"",""1"",""5254""
","
","","","-1","","","16","18667","2300","&#9826;","elianto","#f73b6a7A","-1","-1","1","0","[]","0","0","3","","","","","","","",""
"pit-trial","76","606208","0.0-2.0-14.3-2.3","battery-v0.2","","""event"",""trial"",""time""
""fullscreenenter"",""1"",""5254""
""fullscreenenter"",""1"",""5254""
","
","
","""event"",""trial"",""time""
""fullscreenenter"",""1"",""5254""
""fullscreenenter"",""1"",""5254""
","
","","","-1","","","16","18667","2300","&#9826;","elianto","#f73b6a7A","-1","-1","1","0","[]","0","0","3","","","","","","","",""
"pit-trial","77","609607","0.0-2.0-14.3-3.3","battery-v0.2","","""event"",""trial"",""time""
""fullscreenenter"",""1"",""5254""
""fullscreenenter"",""1"",""5254""
","
","
","""event"",""trial"",""time""
""fullscreenenter"",""1"",""5254""
""fullscreenenter"",""1"",""5254""
","
","","","542.9999999998836","","","16","18667","2300","&#9826;","elianto","#f73b6a7A","-1"," ","0","0","[1393]","1","0","3","","","","","","","",""
"pit-trial","78","614463","0.0-2.0-14.3-4.3","battery-v0.2","","""event"",""trial"",""time""
""fullscreenenter"",""1"",""5254""
""fullscreenenter"",""1"",""5254""
","
","
","""event"",""trial"",""time""
""fullscreenenter"",""1"",""5254""
""fullscreenenter"",""1"",""5254""
","
","","","-1","","","16","18667","2300","&#9826;","elianto","#f73b6a7A","-1","-1","1","0","[]","0","0","3","","","","","","","",""
"call-function","79","614467","0.0-2.0-15.0","battery-v0.2","","""event"",""trial"",""time""
""fullscreenenter"",""1"",""5254""
""fullscreenenter"",""1"",""5254""
","
","
","""event"",""trial"",""time""
""fullscreenenter"",""1"",""5254""
""fullscreenenter"",""1"",""5254""
","
","","","","","","","","","","","","","","","","","","","","","","","","","","",""
"pit-instructions","80","637685","0.0-2.0-16.0","battery-v0.2","","""event"",""trial"",""time""
""fullscreenenter"",""1"",""5254""
""fullscreenenter"",""1"",""5254""
","
","
","""event"",""trial"",""time""
""fullscreenenter"",""1"",""5254""
""fullscreenenter"",""1"",""5254""
","
","","[{""page_index"":0,""viewing_time"":6426},{""page_index"":1,""viewing_time"":8467},{""page_index"":2,""viewing_time"":4166},{""page_index"":3,""viewing_time"":4157}]","23217","","","","","","","","","","","","","","","","","","","","","","","",""
"pit-trial","81","642542","0.0-2.0-17.0-0.0","battery-v0.2","","""event"",""trial"",""time""
""fullscreenenter"",""1"",""5254""
""fullscreenenter"",""1"",""5254""
","
","
","""event"",""trial"",""time""
""fullscreenenter"",""1"",""5254""
""fullscreenenter"",""1"",""5254""
","
","","","-1","","","16","18667","2300","&#9789;","elianto","#f73b6a7A"," ","-1","0","-10","[]","0","0","4","","","","","","","",""
"pit-trial","82","647399","0.0-2.0-17.0-1.0","battery-v0.2","","""event"",""trial"",""time""
""fullscreenenter"",""1"",""5254""
""fullscreenenter"",""1"",""5254""
","
","
","""event"",""trial"",""time""
""fullscreenenter"",""1"",""5254""
""fullscreenenter"",""1"",""5254""
","
","","","-1","","","16","18667","2300","&#9789;","elianto","#f73b6a7A"," ","-1","0","-10","[]","0","0","4","","","","","","","",""
"pit-trial","83","651092","0.0-2.0-17.0-2.0","battery-v0.2","","""event"",""trial"",""time""
""fullscreenenter"",""1"",""5254""
""fullscreenenter"",""1"",""5254""
","
","
","""event"",""trial"",""time""
""fullscreenenter"",""1"",""5254""
""fullscreenenter"",""1"",""5254""
","
","","","836","","","16","18667","2300","&#9789;","elianto","#f73b6a7A"," "," ","1","0","[1686]","1","0","4","","","","","","","",""
"pit-trial","84","654588","0.0-2.0-17.0-3.0","battery-v0.2","","""event"",""trial"",""time""
""fullscreenenter"",""1"",""5254""
""fullscreenenter"",""1"",""5254""
","
","
","""event"",""trial"",""time""
""fullscreenenter"",""1"",""5254""
""fullscreenenter"",""1"",""5254""
","
","","","639.0000000001164","","","16","18667","2300","&#9789;","elianto","#f73b6a7A"," "," ","1","-10","[1490.0000000001164]","1","0","4","","","","","","","",""
"pit-trial","85","657828","0.0-2.0-17.0-4.0","battery-v0.2","","""event"",""trial"",""time""
""fullscreenenter"",""1"",""5254""
""fullscreenenter"",""1"",""5254""
","
","
","""event"",""trial"",""time""
""fullscreenenter"",""1"",""5254""
""fullscreenenter"",""1"",""5254""
","
","","","383","","","16","18667","2300","&#9789;","elianto","#f73b6a7A"," "," ","1","0","[1234]","1","0","4","","","","","","","",""
"pit-trial","86","662686","0.0-2.0-17.1-0.1","battery-v0.2","","""event"",""trial"",""time""
""fullscreenenter"",""1"",""5254""
""fullscreenenter"",""1"",""5254""
","
","
","""event"",""trial"",""time""
""fullscreenenter"",""1"",""5254""
""fullscreenenter"",""1"",""5254""
","
","","","-1","","","16","18667","2300","&#9789;","elianto","#f73b6a7A"," ","-1","0","-10","[]","0","0","4","","","","","","","",""
"pit-trial","87","666268","0.0-2.0-17.1-1.1","battery-v0.2","","""event"",""trial"",""time""
""fullscreenenter"",""1"",""5254""
""fullscreenenter"",""1"",""5254""
","
","
","""event"",""trial"",""time""
""fullscreenenter"",""1"",""5254""
""fullscreenenter"",""1"",""5254""
","
","","","725","","","16","18667","2300","&#9789;","elianto","#f73b6a7A"," "," ","1","0","[1576]","1","0","4","","","","","","","",""
"pit-trial","88","669573","0.0-2.0-17.1-2.1","battery-v0.2","","""event"",""trial"",""time""
""fullscreenenter"",""1"",""5254""
""fullscreenenter"",""1"",""5254""
","
","
","""event"",""trial"",""time""
""fullscreenenter"",""1"",""5254""
""fullscreenenter"",""1"",""5254""
","
","","","448","","","16","18667","2300","&#9789;","elianto","#f73b6a7A"," "," ","1","0","[1299]","1","0","4","","","","","","","",""
"pit-trial","89","672819","0.0-2.0-17.1-3.1","battery-v0.2","","""event"",""trial"",""time""
""fullscreenenter"",""1"",""5254""
""fullscreenenter"",""1"",""5254""
","
","
","""event"",""trial"",""time""
""fullscreenenter"",""1"",""5254""
""fullscreenenter"",""1"",""5254""
","
","","","390.0000000001164","","","16","18667","2300","&#9789;","elianto","#f73b6a7A"," "," ","1","-10","[1241.0000000001164]","1","0","4","","","","","","","",""
"pit-trial","90","676059","0.0-2.0-17.1-4.1","battery-v0.2","","""event"",""trial"",""time""
""fullscreenenter"",""1"",""5254""
""fullscreenenter"",""1"",""5254""
","
","
","""event"",""trial"",""time""
""fullscreenenter"",""1"",""5254""
""fullscreenenter"",""1"",""5254""
","
","","","384.0000000001164","","","16","18667","2300","&#9789;","elianto","#f73b6a7A"," "," ","1","0","[1234.0000000001164]","1","0","4","","","","","","","",""
"pit-trial","91","679286","0.0-2.0-17.2-0.2","battery-v0.2","","""event"",""trial"",""time""
""fullscreenenter"",""1"",""5254""
""fullscreenenter"",""1"",""5254""
","
","
","""event"",""trial"",""time""
""fullscreenenter"",""1"",""5254""
""fullscreenenter"",""1"",""5254""
","
","","","369","","","16","18667","2300","&#9789;","elianto","#f73b6a7A"," "," ","1","0","[1221]","1","0","4","","","","","","","",""
"pit-trial","92","682470","0.0-2.0-17.2-1.2","battery-v0.2","","""event"",""trial"",""time""
""fullscreenenter"",""1"",""5254""
""fullscreenenter"",""1"",""5254""
","
","
","""event"",""trial"",""time""
""fullscreenenter"",""1"",""5254""
""fullscreenenter"",""1"",""5254""
","
","","","327","","","16","18667","2300","&#9789;","elianto","#f73b6a7A"," "," ","1","0","[1178]","1","0","4","","","","","","","",""
"pit-trial","93","685636","0.0-2.0-17.2-2.2","battery-v0.2","","""event"",""trial"",""time""
""fullscreenenter"",""1"",""5254""
""fullscreenenter"",""1"",""5254""
","
","
","""event"",""trial"",""time""
""fullscreenenter"",""1"",""5254""
""fullscreenenter"",""1"",""5254""
","
","","","309.0000000001164","","","16","18667","2300","&#9789;","elianto","#f73b6a7A"," "," ","1","0","[1160.0000000001164]","1","0","4","","","","","","","",""
"pit-trial","94","688719","0.0-2.0-17.2-3.2","battery-v0.2","","""event"",""trial"",""time""
""fullscreenenter"",""1"",""5254""
""fullscreenenter"",""1"",""5254""
","
","
","""event"",""trial"",""time""
""fullscreenenter"",""1"",""5254""
""fullscreenenter"",""1"",""5254""
","
","","","225","","","16","18667","2300","&#9789;","elianto","#f73b6a7A"," "," ","1","-10","[1076]","1","0","4","","","","","","","",""
"pit-trial","95","691984","0.0-2.0-17.2-4.2","battery-v0.2","","""event"",""trial"",""time""
""fullscreenenter"",""1"",""5254""
""fullscreenenter"",""1"",""5254""
","
","
","""event"",""trial"",""time""
""fullscreenenter"",""1"",""5254""
""fullscreenenter"",""1"",""5254""
","
","","","408","","","16","18667","2300","&#9789;","elianto","#f73b6a7A"," "," ","1","0","[1259]","1","0","4","","","","","","","",""
"pit-trial","96","695172","0.0-2.0-17.3-0.3","battery-v0.2","","""event"",""trial"",""time""
""fullscreenenter"",""1"",""5254""
""fullscreenenter"",""1"",""5254""
","
","
","""event"",""trial"",""time""
""fullscreenenter"",""1"",""5254""
""fullscreenenter"",""1"",""5254""
","
","","","331","","","16","18667","2300","&#9789;","elianto","#f73b6a7A"," "," ","1","0","[1181]","1","0","4","","","","","","","",""
"pit-trial","97","698468","0.0-2.0-17.3-1.3","battery-v0.2","","""event"",""trial"",""time""
""fullscreenenter"",""1"",""5254""
""fullscreenenter"",""1"",""5254""
","
","
","""event"",""trial"",""time""
""fullscreenenter"",""1"",""5254""
""fullscreenenter"",""1"",""5254""
","
","","","440","","","16","18667","2300","&#9789;","elianto","#f73b6a7A"," "," ","1","0","[1291]","1","0","4","","","","","","","",""
"pit-trial","98","701705","0.0-2.0-17.3-2.3","battery-v0.2","","""event"",""trial"",""time""
""fullscreenenter"",""1"",""5254""
""fullscreenenter"",""1"",""5254""
","
","
","""event"",""trial"",""time""
""fullscreenenter"",""1"",""5254""
""fullscreenenter"",""1"",""5254""
","
","","","380","","","16","18667","2300","&#9789;","elianto","#f73b6a7A"," "," ","1","0","[1230]","1","0","4","","","","","","","",""
"pit-trial","99","704763","0.0-2.0-17.3-3.3","battery-v0.2","","""event"",""trial"",""time""
""fullscreenenter"",""1"",""5254""
""fullscreenenter"",""1"",""5254""
","
","
","""event"",""trial"",""time""
""fullscreenenter"",""1"",""5254""
""fullscreenenter"",""1"",""5254""
","
","","","200","","","16","18667","2300","&#9789;","elianto","#f73b6a7A"," "," ","1","-10","[1051]","1","0","4","","","","","","","",""
"pit-trial","100","707835","0.0-2.0-17.3-4.3","battery-v0.2","","""event"",""trial"",""time""
""fullscreenenter"",""1"",""5254""
""fullscreenenter"",""1"",""5254""
","
","
","""event"",""trial"",""time""
""fullscreenenter"",""1"",""5254""
""fullscreenenter"",""1"",""5254""
","
","","","216","","","16","18667","2300","&#9789;","elianto","#f73b6a7A"," "," ","1","0","[1066]","1","0","4","","","","","","","",""
"call-function","101","707839","0.0-2.0-18.0","battery-v0.2","","""event"",""trial"",""time""
""fullscreenenter"",""1"",""5254""
""fullscreenenter"",""1"",""5254""
","
","
","""event"",""trial"",""time""
""fullscreenenter"",""1"",""5254""
""fullscreenenter"",""1"",""5254""
","
","","","","","","","","","","","","","","","","","","","","","","","","","","",""
"pit-instructions","102","796857","0.0-2.0-19.0","battery-v0.2","","""event"",""trial"",""time""
""fullscreenenter"",""1"",""5254""
""fullscreenenter"",""1"",""5254""
","
","
","""event"",""trial"",""time""
""fullscreenenter"",""1"",""5254""
""fullscreenenter"",""1"",""5254""
","
","","[{""page_index"":0,""viewing_time"":6584},{""page_index"":1,""viewing_time"":7759},{""page_index"":2,""viewing_time"":9700},{""page_index"":3,""viewing_time"":15755},{""page_index"":4,""viewing_time"":8821},{""page_index"":5,""viewing_time"":9470},{""page_index"":6,""viewing_time"":10607},{""page_index"":7,""viewing_time"":9891},{""page_index"":8,""viewing_time"":10429}]","89016","","","","","","","","","","","","","","","","","","","","","","","",""
"pit-comprehension","103","801266","0.0-2.0-20.0-0.0","battery-v0.2","","""event"",""trial"",""time""
""fullscreenenter"",""1"",""5254""
""fullscreenenter"",""1"",""5254""
","
","
","""event"",""trial"",""time""
""fullscreenenter"",""1"",""5254""
""fullscreenenter"",""1"",""5254""
","
","","","4406","[""SPACE""]","0","16","18667","2300","","","","","","","","","","","","","","","","","","",""
"pit-instructions","104","804208","0.0-2.0-20.0-1.0","battery-v0.2","","""event"",""trial"",""time""
""fullscreenenter"",""1"",""5254""
""fullscreenenter"",""1"",""5254""
","
","
","""event"",""trial"",""time""
""fullscreenenter"",""1"",""5254""
""fullscreenenter"",""1"",""5254""
","
","","[{""page_index"":0,""viewing_time"":2904}]","2904","","","","","","","","","","","","","","","","","","","","","","","",""
"pit-comprehension","105","808231","0.0-2.0-21.0-0.0","battery-v0.2","","""event"",""trial"",""time""
""fullscreenenter"",""1"",""5254""
""fullscreenenter"",""1"",""5254""
","
","
","""event"",""trial"",""time""
""fullscreenenter"",""1"",""5254""
""fullscreenenter"",""1"",""5254""
","
","","","4015.0000000001164","[""10""]","0","16","18667","2300","","","","","","","","","","","","","","","","","","",""
"pit-instructions","106","809690","0.0-2.0-21.0-1.0","battery-v0.2","","""event"",""trial"",""time""
""fullscreenenter"",""1"",""5254""
""fullscreenenter"",""1"",""5254""
","
","
","""event"",""trial"",""time""
""fullscreenenter"",""1"",""5254""
""fullscreenenter"",""1"",""5254""
","
","","[{""page_index"":0,""viewing_time"":1421}]","1421","","","","","","","","","","","","","","","","","","","","","","","",""
"pit-comprehension","107","816075","0.0-2.0-22.0-0.0","battery-v0.2","","""event"",""trial"",""time""
""fullscreenenter"",""1"",""5254""
""fullscreenenter"",""1"",""5254""
","
","
","""event"",""trial"",""time""
""fullscreenenter"",""1"",""5254""
""fullscreenenter"",""1"",""5254""
","
","","","6374","[""0""]","0","16","18667","2300","","","","","","","","","","","","","","","","","","",""
"pit-instructions","108","817721","0.0-2.0-22.0-1.0","battery-v0.2","","""event"",""trial"",""time""
""fullscreenenter"",""1"",""5254""
""fullscreenenter"",""1"",""5254""
","
","
","""event"",""trial"",""time""
""fullscreenenter"",""1"",""5254""
""fullscreenenter"",""1"",""5254""
","
","","[{""page_index"":0,""viewing_time"":1605}]","1608","","","","","","","","","","","","","","","","","","","","","","","",""
"pit-comprehension","109","825947","0.0-2.0-23.0-0.0","battery-v0.2","","""event"",""trial"",""time""
""fullscreenenter"",""1"",""5254""
""fullscreenenter"",""1"",""5254""
","
","
","""event"",""trial"",""time""
""fullscreenenter"",""1"",""5254""
""fullscreenenter"",""1"",""5254""
","
","","","8217","[""True""]","0","16","18667","2300","","","","","","","","","","","","","","","","","","",""
"pit-instructions","110","827380","0.0-2.0-23.0-1.0","battery-v0.2","","""event"",""trial"",""time""
""fullscreenenter"",""1"",""5254""
""fullscreenenter"",""1"",""5254""
","
","
","""event"",""trial"",""time""
""fullscreenenter"",""1"",""5254""
""fullscreenenter"",""1"",""5254""
","
","","[{""page_index"":0,""viewing_time"":1394}]","1394.9999999998836","","","","","","","","","","","","","","","","","","","","","","","",""
"pit-comprehension","111","834858","0.0-2.0-24.0-0.0","battery-v0.2","","""event"",""trial"",""time""
""fullscreenenter"",""1"",""5254""
""fullscreenenter"",""1"",""5254""
","
","
","""event"",""trial"",""time""
""fullscreenenter"",""1"",""5254""
""fullscreenenter"",""1"",""5254""
","
","","","7471","[""True""]","0","16","18667","2300","","","","","","","","","","","","","","","","","","",""
"pit-instructions","112","840185","0.0-2.0-24.0-1.0","battery-v0.2","","""event"",""trial"",""time""
""fullscreenenter"",""1"",""5254""
""fullscreenenter"",""1"",""5254""
","
","
","""event"",""trial"",""time""
""fullscreenenter"",""1"",""5254""
""fullscreenenter"",""1"",""5254""
","
","","[{""page_index"":0,""viewing_time"":5290}]","5291","","","","","","","","","","","","","","","","","","","","","","","",""
"pit-comprehension","113","846332","0.0-2.0-25.0-0.0","battery-v0.2","","""event"",""trial"",""time""
""fullscreenenter"",""1"",""5254""
""fullscreenenter"",""1"",""5254""
","
","
","""event"",""trial"",""time""
""fullscreenenter"",""1"",""5254""
""fullscreenenter"",""1"",""5254""
","
","","","6138.000000000116","[""True""]","0","16","18667","2300","","","","","","","","","","","","","","","","","","",""
"pit-instructions","114","855891","0.0-2.0-25.0-1.0","battery-v0.2","","""event"",""trial"",""time""
""fullscreenenter"",""1"",""5254""
""fullscreenenter"",""1"",""5254""
","
","
","""event"",""trial"",""time""
""fullscreenenter"",""1"",""5254""
""fullscreenenter"",""1"",""5254""
","
","","[{""page_index"":0,""viewing_time"":9519}]","9520","","","","","","","","","","","","","","","","","","","","","","","",""
"pit-comprehension","115","864900","0.0-2.0-26.0-0.0","battery-v0.2","","""event"",""trial"",""time""
""fullscreenenter"",""1"",""5254""
""fullscreenenter"",""1"",""5254""
","
","
","""event"",""trial"",""time""
""fullscreenenter"",""1"",""5254""
""fullscreenenter"",""1"",""5254""
","
","","","9001","[""False""]","0","16","18667","2300","","","","","","","","","","","","","","","","","","",""
"pit-instructions","116","876223","0.0-2.0-26.0-1.0","battery-v0.2","","""event"",""trial"",""time""
""fullscreenenter"",""1"",""5254""
""fullscreenenter"",""1"",""5254""
","
","
","""event"",""trial"",""time""
""fullscreenenter"",""1"",""5254""
""fullscreenenter"",""1"",""5254""
","
","","[{""page_index"":0,""viewing_time"":11286}]","11287","","","","","","","","","","","","","","","","","","","","","","","",""
"pit-instructions","117","1005668","0.0-3.0","battery-v0.2","","""event"",""trial"",""time""
""fullscreenenter"",""1"",""5254""
""fullscreenenter"",""1"",""5254""
","
","
","""event"",""trial"",""time""
""fullscreenenter"",""1"",""5254""
""fullscreenenter"",""1"",""5254""
","
","","[{""page_index"":0,""viewing_time"":10758},{""page_index"":1,""viewing_time"":7619.000000000116},{""page_index"":2,""viewing_time"":111061.99999999988}]","129439","","","","","","","","","","","","","","","","","","","","","","","",""
"pit-trial","118","1010532","0.0-4.0","battery-v0.2","","""event"",""trial"",""time""
""fullscreenenter"",""1"",""5254""
""fullscreenenter"",""1"",""5254""
","
","
","""event"",""trial"",""time""
""fullscreenenter"",""1"",""5254""
""fullscreenenter"",""1"",""5254""
","
","","","-1","","","16","18667","2300","&#9728;","elianto","#f73b6a7A","-1","-1","1","0","[]","0","1","","","18667","1","0","4","lose","no-go","0"
"pit-trial","119","1015391","0.0-5.0","battery-v0.2","","""event"",""trial"",""time""
""fullscreenenter"",""1"",""5254""
""fullscreenenter"",""1"",""5254""
","
","
","""event"",""trial"",""time""
""fullscreenenter"",""1"",""5254""
""fullscreenenter"",""1"",""5254""
","
","","","-1","","","16","18667","2300","&#9752;","elianto","#f73b6a7A"," ","-1","0","-10","[]","0","1","","","18667","2","3","3","lose","go","0"
"pit-trial","120","1020252","0.0-6.0","battery-v0.2","","""event"",""trial"",""time""
""fullscreenenter"",""1"",""5254""
""fullscreenenter"",""1"",""5254""
","
","
","""event"",""trial"",""time""
""fullscreenenter"",""1"",""5254""
""fullscreenenter"",""1"",""5254""
","
","","","-1","","","16","18667","2300","&#9733;","elianto","#3366ff99","-1","-1","1","0","[]","0","1","","","18667","3","2","2","win","no-go","1"
"pit-trial","121","1024051","0.0-7.0","battery-v0.2","","""event"",""trial"",""time""
""fullscreenenter"",""1"",""5254""
""fullscreenenter"",""1"",""5254""
","
","
","""event"",""trial"",""time""
""fullscreenenter"",""1"",""5254""
""fullscreenenter"",""1"",""5254""
","
","","","940","","","16","18667","2300","&#9730;","elianto","#3366ff99"," "," ","1","0","[1790]","1","1","","","18667","4","1","1","win","go","1"
"pit-trial","122","1028909","0.0-8.0","battery-v0.2","","""event"",""trial"",""time""
""fullscreenenter"",""1"",""5254""
""fullscreenenter"",""1"",""5254""
","
","
","""event"",""trial"",""time""
""fullscreenenter"",""1"",""5254""
""fullscreenenter"",""1"",""5254""
","
","","","-1","","","16","18667","2300","&#9752;","elianto","#f73b6a7A"," ","-1","0","-10","[]","0","1","","","18667","5","3","3","lose","go","0"
"pit-trial","123","1032154","0.0-9.0","battery-v0.2","","""event"",""trial"",""time""
""fullscreenenter"",""1"",""5254""
""fullscreenenter"",""1"",""5254""
","
","
","""event"",""trial"",""time""
""fullscreenenter"",""1"",""5254""
""fullscreenenter"",""1"",""5254""
","
","","","387.00000000023283","","","16","18667","2300","&#9730;","elianto","#3366ff99"," "," ","1","0","[1238.0000000001164]","1","1","","","18667","6","1","1","win","go","1"
"pit-trial","124","1036161","0.0-10.0","battery-v0.2","","""event"",""trial"",""time""
""fullscreenenter"",""1"",""5254""
""fullscreenenter"",""1"",""5254""
","
","
","""event"",""trial"",""time""
""fullscreenenter"",""1"",""5254""
""fullscreenenter"",""1"",""5254""
","
","","","1148.9999999998836","","","16","18667","2300","&#9733;","elianto","#3366ff99","-1"," ","0","0","[2000]","1","1","","","18667","7","2","2","win","no-go","0"
"pit-trial","125","1041020","0.0-11.0","battery-v0.2","","""event"",""trial"",""time""
""fullscreenenter"",""1"",""5254""
""fullscreenenter"",""1"",""5254""
","
","
","""event"",""trial"",""time""
""fullscreenenter"",""1"",""5254""
""fullscreenenter"",""1"",""5254""
","
","","","-1","","","16","18667","2300","&#9728;","elianto","#f73b6a7A","-1","-1","1","0","[]","0","1","","","18667","8","0","4","lose","no-go","0"
"pit-trial","126","1045880","0.0-12.0","battery-v0.2","","""event"",""trial"",""time""
""fullscreenenter"",""1"",""5254""
""fullscreenenter"",""1"",""5254""
","
","
","""event"",""trial"",""time""
""fullscreenenter"",""1"",""5254""
""fullscreenenter"",""1"",""5254""
","
","","","-1","","","16","18667","2300","&#9728;","elianto","#f73b6a7A","-1","-1","1","0","[]","0","1","","","18667","9","0","4","lose","no-go","0"
"pit-trial","127","1049348","0.0-13.0","battery-v0.2","","""event"",""trial"",""time""
""fullscreenenter"",""1"",""5254""
""fullscreenenter"",""1"",""5254""
","
","
","""event"",""trial"",""time""
""fullscreenenter"",""1"",""5254""
""fullscreenenter"",""1"",""5254""
","
","","","609.0000000002328","","","16","18667","2300","&#9730;","elianto","#3366ff99"," "," ","1","+10","[1460.0000000001164]","1","1","","","18667","10","1","1","win","go","0"
"pit-trial","128","1052775","0.0-14.0","battery-v0.2","","""event"",""trial"",""time""
""fullscreenenter"",""1"",""5254""
""fullscreenenter"",""1"",""5254""
","
","
","""event"",""trial"",""time""
""fullscreenenter"",""1"",""5254""
""fullscreenenter"",""1"",""5254""
","
","","","568","","","16","18667","2300","&#9733;","elianto","#3366ff99","-1"," ","0","0","[1418.9999999997672]","1","1","","","18667","11","2","2","win","no-go","0"
"pit-trial","129","1057633","0.0-15.0","battery-v0.2","","""event"",""trial"",""time""
""fullscreenenter"",""1"",""5254""
""fullscreenenter"",""1"",""5254""
","
","
","""event"",""trial"",""time""
""fullscreenenter"",""1"",""5254""
""fullscreenenter"",""1"",""5254""
","
","","","-1","","","16","18667","2300","&#9752;","elianto","#f73b6a7A"," ","-1","0","-10","[]","0","1","","","18667","12","3","3","lose","go","0"
"pit-trial","130","1060779","0.0-16.0","battery-v0.2","","""event"",""trial"",""time""
""fullscreenenter"",""1"",""5254""
""fullscreenenter"",""1"",""5254""
","
","
","""event"",""trial"",""time""
""fullscreenenter"",""1"",""5254""
""fullscreenenter"",""1"",""5254""
","
","","","287.00000000023283","","","16","18667","2300","&#9728;","elianto","#f73b6a7A","-1"," ","0","0","[1138.0000000002328]","1","1","","","18667","13","0","4","lose","no-go","1"
"pit-trial","131","1065637","0.0-17.0","battery-v0.2","","""event"",""trial"",""time""
""fullscreenenter"",""1"",""5254""
""fullscreenenter"",""1"",""5254""
","
","
","""event"",""trial"",""time""
""fullscreenenter"",""1"",""5254""
""fullscreenenter"",""1"",""5254""
","
","","","-1","","","16","18667","2300","&#9730;","elianto","#3366ff99"," ","-1","0","0","[]","0","1","","","18667","14","1","1","win","go","0"
"pit-trial","132","1070495","0.0-18.0","battery-v0.2","","""event"",""trial"",""time""
""fullscreenenter"",""1"",""5254""
""fullscreenenter"",""1"",""5254""
","
","
","""event"",""trial"",""time""
""fullscreenenter"",""1"",""5254""
""fullscreenenter"",""1"",""5254""
","
","","","-1","","","16","18667","2300","&#9752;","elianto","#f73b6a7A"," ","-1","0","-10","[]","0","1","","","18667","15","3","3","lose","go","0"
"pit-trial","133","1075355","0.0-19.0","battery-v0.2","","""event"",""trial"",""time""
""fullscreenenter"",""1"",""5254""
""fullscreenenter"",""1"",""5254""
","
","
","""event"",""trial"",""time""
""fullscreenenter"",""1"",""5254""
""fullscreenenter"",""1"",""5254""
","
","","","-1","","","16","18667","2300","&#9733;","elianto","#3366ff99","-1","-1","1","+10","[]","0","1","","","18667","16","2","2","win","no-go","0"
"pit-trial","134","1080215","0.0-20.0","battery-v0.2","","""event"",""trial"",""time""
""fullscreenenter"",""1"",""5254""
""fullscreenenter"",""1"",""5254""
","
","
","""event"",""trial"",""time""
""fullscreenenter"",""1"",""5254""
""fullscreenenter"",""1"",""5254""
","
","","","-1","","","16","18667","2300","&#9733;","elianto","#3366ff99","-1","-1","1","0","[]","0","1","","","18667","17","2","2","win","no-go","1"
"pit-trial","135","1085075","0.0-21.0","battery-v0.2","","""event"",""trial"",""time""
""fullscreenenter"",""1"",""5254""
""fullscreenenter"",""1"",""5254""
","
","
","""event"",""trial"",""time""
""fullscreenenter"",""1"",""5254""
""fullscreenenter"",""1"",""5254""
","
","","","-1","","","16","18667","2300","&#9730;","elianto","#3366ff99"," ","-1","0","+10","[]","0","1","","","18667","18","1","1","win","go","1"
"pit-trial","136","1089935","0.0-22.0","battery-v0.2","","""event"",""trial"",""time""
""fullscreenenter"",""1"",""5254""
""fullscreenenter"",""1"",""5254""
","
","
","""event"",""trial"",""time""
""fullscreenenter"",""1"",""5254""
""fullscreenenter"",""1"",""5254""
","
","","","-1","","","16","18667","2300","&#9752;","elianto","#f73b6a7A"," ","-1","0","-10","[]","0","1","","","18667","19","3","3","lose","go","0"
"pit-trial","137","1094794","0.0-23.0","battery-v0.2","","""event"",""trial"",""time""
""fullscreenenter"",""1"",""5254""
""fullscreenenter"",""1"",""5254""
""blur"",""138"",""1189945""
""focus"",""138"",""5761534""
","""event"",""trial"",""time""
""blur"",""138"",""1189945""
","""event"",""trial"",""time""
""focus"",""138"",""5761534""
","""event"",""trial"",""time""
""fullscreenenter"",""1"",""5254""
""fullscreenenter"",""1"",""5254""
","
","","","-1","","","16","18667","2300","&#9728;","elianto","#f73b6a7A","-1","-1","1","-10","[]","0","1","","","18667","20","0","4","lose","no-go","1"
"pit-instructions","138","5772293","0.0-24.0","battery-v0.2","","""event"",""trial"",""time""
""fullscreenenter"",""1"",""5254""
""fullscreenenter"",""1"",""5254""
""blur"",""138"",""1189945""
""focus"",""138"",""5761534""
","""event"",""trial"",""time""
""blur"",""138"",""1189945""
","""event"",""trial"",""time""
""focus"",""138"",""5761534""
","""event"",""trial"",""time""
""fullscreenenter"",""1"",""5254""
""fullscreenenter"",""1"",""5254""
","
","","[{""page_index"":0,""viewing_time"":4670959},{""page_index"":1,""viewing_time"":6546.000000000931}]","4677506","","","","","","","","","","","","","","","","","","","","","","","",""
"pit-trial","139","5777137","0.0-25.0","battery-v0.2","","""event"",""trial"",""time""
""fullscreenenter"",""1"",""5254""
""fullscreenenter"",""1"",""5254""
""blur"",""138"",""1189945""
""focus"",""138"",""5761534""
","""event"",""trial"",""time""
""blur"",""138"",""1189945""
","""event"",""trial"",""time""
""focus"",""138"",""5761534""
","""event"",""trial"",""time""
""fullscreenenter"",""1"",""5254""
""fullscreenenter"",""1"",""5254""
","
","","","1982","","","16","18667","2300","a","elianto","#f73b6a7A","-1"," ","0","-10","[2833]","1","2","","","18667","21","2","4","lose","no-go","0"
"pit-trial","140","5781997","0.0-26.0","battery-v0.2","","""event"",""trial"",""time""
""fullscreenenter"",""1"",""5254""
""fullscreenenter"",""1"",""5254""
""blur"",""138"",""1189945""
""focus"",""138"",""5761534""
","""event"",""trial"",""time""
""blur"",""138"",""1189945""
","""event"",""trial"",""time""
""focus"",""138"",""5761534""
","""event"",""trial"",""time""
""fullscreenenter"",""1"",""5254""
""fullscreenenter"",""1"",""5254""
","
","","","-1","","","16","18667","2300","u","elianto","#f73b6a7A","-1","-1","1","0","[]","0","2","","","18667","22","0","4","lose","no-go","0"
"pit-trial","141","5785580","0.0-27.0","battery-v0.2","","""event"",""trial"",""time""
""fullscreenenter"",""1"",""5254""
""fullscreenenter"",""1"",""5254""
""blur"",""138"",""1189945""
""focus"",""138"",""5761534""
","""event"",""trial"",""time""
""blur"",""138"",""1189945""
","""event"",""trial"",""time""
""focus"",""138"",""5761534""
","""event"",""trial"",""time""
""fullscreenenter"",""1"",""5254""
""fullscreenenter"",""1"",""5254""
","
","","","725.0000000009313","","","16","18667","2300","g","elianto","#f73b6a7A"," "," ","1","0","[1576]","1","2","","","18667","23","3","3","lose","go","0"
"pit-trial","142","5789326","0.0-28.0","battery-v0.2","","""event"",""trial"",""time""
""fullscreenenter"",""1"",""5254""
""fullscreenenter"",""1"",""5254""
""blur"",""138"",""1189945""
""focus"",""138"",""5761534""
","""event"",""trial"",""time""
""blur"",""138"",""1189945""
","""event"",""trial"",""time""
""focus"",""138"",""5761534""
","""event"",""trial"",""time""
""fullscreenenter"",""1"",""5254""
""fullscreenenter"",""1"",""5254""
","
","","","885","","","16","18667","2300","l","elianto","#3366ff99"," "," ","1","+10","[1735]","1","2","","","18667","24","1","1","win","go","0"
"pit-trial","143","5792788","0.0-29.0","battery-v0.2","","""event"",""trial"",""time""
""fullscreenenter"",""1"",""5254""
""fullscreenenter"",""1"",""5254""
""blur"",""138"",""1189945""
""focus"",""138"",""5761534""
","""event"",""trial"",""time""
""blur"",""138"",""1189945""
","""event"",""trial"",""time""
""focus"",""138"",""5761534""
","""event"",""trial"",""time""
""fullscreenenter"",""1"",""5254""
""fullscreenenter"",""1"",""5254""
","
","","","602","","","16","18667","2300","l","elianto","#3366ff99"," "," ","1","+10","[1453]","1","2","","","18667","25","1","1","win","go","0"
"pit-trial","144","5797646","0.0-30.0","battery-v0.2","","""event"",""trial"",""time""
""fullscreenenter"",""1"",""5254""
""fullscreenenter"",""1"",""5254""
""blur"",""138"",""1189945""
""focus"",""138"",""5761534""
","""event"",""trial"",""time""
""blur"",""138"",""1189945""
","""event"",""trial"",""time""
""focus"",""138"",""5761534""
","""event"",""trial"",""time""
""fullscreenenter"",""1"",""5254""
""fullscreenenter"",""1"",""5254""
","
","","","-1","","","16","18667","2300","a","elianto","#f73b6a7A","-1","-1","1","0","[]","0","2","","","18667","26","2","4","lose","no-go","0"
"pit-trial","145","5802505","0.0-31.0","battery-v0.2","","""event"",""trial"",""time""
""fullscreenenter"",""1"",""5254""
""fullscreenenter"",""1"",""5254""
""blur"",""138"",""1189945""
""focus"",""138"",""5761534""
","""event"",""trial"",""time""
""blur"",""138"",""1189945""
","""event"",""trial"",""time""
""focus"",""138"",""5761534""
","""event"",""trial"",""time""
""fullscreenenter"",""1"",""5254""
""fullscreenenter"",""1"",""5254""
","
","","","-1","","","16","18667","2300","u","elianto","#f73b6a7A","-1","-1","1","0","[]","0","2","","","18667","27","0","4","lose","no-go","0"
"pit-trial","146","5806028","0.0-32.0","battery-v0.2","","""event"",""trial"",""time""
""fullscreenenter"",""1"",""5254""
""fullscreenenter"",""1"",""5254""
""blur"",""138"",""1189945""
""focus"",""138"",""5761534""
","""event"",""trial"",""time""
""blur"",""138"",""1189945""
","""event"",""trial"",""time""
""focus"",""138"",""5761534""
","""event"",""trial"",""time""
""fullscreenenter"",""1"",""5254""
""fullscreenenter"",""1"",""5254""
","
","","","665","","","16","18667","2300","g","elianto","#f73b6a7A"," "," ","1","-10","[1515.0000000009313]","1","2","","","18667","28","3","3","lose","go","1"
"pit-trial","147","5810886","0.0-33.0","battery-v0.2","","""event"",""trial"",""time""
""fullscreenenter"",""1"",""5254""
""fullscreenenter"",""1"",""5254""
""blur"",""138"",""1189945""
""focus"",""138"",""5761534""
","""event"",""trial"",""time""
""blur"",""138"",""1189945""
","""event"",""trial"",""time""
""focus"",""138"",""5761534""
","""event"",""trial"",""time""
""fullscreenenter"",""1"",""5254""
""fullscreenenter"",""1"",""5254""
","
","","","-1","","","16","18667","2300","g","elianto","#f73b6a7A"," ","-1","0","0","[]","0","2","","","18667","29","3","3","lose","go","1"
"pit-trial","148","5814344","0.0-34.0","battery-v0.2","","""event"",""trial"",""time""
""fullscreenenter"",""1"",""5254""
""fullscreenenter"",""1"",""5254""
""blur"",""138"",""1189945""
""focus"",""138"",""5761534""
","""event"",""trial"",""time""
""blur"",""138"",""1189945""
","""event"",""trial"",""time""
""focus"",""138"",""5761534""
","""event"",""trial"",""time""
""fullscreenenter"",""1"",""5254""
""fullscreenenter"",""1"",""5254""
","
","","","601","","","16","18667","2300","l","elianto","#3366ff99"," "," ","1","+10","[1451]","1","2","","","18667","30","1","1","win","go","0"
"pit-trial","149","5819203","0.0-35.0","battery-v0.2","","""event"",""trial"",""time""
""fullscreenenter"",""1"",""5254""
""fullscreenenter"",""1"",""5254""
""blur"",""138"",""1189945""
""focus"",""138"",""5761534""
","""event"",""trial"",""time""
""blur"",""138"",""1189945""
","""event"",""trial"",""time""
""focus"",""138"",""5761534""
","""event"",""trial"",""time""
""fullscreenenter"",""1"",""5254""
""fullscreenenter"",""1"",""5254""
","
","","","-1","","","16","18667","2300","a","elianto","#f73b6a7A","-1","-1","1","0","[]","0","2","","","18667","31","2","4","lose","no-go","0"
"pit-trial","150","5824063","0.0-36.0","battery-v0.2","","""event"",""trial"",""time""
""fullscreenenter"",""1"",""5254""
""fullscreenenter"",""1"",""5254""
""blur"",""138"",""1189945""
""focus"",""138"",""5761534""
","""event"",""trial"",""time""
""blur"",""138"",""1189945""
","""event"",""trial"",""time""
""focus"",""138"",""5761534""
","""event"",""trial"",""time""
""fullscreenenter"",""1"",""5254""
""fullscreenenter"",""1"",""5254""
","
","","","-1","","","16","18667","2300","u","elianto","#f73b6a7A","-1","-1","1","0","[]","0","2","","","18667","32","0","4","lose","no-go","0"
"pit-trial","151","5828921","0.0-37.0","battery-v0.2","","""event"",""trial"",""time""
""fullscreenenter"",""1"",""5254""
""fullscreenenter"",""1"",""5254""
""blur"",""138"",""1189945""
""focus"",""138"",""5761534""
","""event"",""trial"",""time""
""blur"",""138"",""1189945""
","""event"",""trial"",""time""
""focus"",""138"",""5761534""
","""event"",""trial"",""time""
""fullscreenenter"",""1"",""5254""
""fullscreenenter"",""1"",""5254""
","
","","","-1","","","16","18667","2300","g","elianto","#f73b6a7A"," ","-1","0","0","[]","0","2","","","18667","33","3","3","lose","go","1"
"pit-trial","152","5832266","0.0-38.0","battery-v0.2","","""event"",""trial"",""time""
""fullscreenenter"",""1"",""5254""
""fullscreenenter"",""1"",""5254""
""blur"",""138"",""1189945""
""focus"",""138"",""5761534""
","""event"",""trial"",""time""
""blur"",""138"",""1189945""
","""event"",""trial"",""time""
""focus"",""138"",""5761534""
","""event"",""trial"",""time""
""fullscreenenter"",""1"",""5254""
""fullscreenenter"",""1"",""5254""
","
","","","487","","","16","18667","2300","l","elianto","#3366ff99"," "," ","1","+10","[1337.9999999990687]","1","2","","","18667","34","1","1","win","go","0"
"pit-trial","153","5837125","0.0-39.0","battery-v0.2","","""event"",""trial"",""time""
""fullscreenenter"",""1"",""5254""
""fullscreenenter"",""1"",""5254""
""blur"",""138"",""1189945""
""focus"",""138"",""5761534""
","""event"",""trial"",""time""
""blur"",""138"",""1189945""
","""event"",""trial"",""time""
""focus"",""138"",""5761534""
","""event"",""trial"",""time""
""fullscreenenter"",""1"",""5254""
""fullscreenenter"",""1"",""5254""
","
","","","-1","","","16","18667","2300","u","elianto","#f73b6a7A","-1","-1","1","0","[]","0","2","","","18667","35","0","4","lose","no-go","0"
"pit-trial","154","5841982","0.0-40.0","battery-v0.2","","""event"",""trial"",""time""
""fullscreenenter"",""1"",""5254""
""fullscreenenter"",""1"",""5254""
""blur"",""138"",""1189945""
""focus"",""138"",""5761534""
","""event"",""trial"",""time""
""blur"",""138"",""1189945""
","""event"",""trial"",""time""
""focus"",""138"",""5761534""
","""event"",""trial"",""time""
""fullscreenenter"",""1"",""5254""
""fullscreenenter"",""1"",""5254""
","
","","","-1","","","16","18667","2300","a","elianto","#f73b6a7A","-1","-1","1","0","[]","0","2","","","18667","36","2","4","lose","no-go","0"
"pit-trial","155","5846840","0.0-41.0","battery-v0.2","","""event"",""trial"",""time""
""fullscreenenter"",""1"",""5254""
""fullscreenenter"",""1"",""5254""
""blur"",""138"",""1189945""
""focus"",""138"",""5761534""
","""event"",""trial"",""time""
""blur"",""138"",""1189945""
","""event"",""trial"",""time""
""focus"",""138"",""5761534""
","""event"",""trial"",""time""
""fullscreenenter"",""1"",""5254""
""fullscreenenter"",""1"",""5254""
","
","","","-1","","","16","18667","2300","u","elianto","#f73b6a7A","-1","-1","1","-10","[]","0","2","","","18667","37","0","4","lose","no-go","1"
"pit-trial","156","5850492","0.0-42.0","battery-v0.2","","""event"",""trial"",""time""
""fullscreenenter"",""1"",""5254""
""fullscreenenter"",""1"",""5254""
""blur"",""138"",""1189945""
""focus"",""138"",""5761534""
","""event"",""trial"",""time""
""blur"",""138"",""1189945""
","""event"",""trial"",""time""
""focus"",""138"",""5761534""
","""event"",""trial"",""time""
""fullscreenenter"",""1"",""5254""
""fullscreenenter"",""1"",""5254""
","
","","","795","","","16","18667","2300","l","elianto","#3366ff99"," "," ","1","0","[1645]","1","2","","","18667","38","1","1","win","go","1"
"pit-trial","157","5855349","0.0-43.0","battery-v0.2","","""event"",""trial"",""time""
""fullscreenenter"",""1"",""5254""
""fullscreenenter"",""1"",""5254""
""blur"",""138"",""1189945""
""focus"",""138"",""5761534""
","""event"",""trial"",""time""
""blur"",""138"",""1189945""
","""event"",""trial"",""time""
""focus"",""138"",""5761534""
","""event"",""trial"",""time""
""fullscreenenter"",""1"",""5254""
""fullscreenenter"",""1"",""5254""
","
","","","-1","","","16","18667","2300","g","elianto","#f73b6a7A"," ","-1","0","-10","[]","0","2","","","18667","39","3","3","lose","go","0"
"pit-trial","158","5860208","0.0-44.0","battery-v0.2","","""event"",""trial"",""time""
""fullscreenenter"",""1"",""5254""
""fullscreenenter"",""1"",""5254""
""blur"",""138"",""1189945""
""focus"",""138"",""5761534""
","""event"",""trial"",""time""
""blur"",""138"",""1189945""
","""event"",""trial"",""time""
""focus"",""138"",""5761534""
","""event"",""trial"",""time""
""fullscreenenter"",""1"",""5254""
""fullscreenenter"",""1"",""5254""
","
","","","-1","","","16","18667","2300","a","elianto","#f73b6a7A","-1","-1","1","0","[]","0","2","","","18667","40","2","4","lose","no-go","0"
"pit-trial","159","5864812","0.0-45.0","battery-v0.2","","""event"",""trial"",""time""
""fullscreenenter"",""1"",""5254""
""fullscreenenter"",""1"",""5254""
""blur"",""138"",""1189945""
""focus"",""138"",""5761534""
","""event"",""trial"",""time""
""blur"",""138"",""1189945""
","""event"",""trial"",""time""
""focus"",""138"",""5761534""
","""event"",""trial"",""time""
""fullscreenenter"",""1"",""5254""
""fullscreenenter"",""1"",""5254""
","
","","","1747.0000000009313","","","16","18667","2300","l","elianto","#3366ff99"," "," ","1","+10","[2597.0000000009313]","1","2","","","18667","41","1","1","win","go","0"
"pit-trial","160","5869671","0.0-46.0","battery-v0.2","","""event"",""trial"",""time""
""fullscreenenter"",""1"",""5254""
""fullscreenenter"",""1"",""5254""
""blur"",""138"",""1189945""
""focus"",""138"",""5761534""
","""event"",""trial"",""time""
""blur"",""138"",""1189945""
","""event"",""trial"",""time""
""focus"",""138"",""5761534""
","""event"",""trial"",""time""
""fullscreenenter"",""1"",""5254""
""fullscreenenter"",""1"",""5254""
","
","","","-1","","","16","18667","2300","a","elianto","#f73b6a7A","-1","-1","1","0","[]","0","2","","","18667","42","2","4","lose","no-go","0"
"pit-trial","161","5874530","0.0-47.0","battery-v0.2","","""event"",""trial"",""time""
""fullscreenenter"",""1"",""5254""
""fullscreenenter"",""1"",""5254""
""blur"",""138"",""1189945""
""focus"",""138"",""5761534""
","""event"",""trial"",""time""
""blur"",""138"",""1189945""
","""event"",""trial"",""time""
""focus"",""138"",""5761534""
","""event"",""trial"",""time""
""fullscreenenter"",""1"",""5254""
""fullscreenenter"",""1"",""5254""
","
","","","-1","","","16","18667","2300","g","elianto","#f73b6a7A"," ","-1","0","-10","[]","0","2","","","18667","43","3","3","lose","go","0"
"pit-trial","162","5879389","0.0-48.0","battery-v0.2","","""event"",""trial"",""time""
""fullscreenenter"",""1"",""5254""
""fullscreenenter"",""1"",""5254""
""blur"",""138"",""1189945""
""focus"",""138"",""5761534""
","""event"",""trial"",""time""
""blur"",""138"",""1189945""
","""event"",""trial"",""time""
""focus"",""138"",""5761534""
","""event"",""trial"",""time""
""fullscreenenter"",""1"",""5254""
""fullscreenenter"",""1"",""5254""
","
","","","-1","","","16","18667","2300","u","elianto","#f73b6a7A","-1","-1","1","0","[]","0","2","","","18667","44","0","4","lose","no-go","0"
"pit-trial","163","5883570","0.0-49.0","battery-v0.2","","""event"",""trial"",""time""
""fullscreenenter"",""1"",""5254""
""fullscreenenter"",""1"",""5254""
""blur"",""138"",""1189945""
""focus"",""138"",""5761534""
","""event"",""trial"",""time""
""blur"",""138"",""1189945""
","""event"",""trial"",""time""
""focus"",""138"",""5761534""
","""event"",""trial"",""time""
""fullscreenenter"",""1"",""5254""
""fullscreenenter"",""1"",""5254""
","
","","","1324","","","16","18667","2300","p","elianto","#3366ff99","-1"," ","0","0","[2174,2321]","2","2","","","18667","45","4","2","win","no-go","0"
"pit-trial","164","5888428","0.0-50.0","battery-v0.2","","""event"",""trial"",""time""
""fullscreenenter"",""1"",""5254""
""fullscreenenter"",""1"",""5254""
""blur"",""138"",""1189945""
""focus"",""138"",""5761534""
","""event"",""trial"",""time""
""blur"",""138"",""1189945""
","""event"",""trial"",""time""
""focus"",""138"",""5761534""
","""event"",""trial"",""time""
""fullscreenenter"",""1"",""5254""
""fullscreenenter"",""1"",""5254""
","
","","","-1","","","16","18667","2300","a","elianto","#f73b6a7A","-1","-1","1","-10","[]","0","2","","","18667","46","2","4","lose","no-go","1"
"pit-trial","165","5893285","0.0-51.0","battery-v0.2","","""event"",""trial"",""time""
""fullscreenenter"",""1"",""5254""
""fullscreenenter"",""1"",""5254""
""blur"",""138"",""1189945""
""focus"",""138"",""5761534""
","""event"",""trial"",""time""
""blur"",""138"",""1189945""
","""event"",""trial"",""time""
""focus"",""138"",""5761534""
","""event"",""trial"",""time""
""fullscreenenter"",""1"",""5254""
""fullscreenenter"",""1"",""5254""
","
","","","-1","","","16","18667","2300","u","elianto","#f73b6a7A","-1","-1","1","0","[]","0","2","","","18667","47","0","4","lose","no-go","0"
"pit-trial","166","5897418","0.0-52.0","battery-v0.2","","""event"",""trial"",""time""
""fullscreenenter"",""1"",""5254""
""fullscreenenter"",""1"",""5254""
""blur"",""138"",""1189945""
""focus"",""138"",""5761534""
","""event"",""trial"",""time""
""blur"",""138"",""1189945""
","""event"",""trial"",""time""
""focus"",""138"",""5761534""
","""event"",""trial"",""time""
""fullscreenenter"",""1"",""5254""
""fullscreenenter"",""1"",""5254""
","
","","","1274","","","16","18667","2300","g","elianto","#f73b6a7A"," "," ","1","0","[2126]","1","2","","","18667","48","3","3","lose","go","0"
"pit-trial","167","5901224","0.0-53.0","battery-v0.2","","""event"",""trial"",""time""
""fullscreenenter"",""1"",""5254""
""fullscreenenter"",""1"",""5254""
""blur"",""138"",""1189945""
""focus"",""138"",""5761534""
","""event"",""trial"",""time""
""blur"",""138"",""1189945""
","""event"",""trial"",""time""
""focus"",""138"",""5761534""
","""event"",""trial"",""time""
""fullscreenenter"",""1"",""5254""
""fullscreenenter"",""1"",""5254""
","
","","","946","","","16","18667","2300","p","elianto","#3366ff99","-1"," ","0","0","[1799]","1","2","","","18667","49","4","2","win","no-go","0"
"pit-trial","168","5906083","0.0-54.0","battery-v0.2","","""event"",""trial"",""time""
""fullscreenenter"",""1"",""5254""
""fullscreenenter"",""1"",""5254""
""blur"",""138"",""1189945""
""focus"",""138"",""5761534""
","""event"",""trial"",""time""
""blur"",""138"",""1189945""
","""event"",""trial"",""time""
""focus"",""138"",""5761534""
","""event"",""trial"",""time""
""fullscreenenter"",""1"",""5254""
""fullscreenenter"",""1"",""5254""
","
","","","-1","","","16","18667","2300","u","elianto","#f73b6a7A","-1","-1","1","0","[]","0","2","","","18667","50","0","4","lose","no-go","0"
"pit-trial","169","5909816","0.0-55.0","battery-v0.2","","""event"",""trial"",""time""
""fullscreenenter"",""1"",""5254""
""fullscreenenter"",""1"",""5254""
""blur"",""138"",""1189945""
""focus"",""138"",""5761534""
","""event"",""trial"",""time""
""blur"",""138"",""1189945""
","""event"",""trial"",""time""
""focus"",""138"",""5761534""
","""event"",""trial"",""time""
""fullscreenenter"",""1"",""5254""
""fullscreenenter"",""1"",""5254""
","
","","","874","","","16","18667","2300","l","elianto","#3366ff99"," "," ","1","0","[1725]","1","2","","","18667","51","1","1","win","go","1"
"pit-trial","170","5913628","0.0-56.0","battery-v0.2","","""event"",""trial"",""time""
""fullscreenenter"",""1"",""5254""
""fullscreenenter"",""1"",""5254""
""blur"",""138"",""1189945""
""focus"",""138"",""5761534""
","""event"",""trial"",""time""
""blur"",""138"",""1189945""
","""event"",""trial"",""time""
""focus"",""138"",""5761534""
","""event"",""trial"",""time""
""fullscreenenter"",""1"",""5254""
""fullscreenenter"",""1"",""5254""
","
","","","955","","","16","18667","2300","g","elianto","#f73b6a7A"," "," ","1","0","[1805]","1","2","","","18667","52","3","3","lose","go","0"
"pit-trial","171","5918486","0.0-57.0","battery-v0.2","","""event"",""trial"",""time""
""fullscreenenter"",""1"",""5254""
""fullscreenenter"",""1"",""5254""
""blur"",""138"",""1189945""
""focus"",""138"",""5761534""
","""event"",""trial"",""time""
""blur"",""138"",""1189945""
","""event"",""trial"",""time""
""focus"",""138"",""5761534""
","""event"",""trial"",""time""
""fullscreenenter"",""1"",""5254""
""fullscreenenter"",""1"",""5254""
","
","","","-1","","","16","18667","2300","a","elianto","#f73b6a7A","-1","-1","1","0","[]","0","2","","","18667","53","2","4","lose","no-go","0"
"pit-trial","172","5922333","0.0-58.0","battery-v0.2","","""event"",""trial"",""time""
""fullscreenenter"",""1"",""5254""
""fullscreenenter"",""1"",""5254""
""blur"",""138"",""1189945""
""focus"",""138"",""5761534""
","""event"",""trial"",""time""
""blur"",""138"",""1189945""
","""event"",""trial"",""time""
""focus"",""138"",""5761534""
","""event"",""trial"",""time""
""fullscreenenter"",""1"",""5254""
""fullscreenenter"",""1"",""5254""
","
","","","988.9999999990687","","","16","18667","2300","l","elianto","#3366ff99"," "," ","1","+10","[1839]","1","2","","","18667","54","1","1","win","go","0"
"pit-trial","173","5927192","0.0-59.0","battery-v0.2","","""event"",""trial"",""time""
""fullscreenenter"",""1"",""5254""
""fullscreenenter"",""1"",""5254""
""blur"",""138"",""1189945""
""focus"",""138"",""5761534""
","""event"",""trial"",""time""
""blur"",""138"",""1189945""
","""event"",""trial"",""time""
""focus"",""138"",""5761534""
","""event"",""trial"",""time""
""fullscreenenter"",""1"",""5254""
""fullscreenenter"",""1"",""5254""
","
","","","-1","","","16","18667","2300","u","elianto","#f73b6a7A","-1","-1","1","0","[]","0","2","","","18667","55","0","4","lose","no-go","0"
"pit-trial","174","5931350","0.0-60.0","battery-v0.2","","""event"",""trial"",""time""
""fullscreenenter"",""1"",""5254""
""fullscreenenter"",""1"",""5254""
""blur"",""138"",""1189945""
""focus"",""138"",""5761534""
","""event"",""trial"",""time""
""blur"",""138"",""1189945""
","""event"",""trial"",""time""
""focus"",""138"",""5761534""
","""event"",""trial"",""time""
""fullscreenenter"",""1"",""5254""
""fullscreenenter"",""1"",""5254""
","
","","","1300","","","16","18667","2300","p","elianto","#3366ff99","-1"," ","0","+10","[2151]","1","2","","","18667","56","4","2","win","no-go","1"
"pit-trial","175","5935192","0.0-61.0","battery-v0.2","","""event"",""trial"",""time""
""fullscreenenter"",""1"",""5254""
""fullscreenenter"",""1"",""5254""
""blur"",""138"",""1189945""
""focus"",""138"",""5761534""
","""event"",""trial"",""time""
""blur"",""138"",""1189945""
","""event"",""trial"",""time""
""focus"",""138"",""5761534""
","""event"",""trial"",""time""
""fullscreenenter"",""1"",""5254""
""fullscreenenter"",""1"",""5254""
","
","","","983","","","16","18667","2300","l","elianto","#3366ff99"," "," ","1","+10","[1834]","1","2","","","18667","57","1","1","win","go","0"
"pit-trial","176","5939021","0.0-62.0","battery-v0.2","","""event"",""trial"",""time""
""fullscreenenter"",""1"",""5254""
""fullscreenenter"",""1"",""5254""
""blur"",""138"",""1189945""
""focus"",""138"",""5761534""
","""event"",""trial"",""time""
""blur"",""138"",""1189945""
","""event"",""trial"",""time""
""focus"",""138"",""5761534""
","""event"",""trial"",""time""
""fullscreenenter"",""1"",""5254""
""fullscreenenter"",""1"",""5254""
","
","","","972","","","16","18667","2300","p","elianto","#3366ff99","-1"," ","0","0","[1822]","1","2","","","18667","58","4","2","win","no-go","0"
"pit-trial","177","5943065","0.0-63.0","battery-v0.2","","""event"",""trial"",""time""
""fullscreenenter"",""1"",""5254""
""fullscreenenter"",""1"",""5254""
""blur"",""138"",""1189945""
""focus"",""138"",""5761534""
","""event"",""trial"",""time""
""blur"",""138"",""1189945""
","""event"",""trial"",""time""
""focus"",""138"",""5761534""
","""event"",""trial"",""time""
""fullscreenenter"",""1"",""5254""
""fullscreenenter"",""1"",""5254""
","
","","","1187","","","16","18667","2300","g","elianto","#f73b6a7A"," "," ","1","0","[2037]","1","2","","","18667","59","3","3","lose","go","0"
"pit-trial","178","5947924","0.0-64.0","battery-v0.2","","""event"",""trial"",""time""
""fullscreenenter"",""1"",""5254""
""fullscreenenter"",""1"",""5254""
""blur"",""138"",""1189945""
""focus"",""138"",""5761534""
","""event"",""trial"",""time""
""blur"",""138"",""1189945""
","""event"",""trial"",""time""
""focus"",""138"",""5761534""
","""event"",""trial"",""time""
""fullscreenenter"",""1"",""5254""
""fullscreenenter"",""1"",""5254""
","
","","","-1","","","16","18667","2300","u","elianto","#f73b6a7A","-1","-1","1","0","[]","0","2","","","18667","60","0","4","lose","no-go","0"
"pit-trial","179","5952782","0.0-65.0","battery-v0.2","","""event"",""trial"",""time""
""fullscreenenter"",""1"",""5254""
""fullscreenenter"",""1"",""5254""
""blur"",""138"",""1189945""
""focus"",""138"",""5761534""
","""event"",""trial"",""time""
""blur"",""138"",""1189945""
","""event"",""trial"",""time""
""focus"",""138"",""5761534""
","""event"",""trial"",""time""
""fullscreenenter"",""1"",""5254""
""fullscreenenter"",""1"",""5254""
","
","","","-1","","","16","18667","2300","a","elianto","#f73b6a7A","-1","-1","1","0","[]","0","2","","","18667","61","2","4","lose","no-go","0"
"pit-trial","180","5956685","0.0-66.0","battery-v0.2","","""event"",""trial"",""time""
""fullscreenenter"",""1"",""5254""
""fullscreenenter"",""1"",""5254""
""blur"",""138"",""1189945""
""focus"",""138"",""5761534""
","""event"",""trial"",""time""
""blur"",""138"",""1189945""
","""event"",""trial"",""time""
""focus"",""138"",""5761534""
","""event"",""trial"",""time""
""fullscreenenter"",""1"",""5254""
""fullscreenenter"",""1"",""5254""
","
","","","1046","","","16","18667","2300","l","elianto","#3366ff99"," "," ","1","+10","[1896,2042]","2","2","","","18667","62","1","1","win","go","0"
"pit-trial","181","5960587","0.0-67.0","battery-v0.2","","""event"",""trial"",""time""
""fullscreenenter"",""1"",""5254""
""fullscreenenter"",""1"",""5254""
""blur"",""138"",""1189945""
""focus"",""138"",""5761534""
","""event"",""trial"",""time""
""blur"",""138"",""1189945""
","""event"",""trial"",""time""
""focus"",""138"",""5761534""
","""event"",""trial"",""time""
""fullscreenenter"",""1"",""5254""
""fullscreenenter"",""1"",""5254""
","
","","","1043","","","16","18667","2300","g","elianto","#f73b6a7A"," "," ","1","0","[1893]","1","2","","","18667","63","3","3","lose","go","0"
"pit-trial","182","5964387","0.0-68.0","battery-v0.2","","""event"",""trial"",""time""
""fullscreenenter"",""1"",""5254""
""fullscreenenter"",""1"",""5254""
""blur"",""138"",""1189945""
""focus"",""138"",""5761534""
","""event"",""trial"",""time""
""blur"",""138"",""1189945""
","""event"",""trial"",""time""
""focus"",""138"",""5761534""
","""event"",""trial"",""time""
""fullscreenenter"",""1"",""5254""
""fullscreenenter"",""1"",""5254""
","
","","","942","","","16","18667","2300","p","elianto","#3366ff99","-1"," ","0","0","[1792]","1","2","","","18667","64","4","2","win","no-go","0"
"pit-trial","183","5969245","0.0-69.0","battery-v0.2","","""event"",""trial"",""time""
""fullscreenenter"",""1"",""5254""
""fullscreenenter"",""1"",""5254""
""blur"",""138"",""1189945""
""focus"",""138"",""5761534""
","""event"",""trial"",""time""
""blur"",""138"",""1189945""
","""event"",""trial"",""time""
""focus"",""138"",""5761534""
","""event"",""trial"",""time""
""fullscreenenter"",""1"",""5254""
""fullscreenenter"",""1"",""5254""
","
","","","-1","","","16","18667","2300","p","elianto","#3366ff99","-1","-1","1","+10","[]","0","2","","","18667","65","4","2","win","no-go","0"
"pit-trial","184","5973294","0.0-70.0","battery-v0.2","","""event"",""trial"",""time""
""fullscreenenter"",""1"",""5254""
""fullscreenenter"",""1"",""5254""
""blur"",""138"",""1189945""
""focus"",""138"",""5761534""
","""event"",""trial"",""time""
""blur"",""138"",""1189945""
","""event"",""trial"",""time""
""focus"",""138"",""5761534""
","""event"",""trial"",""time""
""fullscreenenter"",""1"",""5254""
""fullscreenenter"",""1"",""5254""
","
","","","1190","","","16","18667","2300","g","elianto","#f73b6a7A"," "," ","1","0","[2041]","1","2","","","18667","66","3","3","lose","go","0"
"pit-trial","185","5978153","0.0-71.0","battery-v0.2","","""event"",""trial"",""time""
""fullscreenenter"",""1"",""5254""
""fullscreenenter"",""1"",""5254""
""blur"",""138"",""1189945""
""focus"",""138"",""5761534""
","""event"",""trial"",""time""
""blur"",""138"",""1189945""
","""event"",""trial"",""time""
""focus"",""138"",""5761534""
","""event"",""trial"",""time""
""fullscreenenter"",""1"",""5254""
""fullscreenenter"",""1"",""5254""
","
","","","-1","","","16","18667","2300","a","elianto","#f73b6a7A","-1","-1","1","0","[]","0","2","","","18667","67","2","4","lose","no-go","0"
"pit-trial","186","5982678","0.0-72.0","battery-v0.2","","""event"",""trial"",""time""
""fullscreenenter"",""1"",""5254""
""fullscreenenter"",""1"",""5254""
""blur"",""138"",""1189945""
""focus"",""138"",""5761534""
","""event"",""trial"",""time""
""blur"",""138"",""1189945""
","""event"",""trial"",""time""
""focus"",""138"",""5761534""
","""event"",""trial"",""time""
""fullscreenenter"",""1"",""5254""
""fullscreenenter"",""1"",""5254""
","
","","","1667.0000000009313","","","16","18667","2300","l","elianto","#3366ff99"," "," ","1","+10","[2518]","1","2","","","18667","68","1","1","win","go","0"
"pit-trial","187","5986581","0.0-73.0","battery-v0.2","","""event"",""trial"",""time""
""fullscreenenter"",""1"",""5254""
""fullscreenenter"",""1"",""5254""
""blur"",""138"",""1189945""
""focus"",""138"",""5761534""
","""event"",""trial"",""time""
""blur"",""138"",""1189945""
","""event"",""trial"",""time""
""focus"",""138"",""5761534""
","""event"",""trial"",""time""
""fullscreenenter"",""1"",""5254""
""fullscreenenter"",""1"",""5254""
","
","","","1045","","","16","18667","2300","s","elianto","#3366ff99"," "," ","1","+10","[1895.0000000009313]","1","2","","","18667","69","5","1","win","go","0"
"pit-trial","188","5990515","0.0-74.0","battery-v0.2","","""event"",""trial"",""time""
""fullscreenenter"",""1"",""5254""
""fullscreenenter"",""1"",""5254""
""blur"",""138"",""1189945""
""focus"",""138"",""5761534""
","""event"",""trial"",""time""
""blur"",""138"",""1189945""
","""event"",""trial"",""time""
""focus"",""138"",""5761534""
","""event"",""trial"",""time""
""fullscreenenter"",""1"",""5254""
""fullscreenenter"",""1"",""5254""
","
","","","1076","","","16","18667","2300","g","elianto","#f73b6a7A"," "," ","1","0","[1926]","1","2","","","18667","70","3","3","lose","go","0"
"pit-trial","189","5994330","0.0-75.0","battery-v0.2","","""event"",""trial"",""time""
""fullscreenenter"",""1"",""5254""
""fullscreenenter"",""1"",""5254""
""blur"",""138"",""1189945""
""focus"",""138"",""5761534""
","""event"",""trial"",""time""
""blur"",""138"",""1189945""
","""event"",""trial"",""time""
""focus"",""138"",""5761534""
","""event"",""trial"",""time""
""fullscreenenter"",""1"",""5254""
""fullscreenenter"",""1"",""5254""
","
","","","958","","","16","18667","2300","l","elianto","#3366ff99"," "," ","1","+10","[1808]","1","2","","","18667","71","1","1","win","go","0"
"pit-trial","190","5997849","0.0-76.0","battery-v0.2","","""event"",""trial"",""time""
""fullscreenenter"",""1"",""5254""
""fullscreenenter"",""1"",""5254""
""blur"",""138"",""1189945""
""focus"",""138"",""5761534""
","""event"",""trial"",""time""
""blur"",""138"",""1189945""
","""event"",""trial"",""time""
""focus"",""138"",""5761534""
","""event"",""trial"",""time""
""fullscreenenter"",""1"",""5254""
""fullscreenenter"",""1"",""5254""
","
","","","661.9999999990687","","","16","18667","2300","p","elianto","#3366ff99","-1"," ","0","0","[1513]","1","2","","","18667","72","4","2","win","no-go","0"
"pit-trial","191","6001852","0.0-77.0","battery-v0.2","","""event"",""trial"",""time""
""fullscreenenter"",""1"",""5254""
""fullscreenenter"",""1"",""5254""
""blur"",""138"",""1189945""
""focus"",""138"",""5761534""
","""event"",""trial"",""time""
""blur"",""138"",""1189945""
","""event"",""trial"",""time""
""focus"",""138"",""5761534""
","""event"",""trial"",""time""
""fullscreenenter"",""1"",""5254""
""fullscreenenter"",""1"",""5254""
","
","","","1144.0000000009313","","","16","18667","2300","g","elianto","#f73b6a7A"," "," ","1","0","[1994.0000000009313]","1","2","","","18667","73","3","3","lose","go","0"
"pit-trial","192","6006712","0.0-78.0","battery-v0.2","","""event"",""trial"",""time""
""fullscreenenter"",""1"",""5254""
""fullscreenenter"",""1"",""5254""
""blur"",""138"",""1189945""
""focus"",""138"",""5761534""
","""event"",""trial"",""time""
""blur"",""138"",""1189945""
","""event"",""trial"",""time""
""focus"",""138"",""5761534""
","""event"",""trial"",""time""
""fullscreenenter"",""1"",""5254""
""fullscreenenter"",""1"",""5254""
","
","","","-1","","","16","18667","2300","p","elianto","#3366ff99","-1","-1","1","0","[]","0","2","","","18667","74","4","2","win","no-go","1"
"pit-trial","193","6011570","0.0-79.0","battery-v0.2","","""event"",""trial"",""time""
""fullscreenenter"",""1"",""5254""
""fullscreenenter"",""1"",""5254""
""blur"",""138"",""1189945""
""focus"",""138"",""5761534""
","""event"",""trial"",""time""
""blur"",""138"",""1189945""
","""event"",""trial"",""time""
""focus"",""138"",""5761534""
","""event"",""trial"",""time""
""fullscreenenter"",""1"",""5254""
""fullscreenenter"",""1"",""5254""
","
","","","-1","","","16","18667","2300","l","elianto","#3366ff99"," ","-1","0","+10","[3725.9999999990687]","1","2","","","18667","75","1","1","win","go","1"
"pit-trial","194","6016429","0.0-80.0","battery-v0.2","","""event"",""trial"",""time""
""fullscreenenter"",""1"",""5254""
""fullscreenenter"",""1"",""5254""
""blur"",""138"",""1189945""
""focus"",""138"",""5761534""
","""event"",""trial"",""time""
""blur"",""138"",""1189945""
","""event"",""trial"",""time""
""focus"",""138"",""5761534""
","""event"",""trial"",""time""
""fullscreenenter"",""1"",""5254""
""fullscreenenter"",""1"",""5254""
","
","","","-1","","","16","18667","2300","s","elianto","#3366ff99"," ","-1","0","0","[4557]","1","2","","","18667","76","5","1","win","go","0"
"pit-trial","195","6021287","0.0-81.0","battery-v0.2","","""event"",""trial"",""time""
""fullscreenenter"",""1"",""5254""
""fullscreenenter"",""1"",""5254""
""blur"",""138"",""1189945""
""focus"",""138"",""5761534""
","""event"",""trial"",""time""
""blur"",""138"",""1189945""
","""event"",""trial"",""time""
""focus"",""138"",""5761534""
","""event"",""trial"",""time""
""fullscreenenter"",""1"",""5254""
""fullscreenenter"",""1"",""5254""
","
","","","-1","","","16","18667","2300","s","elianto","#3366ff99"," ","-1","0","0","[2877.0000000009313]","1","2","","","18667","77","5","1","win","go","0"
"pit-trial","196","6025057","0.0-82.0","battery-v0.2","","""event"",""trial"",""time""
""fullscreenenter"",""1"",""5254""
""fullscreenenter"",""1"",""5254""
""blur"",""138"",""1189945""
""focus"",""138"",""5761534""
","""event"",""trial"",""time""
""blur"",""138"",""1189945""
","""event"",""trial"",""time""
""focus"",""138"",""5761534""
","""event"",""trial"",""time""
""fullscreenenter"",""1"",""5254""
""fullscreenenter"",""1"",""5254""
","
","","","912","","","16","18667","2300","g","elianto","#f73b6a7A"," "," ","1","0","[1763]","1","2","","","18667","78","3","3","lose","go","0"
"pit-trial","197","6029915","0.0-83.0","battery-v0.2","","""event"",""trial"",""time""
""fullscreenenter"",""1"",""5254""
""fullscreenenter"",""1"",""5254""
""blur"",""138"",""1189945""
""focus"",""138"",""5761534""
","""event"",""trial"",""time""
""blur"",""138"",""1189945""
","""event"",""trial"",""time""
""focus"",""138"",""5761534""
","""event"",""trial"",""time""
""fullscreenenter"",""1"",""5254""
""fullscreenenter"",""1"",""5254""
","
","","","-1","","","16","18667","2300","w","elianto","#f73b6a7A","-1","-1","1","0","[]","0","2","","","18667","79","6","4","lose","no-go","0"
"pit-trial","198","6034774","0.0-84.0","battery-v0.2","","""event"",""trial"",""time""
""fullscreenenter"",""1"",""5254""
""fullscreenenter"",""1"",""5254""
""blur"",""138"",""1189945""
""focus"",""138"",""5761534""
","""event"",""trial"",""time""
""blur"",""138"",""1189945""
","""event"",""trial"",""time""
""focus"",""138"",""5761534""
","""event"",""trial"",""time""
""fullscreenenter"",""1"",""5254""
""fullscreenenter"",""1"",""5254""
","
","","","-1","","","16","18667","2300","p","elianto","#3366ff99","-1","-1","1","+10","[]","0","2","","","18667","80","4","2","win","no-go","0"
"pit-trial","199","6039633","0.0-85.0","battery-v0.2","","""event"",""trial"",""time""
""fullscreenenter"",""1"",""5254""
""fullscreenenter"",""1"",""5254""
""blur"",""138"",""1189945""
""focus"",""138"",""5761534""
","""event"",""trial"",""time""
""blur"",""138"",""1189945""
","""event"",""trial"",""time""
""focus"",""138"",""5761534""
","""event"",""trial"",""time""
""fullscreenenter"",""1"",""5254""
""fullscreenenter"",""1"",""5254""
","
","","","-1","","","16","18667","2300","w","elianto","#f73b6a7A","-1","-1","1","0","[]","0","2","","","18667","81","6","4","lose","no-go","0"
"pit-trial","200","6043643","0.0-86.0","battery-v0.2","","""event"",""trial"",""time""
""fullscreenenter"",""1"",""5254""
""fullscreenenter"",""1"",""5254""
""blur"",""138"",""1189945""
""focus"",""138"",""5761534""
","""event"",""trial"",""time""
""blur"",""138"",""1189945""
","""event"",""trial"",""time""
""focus"",""138"",""5761534""
","""event"",""trial"",""time""
""fullscreenenter"",""1"",""5254""
""fullscreenenter"",""1"",""5254""
","
","","","1151","","","16","18667","2300","s","elianto","#3366ff99"," "," ","1","+10","[2002]","1","2","","","18667","82","5","1","win","go","0"
"pit-trial","201","6048501","0.0-87.0","battery-v0.2","","""event"",""trial"",""time""
""fullscreenenter"",""1"",""5254""
""fullscreenenter"",""1"",""5254""
""blur"",""138"",""1189945""
""focus"",""138"",""5761534""
","""event"",""trial"",""time""
""blur"",""138"",""1189945""
","""event"",""trial"",""time""
""focus"",""138"",""5761534""
","""event"",""trial"",""time""
