"trial_type","trial_index","time_elapsed","internal_node_id","task_version","subject_id","interactions","blur_events","focus_events","fullscreenenter_events","fullscreenexit_events","success","view_history","rt","responses","num_errors","age","subject","participantId","rune","rune_set","hex","correct","choice","accuracy","outcome","keys","total_keys","block","practice","value","sub","trial","stimulus","robot","valence","action","sham"
"pavlovia","0","9","0.0-0.0","battery-v0.2","","""event"",""trial"",""time""
""fullscreenenter"",""1"",""2681""
","
","
","""event"",""trial"",""time""
""fullscreenenter"",""1"",""2681""
","
","","","","","","","","","","","","","","","","","","","","","","","","","","",""
"fullscreen","1","3661","0.0-1.0","battery-v0.2","","""event"",""trial"",""time""
""fullscreenenter"",""1"",""2681""
","
","
","""event"",""trial"",""time""
""fullscreenenter"",""1"",""2681""
","
","true","","","","","","","","","","","","","","","","","","","","","","","","","",""
"pit-instructions","2","8234","0.0-2.0-0.0","battery-v0.2","","""event"",""trial"",""time""
""fullscreenenter"",""1"",""2681""
","
","
","""event"",""trial"",""time""
""fullscreenenter"",""1"",""2681""
","
","","[{""page_index"":0,""viewing_time"":4569}]","4569","","","","","","","","","","","","","","","","","","","","","","","",""
"pit-comprehension","3","11505","0.0-2.0-1.0-0.0","battery-v0.2","","""event"",""trial"",""time""
""fullscreenenter"",""1"",""2681""
","
","
","""event"",""trial"",""time""
""fullscreenenter"",""1"",""2681""
","
","","","3268","[""shark""]","0","21","14706","4450","","","","","","","","","","","","","","","","","","",""
"pit-instructions","4","12553","0.0-2.0-1.0-1.0","battery-v0.2","","""event"",""trial"",""time""
""fullscreenenter"",""1"",""2681""
","
","
","""event"",""trial"",""time""
""fullscreenenter"",""1"",""2681""
","
","","[{""page_index"":0,""viewing_time"":1041}]","1041","","","","","","","","","","","","","","","","","","","","","","","",""
"pit-comprehension","5","15091","0.0-2.0-2.0-0.0","battery-v0.2","","""event"",""trial"",""time""
""fullscreenenter"",""1"",""2681""
","
","
","""event"",""trial"",""time""
""fullscreenenter"",""1"",""2681""
","
","","","2536","[""tiger""]","0","21","14706","4450","","","","","","","","","","","","","","","","","","",""
"pit-instructions","6","16113","0.0-2.0-2.0-1.0","battery-v0.2","","""event"",""trial"",""time""
""fullscreenenter"",""1"",""2681""
","
","
","""event"",""trial"",""time""
""fullscreenenter"",""1"",""2681""
","
","","[{""page_index"":0,""viewing_time"":1021}]","1021","","","","","","","","","","","","","","","","","","","","","","","",""
"pit-instructions","7","109097","0.0-2.0-3.0","battery-v0.2","","""event"",""trial"",""time""
""fullscreenenter"",""1"",""2681""
","
","
","""event"",""trial"",""time""
""fullscreenenter"",""1"",""2681""
","
","","[{""page_index"":0,""viewing_time"":9254},{""page_index"":1,""viewing_time"":5712},{""page_index"":2,""viewing_time"":6304},{""page_index"":3,""viewing_time"":6360},{""page_index"":4,""viewing_time"":5873},{""page_index"":5,""viewing_time"":5183},{""page_index"":6,""viewing_time"":6167},{""page_index"":7,""viewing_time"":6913},{""page_index"":8,""viewing_time"":6576},{""page_index"":9,""viewing_time"":8264},{""page_index"":10,""viewing_time"":7439},{""page_index"":11,""viewing_time"":7273},{""page_index"":12,""viewing_time"":6511},{""page_index"":13,""viewing_time"":5153}]","92982","","","","","","","","","","","","","","","","","","","","","","","",""
"pit-trial","8","112364","0.0-2.0-4.0-0.0","battery-v0.2","","""event"",""trial"",""time""
""fullscreenenter"",""1"",""2681""
","
","
","""event"",""trial"",""time""
""fullscreenenter"",""1"",""2681""
","
","","","407","","","21","14706","4450","&#9784;","elianto","#FFFFF080"," "," ","1","&#10004","[1260]","1","0","0","","","","","","","",""
"pit-trial","9","115452","0.0-2.0-4.1-0.1","battery-v0.2","","""event"",""trial"",""time""
""fullscreenenter"",""1"",""2681""
","
","
","""event"",""trial"",""time""
""fullscreenenter"",""1"",""2681""
","
","","","215","","","21","14706","4450","&#9784;","elianto","#FFFFF080"," "," ","1","&#10004","[1069]","1","0","0","","","","","","","",""
"pit-trial","10","118593","0.0-2.0-4.2-0.2","battery-v0.2","","""event"",""trial"",""time""
""fullscreenenter"",""1"",""2681""
","
","
","""event"",""trial"",""time""
""fullscreenenter"",""1"",""2681""
","
","","","275","","","21","14706","4450","&#9784;","elianto","#FFFFF080"," "," ","1","&#10004","[1127]","1","0","0","","","","","","","",""
"pit-trial","11","121665","0.0-2.0-4.3-0.3","battery-v0.2","","""event"",""trial"",""time""
""fullscreenenter"",""1"",""2681""
","
","
","""event"",""trial"",""time""
""fullscreenenter"",""1"",""2681""
","
","","","194","","","21","14706","4450","&#9784;","elianto","#FFFFF080"," "," ","1","&#10004","[1053]","1","0","0","","","","","","","",""
"pit-trial","12","124752","0.0-2.0-4.4-0.4","battery-v0.2","","""event"",""trial"",""time""
""fullscreenenter"",""1"",""2681""
","
","
","""event"",""trial"",""time""
""fullscreenenter"",""1"",""2681""
","
","","","223","","","21","14706","4450","&#9784;","elianto","#FFFFF080"," "," ","1","&#10004","[1079]","1","0","0","","","","","","","",""
"pit-instructions","13","146612","0.0-2.0-5.0","battery-v0.2","","""event"",""trial"",""time""
""fullscreenenter"",""1"",""2681""
","
","
","""event"",""trial"",""time""
""fullscreenenter"",""1"",""2681""
","
","","[{""page_index"":0,""viewing_time"":4703},{""page_index"":1,""viewing_time"":5399},{""page_index"":2,""viewing_time"":6745},{""page_index"":3,""viewing_time"":5011}]","21858","","","","","","","","","","","","","","","","","","","","","","","",""
"pit-trial","14","151486","0.0-2.0-6.0-0.0","battery-v0.2","","""event"",""trial"",""time""
""fullscreenenter"",""1"",""2681""
","
","
","""event"",""trial"",""time""
""fullscreenenter"",""1"",""2681""
","
","","","-1","","","21","14706","4450","&#9854;","elianto","#FFFFF080","-1","-1","1","&#10004","[]","0","0","1","","","","","","","",""
"pit-trial","15","156355","0.0-2.0-6.1-0.1","battery-v0.2","","""event"",""trial"",""time""
""fullscreenenter"",""1"",""2681""
","
","
","""event"",""trial"",""time""
""fullscreenenter"",""1"",""2681""
","
","","","-1","","","21","14706","4450","&#9854;","elianto","#FFFFF080","-1","-1","1","&#10004","[]","0","0","1","","","","","","","",""
"pit-trial","16","161222","0.0-2.0-6.2-0.2","battery-v0.2","","""event"",""trial"",""time""
""fullscreenenter"",""1"",""2681""
","
","
","""event"",""trial"",""time""
""fullscreenenter"",""1"",""2681""
","
","","","-1","","","21","14706","4450","&#9854;","elianto","#FFFFF080","-1","-1","1","&#10004","[]","0","0","1","","","","","","","",""
"pit-trial","17","166087","0.0-2.0-6.3-0.3","battery-v0.2","","""event"",""trial"",""time""
""fullscreenenter"",""1"",""2681""
","
","
","""event"",""trial"",""time""
""fullscreenenter"",""1"",""2681""
","
","","","-1","","","21","14706","4450","&#9854;","elianto","#FFFFF080","-1","-1","1","&#10004","[]","0","0","1","","","","","","","",""
"pit-trial","18","170958","0.0-2.0-6.4-0.4","battery-v0.2","","""event"",""trial"",""time""
""fullscreenenter"",""1"",""2681""
","
","
","""event"",""trial"",""time""
""fullscreenenter"",""1"",""2681""
","
","","","-1","","","21","14706","4450","&#9854;","elianto","#FFFFF080","-1","-1","1","&#10004","[]","0","0","1","","","","","","","",""
"pit-instructions","19","289532","0.0-2.0-7.0","battery-v0.2","","""event"",""trial"",""time""
""fullscreenenter"",""1"",""2681""
","
","
","""event"",""trial"",""time""
""fullscreenenter"",""1"",""2681""
","
","","[{""page_index"":0,""viewing_time"":6411},{""page_index"":1,""viewing_time"":6243},{""page_index"":2,""viewing_time"":6860},{""page_index"":3,""viewing_time"":7012},{""page_index"":4,""viewing_time"":5322},{""page_index"":5,""viewing_time"":8273},{""page_index"":6,""viewing_time"":5194},{""page_index"":7,""viewing_time"":8040},{""page_index"":8,""viewing_time"":6950},{""page_index"":9,""viewing_time"":6084},{""page_index"":10,""viewing_time"":6551},{""page_index"":11,""viewing_time"":4105},{""page_index"":12,""viewing_time"":7248},{""page_index"":13,""viewing_time"":6941},{""page_index"":14,""viewing_time"":6532},{""page_index"":15,""viewing_time"":7154},{""page_index"":16,""viewing_time"":6284},{""page_index"":17,""viewing_time"":7367}]","118572","","","","","","","","","","","","","","","","","","","","","","","",""
"pit-trial","20","293294","0.0-2.0-8.0-0.0","battery-v0.2","","""event"",""trial"",""time""
""fullscreenenter"",""1"",""2681""
","
","
","""event"",""trial"",""time""
""fullscreenenter"",""1"",""2681""
","
","","","897","","","21","14706","4450","&#9776;","elianto","#3366ff99"," "," ","1","+10","[1753]","1","0","1","","","","","","","",""
"pit-trial","21","296803","0.0-2.0-8.0-1.0","battery-v0.2","","""event"",""trial"",""time""
""fullscreenenter"",""1"",""2681""
","
","
","""event"",""trial"",""time""
""fullscreenenter"",""1"",""2681""
","
","","","635","","","21","14706","4450","&#9776;","elianto","#3366ff99"," "," ","1","+10","[1490]","1","0","1","","","","","","","",""
"pit-trial","22","300348","0.0-2.0-8.0-2.0","battery-v0.2","","""event"",""trial"",""time""
""fullscreenenter"",""1"",""2681""
","
","
","""event"",""trial"",""time""
""fullscreenenter"",""1"",""2681""
","
","","","678","","","21","14706","4450","&#9776;","elianto","#3366ff99"," "," ","1","+10","[1532]","1","0","1","","","","","","","",""
"pit-trial","23","303763","0.0-2.0-8.0-3.0","battery-v0.2","","""event"",""trial"",""time""
""fullscreenenter"",""1"",""2681""
","
","
","""event"",""trial"",""time""
""fullscreenenter"",""1"",""2681""
","
","","","557","","","21","14706","4450","&#9776;","elianto","#3366ff99"," "," ","1","0","[1411]","1","0","1","","","","","","","",""
"pit-trial","24","307279","0.0-2.0-8.0-4.0","battery-v0.2","","""event"",""trial"",""time""
""fullscreenenter"",""1"",""2681""
","
","
","""event"",""trial"",""time""
""fullscreenenter"",""1"",""2681""
","
","","","654","","","21","14706","4450","&#9776;","elianto","#3366ff99"," "," ","1","+10","[1511]","1","0","1","","","","","","","",""
"pit-trial","25","310610","0.0-2.0-8.1-0.1","battery-v0.2","","""event"",""trial"",""time""
""fullscreenenter"",""1"",""2681""
","
","
","""event"",""trial"",""time""
""fullscreenenter"",""1"",""2681""
","
","","","472","","","21","14706","4450","&#9776;","elianto","#3366ff99"," "," ","1","+10","[1325]","1","0","1","","","","","","","",""
"pit-trial","26","313959","0.0-2.0-8.1-1.1","battery-v0.2","","""event"",""trial"",""time""
""fullscreenenter"",""1"",""2681""
","
","
","""event"",""trial"",""time""
""fullscreenenter"",""1"",""2681""
","
","","","490","","","21","14706","4450","&#9776;","elianto","#3366ff99"," "," ","1","+10","[1341]","1","0","1","","","","","","","",""
"pit-trial","27","317178","0.0-2.0-8.1-2.1","battery-v0.2","","""event"",""trial"",""time""
""fullscreenenter"",""1"",""2681""
","
","
","""event"",""trial"",""time""
""fullscreenenter"",""1"",""2681""
","
","","","355","","","21","14706","4450","&#9776;","elianto","#3366ff99"," "," ","1","+10","[1206]","1","0","1","","","","","","","",""
"pit-trial","28","320481","0.0-2.0-8.1-3.1","battery-v0.2","","""event"",""trial"",""time""
""fullscreenenter"",""1"",""2681""
","
","
","""event"",""trial"",""time""
""fullscreenenter"",""1"",""2681""
","
","","","444","","","21","14706","4450","&#9776;","elianto","#3366ff99"," "," ","1","0","[1299]","1","0","1","","","","","","","",""
"pit-trial","29","323700","0.0-2.0-8.1-4.1","battery-v0.2","","""event"",""trial"",""time""
""fullscreenenter"",""1"",""2681""
","
","
","""event"",""trial"",""time""
""fullscreenenter"",""1"",""2681""
","
","","","363","","","21","14706","4450","&#9776;","elianto","#3366ff99"," "," ","1","+10","[1218]","1","0","1","","","","","","","",""
"pit-trial","30","327000","0.0-2.0-8.2-0.2","battery-v0.2","","""event"",""trial"",""time""
""fullscreenenter"",""1"",""2681""
","
","
","""event"",""trial"",""time""
""fullscreenenter"",""1"",""2681""
","
","","","447","","","21","14706","4450","&#9776;","elianto","#3366ff99"," "," ","1","+10","[1297]","1","0","1","","","","","","","",""
"pit-trial","31","330273","0.0-2.0-8.2-1.2","battery-v0.2","","""event"",""trial"",""time""
""fullscreenenter"",""1"",""2681""
","
","
","""event"",""trial"",""time""
""fullscreenenter"",""1"",""2681""
","
","","","419","","","21","14706","4450","&#9776;","elianto","#3366ff99"," "," ","1","+10","[1270]","1","0","1","","","","","","","",""
"pit-trial","32","333809","0.0-2.0-8.2-2.2","battery-v0.2","","""event"",""trial"",""time""
""fullscreenenter"",""1"",""2681""
","
","
","""event"",""trial"",""time""
""fullscreenenter"",""1"",""2681""
","
","","","682","","","21","14706","4450","&#9776;","elianto","#3366ff99"," "," ","1","+10","[1534]","1","0","1","","","","","","","",""
"pit-trial","33","337177","0.0-2.0-8.2-3.2","battery-v0.2","","""event"",""trial"",""time""
""fullscreenenter"",""1"",""2681""
","
","
","""event"",""trial"",""time""
""fullscreenenter"",""1"",""2681""
","
","","","515","","","21","14706","4450","&#9776;","elianto","#3366ff99"," "," ","1","0","[1365]","1","0","1","","","","","","","",""
"pit-trial","34","340582","0.0-2.0-8.2-4.2","battery-v0.2","","""event"",""trial"",""time""
""fullscreenenter"",""1"",""2681""
","
","
","""event"",""trial"",""time""
""fullscreenenter"",""1"",""2681""
","
","","","551","","","21","14706","4450","&#9776;","elianto","#3366ff99"," "," ","1","+10","[1403]","1","0","1","","","","","","","",""
"call-function","35","340584","0.0-2.0-9.0","battery-v0.2","","""event"",""trial"",""time""
""fullscreenenter"",""1"",""2681""
","
","
","""event"",""trial"",""time""
""fullscreenenter"",""1"",""2681""
","
","","","","","","","","","","","","","","","","","","","","","","","","","","",""
"pit-instructions","36","383890","0.0-2.0-10.0","battery-v0.2","","""event"",""trial"",""time""
""fullscreenenter"",""1"",""2681""
","
","
","""event"",""trial"",""time""
""fullscreenenter"",""1"",""2681""
","
","","[{""page_index"":0,""viewing_time"":7772},{""page_index"":1,""viewing_time"":6981},{""page_index"":2,""viewing_time"":10725},{""page_index"":3,""viewing_time"":8903},{""page_index"":4,""viewing_time"":8924}]","43306","","","","","","","","","","","","","","","","","","","","","","","",""
"pit-trial","37","387314","0.0-2.0-11.0-0.0","battery-v0.2","","""event"",""trial"",""time""
""fullscreenenter"",""1"",""2681""
","
","
","""event"",""trial"",""time""
""fullscreenenter"",""1"",""2681""
","
","","","557","","","21","14706","4450","&#9761;","elianto","#3366ff99","-1"," ","0","0","[1409]","1","0","2","","","","","","","",""
"pit-trial","38","390727","0.0-2.0-11.0-1.0","battery-v0.2","","""event"",""trial"",""time""
""fullscreenenter"",""1"",""2681""
","
","
","""event"",""trial"",""time""
""fullscreenenter"",""1"",""2681""
","
","","","548","","","21","14706","4450","&#9761;","elianto","#3366ff99","-1"," ","0","0","[1400,2208]","2","0","2","","","","","","","",""
"pit-trial","39","394640","0.0-2.0-11.0-2.0","battery-v0.2","","""event"",""trial"",""time""
""fullscreenenter"",""1"",""2681""
","
","
","""event"",""trial"",""time""
""fullscreenenter"",""1"",""2681""
","
","","","1041","","","21","14706","4450","&#9761;","elianto","#3366ff99","-1"," ","0","0","[1896]","1","0","2","","","","","","","",""
"pit-trial","40","399505","0.0-2.0-11.0-3.0","battery-v0.2","","""event"",""trial"",""time""
""fullscreenenter"",""1"",""2681""
","
","
","""event"",""trial"",""time""
""fullscreenenter"",""1"",""2681""
","
","","","-1","","","21","14706","4450","&#9761;","elianto","#3366ff99","-1","-1","1","0","[]","0","0","2","","","","","","","",""
"pit-trial","41","404371","0.0-2.0-11.0-4.0","battery-v0.2","","""event"",""trial"",""time""
""fullscreenenter"",""1"",""2681""
","
","
","""event"",""trial"",""time""
""fullscreenenter"",""1"",""2681""
","
","","","-1","","","21","14706","4450","&#9761;","elianto","#3366ff99","-1","-1","1","+10","[]","0","0","2","","","","","","","",""
"pit-trial","42","409235","0.0-2.0-11.1-0.1","battery-v0.2","","""event"",""trial"",""time""
""fullscreenenter"",""1"",""2681""
","
","
","""event"",""trial"",""time""
""fullscreenenter"",""1"",""2681""
","
","","","-1","","","21","14706","4450","&#9761;","elianto","#3366ff99","-1","-1","1","+10","[]","0","0","2","","","","","","","",""
"pit-trial","43","414103","0.0-2.0-11.1-1.1","battery-v0.2","","""event"",""trial"",""time""
""fullscreenenter"",""1"",""2681""
","
","
","""event"",""trial"",""time""
""fullscreenenter"",""1"",""2681""
","
","","","-1","","","21","14706","4450","&#9761;","elianto","#3366ff99","-1","-1","1","+10","[]","0","0","2","","","","","","","",""
"pit-trial","44","418958","0.0-2.0-11.1-2.1","battery-v0.2","","""event"",""trial"",""time""
""fullscreenenter"",""1"",""2681""
","
","
","""event"",""trial"",""time""
""fullscreenenter"",""1"",""2681""
","
","","","-1","","","21","14706","4450","&#9761;","elianto","#3366ff99","-1","-1","1","+10","[]","0","0","2","","","","","","","",""
"pit-trial","45","423813","0.0-2.0-11.1-3.1","battery-v0.2","","""event"",""trial"",""time""
""fullscreenenter"",""1"",""2681""
","
","
","""event"",""trial"",""time""
""fullscreenenter"",""1"",""2681""
","
","","","-1","","","21","14706","4450","&#9761;","elianto","#3366ff99","-1","-1","1","0","[]","0","0","2","","","","","","","",""
"pit-trial","46","428667","0.0-2.0-11.1-4.1","battery-v0.2","","""event"",""trial"",""time""
""fullscreenenter"",""1"",""2681""
","
","
","""event"",""trial"",""time""
""fullscreenenter"",""1"",""2681""
","
","","","-1","","","21","14706","4450","&#9761;","elianto","#3366ff99","-1","-1","1","+10","[]","0","0","2","","","","","","","",""
"pit-trial","47","433522","0.0-2.0-11.2-0.2","battery-v0.2","","""event"",""trial"",""time""
""fullscreenenter"",""1"",""2681""
","
","
","""event"",""trial"",""time""
""fullscreenenter"",""1"",""2681""
","
","","","-1","","","21","14706","4450","&#9761;","elianto","#3366ff99","-1","-1","1","+10","[]","0","0","2","","","","","","","",""
"pit-trial","48","438385","0.0-2.0-11.2-1.2","battery-v0.2","","""event"",""trial"",""time""
""fullscreenenter"",""1"",""2681""
","
","
","""event"",""trial"",""time""
""fullscreenenter"",""1"",""2681""
","
","","","-1","","","21","14706","4450","&#9761;","elianto","#3366ff99","-1","-1","1","+10","[]","0","0","2","","","","","","","",""
"pit-trial","49","443244","0.0-2.0-11.2-2.2","battery-v0.2","","""event"",""trial"",""time""
""fullscreenenter"",""1"",""2681""
","
","
","""event"",""trial"",""time""
""fullscreenenter"",""1"",""2681""
","
","","","-1","","","21","14706","4450","&#9761;","elianto","#3366ff99","-1","-1","1","+10","[]","0","0","2","","","","","","","",""
"pit-trial","50","448098","0.0-2.0-11.2-3.2","battery-v0.2","","""event"",""trial"",""time""
""fullscreenenter"",""1"",""2681""
","
","
","""event"",""trial"",""time""
""fullscreenenter"",""1"",""2681""
","
","","","-1","","","21","14706","4450","&#9761;","elianto","#3366ff99","-1","-1","1","0","[]","0","0","2","","","","","","","",""
"pit-trial","51","452953","0.0-2.0-11.2-4.2","battery-v0.2","","""event"",""trial"",""time""
""fullscreenenter"",""1"",""2681""
","
","
","""event"",""trial"",""time""
""fullscreenenter"",""1"",""2681""
","
","","","-1","","","21","14706","4450","&#9761;","elianto","#3366ff99","-1","-1","1","+10","[]","0","0","2","","","","","","","",""
"pit-trial","52","457807","0.0-2.0-11.3-0.3","battery-v0.2","","""event"",""trial"",""time""
""fullscreenenter"",""1"",""2681""
","
","
","""event"",""trial"",""time""
""fullscreenenter"",""1"",""2681""
","
","","","-1","","","21","14706","4450","&#9761;","elianto","#3366ff99","-1","-1","1","+10","[]","0","0","2","","","","","","","",""
"pit-trial","53","462661","0.0-2.0-11.3-1.3","battery-v0.2","","""event"",""trial"",""time""
""fullscreenenter"",""1"",""2681""
","
","
","""event"",""trial"",""time""
""fullscreenenter"",""1"",""2681""
","
","","","-1","","","21","14706","4450","&#9761;","elianto","#3366ff99","-1","-1","1","+10","[]","0","0","2","","","","","","","",""
"pit-trial","54","467515","0.0-2.0-11.3-2.3","battery-v0.2","","""event"",""trial"",""time""
""fullscreenenter"",""1"",""2681""
","
","
","""event"",""trial"",""time""
""fullscreenenter"",""1"",""2681""
","
","","","-1","","","21","14706","4450","&#9761;","elianto","#3366ff99","-1","-1","1","+10","[]","0","0","2","","","","","","","",""
"pit-trial","55","472368","0.0-2.0-11.3-3.3","battery-v0.2","","""event"",""trial"",""time""
""fullscreenenter"",""1"",""2681""
","
","
","""event"",""trial"",""time""
""fullscreenenter"",""1"",""2681""
","
","","","-1","","","21","14706","4450","&#9761;","elianto","#3366ff99","-1","-1","1","0","[]","0","0","2","","","","","","","",""
"pit-trial","56","477223","0.0-2.0-11.3-4.3","battery-v0.2","","""event"",""trial"",""time""
""fullscreenenter"",""1"",""2681""
","
","
","""event"",""trial"",""time""
""fullscreenenter"",""1"",""2681""
","
","","","-1","","","21","14706","4450","&#9761;","elianto","#3366ff99","-1","-1","1","+10","[]","0","0","2","","","","","","","",""
"call-function","57","477226","0.0-2.0-12.0","battery-v0.2","","""event"",""trial"",""time""
""fullscreenenter"",""1"",""2681""
","
","
","""event"",""trial"",""time""
""fullscreenenter"",""1"",""2681""
","
","","","","","","","","","","","","","","","","","","","","","","","","","","",""
"pit-instructions","58","520098","0.0-2.0-13.0","battery-v0.2","","""event"",""trial"",""time""
""fullscreenenter"",""1"",""2681""
","
","
","""event"",""trial"",""time""
""fullscreenenter"",""1"",""2681""
","
","","[{""page_index"":0,""viewing_time"":10518},{""page_index"":1,""viewing_time"":8329},{""page_index"":2,""viewing_time"":6354},{""page_index"":3,""viewing_time"":12359},{""page_index"":4,""viewing_time"":5310}]","42871","","","","","","","","","","","","","","","","","","","","","","","",""
"pit-trial","59","524964","0.0-2.0-14.0-0.0","battery-v0.2","","""event"",""trial"",""time""
""fullscreenenter"",""1"",""2681""
","
","
","""event"",""trial"",""time""
""fullscreenenter"",""1"",""2681""
","
","","","-1","","","21","14706","4450","&#9826;","elianto","#f73b6a7A","-1","-1","1","0","[]","0","0","3","","","","","","","",""
"pit-trial","60","529838","0.0-2.0-14.0-1.0","battery-v0.2","","""event"",""trial"",""time""
""fullscreenenter"",""1"",""2681""
","
","
","""event"",""trial"",""time""
""fullscreenenter"",""1"",""2681""
","
","","","-1","","","21","14706","4450","&#9826;","elianto","#f73b6a7A","-1","-1","1","0","[]","0","0","3","","","","","","","",""
"pit-trial","61","534709","0.0-2.0-14.0-2.0","battery-v0.2","","""event"",""trial"",""time""
""fullscreenenter"",""1"",""2681""
","
","
","""event"",""trial"",""time""
""fullscreenenter"",""1"",""2681""
","
","","","-1","","","21","14706","4450","&#9826;","elianto","#f73b6a7A","-1","-1","1","0","[]","0","0","3","","","","","","","",""
"pit-trial","62","539569","0.0-2.0-14.0-3.0","battery-v0.2","","""event"",""trial"",""time""
""fullscreenenter"",""1"",""2681""
","
","
","""event"",""trial"",""time""
""fullscreenenter"",""1"",""2681""
","
","","","-1","","","21","14706","4450","&#9826;","elianto","#f73b6a7A","-1","-1","1","-10","[]","0","0","3","","","","","","","",""
"pit-trial","63","544429","0.0-2.0-14.0-4.0","battery-v0.2","","""event"",""trial"",""time""
""fullscreenenter"",""1"",""2681""
","
","
","""event"",""trial"",""time""
""fullscreenenter"",""1"",""2681""
","
","","","-1","","","21","14706","4450","&#9826;","elianto","#f73b6a7A","-1","-1","1","0","[]","0","0","3","","","","","","","",""
"pit-trial","64","549290","0.0-2.0-14.1-0.1","battery-v0.2","","""event"",""trial"",""time""
""fullscreenenter"",""1"",""2681""
","
","
","""event"",""trial"",""time""
""fullscreenenter"",""1"",""2681""
","
","","","-1","","","21","14706","4450","&#9826;","elianto","#f73b6a7A","-1","-1","1","0","[]","0","0","3","","","","","","","",""
"pit-trial","65","554156","0.0-2.0-14.1-1.1","battery-v0.2","","""event"",""trial"",""time""
""fullscreenenter"",""1"",""2681""
","
","
","""event"",""trial"",""time""
""fullscreenenter"",""1"",""2681""
","
","","","-1","","","21","14706","4450","&#9826;","elianto","#f73b6a7A","-1","-1","1","0","[]","0","0","3","","","","","","","",""
"pit-trial","66","559011","0.0-2.0-14.1-2.1","battery-v0.2","","""event"",""trial"",""time""
""fullscreenenter"",""1"",""2681""
","
","
","""event"",""trial"",""time""
""fullscreenenter"",""1"",""2681""
","
","","","-1","","","21","14706","4450","&#9826;","elianto","#f73b6a7A","-1","-1","1","0","[]","0","0","3","","","","","","","",""
"pit-trial","67","563870","0.0-2.0-14.1-3.1","battery-v0.2","","""event"",""trial"",""time""
""fullscreenenter"",""1"",""2681""
","
","
","""event"",""trial"",""time""
""fullscreenenter"",""1"",""2681""
","
","","","-1","","","21","14706","4450","&#9826;","elianto","#f73b6a7A","-1","-1","1","-10","[]","0","0","3","","","","","","","",""
"pit-trial","68","568724","0.0-2.0-14.1-4.1","battery-v0.2","","""event"",""trial"",""time""
""fullscreenenter"",""1"",""2681""
","
","
","""event"",""trial"",""time""
""fullscreenenter"",""1"",""2681""
","
","","","-1","","","21","14706","4450","&#9826;","elianto","#f73b6a7A","-1","-1","1","0","[]","0","0","3","","","","","","","",""
"pit-trial","69","573579","0.0-2.0-14.2-0.2","battery-v0.2","","""event"",""trial"",""time""
""fullscreenenter"",""1"",""2681""
","
","
","""event"",""trial"",""time""
""fullscreenenter"",""1"",""2681""
","
","","","-1","","","21","14706","4450","&#9826;","elianto","#f73b6a7A","-1","-1","1","0","[]","0","0","3","","","","","","","",""
"pit-trial","70","578434","0.0-2.0-14.2-1.2","battery-v0.2","","""event"",""trial"",""time""
""fullscreenenter"",""1"",""2681""
","
","
","""event"",""trial"",""time""
""fullscreenenter"",""1"",""2681""
","
","","","-1","","","21","14706","4450","&#9826;","elianto","#f73b6a7A","-1","-1","1","0","[]","0","0","3","","","","","","","",""
"pit-trial","71","583288","0.0-2.0-14.2-2.2","battery-v0.2","","""event"",""trial"",""time""
""fullscreenenter"",""1"",""2681""
","
","
","""event"",""trial"",""time""
""fullscreenenter"",""1"",""2681""
","
","","","-1","","","21","14706","4450","&#9826;","elianto","#f73b6a7A","-1","-1","1","0","[]","0","0","3","","","","","","","",""
"pit-trial","72","588141","0.0-2.0-14.2-3.2","battery-v0.2","","""event"",""trial"",""time""
""fullscreenenter"",""1"",""2681""
","
","
","""event"",""trial"",""time""
""fullscreenenter"",""1"",""2681""
","
","","","-1","","","21","14706","4450","&#9826;","elianto","#f73b6a7A","-1","-1","1","-10","[]","0","0","3","","","","","","","",""
"pit-trial","73","592999","0.0-2.0-14.2-4.2","battery-v0.2","","""event"",""trial"",""time""
""fullscreenenter"",""1"",""2681""
","
","
","""event"",""trial"",""time""
""fullscreenenter"",""1"",""2681""
","
","","","-1","","","21","14706","4450","&#9826;","elianto","#f73b6a7A","-1","-1","1","0","[]","0","0","3","","","","","","","",""
"pit-trial","74","597854","0.0-2.0-14.3-0.3","battery-v0.2","","""event"",""trial"",""time""
""fullscreenenter"",""1"",""2681""
","
","
","""event"",""trial"",""time""
""fullscreenenter"",""1"",""2681""
","
","","","-1","","","21","14706","4450","&#9826;","elianto","#f73b6a7A","-1","-1","1","0","[]","0","0","3","","","","","","","",""
"pit-trial","75","602707","0.0-2.0-14.3-1.3","battery-v0.2","","""event"",""trial"",""time""
""fullscreenenter"",""1"",""2681""
","
","
","""event"",""trial"",""time""
""fullscreenenter"",""1"",""2681""
","
","","","-1","","","21","14706","4450","&#9826;","elianto","#f73b6a7A","-1","-1","1","0","[]","0","0","3","","","","","","","",""
"pit-trial","76","607560","0.0-2.0-14.3-2.3","battery-v0.2","","""event"",""trial"",""time""
""fullscreenenter"",""1"",""2681""
","
","
","""event"",""trial"",""time""
""fullscreenenter"",""1"",""2681""
","
","","","-1","","","21","14706","4450","&#9826;","elianto","#f73b6a7A","-1","-1","1","0","[]","0","0","3","","","","","","","",""
"pit-trial","77","612425","0.0-2.0-14.3-3.3","battery-v0.2","","""event"",""trial"",""time""
""fullscreenenter"",""1"",""2681""
","
","
","""event"",""trial"",""time""
""fullscreenenter"",""1"",""2681""
","
","","","-1","","","21","14706","4450","&#9826;","elianto","#f73b6a7A","-1","-1","1","-10","[]","0","0","3","","","","","","","",""
"pit-trial","78","617279","0.0-2.0-14.3-4.3","battery-v0.2","","""event"",""trial"",""time""
""fullscreenenter"",""1"",""2681""
","
","
","""event"",""trial"",""time""
""fullscreenenter"",""1"",""2681""
","
","","","-1","","","21","14706","4450","&#9826;","elianto","#f73b6a7A","-1","-1","1","0","[]","0","0","3","","","","","","","",""
"call-function","79","617283","0.0-2.0-15.0","battery-v0.2","","""event"",""trial"",""time""
""fullscreenenter"",""1"",""2681""
","
","
","""event"",""trial"",""time""
""fullscreenenter"",""1"",""2681""
","
","","","","","","","","","","","","","","","","","","","","","","","","","","",""
"pit-instructions","80","664415","0.0-2.0-16.0","battery-v0.2","","""event"",""trial"",""time""
""fullscreenenter"",""1"",""2681""
","
","
","""event"",""trial"",""time""
""fullscreenenter"",""1"",""2681""
","
","","[{""page_index"":0,""viewing_time"":9885},{""page_index"":1,""viewing_time"":18938},{""page_index"":2,""viewing_time"":11029},{""page_index"":3,""viewing_time"":7280}]","47132","","","","","","","","","","","","","","","","","","","","","","","",""
"pit-trial","81","669288","0.0-2.0-17.0-0.0","battery-v0.2","","""event"",""trial"",""time""
""fullscreenenter"",""1"",""2681""
","
","
","""event"",""trial"",""time""
""fullscreenenter"",""1"",""2681""
","
","","","-1","","","21","14706","4450","&#9789;","elianto","#f73b6a7A"," ","-1","0","-10","[]","0","0","4","","","","","","","",""
"pit-trial","82","672552","0.0-2.0-17.0-1.0","battery-v0.2","","""event"",""trial"",""time""
""fullscreenenter"",""1"",""2681""
","
","
","""event"",""trial"",""time""
""fullscreenenter"",""1"",""2681""
","
","","","404","","","21","14706","4450","&#9789;","elianto","#f73b6a7A"," "," ","1","0","[1260]","1","0","4","","","","","","","",""
"pit-trial","83","675678","0.0-2.0-17.0-2.0","battery-v0.2","","""event"",""trial"",""time""
""fullscreenenter"",""1"",""2681""
","
","
","""event"",""trial"",""time""
""fullscreenenter"",""1"",""2681""
","
","","","260","","","21","14706","4450","&#9789;","elianto","#f73b6a7A"," "," ","1","0","[1116]","1","0","4","","","","","","","",""
"pit-trial","84","678863","0.0-2.0-17.0-3.0","battery-v0.2","","""event"",""trial"",""time""
""fullscreenenter"",""1"",""2681""
","
","
","""event"",""trial"",""time""
""fullscreenenter"",""1"",""2681""
","
","","","314","","","21","14706","4450","&#9789;","elianto","#f73b6a7A"," "," ","1","-10","[1168]","1","0","4","","","","","","","",""
"pit-trial","85","681905","0.0-2.0-17.0-4.0","battery-v0.2","","""event"",""trial"",""time""
""fullscreenenter"",""1"",""2681""
","
","
","""event"",""trial"",""time""
""fullscreenenter"",""1"",""2681""
","
","","","171","","","21","14706","4450","&#9789;","elianto","#f73b6a7A"," "," ","1","0","[1025]","1","0","4","","","","","","","",""
"pit-trial","86","684886","0.0-2.0-17.1-0.1","battery-v0.2","","""event"",""trial"",""time""
""fullscreenenter"",""1"",""2681""
","
","
","""event"",""trial"",""time""
""fullscreenenter"",""1"",""2681""
","
","","","112","","","21","14706","4450","&#9789;","elianto","#f73b6a7A"," "," ","1","0","[966]","1","0","4","","","","","","","",""
"pit-trial","87","687769","0.0-2.0-17.1-1.1","battery-v0.2","","""event"",""trial"",""time""
""fullscreenenter"",""1"",""2681""
","
","
","""event"",""trial"",""time""
""fullscreenenter"",""1"",""2681""
","
","","","16","","","21","14706","4450","&#9789;","elianto","#f73b6a7A"," "," ","1","0","[879]","1","0","4","","","","","","","",""
"pit-trial","88","690871","0.0-2.0-17.1-2.1","battery-v0.2","","""event"",""trial"",""time""
""fullscreenenter"",""1"",""2681""
","
","
","""event"",""trial"",""time""
""fullscreenenter"",""1"",""2681""
","
","","","235","","","21","14706","4450","&#9789;","elianto","#f73b6a7A"," "," ","1","0","[1087]","1","0","4","","","","","","","",""
"pit-trial","89","693814","0.0-2.0-17.1-3.1","battery-v0.2","","""event"",""trial"",""time""
""fullscreenenter"",""1"",""2681""
","
","
","""event"",""trial"",""time""
""fullscreenenter"",""1"",""2681""
","
","","","86","","","21","14706","4450","&#9789;","elianto","#f73b6a7A"," "," ","1","-10","[937]","1","0","4","","","","","","","",""
"pit-trial","90","696792","0.0-2.0-17.1-4.1","battery-v0.2","","""event"",""trial"",""time""
""fullscreenenter"",""1"",""2681""
","
","
","""event"",""trial"",""time""
""fullscreenenter"",""1"",""2681""
","
","","","124","","","21","14706","4450","&#9789;","elianto","#f73b6a7A"," "," ","1","0","[975]","1","0","4","","","","","","","",""
"pit-trial","91","699887","0.0-2.0-17.2-0.2","battery-v0.2","","""event"",""trial"",""time""
""fullscreenenter"",""1"",""2681""
","
","
","""event"",""trial"",""time""
""fullscreenenter"",""1"",""2681""
","
","","","240","","","21","14706","4450","&#9789;","elianto","#f73b6a7A"," "," ","1","0","[1090]","1","0","4","","","","","","","",""
"pit-trial","92","703148","0.0-2.0-17.2-1.2","battery-v0.2","","""event"",""trial"",""time""
""fullscreenenter"",""1"",""2681""
","
","
","""event"",""trial"",""time""
""fullscreenenter"",""1"",""2681""
","
","","","406","","","21","14706","4450","&#9789;","elianto","#f73b6a7A"," "," ","1","0","[1258]","1","0","4","","","","","","","",""
"pit-trial","93","706308","0.0-2.0-17.2-2.2","battery-v0.2","","""event"",""trial"",""time""
""fullscreenenter"",""1"",""2681""
","
","
","""event"",""trial"",""time""
""fullscreenenter"",""1"",""2681""
","
","","","302","","","21","14706","4450","&#9789;","elianto","#f73b6a7A"," "," ","1","0","[1158]","1","0","4","","","","","","","",""
"pit-trial","94","709586","0.0-2.0-17.2-3.2","battery-v0.2","","""event"",""trial"",""time""
""fullscreenenter"",""1"",""2681""
","
","
","""event"",""trial"",""time""
""fullscreenenter"",""1"",""2681""
","
","","","424","","","21","14706","4450","&#9789;","elianto","#f73b6a7A"," "," ","1","-10","[1275]","1","0","4","","","","","","","",""
"pit-trial","95","712736","0.0-2.0-17.2-4.2","battery-v0.2","","""event"",""trial"",""time""
""fullscreenenter"",""1"",""2681""
","
","
","""event"",""trial"",""time""
""fullscreenenter"",""1"",""2681""
","
","","","280","","","21","14706","4450","&#9789;","elianto","#f73b6a7A"," "," ","1","0","[1131]","1","0","4","","","","","","","",""
"pit-trial","96","715887","0.0-2.0-17.3-0.3","battery-v0.2","","""event"",""trial"",""time""
""fullscreenenter"",""1"",""2681""
","
","
","""event"",""trial"",""time""
""fullscreenenter"",""1"",""2681""
","
","","","297","","","21","14706","4450","&#9789;","elianto","#f73b6a7A"," "," ","1","0","[1148,2463]","2","0","4","","","","","","","",""
"pit-trial","97","719044","0.0-2.0-17.3-1.3","battery-v0.2","","""event"",""trial"",""time""
""fullscreenenter"",""1"",""2681""
","
","
","""event"",""trial"",""time""
""fullscreenenter"",""1"",""2681""
","
","","","302","","","21","14706","4450","&#9789;","elianto","#f73b6a7A"," "," ","1","0","[1153]","1","0","4","","","","","","","",""
"pit-trial","98","722234","0.0-2.0-17.3-2.3","battery-v0.2","","""event"",""trial"",""time""
""fullscreenenter"",""1"",""2681""
","
","
","""event"",""trial"",""time""
""fullscreenenter"",""1"",""2681""
","
","","","337","","","21","14706","4450","&#9789;","elianto","#f73b6a7A"," "," ","1","0","[1188]","1","0","4","","","","","","","",""
"pit-trial","99","725440","0.0-2.0-17.3-3.3","battery-v0.2","","""event"",""trial"",""time""
""fullscreenenter"",""1"",""2681""
","
","
","""event"",""trial"",""time""
""fullscreenenter"",""1"",""2681""
","
","","","339","","","21","14706","4450","&#9789;","elianto","#f73b6a7A"," "," ","1","-10","[1192]","1","0","4","","","","","","","",""
"pit-trial","100","728722","0.0-2.0-17.3-4.3","battery-v0.2","","""event"",""trial"",""time""
""fullscreenenter"",""1"",""2681""
","
","
","""event"",""trial"",""time""
""fullscreenenter"",""1"",""2681""
","
","","","428","","","21","14706","4450","&#9789;","elianto","#f73b6a7A"," "," ","1","0","[1279]","1","0","4","","","","","","","",""
"call-function","101","728723","0.0-2.0-18.0","battery-v0.2","","""event"",""trial"",""time""
""fullscreenenter"",""1"",""2681""
","
","
","""event"",""trial"",""time""
""fullscreenenter"",""1"",""2681""
","
","","","","","","","","","","","","","","","","","","","","","","","","","","",""
"pit-instructions","102","795294","0.0-2.0-19.0","battery-v0.2","","""event"",""trial"",""time""
""fullscreenenter"",""1"",""2681""
","
","
","""event"",""trial"",""time""
""fullscreenenter"",""1"",""2681""
","
","","[{""page_index"":0,""viewing_time"":6744},{""page_index"":1,""viewing_time"":5588},{""page_index"":2,""viewing_time"":8520},{""page_index"":3,""viewing_time"":6561},{""page_index"":4,""viewing_time"":7797},{""page_index"":5,""viewing_time"":12489},{""page_index"":6,""viewing_time"":8529},{""page_index"":7,""viewing_time"":5846},{""page_index"":8,""viewing_time"":4497}]","66572","","","","","","","","","","","","","","","","","","","","","","","",""
"pit-comprehension","103","800045","0.0-2.0-20.0-0.0","battery-v0.2","","""event"",""trial"",""time""
""fullscreenenter"",""1"",""2681""
","
","
","""event"",""trial"",""time""
""fullscreenenter"",""1"",""2681""
","
","","","4748","[""SPACE""]","0","21","14706","4450","","","","","","","","","","","","","","","","","","",""
"pit-instructions","104","804944","0.0-2.0-20.0-1.0","battery-v0.2","","""event"",""trial"",""time""
""fullscreenenter"",""1"",""2681""
","
","
","""event"",""trial"",""time""
""fullscreenenter"",""1"",""2681""
","
","","[{""page_index"":0,""viewing_time"":4869}]","4869","","","","","","","","","","","","","","","","","","","","","","","",""
"pit-comprehension","105","810818","0.0-2.0-21.0-0.0","battery-v0.2","","""event"",""trial"",""time""
""fullscreenenter"",""1"",""2681""
","
","
","""event"",""trial"",""time""
""fullscreenenter"",""1"",""2681""
","
","","","5872","[""10""]","0","21","14706","4450","","","","","","","","","","","","","","","","","","",""
"pit-instructions","106","813127","0.0-2.0-21.0-1.0","battery-v0.2","","""event"",""trial"",""time""
""fullscreenenter"",""1"",""2681""
","
","
","""event"",""trial"",""time""
""fullscreenenter"",""1"",""2681""
","
","","[{""page_index"":0,""viewing_time"":2262}]","2263","","","","","","","","","","","","","","","","","","","","","","","",""
"pit-comprehension","107","819720","0.0-2.0-22.0-0.0","battery-v0.2","","""event"",""trial"",""time""
""fullscreenenter"",""1"",""2681""
","
","
","""event"",""trial"",""time""
""fullscreenenter"",""1"",""2681""
","
","","","6589","[""0""]","0","21","14706","4450","","","","","","","","","","","","","","","","","","",""
"pit-instructions","108","825320","0.0-2.0-22.0-1.0","battery-v0.2","","""event"",""trial"",""time""
""fullscreenenter"",""1"",""2681""
","
","
","""event"",""trial"",""time""
""fullscreenenter"",""1"",""2681""
","
","","[{""page_index"":0,""viewing_time"":5555}]","5556","","","","","","","","","","","","","","","","","","","","","","","",""
"pit-comprehension","109","833781","0.0-2.0-23.0-0.0","battery-v0.2","","""event"",""trial"",""time""
""fullscreenenter"",""1"",""2681""
","
","
","""event"",""trial"",""time""
""fullscreenenter"",""1"",""2681""
","
","","","8455","[""True""]","0","21","14706","4450","","","","","","","","","","","","","","","","","","",""
"pit-instructions","110","838782","0.0-2.0-23.0-1.0","battery-v0.2","","""event"",""trial"",""time""
""fullscreenenter"",""1"",""2681""
","
","
","""event"",""trial"",""time""
""fullscreenenter"",""1"",""2681""
","
","","[{""page_index"":0,""viewing_time"":4975}]","4976","","","","","","","","","","","","","","","","","","","","","","","",""
"pit-comprehension","111","846162","0.0-2.0-24.0-0.0","battery-v0.2","","""event"",""trial"",""time""
""fullscreenenter"",""1"",""2681""
","
","
","""event"",""trial"",""time""
""fullscreenenter"",""1"",""2681""
","
","","","7378","[""True""]","0","21","14706","4450","","","","","","","","","","","","","","","","","","",""
"pit-instructions","112","848155","0.0-2.0-24.0-1.0","battery-v0.2","","""event"",""trial"",""time""
""fullscreenenter"",""1"",""2681""
","
","
","""event"",""trial"",""time""
""fullscreenenter"",""1"",""2681""
","
","","[{""page_index"":0,""viewing_time"":1958}]","1958","","","","","","","","","","","","","","","","","","","","","","","",""
"pit-comprehension","113","854690","0.0-2.0-25.0-0.0","battery-v0.2","","""event"",""trial"",""time""
""fullscreenenter"",""1"",""2681""
","
","
","""event"",""trial"",""time""
""fullscreenenter"",""1"",""2681""
","
","","","6531","[""True""]","0","21","14706","4450","","","","","","","","","","","","","","","","","","",""
"pit-instructions","114","856480","0.0-2.0-25.0-1.0","battery-v0.2","","""event"",""trial"",""time""
""fullscreenenter"",""1"",""2681""
","
","
","""event"",""trial"",""time""
""fullscreenenter"",""1"",""2681""
","
","","[{""page_index"":0,""viewing_time"":1762}]","1763","","","","","","","","","","","","","","","","","","","","","","","",""
"pit-comprehension","115","864238","0.0-2.0-26.0-0.0","battery-v0.2","","""event"",""trial"",""time""
""fullscreenenter"",""1"",""2681""
","
","
","""event"",""trial"",""time""
""fullscreenenter"",""1"",""2681""
","
","","","7756","[""False""]","0","21","14706","4450","","","","","","","","","","","","","","","","","","",""
"pit-instructions","116","866310","0.0-2.0-26.0-1.0","battery-v0.2","","""event"",""trial"",""time""
""fullscreenenter"",""1"",""2681""
","
","
","""event"",""trial"",""time""
""fullscreenenter"",""1"",""2681""
","
","","[{""page_index"":0,""viewing_time"":2031}]","2032","","","","","","","","","","","","","","","","","","","","","","","",""
"pit-instructions","117","883644","0.0-3.0","battery-v0.2","","""event"",""trial"",""time""
""fullscreenenter"",""1"",""2681""
","
","
","""event"",""trial"",""time""
""fullscreenenter"",""1"",""2681""
","
","","[{""page_index"":0,""viewing_time"":3713},{""page_index"":1,""viewing_time"":5970},{""page_index"":2,""viewing_time"":7647}]","17331","","","","","","","","","","","","","","","","","","","","","","","",""
"pit-trial","118","887848","0.0-4.0","battery-v0.2","","""event"",""trial"",""time""
""fullscreenenter"",""1"",""2681""
","
","
","""event"",""trial"",""time""
""fullscreenenter"",""1"",""2681""
","
","","","1328","","","21","14706","4450","&#9752;","elianto","#f73b6a7A"," "," ","1","0","[2184]","1","1","","","14706","1","3","3","lose","go","0"
"pit-trial","119","891980","0.0-5.0","battery-v0.2","","""event"",""trial"",""time""
""fullscreenenter"",""1"",""2681""
","
","
","""event"",""trial"",""time""
""fullscreenenter"",""1"",""2681""
","
","","","1265","","","21","14706","4450","&#9730;","elianto","#3366ff99"," "," ","1","+10","[2118]","1","1","","","14706","2","1","1","win","go","0"
"pit-trial","120","894975","0.0-6.0","battery-v0.2","","""event"",""trial"",""time""
""fullscreenenter"",""1"",""2681""
","
","
","""event"",""trial"",""time""
""fullscreenenter"",""1"",""2681""
","
","","","127","","","21","14706","4450","&#9728;","elianto","#f73b6a7A","-1"," ","0","0","[984]","1","1","","","14706","3","0","4","lose","no-go","1"
"pit-trial","121","898674","0.0-7.0","battery-v0.2","","""event"",""trial"",""time""
""fullscreenenter"",""1"",""2681""
","
","
","""event"",""trial"",""time""
""fullscreenenter"",""1"",""2681""
","
","","","836","","","21","14706","4450","&#9733;","elianto","#3366ff99","-1"," ","0","0","[1687]","1","1","","","14706","4","2","2","win","no-go","0"
"pit-trial","122","902565","0.0-8.0","battery-v0.2","","""event"",""trial"",""time""
""fullscreenenter"",""1"",""2681""
","
","
","""event"",""trial"",""time""
""fullscreenenter"",""1"",""2681""
","
","","","1027","","","21","14706","4450","&#9752;","elianto","#f73b6a7A"," "," ","1","0","[1881]","1","1","","","14706","5","3","3","lose","go","0"
"pit-trial","123","906169","0.0-9.0","battery-v0.2","","""event"",""trial"",""time""
""fullscreenenter"",""1"",""2681""
","
","
","""event"",""trial"",""time""
""fullscreenenter"",""1"",""2681""
","
","","","736","","","21","14706","4450","&#9733;","elianto","#3366ff99","-1"," ","0","0","[1592]","1","1","","","14706","6","2","2","win","no-go","0"
"pit-trial","124","910292","0.0-10.0","battery-v0.2","","""event"",""trial"",""time""
""fullscreenenter"",""1"",""2681""
","
","
","""event"",""trial"",""time""
""fullscreenenter"",""1"",""2681""
","
","","","1262","","","21","14706","4450","&#9730;","elianto","#3366ff99"," "," ","1","+10","[2113]","1","1","","","14706","7","1","1","win","go","0"
"pit-trial","125","914520","0.0-11.0","battery-v0.2","","""event"",""trial"",""time""
""fullscreenenter"",""1"",""2681""
","
","
","""event"",""trial"",""time""
""fullscreenenter"",""1"",""2681""
","
","","","1376","","","21","14706","4450","&#9728;","elianto","#f73b6a7A","-1"," ","0","-10","[2227]","1","1","","","14706","8","0","4","lose","no-go","0"
"pit-trial","126","918131","0.0-12.0","battery-v0.2","","""event"",""trial"",""time""
""fullscreenenter"",""1"",""2681""
","
","
","""event"",""trial"",""time""
""fullscreenenter"",""1"",""2681""
","
","","","758","","","21","14706","4450","&#9730;","elianto","#3366ff99"," "," ","1","0","[1609]","1","1","","","14706","9","1","1","win","go","1"
"pit-trial","127","921871","0.0-13.0","battery-v0.2","","""event"",""trial"",""time""
""fullscreenenter"",""1"",""2681""
","
","
","""event"",""trial"",""time""
""fullscreenenter"",""1"",""2681""
","
","","","888","","","21","14706","4450","&#9733;","elianto","#3366ff99","-1"," ","0","0","[1739]","1","1","","","14706","10","2","2","win","no-go","0"
"pit-trial","128","926724","0.0-14.0","battery-v0.2","","""event"",""trial"",""time""
""fullscreenenter"",""1"",""2681""
","
","
","""event"",""trial"",""time""
""fullscreenenter"",""1"",""2681""
","
","","","-1","","","21","14706","4450","&#9728;","elianto","#f73b6a7A","-1","-1","1","0","[]","0","1","","","14706","11","0","4","lose","no-go","0"
"pit-trial","129","931586","0.0-15.0","battery-v0.2","","""event"",""trial"",""time""
""fullscreenenter"",""1"",""2681""
","
","
","""event"",""trial"",""time""
""fullscreenenter"",""1"",""2681""
","
","","","-1","","","21","14706","4450","&#9752;","elianto","#f73b6a7A"," ","-1","0","-10","[2869]","1","1","","","14706","12","3","3","lose","go","0"
"pit-trial","130","936439","0.0-16.0","battery-v0.2","","""event"",""trial"",""time""
""fullscreenenter"",""1"",""2681""
","
","
","""event"",""trial"",""time""
""fullscreenenter"",""1"",""2681""
","
","","","-1","","","21","14706","4450","&#9752;","elianto","#f73b6a7A"," ","-1","0","-10","[]","0","1","","","14706","13","3","3","lose","go","0"
"pit-trial","131","941293","0.0-17.0","battery-v0.2","","""event"",""trial"",""time""
""fullscreenenter"",""1"",""2681""
","
","
","""event"",""trial"",""time""
""fullscreenenter"",""1"",""2681""
","
","","","-1","","","21","14706","4450","&#9730;","elianto","#3366ff99"," ","-1","0","0","[]","0","1","","","14706","14","1","1","win","go","0"
"pit-trial","132","945011","0.0-18.0","battery-v0.2","","""event"",""trial"",""time""
""fullscreenenter"",""1"",""2681""
","
","
","""event"",""trial"",""time""
""fullscreenenter"",""1"",""2681""
","
","","","866","","","21","14706","4450","&#9733;","elianto","#3366ff99","-1"," ","0","0","[1715]","1","1","","","14706","15","2","2","win","no-go","0"
"pit-trial","133","949866","0.0-19.0","battery-v0.2","","""event"",""trial"",""time""
""fullscreenenter"",""1"",""2681""
","
","
","""event"",""trial"",""time""
""fullscreenenter"",""1"",""2681""
","
","","","-1","","","21","14706","4450","&#9728;","elianto","#f73b6a7A","-1","-1","1","0","[]","0","1","","","14706","16","0","4","lose","no-go","0"
"pit-trial","134","954721","0.0-20.0","battery-v0.2","","""event"",""trial"",""time""
""fullscreenenter"",""1"",""2681""
","
","
","""event"",""trial"",""time""
""fullscreenenter"",""1"",""2681""
","
","","","-1","","","21","14706","4450","&#9728;","elianto","#f73b6a7A","-1","-1","1","0","[]","0","1","","","14706","17","0","4","lose","no-go","0"
"pit-trial","135","959188","0.0-21.0","battery-v0.2","","""event"",""trial"",""time""
""fullscreenenter"",""1"",""2681""
","
","
","""event"",""trial"",""time""
""fullscreenenter"",""1"",""2681""
","
","","","1612","","","21","14706","4450","&#9733;","elianto","#3366ff99","-1"," ","0","0","[2462]","1","1","","","14706","18","2","2","win","no-go","0"
"pit-trial","136","963237","0.0-22.0","battery-v0.2","","""event"",""trial"",""time""
""fullscreenenter"",""1"",""2681""
","
","
","""event"",""trial"",""time""
""fullscreenenter"",""1"",""2681""
","
","","","1186","","","21","14706","4450","&#9752;","elianto","#f73b6a7A"," "," ","1","0","[2038]","1","1","","","14706","19","3","3","lose","go","0"
"pit-trial","137","967919","0.0-23.0","battery-v0.2","","""event"",""trial"",""time""
""fullscreenenter"",""1"",""2681""
","
","
","""event"",""trial"",""time""
""fullscreenenter"",""1"",""2681""
","
","","","1821","","","21","14706","4450","&#9730;","elianto","#3366ff99"," "," ","1","0","[2671]","1","1","","","14706","20","1","1","win","go","1"
"pit-instructions","138","980134","0.0-24.0","battery-v0.2","","""event"",""trial"",""time""
""fullscreenenter"",""1"",""2681""
","
","
","""event"",""trial"",""time""
""fullscreenenter"",""1"",""2681""
","
","","[{""page_index"":0,""viewing_time"":5650},{""page_index"":1,""viewing_time"":6564}]","12214","","","","","","","","","","","","","","","","","","","","","","","",""
"pit-trial","139","984224","0.0-25.0","battery-v0.2","","""event"",""trial"",""time""
""fullscreenenter"",""1"",""2681""
","
","
","""event"",""trial"",""time""
""fullscreenenter"",""1"",""2681""
","
","","","1231","","","21","14706","4450","m","elianto","#f73b6a7A","-1"," ","0","-10","[2083]","1","2","","","14706","21","0","4","lose","no-go","0"
"pit-trial","140","989093","0.0-26.0","battery-v0.2","","""event"",""trial"",""time""
""fullscreenenter"",""1"",""2681""
","
","
","""event"",""trial"",""time""
""fullscreenenter"",""1"",""2681""
","
","","","-1","","","21","14706","4450","y","elianto","#f73b6a7A","-1","-1","1","0","[]","0","2","","","14706","22","2","4","lose","no-go","0"
"pit-trial","141","993952","0.0-27.0","battery-v0.2","","""event"",""trial"",""time""
""fullscreenenter"",""1"",""2681""
","
","
","""event"",""trial"",""time""
""fullscreenenter"",""1"",""2681""
","
","","","-1","","","21","14706","4450","h","elianto","#f73b6a7A"," ","-1","0","-10","[]","0","2","","","14706","23","3","3","lose","go","0"
"pit-trial","142","997945","0.0-28.0","battery-v0.2","","""event"",""trial"",""time""
""fullscreenenter"",""1"",""2681""
","
","
","""event"",""trial"",""time""
""fullscreenenter"",""1"",""2681""
","
","","","1125","","","21","14706","4450","r","elianto","#3366ff99"," "," ","1","+10","[1980]","1","2","","","14706","24","1","1","win","go","0"
"pit-trial","143","1001957","0.0-29.0","battery-v0.2","","""event"",""trial"",""time""
""fullscreenenter"",""1"",""2681""
","
","
","""event"",""trial"",""time""
""fullscreenenter"",""1"",""2681""
","
","","","1151","","","21","14706","4450","h","elianto","#f73b6a7A"," "," ","1","0","[2002]","1","2","","","14706","25","3","3","lose","go","0"
"pit-trial","144","1005913","0.0-30.0","battery-v0.2","","""event"",""trial"",""time""
""fullscreenenter"",""1"",""2681""
","
","
","""event"",""trial"",""time""
""fullscreenenter"",""1"",""2681""
","
","","","1098","","","21","14706","4450","r","elianto","#3366ff99"," "," ","1","+10","[1949]","1","2","","","14706","26","1","1","win","go","0"
"pit-trial","145","1010781","0.0-31.0","battery-v0.2","","""event"",""trial"",""time""
""fullscreenenter"",""1"",""2681""
","
","
","""event"",""trial"",""time""
""fullscreenenter"",""1"",""2681""
","
","","","-1","","","21","14706","4450","m","elianto","#f73b6a7A","-1","-1","1","0","[]","0","2","","","14706","27","0","4","lose","no-go","0"
"pit-trial","146","1015636","0.0-32.0","battery-v0.2","","""event"",""trial"",""time""
""fullscreenenter"",""1"",""2681""
","
","
","""event"",""trial"",""time""
""fullscreenenter"",""1"",""2681""
","
","","","-1","","","21","14706","4450","y","elianto","#f73b6a7A","-1","-1","1","0","[]","0","2","","","14706","28","2","4","lose","no-go","0"
"pit-trial","147","1020497","0.0-33.0","battery-v0.2","","""event"",""trial"",""time""
""fullscreenenter"",""1"",""2681""
","
","
","""event"",""trial"",""time""
""fullscreenenter"",""1"",""2681""
","
","","","-1","","","21","14706","4450","y","elianto","#f73b6a7A","-1","-1","1","0","[]","0","2","","","14706","29","2","4","lose","no-go","0"
"pit-trial","148","1024415","0.0-34.0","battery-v0.2","","""event"",""trial"",""time""
""fullscreenenter"",""1"",""2681""
","
","
","""event"",""trial"",""time""
""fullscreenenter"",""1"",""2681""
","
","","","1065","","","21","14706","4450","r","elianto","#3366ff99"," "," ","1","+10","[1916]","1","2","","","14706","30","1","1","win","go","0"
"pit-trial","149","1028400","0.0-35.0","battery-v0.2","","""event"",""trial"",""time""
""fullscreenenter"",""1"",""2681""
","
","
","""event"",""trial"",""time""
""fullscreenenter"",""1"",""2681""
","
","","","1131","","","21","14706","4450","h","elianto","#f73b6a7A"," "," ","1","0","[1982]","1","2","","","14706","31","3","3","lose","go","0"
"pit-trial","150","1033255","0.0-36.0","battery-v0.2","","""event"",""trial"",""time""
""fullscreenenter"",""1"",""2681""
","
","
","""event"",""trial"",""time""
""fullscreenenter"",""1"",""2681""
","
","","","-1","","","21","14706","4450","m","elianto","#f73b6a7A","-1","-1","1","0","[]","0","2","","","14706","32","0","4","lose","no-go","0"
"pit-trial","151","1038110","0.0-37.0","battery-v0.2","","""event"",""trial"",""time""
""fullscreenenter"",""1"",""2681""
","
","
","""event"",""trial"",""time""
""fullscreenenter"",""1"",""2681""
","
","","","-1","","","21","14706","4450","y","elianto","#f73b6a7A","-1","-1","1","0","[]","0","2","","","14706","33","2","4","lose","no-go","0"
"pit-trial","152","1042975","0.0-38.0","battery-v0.2","","""event"",""trial"",""time""
""fullscreenenter"",""1"",""2681""
","
","
","""event"",""trial"",""time""
""fullscreenenter"",""1"",""2681""
","
","","","-1","","","21","14706","4450","m","elianto","#f73b6a7A","-1","-1","1","0","[]","0","2","","","14706","34","0","4","lose","no-go","0"
"pit-trial","153","1046768","0.0-39.0","battery-v0.2","","""event"",""trial"",""time""
""fullscreenenter"",""1"",""2681""
","
","
","""event"",""trial"",""time""
""fullscreenenter"",""1"",""2681""
","
","","","939","","","21","14706","4450","h","elianto","#f73b6a7A"," "," ","1","0","[1790]","1","2","","","14706","35","3","3","lose","go","0"
"pit-trial","154","1050372","0.0-40.0","battery-v0.2","","""event"",""trial"",""time""
""fullscreenenter"",""1"",""2681""
","
","
","""event"",""trial"",""time""
""fullscreenenter"",""1"",""2681""
","
","","","751","","","21","14706","4450","r","elianto","#3366ff99"," "," ","1","+10","[1602]","1","2","","","14706","36","1","1","win","go","0"
"pit-trial","155","1055225","0.0-41.0","battery-v0.2","","""event"",""trial"",""time""
""fullscreenenter"",""1"",""2681""
","
","
","""event"",""trial"",""time""
""fullscreenenter"",""1"",""2681""
","
","","","-1","","","21","14706","4450","y","elianto","#f73b6a7A","-1","-1","1","0","[]","0","2","","","14706","37","2","4","lose","no-go","0"
"pit-trial","156","1058904","0.0-42.0","battery-v0.2","","""event"",""trial"",""time""
""fullscreenenter"",""1"",""2681""
","
","
","""event"",""trial"",""time""
""fullscreenenter"",""1"",""2681""
","
","","","826","","","21","14706","4450","r","elianto","#3366ff99"," "," ","1","+10","[1677]","1","2","","","14706","38","1","1","win","go","0"
"pit-trial","157","1063758","0.0-43.0","battery-v0.2","","""event"",""trial"",""time""
""fullscreenenter"",""1"",""2681""
","
","
","""event"",""trial"",""time""
""fullscreenenter"",""1"",""2681""
","
","","","-1","","","21","14706","4450","m","elianto","#f73b6a7A","-1","-1","1","-10","[]","0","2","","","14706","39","0","4","lose","no-go","1"
"pit-trial","158","1067855","0.0-44.0","battery-v0.2","","""event"",""trial"",""time""
""fullscreenenter"",""1"",""2681""
","
","
","""event"",""trial"",""time""
""fullscreenenter"",""1"",""2681""
","
","","","1242","","","21","14706","4450","h","elianto","#f73b6a7A"," "," ","1","0","[2094]","1","2","","","14706","40","3","3","lose","go","0"
"pit-trial","159","1072707","0.0-45.0","battery-v0.2","","""event"",""trial"",""time""
""fullscreenenter"",""1"",""2681""
","
","
","""event"",""trial"",""time""
""fullscreenenter"",""1"",""2681""
","
","","","-1","","","21","14706","4450","y","elianto","#f73b6a7A","-1","-1","1","0","[]","0","2","","","14706","41","2","4","lose","no-go","0"
"pit-trial","160","1077561","0.0-46.0","battery-v0.2","","""event"",""trial"",""time""
""fullscreenenter"",""1"",""2681""
","
","
","""event"",""trial"",""time""
""fullscreenenter"",""1"",""2681""
","
","","","-1","","","21","14706","4450","m","elianto","#f73b6a7A","-1","-1","1","-10","[]","0","2","","","14706","42","0","4","lose","no-go","1"
"pit-trial","161","1081339","0.0-47.0","battery-v0.2","","""event"",""trial"",""time""
""fullscreenenter"",""1"",""2681""
","
","
","""event"",""trial"",""time""
""fullscreenenter"",""1"",""2681""
","
","","","925","","","21","14706","4450","h","elianto","#f73b6a7A"," "," ","1","0","[1777]","1","2","","","14706","43","3","3","lose","go","0"
"pit-trial","162","1085306","0.0-48.0","battery-v0.2","","""event"",""trial"",""time""
""fullscreenenter"",""1"",""2681""
","
","
","""event"",""trial"",""time""
""fullscreenenter"",""1"",""2681""
","
","","","1115","","","21","14706","4450","r","elianto","#3366ff99"," "," ","1","+10","[1966]","1","2","","","14706","44","1","1","win","go","0"
"pit-trial","163","1090161","0.0-49.0","battery-v0.2","","""event"",""trial"",""time""
""fullscreenenter"",""1"",""2681""
","
","
","""event"",""trial"",""time""
""fullscreenenter"",""1"",""2681""
","
","","","-1","","","21","14706","4450","y","elianto","#f73b6a7A","-1","-1","1","-10","[]","0","2","","","14706","45","2","4","lose","no-go","1"
"pit-trial","164","1093988","0.0-50.0","battery-v0.2","","""event"",""trial"",""time""
""fullscreenenter"",""1"",""2681""
","
","
","""event"",""trial"",""time""
""fullscreenenter"",""1"",""2681""
","
","","","973","","","21","14706","4450","h","elianto","#f73b6a7A"," "," ","1","0","[1824]","1","2","","","14706","46","3","3","lose","go","0"
"pit-trial","165","1097680","0.0-51.0","battery-v0.2","","""event"",""trial"",""time""
""fullscreenenter"",""1"",""2681""
","
","
","""event"",""trial"",""time""
""fullscreenenter"",""1"",""2681""
","
","","","838","","","21","14706","4450","z","elianto","#3366ff99","-1"," ","0","+10","[1688]","1","2","","","14706","47","4","2","win","no-go","1"
"pit-trial","166","1102534","0.0-52.0","battery-v0.2","","""event"",""trial"",""time""
""fullscreenenter"",""1"",""2681""
","
","
","""event"",""trial"",""time""
""fullscreenenter"",""1"",""2681""
","
","","","-1","","","21","14706","4450","m","elianto","#f73b6a7A","-1","-1","1","0","[]","0","2","","","14706","48","0","4","lose","no-go","0"
"pit-trial","167","1107388","0.0-53.0","battery-v0.2","","""event"",""trial"",""time""
""fullscreenenter"",""1"",""2681""
","
","
","""event"",""trial"",""time""
""fullscreenenter"",""1"",""2681""
","
","","","-1","","","21","14706","4450","m","elianto","#f73b6a7A","-1","-1","1","0","[]","0","2","","","14706","49","0","4","lose","no-go","0"
"pit-trial","168","1111399","0.0-54.0","battery-v0.2","","""event"",""trial"",""time""
""fullscreenenter"",""1"",""2681""
","
","
","""event"",""trial"",""time""
""fullscreenenter"",""1"",""2681""
","
","","","1155","","","21","14706","4450","h","elianto","#f73b6a7A"," "," ","1","0","[2007]","1","2","","","14706","50","3","3","lose","go","0"
"pit-trial","169","1115377","0.0-55.0","battery-v0.2","","""event"",""trial"",""time""
""fullscreenenter"",""1"",""2681""
","
","
","""event"",""trial"",""time""
""fullscreenenter"",""1"",""2681""
","
","","","1127","","","21","14706","4450","z","elianto","#3366ff99","-1"," ","0","+10","[1977]","1","2","","","14706","51","4","2","win","no-go","1"
"pit-trial","170","1118950","0.0-56.0","battery-v0.2","","""event"",""trial"",""time""
""fullscreenenter"",""1"",""2681""
","
","
","""event"",""trial"",""time""
""fullscreenenter"",""1"",""2681""
","
","","","720","","","21","14706","4450","r","elianto","#3366ff99"," "," ","1","+10","[1570]","1","2","","","14706","52","1","1","win","go","0"
"pit-trial","171","1122995","0.0-57.0","battery-v0.2","","""event"",""trial"",""time""
""fullscreenenter"",""1"",""2681""
","
","
","""event"",""trial"",""time""
""fullscreenenter"",""1"",""2681""
","
","","","1193","","","21","14706","4450","z","elianto","#3366ff99","-1"," ","0","+10","[2043]","1","2","","","14706","53","4","2","win","no-go","1"
"pit-trial","172","1127848","0.0-58.0","battery-v0.2","","""event"",""trial"",""time""
""fullscreenenter"",""1"",""2681""
","
","
","""event"",""trial"",""time""
""fullscreenenter"",""1"",""2681""
","
","","","-1","","","21","14706","4450","m","elianto","#f73b6a7A","-1","-1","1","0","[]","0","2","","","14706","54","0","4","lose","no-go","0"
"pit-trial","173","1131887","0.0-59.0","battery-v0.2","","""event"",""trial"",""time""
""fullscreenenter"",""1"",""2681""
","
","
","""event"",""trial"",""time""
""fullscreenenter"",""1"",""2681""
","
","","","1183","","","21","14706","4450","r","elianto","#3366ff99"," "," ","1","0","[2035]","1","2","","","14706","55","1","1","win","go","1"
"pit-trial","174","1136740","0.0-60.0","battery-v0.2","","""event"",""trial"",""time""
""fullscreenenter"",""1"",""2681""
","
","
","""event"",""trial"",""time""
""fullscreenenter"",""1"",""2681""
","
","","","-1","","","21","14706","4450","y","elianto","#f73b6a7A","-1","-1","1","0","[]","0","2","","","14706","56","2","4","lose","no-go","0"
"pit-trial","175","1141197","0.0-61.0","battery-v0.2","","""event"",""trial"",""time""
""fullscreenenter"",""1"",""2681""
","
","
","""event"",""trial"",""time""
""fullscreenenter"",""1"",""2681""
","
","","","1603","","","21","14706","4450","z","elianto","#3366ff99","-1"," ","0","0","[2454]","1","2","","","14706","57","4","2","win","no-go","0"
"pit-trial","176","1145019","0.0-62.0","battery-v0.2","","""event"",""trial"",""time""
""fullscreenenter"",""1"",""2681""
","
","
","""event"",""trial"",""time""
""fullscreenenter"",""1"",""2681""
","
","","","968","","","21","14706","4450","h","elianto","#f73b6a7A"," "," ","1","-10","[1818]","1","2","","","14706","58","3","3","lose","go","1"
"pit-trial","177","1148771","0.0-63.0","battery-v0.2","","""event"",""trial"",""time""
""fullscreenenter"",""1"",""2681""
","
","
","""event"",""trial"",""time""
""fullscreenenter"",""1"",""2681""
","
","","","898","","","21","14706","4450","r","elianto","#3366ff99"," "," ","1","0","[1750]","1","2","","","14706","59","1","1","win","go","1"
"pit-trial","178","1153626","0.0-64.0","battery-v0.2","","""event"",""trial"",""time""
""fullscreenenter"",""1"",""2681""
","
","
","""event"",""trial"",""time""
""fullscreenenter"",""1"",""2681""
","
","","","-1","","","21","14706","4450","m","elianto","#f73b6a7A","-1","-1","1","0","[]","0","2","","","14706","60","0","4","lose","no-go","0"
"pit-trial","179","1157291","0.0-65.0","battery-v0.2","","""event"",""trial"",""time""
""fullscreenenter"",""1"",""2681""
","
","
","""event"",""trial"",""time""
""fullscreenenter"",""1"",""2681""
","
","","","812","","","21","14706","4450","r","elianto","#3366ff99"," "," ","1","+10","[1662]","1","2","","","14706","61","1","1","win","go","0"
"pit-trial","180","1161402","0.0-66.0","battery-v0.2","","""event"",""trial"",""time""
""fullscreenenter"",""1"",""2681""
","
","
","""event"",""trial"",""time""
""fullscreenenter"",""1"",""2681""
","
","","","1258","","","21","14706","4450","h","elianto","#f73b6a7A"," "," ","1","0","[2108]","1","2","","","14706","62","3","3","lose","go","0"
"pit-trial","181","1166255","0.0-67.0","battery-v0.2","","""event"",""trial"",""time""
""fullscreenenter"",""1"",""2681""
","
","
","""event"",""trial"",""time""
""fullscreenenter"",""1"",""2681""
","
","","","-1","","","21","14706","4450","z","elianto","#3366ff99","-1","-1","1","0","[]","0","2","","","14706","63","4","2","win","no-go","1"
"pit-trial","182","1171109","0.0-68.0","battery-v0.2","","""event"",""trial"",""time""
""fullscreenenter"",""1"",""2681""
","
","
","""event"",""trial"",""time""
""fullscreenenter"",""1"",""2681""
","
","","","-1","","","21","14706","4450","y","elianto","#f73b6a7A","-1","-1","1","0","[]","0","2","","","14706","64","2","4","lose","no-go","0"
"pit-trial","183","1175059","0.0-69.0","battery-v0.2","","""event"",""trial"",""time""
""fullscreenenter"",""1"",""2681""
","
","
","""event"",""trial"",""time""
""fullscreenenter"",""1"",""2681""
","
","","","1096","","","21","14706","4450","h","elianto","#f73b6a7A"," "," ","1","-10","[1947]","1","2","","","14706","65","3","3","lose","go","1"
"pit-trial","184","1179913","0.0-70.0","battery-v0.2","","""event"",""trial"",""time""
""fullscreenenter"",""1"",""2681""
","
","
","""event"",""trial"",""time""
""fullscreenenter"",""1"",""2681""
","
","","","-1","","","21","14706","4450","y","elianto","#f73b6a7A","-1","-1","1","0","[]","0","2","","","14706","66","2","4","lose","no-go","0"
"pit-trial","185","1183745","0.0-71.0","battery-v0.2","","""event"",""trial"",""time""
""fullscreenenter"",""1"",""2681""
","
","
","""event"",""trial"",""time""
""fullscreenenter"",""1"",""2681""
","
","","","980","","","21","14706","4450","z","elianto","#3366ff99","-1"," ","0","0","[1830]","1","2","","","14706","67","4","2","win","no-go","0"
"pit-trial","186","1187645","0.0-72.0","battery-v0.2","","""event"",""trial"",""time""
""fullscreenenter"",""1"",""2681""
","
","
","""event"",""trial"",""time""
""fullscreenenter"",""1"",""2681""
","
","","","1047","","","21","14706","4450","r","elianto","#3366ff99"," "," ","1","0","[1897]","1","2","","","14706","68","1","1","win","go","1"
"pit-trial","187","1191608","0.0-73.0","battery-v0.2","","""event"",""trial"",""time""
""fullscreenenter"",""1"",""2681""
","
","
","""event"",""trial"",""time""
""fullscreenenter"",""1"",""2681""
","
","","","1107","","","21","14706","4450","c","elianto","#3366ff99"," "," ","1","+10","[1960]","1","2","","","14706","69","5","1","win","go","0"
"pit-trial","188","1195580","0.0-74.0","battery-v0.2","","""event"",""trial"",""time""
""fullscreenenter"",""1"",""2681""
","
","
","""event"",""trial"",""time""
""fullscreenenter"",""1"",""2681""
","
","","","1116","","","21","14706","4450","z","elianto","#3366ff99","-1"," ","0","+10","[1968]","1","2","","","14706","70","4","2","win","no-go","1"
"pit-trial","189","1199916","0.0-75.0","battery-v0.2","","""event"",""trial"",""time""
""fullscreenenter"",""1"",""2681""
","
","
","""event"",""trial"",""time""
""fullscreenenter"",""1"",""2681""
","
","","","1483","","","21","14706","4450","h","elianto","#f73b6a7A"," "," ","1","0","[2333]","1","2","","","14706","71","3","3","lose","go","0"
"pit-trial","190","1203466","0.0-76.0","battery-v0.2","","""event"",""trial"",""time""
""fullscreenenter"",""1"",""2681""
","
","
","""event"",""trial"",""time""
""fullscreenenter"",""1"",""2681""
","
","","","696","","","21","14706","4450","r","elianto","#3366ff99"," "," ","1","+10","[1547]","1","2","","","14706","72","1","1","win","go","0"
"pit-trial","191","1207048","0.0-77.0","battery-v0.2","","""event"",""trial"",""time""
""fullscreenenter"",""1"",""2681""
","
","
","""event"",""trial"",""time""
""fullscreenenter"",""1"",""2681""
","
","","","728","","","21","14706","4450","r","elianto","#3366ff99"," "," ","1","0","[1578]","1","2","","","14706","73","1","1","win","go","1"
"pit-trial","192","1210634","0.0-78.0","battery-v0.2","","""event"",""trial"",""time""
""fullscreenenter"",""1"",""2681""
","
","
","""event"",""trial"",""time""
""fullscreenenter"",""1"",""2681""
","
","","","732","","","21","14706","4450","c","elianto","#3366ff99"," "," ","1","+10","[1584]","1","2","","","14706","74","5","1","win","go","0"
"pit-trial","193","1214326","0.0-79.0","battery-v0.2","","""event"",""trial"",""time""
""fullscreenenter"",""1"",""2681""
","
","
","""event"",""trial"",""time""
""fullscreenenter"",""1"",""2681""
","
","","","839","","","21","14706","4450","z","elianto","#3366ff99","-1"," ","0","0","[1689]","1","2","","","14706","75","4","2","win","no-go","0"
"pit-trial","194","1218360","0.0-80.0","battery-v0.2","","""event"",""trial"",""time""
""fullscreenenter"",""1"",""2681""
","
","
","""event"",""trial"",""time""
""fullscreenenter"",""1"",""2681""
","
","","","1181","","","21","14706","4450","h","elianto","#f73b6a7A"," "," ","1","0","[2033]","1","2","","","14706","76","3","3","lose","go","0"
"pit-trial","195","1222434","0.0-81.0","battery-v0.2","","""event"",""trial"",""time""
""fullscreenenter"",""1"",""2681""
","
","
","""event"",""trial"",""time""
""fullscreenenter"",""1"",""2681""
","
","","","1219","","","21","14706","4450","b","elianto","#f73b6a7A","-1"," ","0","0","[2070]","1","2","","","14706","77","6","4","lose","no-go","1"
"pit-trial","196","1226254","0.0-82.0","battery-v0.2","","""event"",""trial"",""time""
""fullscreenenter"",""1"",""2681""
","
","
","""event"",""trial"",""time""
""fullscreenenter"",""1"",""2681""
","
","","","967","","","21","14706","4450","z","elianto","#3366ff99","-1"," ","0","0","[1818]","1","2","","","14706","78","4","2","win","no-go","0"
"pit-trial","197","1229867","0.0-83.0","battery-v0.2","","""event"",""trial"",""time""
""fullscreenenter"",""1"",""2681""
","
","
","""event"",""trial"",""time""
""fullscreenenter"",""1"",""2681""
","
","","","753","","","21","14706","4450","c","elianto","#3366ff99"," "," ","1","+10","[1604]","1","2","","","14706","79","5","1","win","go","0"
"pit-trial","198","1234159","0.0-84.0","battery-v0.2","","""event"",""trial"",""time""
""fullscreenenter"",""1"",""2681""
","
","
","""event"",""trial"",""time""
""fullscreenenter"",""1"",""2681""
","
","","","1437","","","21","14706","4450","h","elianto","#f73b6a7A"," "," ","1","0","[2287]","1","2","","","14706","80","3","3","lose","go","0"
"pit-trial","199","1238327","0.0-85.0","battery-v0.2","","""event"",""trial"",""time""
""fullscreenenter"",""1"",""2681""
","
","
","""event"",""trial"",""time""
""fullscreenenter"",""1"",""2681""
","
","","","1313","","","21","14706","4450","c","elianto","#3366ff99"," "," ","1","+10","[2163]","1","2","","","14706","81","5","1","win","go","0"
"pit-trial","200","1242361","0.0-86.0","battery-v0.2","","""event"",""trial"",""time""
""fullscreenenter"",""1"",""2681""
","
","
","""event"",""trial"",""time""
""fullscreenenter"",""1"",""2681""
","
","","","1180","","","21","14706","4450","b","elianto","#f73b6a7A","-1"," ","0","-10","[2030]","1","2","","","14706","82","6","4","lose","no-go","0"
"pit-trial","201","1247215","0.0-87.0","battery-v0.2","","""event"",""trial"",""time""
""fullscreenenter"",""1"",""2681""
","
","
","""event"",""trial"",""time""
""fullscreenenter"",""1"",""2681""
","
","","","-1","","","21","14706","4450","t","elianto","#f73b6a7A"," ","-1","0","0","[]","0","2","","","14706","83","7","3","lose","go","1"
"pit-trial","202","1252081","0.0-88.0","battery-v0.2","","""event"",""trial"",""time""
""fullscreenenter"",""1"",""2681""
","
","
","""event"",""trial"",""time""
""fullscreenenter"",""1"",""2681""
","
","","","-1","","","21","14706","4450","z","elianto","#3366ff99","-1","-1","1","+10","[]","0","2","","","14706","84","4","2","win","no-go","0"
"pit-trial","203","1255997","0.0-89.0","battery-v0.2","","""event"",""trial"",""time""
""fullscreenenter"",""1"",""2681""
","
","
","""event"",""trial"",""time""
""fullscreenenter"",""1"",""2681""
","
","","","1063","","","21","14706","4450","c","elianto","#3366ff99"," "," ","1","0","[1913]","1","2","","","14706","85","5","1","win","go","1"
"pit-trial","204","1260850","0.0-90.0","battery-v0.2","","""event"",""trial"",""time""
""fullscreenenter"",""1"",""2681""
","
","
","""event"",""trial"",""time""
""fullscreenenter"",""1"",""2681""
","
","","","-1","","","21","14706","4450","t","elianto","#f73b6a7A"," ","-1","0","-10","[]","0","2","","","14706","86","7","3","lose","go","0"
"pit-trial","205","1265704","0.0-91.0","battery-v0.2","","""event"",""trial"",""time""
""fullscreenenter"",""1"",""2681""
","
","
","""event"",""trial"",""time""
""fullscreenenter"",""1"",""2681""
","
","","","-1","","","21","14706","4450","b","elianto","#f73b6a7A","-1","-1","1","0","[]","0","2","","","14706","87","6","4","lose","no-go","0"
"pit-trial","206","1270557","0.0-92.0","battery-v0.2","","""event"",""trial"",""time""
""fullscreenenter"",""1"",""2681""
","
","
","""event"",""trial"",""time""
""fullscreenenter"",""1"",""2681""
","
","","","-1","","","21","14706","4450","z","elianto","#3366ff99","-1","-1","1","+10","[]","0","2","","","14706","88","4","2","win","no-go","0"
"pit-trial","207","1275410","0.0-93.0","battery-v0.2","","""event"",""trial"",""time""
""fullscreenenter"",""1"",""2681""
","
","
","""event"",""trial"",""time""
""fullscreenenter"",""1"",""2681""
","
","","","-1","","","21","14706","4450","t","elianto","#f73b6a7A"," ","-1","0","-10","[]","0","2","","","14706","89","7","3","lose","go","0"
"pit-trial","208","1280265","0.0-94.0","battery-v0.2","","""event"",""trial"",""time""
""fullscreenenter"",""1"",""2681""
","
","
","""event"",""trial"",""time""
""fullscreenenter"",""1"",""2681""
","
","","","-1","","","21","14706","4450","c","elianto","#3366ff99"," ","-1","0","+10","[]","0","2","","","14706","90","5","1","win","go","1"
"pit-trial","209","1285118","0.0-95.0","battery-v0.2","","""event"",""trial"",""time""
""fullscreenenter"",""1"",""2681""
","
","
","""event"",""trial"",""time""
""fullscreenenter"",""1"",""2681""
","
","","","-1","","","21","14706","4450","z","elianto","#3366ff99","-1","-1","1","0","[]","0","2","","","14706","91","4","2","win","no-go","1"
"pit-trial","210","1289974","0.0-96.0","battery-v0.2","","""event"",""trial"",""time""
""fullscreenenter"",""1"",""2681""
","
","
","""event"",""trial"",""time""
""fullscreenenter"",""1"",""2681""
","
","","","-1","","","21","14706","4450","b","elianto","#f73b6a7A","-1","-1","1","0","[]","0","2","","","14706","92","6","4","lose","no-go","0"
"pit-trial","211","1294111","0.0-97.0","battery-v0.2","","""event"",""trial"",""time""
""fullscreenenter"",""1"",""2681""
","
","
","""event"",""trial"",""time""
""fullscreenenter"",""1"",""2681""
","
","","","1282","","","21","14706","4450","f","elianto","#3366ff99","-1"," ","0","0","[2134]","1","2","","","14706","93","8","2","win","no-go","0"
"pit-trial","212","1298535","0.0-98.0","battery-v0.2","","""event"",""trial"",""time""
""fullscreenenter"",""1"",""2681""
","
","
","""event"",""trial"",""time""
""fullscreenenter"",""1"",""2681""
","
","","","1569","","","21","14706","4450","t","elianto","#f73b6a7A"," "," ","1","0","[2420]","1","2","","","14706","94","7","3","lose","go","0"
"pit-trial","213","1303388","0.0-99.0","battery-v0.2","","""event"",""trial"",""time""
""fullscreenenter"",""1"",""2681""
","
","
","""event"",""trial"",""time""
""fullscreenenter"",""1"",""2681""
","
","","","-1","","","21","14706","4450","b","elianto","#f73b6a7A","-1","-1","1","-10","[]","0","2","","","14706","95","6","4","lose","no-go","1"
"pit-trial","214","1308241","0.0-100.0","battery-v0.2","","""event"",""trial"",""time""
""fullscreenenter"",""1"",""2681""
","
","
","""event"",""trial"",""time""
""fullscreenenter"",""1"",""2681""
","
","","","-1","","","21","14706","4450","c","elianto","#3366ff99"," ","-1","0","0","[]","0","2","","","14706","96","5","1","win","go","0"
"pit-trial","215","1312222","0.0-101.0","battery-v0.2","","""event"",""trial"",""time""
""fullscreenenter"",""1"",""2681""
","
","
","""event"",""trial"",""time""
""fullscreenenter"",""1"",""2681""
","
","","","1128","","","21","14706","4450","c","elianto","#3366ff99"," "," ","1","+10","[1978]","1","2","","","14706","97","5","1","win","go","0"
"pit-trial","216","1316501","0.0-102.0","battery-v0.2","","""event"",""trial"",""time""
""fullscreenenter"",""1"",""2681""
","
","
","""event"",""trial"",""time""
""fullscreenenter"",""1"",""2681""
","
","","","1424","","","21","14706","4450","f","elianto","#3366ff99","-1"," ","0","0","[2274]","1","2","","","14706","98","8","2","win","no-go","0"
"pit-trial","217","1320976","0.0-103.0","battery-v0.2","","""event"",""trial"",""time""
""fullscreenenter"",""1"",""2681""
","
","
","""event"",""trial"",""time""
""fullscreenenter"",""1"",""2681""
","
","","","1622","","","21","14706","4450","t","elianto","#f73b6a7A"," "," ","1","0","[2472]","1","2","","","14706","99","7","3","lose","go","0"
"pit-trial","218","1325841","0.0-104.0","battery-v0.2","","""event"",""trial"",""time""
""fullscreenenter"",""1"",""2681""
","
","
","""event"",""trial"",""time""
""fullscreenenter"",""1"",""2681""
","
","","","-1","","","21","14706","4450","b","elianto","#f73b6a7A","-1","-1","1","0","[]","0","2","","","14706","100","6","4","lose","no-go","0"
"pit-trial","219","1330696","0.0-105.0","battery-v0.2","","""event"",""trial"",""time""
""fullscreenenter"",""1"",""2681""
","
","
","""event"",""trial"",""time""
""fullscreenenter"",""1"",""2681""
","
","","","-1","","","21","14706","4450","b","elianto","#f73b6a7A","-1","-1","1","0","[]","0","2","","","14706","101","6","4","lose","no-go","0"
"pit-trial","220","1334255","0.0-106.0","battery-v0.2","","""event"",""trial"",""time""
""fullscreenenter"",""1"",""2681""
","
","
","""event"",""trial"",""time""
""fullscreenenter"",""1"",""2681""
","
","","","702","","","21","14706","4450","f","elianto","#3366ff99","-1"," ","0","0","[1553]","1","2","","","14706","102","8","2","win","no-go","0"
"pit-trial","221","1338118","0.0-107.0","battery-v0.2","","""event"",""trial"",""time""
""fullscreenenter"",""1"",""2681""
","
","
","""event"",""trial"",""time""
""fullscreenenter"",""1"",""2681""
","
","","","1009","","","21","14706","4450","n","elianto","#3366ff99","-1"," ","0","0","[1859]","1","2","","","14706","103","9","2","win","no-go","0"
"pit-trial","222","1342215","0.0-108.0","battery-v0.2","","""event"",""trial"",""time""
""fullscreenenter"",""1"",""2681""
","
","
","""event"",""trial"",""time""
""fullscreenenter"",""1"",""2681""
","
","","","1242","","","21","14706","4450","c","elianto","#3366ff99"," "," ","1","+10","[2093]","1","2","","","14706","104","5","1","win","go","0"
"pit-trial","223","1347068","0.0-109.0","battery-v0.2","","""event"",""trial"",""time""
""fullscreenenter"",""1"",""2681""
","
","
","""event"",""trial"",""time""
""fullscreenenter"",""1"",""2681""
","
","","","-1","","","21","14706","4450","b","elianto","#f73b6a7A","-1","-1","1","0","[]","0","2","","","14706","105","6","4","lose","no-go","0"
"pit-trial","224","1350849","0.0-110.0","battery-v0.2","","""event"",""trial"",""time""
""fullscreenenter"",""1"",""2681""
","
","
","""event"",""trial"",""time""
""fullscreenenter"",""1"",""2681""
","
","","","929","","","21","14706","4450","c","elianto","#3366ff99"," "," ","1","+10","[1779]","1","2","","","14706","106","5","1","win","go","0"
"pit-trial","225","1355704","0.0-111.0","battery-v0.2","","""event"",""trial"",""time""
""fullscreenenter"",""1"",""2681""
","
","
","""event"",""trial"",""time""
""fullscreenenter"",""1"",""2681""
","
","","","-1","","","21","14706","4450","n","elianto","#3366ff99","-1","-1","1","+10","[]","0","2","","","14706","107","9","2","win","no-go","0"
"pit-trial","226","1360558","0.0-112.0","battery-v0.2","","""event"",""trial"",""time""
""fullscreenenter"",""1"",""2681""
","
","
","""event"",""trial"",""time""
""fullscreenenter"",""1"",""2681""
","
","","","-1","","","21","14706","4450","f","elianto","#3366ff99","-1","-1","1","+10","[]","0","2","","","14706","108","8","2","win","no-go","0"
"pit-trial","227","1365411","0.0-113.0","battery-v0.2","","""event"",""trial"",""time""
""fullscreenenter"",""1"",""2681""
","
","
","""event"",""trial"",""time""
""fullscreenenter"",""1"",""2681""
","
","","","-1","","","21","14706","4450","n","elianto","#3366ff99","-1","-1","1","0","[]","0","2","","","14706","109","9","2","win","no-go","1"
"pit-trial","228","1370265","0.0-114.0","battery-v0.2","","""event"",""trial"",""time""
""fullscreenenter"",""1"",""2681""
","
","
","""event"",""trial"",""time""
""fullscreenenter"",""1"",""2681""
","
","","","-1","","","21","14706","4450","b","elianto","#f73b6a7A","-1","-1","1","0","[]","0","2","","","14706","110","6","4","lose","no-go","0"
"pit-trial","229","1374139","0.0-115.0","battery-v0.2","","""event"",""trial"",""time""
""fullscreenenter"",""1"",""2681""
","
","
","""event"",""trial"",""time""
""fullscreenenter"",""1"",""2681""
","
","","","1020","","","21","14706","4450","c","elianto","#3366ff99"," "," ","1","+10","[1872]","1","2","","","14706","111","5","1","win","go","0"
"pit-trial","230","1378992","0.0-116.0","battery-v0.2","","""event"",""trial"",""time""
""fullscreenenter"",""1"",""2681""
","
","
","""event"",""trial"",""time""
""fullscreenenter"",""1"",""2681""
","
","","","-1","","","21","14706","4450","f","elianto","#3366ff99","-1","-1","1","+10","[]","0","2","","","14706","112","8","2","win","no-go","0"
"pit-trial","231","1383102","0.0-117.0","battery-v0.2","","""event"",""trial"",""time""
""fullscreenenter"",""1"",""2681""
","
","
","""event"",""trial"",""time""
""fullscreenenter"",""1"",""2681""
","
","","","1256","","","21","14706","4450","t","elianto","#f73b6a7A"," "," ","1","-10","[2105]","1","2","","","14706","113","7","3","lose","go","1"
"pit-trial","232","1387956","0.0-118.0","battery-v0.2","","""event"",""trial"",""time""
""fullscreenenter"",""1"",""2681""
","
","
","""event"",""trial"",""time""
""fullscreenenter"",""1"",""2681""
","
","","","1997","","","21","14706","4450","n","elianto","#3366ff99","-1"," ","0","0","[2847]","1","2","","","14706","114","9","2","win","no-go","0"
"pit-trial","233","1392809","0.0-119.0","battery-v0.2","","""event"",""trial"",""time""
""fullscreenenter"",""1"",""2681""
","
","
","""event"",""trial"",""time""
""fullscreenenter"",""1"",""2681""
","
","","","-1","","","21","14706","4450","f","elianto","#3366ff99","-1","-1","1","+10","[]","0","2","","","14706","115","8","2","win","no-go","0"
"pit-trial","234","1397002","0.0-120.0","battery-v0.2","","""event"",""trial"",""time""
""fullscreenenter"",""1"",""2681""
","
","
","""event"",""trial"",""time""
""fullscreenenter"",""1"",""2681""
","
","","","1340","","","21","14706","4450","c","elianto","#3366ff99"," "," ","1","+10","[2190]","1","2","","","14706","116","5","1","win","go","0"
"pit-trial","235","1401855","0.0-121.0","battery-v0.2","","""event"",""trial"",""time""
""fullscreenenter"",""1"",""2681""
","
","
","""event"",""trial"",""time""
""fullscreenenter"",""1"",""2681""
","
","","","-1","","","21","14706","4450","b","elianto","#f73b6a7A","-1","-1","1","-10","[]","0","2","","","14706","117","6","4","lose","no-go","1"
"pit-trial","236","1406707","0.0-122.0","battery-v0.2","","""event"",""trial"",""time""
""fullscreenenter"",""1"",""2681""
","
","
","""event"",""trial"",""time""
""fullscreenenter"",""1"",""2681""
","
","","","-1","","","21","14706","4450","n","elianto","#3366ff99","-1","-1","1","+10","[]","0","2","","","14706","118","9","2","win","no-go","0"
"pit-trial","237","1410835","0.0-123.0","battery-v0.2","","""event"",""trial"",""time""
""fullscreenenter"",""1"",""2681""
","
","
","""event"",""trial"",""time""
""fullscreenenter"",""1"",""2681""
","
","","","1274","","","21","14706","4450","c","elianto","#3366ff99"," "," ","1","+10","[2125]","1","2","","","14706","119","5","1","win","go","0"
"pit-trial","238","1415688","0.0-124.0","battery-v0.2","","""event"",""trial"",""time""
""fullscreenenter"",""1"",""2681""
","
","
","""event"",""trial"",""time""
""fullscreenenter"",""1"",""2681""
","
","","","-1","","","21","14706","4450","f","elianto","#3366ff99","-1","-1","1","+10","[]","0","2","","","14706","120","8","2","win","no-go","0"
"pit-trial","239","1420543","0.0-125.0","battery-v0.2","","""event"",""trial"",""time""
""fullscreenenter"",""1"",""2681""
","
","
","""event"",""trial"",""time""
""fullscreenenter"",""1"",""2681""
","
","","","-1","","","21","14706","4450","f","elianto","#3366ff99","-1","-1","1","+10","[]","0","2","","","14706","121","8","2","win","no-go","0"
"pit-trial","240","1425397","0.0-126.0","battery-v0.2","","""event"",""trial"",""time""
""fullscreenenter"",""1"",""2681""
","
","
","""event"",""trial"",""time""
""fullscreenenter"",""1"",""2681""
","
","","","-1","","","21","14706","4450","n","elianto","#3366ff99","-1","-1","1","+10","[]","0","2","","","14706","122","9","2","win","no-go","0"
"pit-trial","241","1429042","0.0-127.0","battery-v0.2","","""event"",""trial"",""time""
""fullscreenenter"",""1"",""2681""
","
","
","""event"",""trial"",""time""
""fullscreenenter"",""1"",""2681""
","
","","","778","","","21","14706","4450","c","elianto","#3366ff99"," "," ","1","+10","[1629]","1","2","","","14706","123","5","1","win","go","0"
"pit-trial","242","1433079","0.0-128.0","battery-v0.2","","""event"",""trial"",""time""
""fullscreenenter"",""1"",""2681""
","
","
","""event"",""trial"",""time""
""fullscreenenter"",""1"",""2681""
","
","","","1182","","","21","14706","4450","t","elianto","#f73b6a7A"," "," ","1","0","[2032]","1","2","","","14706","124","7","3","lose","go","0"
"pit-trial","243","1437933","0.0-129.0","battery-v0.2","","""event"",""trial"",""time""
""fullscreenenter"",""1"",""2681""
","
","
","""event"",""trial"",""time""
""fullscreenenter"",""1"",""2681""
","
","","","-1","","","21","14706","4450","f","elianto","#3366ff99","-1","-1","1","+10","[]","0","2","","","14706","125","8","2","win","no-go","0"
"pit-trial","244","1442786","0.0-130.0","battery-v0.2","","""event"",""trial"",""time""
""fullscreenenter"",""1"",""2681""
","
","
","""event"",""trial"",""time""
""fullscreenenter"",""1"",""2681""
","
","","","-1","","","21","14706","4450","b","elianto","#f73b6a7A","-1","-1","1","0","[]","0","2","","","14706","126","6","4","lose","no-go","0"
"pit-trial","245","1446622","0.0-131.0","battery-v0.2","","""event"",""trial"",""time""
""fullscreenenter"",""1"",""2681""
","
","
","""event"",""trial"",""time""
""fullscreenenter"",""1"",""2681""
","
","","","981","","","21","14706","4450","t","elianto","#f73b6a7A"," "," ","1","0","[1832]","1","2","","","14706","127","7","3","lose","go","0"
"pit-trial","246","1451477","0.0-132.0","battery-v0.2","","""event"",""trial"",""time""
""fullscreenenter"",""1"",""2681""
","
","
","""event"",""trial"",""time""
""fullscreenenter"",""1"",""2681""
","
","","","-1","","","21","14706","4450","n","elianto","#3366ff99","-1","-1","1","+10","[]","0","2","","","14706","128","9","2","win","no-go","0"
"pit-trial","247","1456329","0.0-133.0","battery-v0.2","","""event"",""trial"",""time""
""fullscreenenter"",""1"",""2681""
","
","
","""event"",""trial"",""time""
""fullscreenenter"",""1"",""2681""
","
","","","-1","","","21","14706","4450","n","elianto","#3366ff99","-1","-1","1","+10","[]","0","2","","","14706","129","9","2","win","no-go","0"
"pit-trial","248","1461185","0.0-134.0","battery-v0.2","","""event"",""trial"",""time""
""fullscreenenter"",""1"",""2681""
","
","
","""event"",""trial"",""time""
""fullscreenenter"",""1"",""2681""
","
","","","-1","","","21","14706","4450","b","elianto","#f73b6a7A","-1","-1","1","0","[]","0","2","","","14706","130","6","4","lose","no-go","0"
"pit-trial","249","1465049","0.0-135.0","battery-v0.2","","""event"",""trial"",""time""
""fullscreenenter"",""1"",""2681""
","
","
","""event"",""trial"",""time""
""fullscreenenter"",""1"",""2681""
","
","","","1008","","","21","14706","4450","t","elianto","#f73b6a7A"," "," ","1","0","[1860]","1","2","","","14706","131","7","3","lose","go","0"
"pit-trial","250","1469902","0.0-136.0","battery-v0.2","","""event"",""trial"",""time""
""fullscreenenter"",""1"",""2681""
","
","
","""event"",""trial"",""time""
""fullscreenenter"",""1"",""2681""
","
","","","-1","","","21","14706","4450","f","elianto","#3366ff99","-1","-1","1","0","[]","0","2","","","14706","132","8","2","win","no-go","1"
"pit-trial","251","1474755","0.0-137.0","battery-v0.2","","""event"",""trial"",""time""
""fullscreenenter"",""1"",""2681""
","
","
","""event"",""trial"",""time""
""fullscreenenter"",""1"",""2681""
","
","","","-1","","","21","14706","4450","b","elianto","#f73b6a7A","-1","-1","1","0","[]","0","2","","","14706","133","6","4","lose","no-go","0"
"pit-trial","252","1478516","0.0-138.0","battery-v0.2","","""event"",""trial"",""time""
""fullscreenenter"",""1"",""2681""
","
","
","""event"",""trial"",""time""
""fullscreenenter"",""1"",""2681""
","
","","","909","","","21","14706","4450","t","elianto","#f73b6a7A"," "," ","1","-10","[1759]","1","2","","","14706","134","7","3","lose","go","1"
"pit-trial","253","1483370","0.0-139.0","battery-v0.2","","""event"",""trial"",""time""
""fullscreenenter"",""1"",""2681""
","
","
","""event"",""trial"",""time""
""fullscreenenter"",""1"",""2681""
","
","","","-1","","","21","14706","4450","n","elianto","#3366ff99","-1","-1","1","+10","[]","0","2","","","14706","135","9","2","win","no-go","0"
"pit-trial","254","1487798","0.0-140.0","battery-v0.2","","""event"",""trial"",""time""
""fullscreenenter"",""1"",""2681""
","
","
","""event"",""trial"",""time""
""fullscreenenter"",""1"",""2681""
","
","","","1575","","","21","14706","4450","f","elianto","#3366ff99","-1"," ","0","0","[2425]","1","2","","","14706","136","8","2","win","no-go","0"
"pit-trial","255","1491671","0.0-141.0","battery-v0.2","","""event"",""trial"",""time""
""fullscreenenter"",""1"",""2681""
","
","
","""event"",""trial"",""time""
""fullscreenenter"",""1"",""2681""
","
","","","1021","","","21","14706","4450","t","elianto","#f73b6a7A"," "," ","1","0","[1871]","1","2","","","14706","137","7","3","lose","go","0"
"pit-trial","256","1496538","0.0-142.0","battery-v0.2","","""event"",""trial"",""time""
""fullscreenenter"",""1"",""2681""
","
","
","""event"",""trial"",""time""
""fullscreenenter"",""1"",""2681""
","
","","","-1","","","21","14706","4450","b","elianto","#f73b6a7A","-1","-1","1","0","[]","0","2","","","14706","138","6","4","lose","no-go","0"
"pit-trial","257","1500713","0.0-143.0","battery-v0.2","","""event"",""trial"",""time""
""fullscreenenter"",""1"",""2681""
","
","
","""event"",""trial"",""time""
""fullscreenenter"",""1"",""2681""
","
","","","1322","","","21","14706","4450","f","elianto","#3366ff99","-1"," ","0","+10","[2173]","1","2","","","14706","139","8","2","win","no-go","1"
"pit-trial","258","1505565","0.0-144.0","battery-v0.2","","""event"",""trial"",""time""
""fullscreenenter"",""1"",""2681""
","
","
","""event"",""trial"",""time""
""fullscreenenter"",""1"",""2681""
","
","","","-1","","","21","14706","4450","n","elianto","#3366ff99","-1","-1","1","+10","[]","0","2","","","14706","140","9","2","win","no-go","0"
"pit-instructions","259","1520468","0.0-145.0","battery-v0.2","","""event"",""trial"",""time""
""fullscreenenter"",""1"",""2681""
","
","
","""event"",""trial"",""time""
""fullscreenenter"",""1"",""2681""
","
","","[{""page_index"":0,""viewing_time"":5647},{""page_index"":1,""viewing_time"":9254}]","14901","","","","","","","","","","","","","","","","","","","","","","","",""
"pit-trial","260","1524583","0.0-146.0","battery-v0.2","","""event"",""trial"",""time""
""fullscreenenter"",""1"",""2681""
","
","
","""event"",""trial"",""time""
""fullscreenenter"",""1"",""2681""
","
","","","1258","","","21","14706","4450","u","elianto","#f73b6a7A"," "," ","1","0","[2107]","1","3","","","14706","141","0","3","lose","go","0"
"pit-trial","261","1528700","0.0-147.0","battery-v0.2","","""event"",""trial"",""time""
""fullscreenenter"",""1"",""2681""
","
","
","""event"",""trial"",""time""
""fullscreenenter"",""1"",""2681""
","
","","","1255","","","21","14706","4450","a","elianto","#f73b6a7A"," "," ","1","0","[2112]","1","3","","","14706","142","2","3","lose","go","0"
"pit-trial","262","1532408","0.0-148.0","battery-v0.2","","""event"",""trial"",""time""
""fullscreenenter"",""1"",""2681""
","
","
","""event"",""trial"",""time""
""fullscreenenter"",""1"",""2681""
","
","","","845","","","21","14706","4450","l","elianto","#3366ff99","-1"," ","0","+10","[1698]","1","3","","","14706","143","1","2","win","no-go","1"
"pit-trial","263","1537278","0.0-149.0","battery-v0.2","","""event"",""trial"",""time""
""fullscreenenter"",""1"",""2681""
","
","
","""event"",""trial"",""time""
""fullscreenenter"",""1"",""2681""
","
","","","-1","","","21","14706","4450","g","elianto","#f73b6a7A","-1","-1","1","0","[]","0","3","","","14706","144","3","4","lose","no-go","0"
"pit-trial","264","1542150","0.0-150.0","battery-v0.2","","""event"",""trial"",""time""
""fullscreenenter"",""1"",""2681""
","
","
","""event"",""trial"",""time""
""fullscreenenter"",""1"",""2681""
","
","","","-1","","","21","14706","4450","g","elianto","#f73b6a7A","-1","-1","1","0","[]","0","3","","","14706","145","3","4","lose","no-go","0"
"pit-trial","265","1545784","0.0-151.0","battery-v0.2","","""event"",""trial"",""time""
""fullscreenenter"",""1"",""2681""
","
","
","""event"",""trial"",""time""
""fullscreenenter"",""1"",""2681""
","
","","","767","","","21","14706","4450","l","elianto","#3366ff99","-1"," ","0","+10","[1617]","1","3","","","14706","146","1","2","win","no-go","1"
"pit-trial","266","1549353","0.0-152.0","battery-v0.2","","""event"",""trial"",""time""
""fullscreenenter"",""1"",""2681""
","
","
","""event"",""trial"",""time""
""fullscreenenter"",""1"",""2681""
","
","","","713","","","21","14706","4450","u","elianto","#f73b6a7A"," "," ","1","0","[1567]","1","3","","","14706","147","0","3","lose","go","0"
"pit-trial","267","1553293","0.0-153.0","battery-v0.2","","""event"",""trial"",""time""
""fullscreenenter"",""1"",""2681""
","
","
","""event"",""trial"",""time""
""fullscreenenter"",""1"",""2681""
","
","","","1087","","","21","14706","4450","a","elianto","#f73b6a7A"," "," ","1","-10","[1938]","1","3","","","14706","148","2","3","lose","go","1"
"pit-trial","268","1558062","0.0-154.0","battery-v0.2","","""event"",""trial"",""time""
""fullscreenenter"",""1"",""2681""
","
","
","""event"",""trial"",""time""
""fullscreenenter"",""1"",""2681""
","
","","","1917","","","21","14706","4450","u","elianto","#f73b6a7A"," "," ","1","0","[2768]","1","3","","","14706","149","0","3","lose","go","0"
"pit-trial","269","1562916","0.0-155.0","battery-v0.2","","""event"",""trial"",""time""
""fullscreenenter"",""1"",""2681""
","
","
","""event"",""trial"",""time""
""fullscreenenter"",""1"",""2681""
","
","","","-1","","","21","14706","4450","a","elianto","#f73b6a7A"," ","-1","0","-10","[]","0","3","","","14706","150","2","3","lose","go","0"
"pit-trial","270","1567769","0.0-156.0","battery-v0.2","","""event"",""trial"",""time""
""fullscreenenter"",""1"",""2681""
","
","
","""event"",""trial"",""time""
""fullscreenenter"",""1"",""2681""
","
","","","-1","","","21","14706","4450","g","elianto","#f73b6a7A","-1","-1","1","0","[]","0","3","","","14706","151","3","4","lose","no-go","0"
"pit-trial","271","1571361","0.0-157.0","battery-v0.2","","""event"",""trial"",""time""
""fullscreenenter"",""1"",""2681""
","
","
","""event"",""trial"",""time""
""fullscreenenter"",""1"",""2681""
","
","","","738","","","21","14706","4450","l","elianto","#3366ff99","-1"," ","0","+10","[1589]","1","3","","","14706","152","1","2","win","no-go","1"
"pit-trial","272","1574911","0.0-158.0","battery-v0.2","","""event"",""trial"",""time""
""fullscreenenter"",""1"",""2681""
","
","
","""event"",""trial"",""time""
""fullscreenenter"",""1"",""2681""
","
","","","696","","","21","14706","4450","g","elianto","#f73b6a7A","-1"," ","0","-10","[1546]","1","3","","","14706","153","3","4","lose","no-go","0"
"pit-trial","273","1579766","0.0-159.0","battery-v0.2","","""event"",""trial"",""time""
""fullscreenenter"",""1"",""2681""
","
","
","""event"",""trial"",""time""
""fullscreenenter"",""1"",""2681""
","
","","","-1","","","21","14706","4450","a","elianto","#f73b6a7A"," ","-1","0","-10","[]","0","3","","","14706","154","2","3","lose","go","0"
"pit-trial","274","1583377","0.0-160.0","battery-v0.2","","""event"",""trial"",""time""
""fullscreenenter"",""1"",""2681""
","
","
","""event"",""trial"",""time""
""fullscreenenter"",""1"",""2681""
","
","","","758","","","21","14706","4450","l","elianto","#3366ff99","-1"," ","0","0","[1609]","1","3","","","14706","155","1","2","win","no-go","0"
"pit-trial","275","1587329","0.0-161.0","battery-v0.2","","""event"",""trial"",""time""
""fullscreenenter"",""1"",""2681""
","
","
","""event"",""trial"",""time""
""fullscreenenter"",""1"",""2681""
","
","","","1098","","","21","14706","4450","u","elianto","#f73b6a7A"," "," ","1","0","[1949]","1","3","","","14706","156","0","3","lose","go","0"
"pit-trial","276","1592182","0.0-162.0","battery-v0.2","","""event"",""trial"",""time""
""fullscreenenter"",""1"",""2681""
","
","
","""event"",""trial"",""time""
""fullscreenenter"",""1"",""2681""
","
","","","-1","","","21","14706","4450","g","elianto","#f73b6a7A","-1","-1","1","0","[]","0","3","","","14706","157","3","4","lose","no-go","0"
"pit-trial","277","1595928","0.0-163.0","battery-v0.2","","""event"",""trial"",""time""
""fullscreenenter"",""1"",""2681""
","
","
","""event"",""trial"",""time""
""fullscreenenter"",""1"",""2681""
","
","","","893","","","21","14706","4450","a","elianto","#f73b6a7A"," "," ","1","0","[1745]","1","3","","","14706","158","2","3","lose","go","0"
"pit-trial","278","1599504","0.0-164.0","battery-v0.2","","""event"",""trial"",""time""
