"trial_type","trial_index","time_elapsed","internal_node_id","task_version","subject_id","interactions","blur_events","focus_events","fullscreenenter_events","fullscreenexit_events","success","view_history","rt","responses","num_errors","age","subject","participantId","rune","rune_set","hex","correct","choice","accuracy","outcome","keys","total_keys","block","practice","value","sub","trial","stimulus","robot","valence","action","sham"
"pavlovia","0","33","0.0-0.0","battery-v0.2","","""event"",""trial"",""time""
""fullscreenenter"",""1"",""2030""
","
","
","""event"",""trial"",""time""
""fullscreenenter"",""1"",""2030""
","
","","","","","","","","","","","","","","","","","","","","","","","","","","",""
"fullscreen","1","3008","0.0-1.0","battery-v0.2","","""event"",""trial"",""time""
""fullscreenenter"",""1"",""2030""
","
","
","""event"",""trial"",""time""
""fullscreenenter"",""1"",""2030""
","
","true","","","","","","","","","","","","","","","","","","","","","","","","","",""
"pit-instructions","2","8173","0.0-2.0-0.0","battery-v0.2","","""event"",""trial"",""time""
""fullscreenenter"",""1"",""2030""
","
","
","""event"",""trial"",""time""
""fullscreenenter"",""1"",""2030""
","
","","[{""page_index"":0,""viewing_time"":5161.600000023842}]","5161.900000095367","","","","","","","","","","","","","","","","","","","","","","","",""
"pit-comprehension","3","19255","0.0-2.0-1.0-0.0","battery-v0.2","","""event"",""trial"",""time""
""fullscreenenter"",""1"",""2030""
","
","
","""event"",""trial"",""time""
""fullscreenenter"",""1"",""2030""
","
","","","11077.200000047684","[""shark""]","0","25","15558","6215","","","","","","","","","","","","","","","","","","",""
"pit-instructions","4","33207","0.0-2.0-1.0-1.0","battery-v0.2","","""event"",""trial"",""time""
""fullscreenenter"",""1"",""2030""
","
","
","""event"",""trial"",""time""
""fullscreenenter"",""1"",""2030""
","
","","[{""page_index"":0,""viewing_time"":13943.299999952316}]","13943.599999904633","","","","","","","","","","","","","","","","","","","","","","","",""
"pit-comprehension","5","36105","0.0-2.0-2.0-0.0","battery-v0.2","","""event"",""trial"",""time""
""fullscreenenter"",""1"",""2030""
","
","
","""event"",""trial"",""time""
""fullscreenenter"",""1"",""2030""
","
","","","2894.2000000476837","[""tiger""]","0","25","15558","6215","","","","","","","","","","","","","","","","","","",""
"pit-instructions","6","36913","0.0-2.0-2.0-1.0","battery-v0.2","","""event"",""trial"",""time""
""fullscreenenter"",""1"",""2030""
","
","
","""event"",""trial"",""time""
""fullscreenenter"",""1"",""2030""
","
","","[{""page_index"":0,""viewing_time"":803.7999999523163}]","804.0999999046326","","","","","","","","","","","","","","","","","","","","","","","",""
"pit-instructions","7","146600","0.0-2.0-3.0","battery-v0.2","","""event"",""trial"",""time""
""fullscreenenter"",""1"",""2030""
","
","
","""event"",""trial"",""time""
""fullscreenenter"",""1"",""2030""
","
","","[{""page_index"":0,""viewing_time"":8364.699999928474},{""page_index"":1,""viewing_time"":5748.200000047684},{""page_index"":2,""viewing_time"":1995.8999999761581},{""page_index"":1,""viewing_time"":203.70000004768372},{""page_index"":0,""viewing_time"":7012.399999976158},{""page_index"":1,""viewing_time"":5655.699999928474},{""page_index"":2,""viewing_time"":6669.800000071526},{""page_index"":3,""viewing_time"":5397.399999976158},{""page_index"":4,""viewing_time"":5794.399999976158},{""page_index"":5,""viewing_time"":5498.600000023842},{""page_index"":6,""viewing_time"":6906.600000023842},{""page_index"":7,""viewing_time"":6443.199999928474},{""page_index"":8,""viewing_time"":6080.400000095367},{""page_index"":9,""viewing_time"":9383.399999976158},{""page_index"":10,""viewing_time"":9320.199999928474},{""page_index"":11,""viewing_time"":7412.600000023842},{""page_index"":12,""viewing_time"":6743.600000023842},{""page_index"":13,""viewing_time"":5049}]","109680.29999995232","","","","","","","","","","","","","","","","","","","","","","","",""
"pit-trial","8","150054","0.0-2.0-4.0-0.0","battery-v0.2","","""event"",""trial"",""time""
""fullscreenenter"",""1"",""2030""
","
","
","""event"",""trial"",""time""
""fullscreenenter"",""1"",""2030""
","
","","","598.5999999046326","","","25","15558","6215","&#9784;","elianto","#FFFFF080"," "," ","1","&#10004","[1449.7000000476837]","1","0","0","","","","","","","",""
"pit-trial","9","153303","0.0-2.0-4.1-0.1","battery-v0.2","","""event"",""trial"",""time""
""fullscreenenter"",""1"",""2030""
","
","
","""event"",""trial"",""time""
""fullscreenenter"",""1"",""2030""
","
","","","390.7999999523163","","","25","15558","6215","&#9784;","elianto","#FFFFF080"," "," ","1","&#10004","[1241]","1","0","0","","","","","","","",""
"pit-trial","10","156555","0.0-2.0-4.2-0.2","battery-v0.2","","""event"",""trial"",""time""
""fullscreenenter"",""1"",""2030""
","
","
","""event"",""trial"",""time""
""fullscreenenter"",""1"",""2030""
","
","","","395.2000000476837","","","25","15558","6215","&#9784;","elianto","#FFFFF080"," "," ","1","&#10004","[1247]","1","0","0","","","","","","","",""
"pit-trial","11","159808","0.0-2.0-4.3-0.3","battery-v0.2","","""event"",""trial"",""time""
""fullscreenenter"",""1"",""2030""
","
","
","""event"",""trial"",""time""
""fullscreenenter"",""1"",""2030""
","
","","","398.10000002384186","","","25","15558","6215","&#9784;","elianto","#FFFFF080"," "," ","1","&#10004","[1248.3000000715256]","1","0","0","","","","","","","",""
"pit-trial","12","163123","0.0-2.0-4.4-0.4","battery-v0.2","","""event"",""trial"",""time""
""fullscreenenter"",""1"",""2030""
","
","
","""event"",""trial"",""time""
""fullscreenenter"",""1"",""2030""
","
","","","459.6999999284744","","","25","15558","6215","&#9784;","elianto","#FFFFF080"," "," ","1","&#10004","[1310]","1","0","0","","","","","","","",""
"pit-instructions","13","186517","0.0-2.0-5.0","battery-v0.2","","""event"",""trial"",""time""
""fullscreenenter"",""1"",""2030""
","
","
","""event"",""trial"",""time""
""fullscreenenter"",""1"",""2030""
","
","","[{""page_index"":0,""viewing_time"":4749.299999952316},{""page_index"":1,""viewing_time"":5237},{""page_index"":2,""viewing_time"":7860.899999976158},{""page_index"":3,""viewing_time"":5542.600000023842}]","23390","","","","","","","","","","","","","","","","","","","","","","","",""
"pit-trial","14","191373","0.0-2.0-6.0-0.0","battery-v0.2","","""event"",""trial"",""time""
""fullscreenenter"",""1"",""2030""
","
","
","""event"",""trial"",""time""
""fullscreenenter"",""1"",""2030""
","
","","","-1","","","25","15558","6215","&#9854;","elianto","#FFFFF080","-1","-1","1","&#10004","[]","0","0","1","","","","","","","",""
"pit-trial","15","196231","0.0-2.0-6.1-0.1","battery-v0.2","","""event"",""trial"",""time""
""fullscreenenter"",""1"",""2030""
","
","
","""event"",""trial"",""time""
""fullscreenenter"",""1"",""2030""
","
","","","-1","","","25","15558","6215","&#9854;","elianto","#FFFFF080","-1","-1","1","&#10004","[]","0","0","1","","","","","","","",""
"pit-trial","16","201087","0.0-2.0-6.2-0.2","battery-v0.2","","""event"",""trial"",""time""
""fullscreenenter"",""1"",""2030""
","
","
","""event"",""trial"",""time""
""fullscreenenter"",""1"",""2030""
","
","","","-1","","","25","15558","6215","&#9854;","elianto","#FFFFF080","-1","-1","1","&#10004","[]","0","0","1","","","","","","","",""
"pit-trial","17","205943","0.0-2.0-6.3-0.3","battery-v0.2","","""event"",""trial"",""time""
""fullscreenenter"",""1"",""2030""
","
","
","""event"",""trial"",""time""
""fullscreenenter"",""1"",""2030""
","
","","","-1","","","25","15558","6215","&#9854;","elianto","#FFFFF080","-1","-1","1","&#10004","[]","0","0","1","","","","","","","",""
"pit-trial","18","210800","0.0-2.0-6.4-0.4","battery-v0.2","","""event"",""trial"",""time""
""fullscreenenter"",""1"",""2030""
","
","
","""event"",""trial"",""time""
""fullscreenenter"",""1"",""2030""
","
","","","-1","","","25","15558","6215","&#9854;","elianto","#FFFFF080","-1","-1","1","&#10004","[]","0","0","1","","","","","","","",""
"pit-instructions","19","327879","0.0-2.0-7.0","battery-v0.2","","""event"",""trial"",""time""
""fullscreenenter"",""1"",""2030""
","
","
","""event"",""trial"",""time""
""fullscreenenter"",""1"",""2030""
","
","","[{""page_index"":0,""viewing_time"":5425.700000047684},{""page_index"":1,""viewing_time"":6832.199999928474},{""page_index"":2,""viewing_time"":6254.800000071526},{""page_index"":3,""viewing_time"":6061.299999952316},{""page_index"":4,""viewing_time"":6027.899999976158},{""page_index"":5,""viewing_time"":5309.399999976158},{""page_index"":6,""viewing_time"":4201.800000071526},{""page_index"":7,""viewing_time"":7211.699999928474},{""page_index"":8,""viewing_time"":6837.400000095367},{""page_index"":9,""viewing_time"":5703.299999952316},{""page_index"":10,""viewing_time"":6333.899999976158},{""page_index"":11,""viewing_time"":4544.600000023842},{""page_index"":12,""viewing_time"":8126.299999952316},{""page_index"":13,""viewing_time"":7259.100000023842},{""page_index"":14,""viewing_time"":7232.800000071526},{""page_index"":15,""viewing_time"":6446.899999976158},{""page_index"":16,""viewing_time"":6061.699999928474},{""page_index"":17,""viewing_time"":11200.200000047684}]","117071.20000004768","","","","","","","","","","","","","","","","","","","","","","","",""
"pit-trial","20","331238","0.0-2.0-8.0-0.0","battery-v0.2","","""event"",""trial"",""time""
""fullscreenenter"",""1"",""2030""
","
","
","""event"",""trial"",""time""
""fullscreenenter"",""1"",""2030""
","
","","","505.10000002384186","","","25","15558","6215","&#9776;","elianto","#3366ff99"," "," ","1","+10","[1356.5]","1","0","1","","","","","","","",""
"pit-trial","21","334592","0.0-2.0-8.0-1.0","battery-v0.2","","""event"",""trial"",""time""
""fullscreenenter"",""1"",""2030""
","
","
","""event"",""trial"",""time""
""fullscreenenter"",""1"",""2030""
","
","","","498","","","25","15558","6215","&#9776;","elianto","#3366ff99"," "," ","1","+10","[1348.5]","1","0","1","","","","","","","",""
"pit-trial","22","338003","0.0-2.0-8.0-2.0","battery-v0.2","","""event"",""trial"",""time""
""fullscreenenter"",""1"",""2030""
","
","
","""event"",""trial"",""time""
""fullscreenenter"",""1"",""2030""
","
","","","557.2999999523163","","","25","15558","6215","&#9776;","elianto","#3366ff99"," "," ","1","+10","[1407.5999999046326]","1","0","1","","","","","","","",""
"pit-trial","23","341290","0.0-2.0-8.0-3.0","battery-v0.2","","""event"",""trial"",""time""
""fullscreenenter"",""1"",""2030""
","
","
","""event"",""trial"",""time""
""fullscreenenter"",""1"",""2030""
","
","","","432.60000002384186","","","25","15558","6215","&#9776;","elianto","#3366ff99"," "," ","1","0","[1283.5]","1","0","1","","","","","","","",""
"pit-trial","24","344586","0.0-2.0-8.0-4.0","battery-v0.2","","""event"",""trial"",""time""
""fullscreenenter"",""1"",""2030""
","
","
","""event"",""trial"",""time""
""fullscreenenter"",""1"",""2030""
","
","","","440","","","25","15558","6215","&#9776;","elianto","#3366ff99"," "," ","1","+10","[1290.6000000238419]","1","0","1","","","","","","","",""
"pit-trial","25","348211","0.0-2.0-8.1-0.1","battery-v0.2","","""event"",""trial"",""time""
""fullscreenenter"",""1"",""2030""
","
","
","""event"",""trial"",""time""
""fullscreenenter"",""1"",""2030""
","
","","","769.5","","","25","15558","6215","&#9776;","elianto","#3366ff99"," "," ","1","+10","[1620.1000000238419]","1","0","1","","","","","","","",""
"pit-trial","26","351545","0.0-2.0-8.1-1.1","battery-v0.2","","""event"",""trial"",""time""
""fullscreenenter"",""1"",""2030""
","
","
","""event"",""trial"",""time""
""fullscreenenter"",""1"",""2030""
","
","","","480.60000002384186","","","25","15558","6215","&#9776;","elianto","#3366ff99"," "," ","1","+10","[1331.3999999761581]","1","0","1","","","","","","","",""
"pit-trial","27","354908","0.0-2.0-8.1-2.1","battery-v0.2","","""event"",""trial"",""time""
""fullscreenenter"",""1"",""2030""
","
","
","""event"",""trial"",""time""
""fullscreenenter"",""1"",""2030""
","
","","","509.89999997615814","","","25","15558","6215","&#9776;","elianto","#3366ff99"," "," ","1","+10","[1360.1000000238419]","1","0","1","","","","","","","",""
"pit-trial","28","358378","0.0-2.0-8.1-3.1","battery-v0.2","","""event"",""trial"",""time""
""fullscreenenter"",""1"",""2030""
","
","
","""event"",""trial"",""time""
""fullscreenenter"",""1"",""2030""
","
","","","615.1000000238419","","","25","15558","6215","&#9776;","elianto","#3366ff99"," "," ","1","0","[1466]","1","0","1","","","","","","","",""
"pit-trial","29","361803","0.0-2.0-8.1-4.1","battery-v0.2","","""event"",""trial"",""time""
""fullscreenenter"",""1"",""2030""
","
","
","""event"",""trial"",""time""
""fullscreenenter"",""1"",""2030""
","
","","","569.2000000476837","","","25","15558","6215","&#9776;","elianto","#3366ff99"," "," ","1","+10","[1420.7000000476837]","1","0","1","","","","","","","",""
"pit-trial","30","365107","0.0-2.0-8.2-0.2","battery-v0.2","","""event"",""trial"",""time""
""fullscreenenter"",""1"",""2030""
","
","
","""event"",""trial"",""time""
""fullscreenenter"",""1"",""2030""
","
","","","449.2999999523163","","","25","15558","6215","&#9776;","elianto","#3366ff99"," "," ","1","+10","[1300.0999999046326]","1","0","1","","","","","","","",""
"pit-trial","31","368397","0.0-2.0-8.2-1.2","battery-v0.2","","""event"",""trial"",""time""
""fullscreenenter"",""1"",""2030""
","
","
","""event"",""trial"",""time""
""fullscreenenter"",""1"",""2030""
","
","","","435.7000000476837","","","25","15558","6215","&#9776;","elianto","#3366ff99"," "," ","1","+10","[1286.3999999761581]","1","0","1","","","","","","","",""
"pit-trial","32","371667","0.0-2.0-8.2-2.2","battery-v0.2","","""event"",""trial"",""time""
""fullscreenenter"",""1"",""2030""
","
","
","""event"",""trial"",""time""
""fullscreenenter"",""1"",""2030""
","
","","","416.1999999284744","","","25","15558","6215","&#9776;","elianto","#3366ff99"," "," ","1","+10","[1267.0999999046326]","1","0","1","","","","","","","",""
"pit-trial","33","375071","0.0-2.0-8.2-3.2","battery-v0.2","","""event"",""trial"",""time""
""fullscreenenter"",""1"",""2030""
","
","
","""event"",""trial"",""time""
""fullscreenenter"",""1"",""2030""
","
","","","549.1999999284744","","","25","15558","6215","&#9776;","elianto","#3366ff99"," "," ","1","0","[1400.0999999046326]","1","0","1","","","","","","","",""
"pit-trial","34","378364","0.0-2.0-8.2-4.2","battery-v0.2","","""event"",""trial"",""time""
""fullscreenenter"",""1"",""2030""
","
","
","""event"",""trial"",""time""
""fullscreenenter"",""1"",""2030""
","
","","","436.1999999284744","","","25","15558","6215","&#9776;","elianto","#3366ff99"," "," ","1","+10","[1287.5999999046326]","1","0","1","","","","","","","",""
"call-function","35","378367","0.0-2.0-9.0","battery-v0.2","","""event"",""trial"",""time""
""fullscreenenter"",""1"",""2030""
","
","
","""event"",""trial"",""time""
""fullscreenenter"",""1"",""2030""
","
","","","","","","","","","","","","","","","","","","","","","","","","","","",""
"pit-instructions","36","419445","0.0-2.0-10.0","battery-v0.2","","""event"",""trial"",""time""
""fullscreenenter"",""1"",""2030""
","
","
","""event"",""trial"",""time""
""fullscreenenter"",""1"",""2030""
","
","","[{""page_index"":0,""viewing_time"":5559.099999904633},{""page_index"":1,""viewing_time"":6478.700000047684},{""page_index"":2,""viewing_time"":9385.299999952316},{""page_index"":3,""viewing_time"":9813.300000071526},{""page_index"":4,""viewing_time"":9839}]","41075.699999928474","","","","","","","","","","","","","","","","","","","","","","","",""
"pit-trial","37","422943","0.0-2.0-11.0-0.0","battery-v0.2","","""event"",""trial"",""time""
""fullscreenenter"",""1"",""2030""
","
","
","""event"",""trial"",""time""
""fullscreenenter"",""1"",""2030""
","
","","","642.8999999761581","","","25","15558","6215","&#9761;","elianto","#3366ff99","-1"," ","0","0","[1494.3999999761581]","1","0","2","","","","","","","",""
"pit-trial","38","427799","0.0-2.0-11.0-1.0","battery-v0.2","","""event"",""trial"",""time""
""fullscreenenter"",""1"",""2030""
","
","
","""event"",""trial"",""time""
""fullscreenenter"",""1"",""2030""
","
","","","-1","","","25","15558","6215","&#9761;","elianto","#3366ff99","-1","-1","1","+10","[]","0","0","2","","","","","","","",""
"pit-trial","39","432655","0.0-2.0-11.0-2.0","battery-v0.2","","""event"",""trial"",""time""
""fullscreenenter"",""1"",""2030""
","
","
","""event"",""trial"",""time""
""fullscreenenter"",""1"",""2030""
","
","","","-1","","","25","15558","6215","&#9761;","elianto","#3366ff99","-1","-1","1","+10","[]","0","0","2","","","","","","","",""
"pit-trial","40","437510","0.0-2.0-11.0-3.0","battery-v0.2","","""event"",""trial"",""time""
""fullscreenenter"",""1"",""2030""
","
","
","""event"",""trial"",""time""
""fullscreenenter"",""1"",""2030""
","
","","","-1","","","25","15558","6215","&#9761;","elianto","#3366ff99","-1","-1","1","0","[]","0","0","2","","","","","","","",""
"pit-trial","41","442365","0.0-2.0-11.0-4.0","battery-v0.2","","""event"",""trial"",""time""
""fullscreenenter"",""1"",""2030""
","
","
","""event"",""trial"",""time""
""fullscreenenter"",""1"",""2030""
","
","","","-1","","","25","15558","6215","&#9761;","elianto","#3366ff99","-1","-1","1","+10","[]","0","0","2","","","","","","","",""
"pit-trial","42","447221","0.0-2.0-11.1-0.1","battery-v0.2","","""event"",""trial"",""time""
""fullscreenenter"",""1"",""2030""
","
","
","""event"",""trial"",""time""
""fullscreenenter"",""1"",""2030""
","
","","","-1","","","25","15558","6215","&#9761;","elianto","#3366ff99","-1","-1","1","+10","[]","0","0","2","","","","","","","",""
"pit-trial","43","452076","0.0-2.0-11.1-1.1","battery-v0.2","","""event"",""trial"",""time""
""fullscreenenter"",""1"",""2030""
","
","
","""event"",""trial"",""time""
""fullscreenenter"",""1"",""2030""
","
","","","-1","","","25","15558","6215","&#9761;","elianto","#3366ff99","-1","-1","1","+10","[]","0","0","2","","","","","","","",""
"pit-trial","44","456932","0.0-2.0-11.1-2.1","battery-v0.2","","""event"",""trial"",""time""
""fullscreenenter"",""1"",""2030""
","
","
","""event"",""trial"",""time""
""fullscreenenter"",""1"",""2030""
","
","","","-1","","","25","15558","6215","&#9761;","elianto","#3366ff99","-1","-1","1","+10","[]","0","0","2","","","","","","","",""
"pit-trial","45","461789","0.0-2.0-11.1-3.1","battery-v0.2","","""event"",""trial"",""time""
""fullscreenenter"",""1"",""2030""
","
","
","""event"",""trial"",""time""
""fullscreenenter"",""1"",""2030""
","
","","","-1","","","25","15558","6215","&#9761;","elianto","#3366ff99","-1","-1","1","0","[]","0","0","2","","","","","","","",""
"pit-trial","46","466645","0.0-2.0-11.1-4.1","battery-v0.2","","""event"",""trial"",""time""
""fullscreenenter"",""1"",""2030""
","
","
","""event"",""trial"",""time""
""fullscreenenter"",""1"",""2030""
","
","","","-1","","","25","15558","6215","&#9761;","elianto","#3366ff99","-1","-1","1","+10","[]","0","0","2","","","","","","","",""
"pit-trial","47","471501","0.0-2.0-11.2-0.2","battery-v0.2","","""event"",""trial"",""time""
""fullscreenenter"",""1"",""2030""
","
","
","""event"",""trial"",""time""
""fullscreenenter"",""1"",""2030""
","
","","","-1","","","25","15558","6215","&#9761;","elianto","#3366ff99","-1","-1","1","+10","[]","0","0","2","","","","","","","",""
"pit-trial","48","476358","0.0-2.0-11.2-1.2","battery-v0.2","","""event"",""trial"",""time""
""fullscreenenter"",""1"",""2030""
","
","
","""event"",""trial"",""time""
""fullscreenenter"",""1"",""2030""
","
","","","-1","","","25","15558","6215","&#9761;","elianto","#3366ff99","-1","-1","1","+10","[]","0","0","2","","","","","","","",""
"pit-trial","49","479632","0.0-2.0-11.2-2.2","battery-v0.2","","""event"",""trial"",""time""
""fullscreenenter"",""1"",""2030""
","
","
","""event"",""trial"",""time""
""fullscreenenter"",""1"",""2030""
","
","","","419.2000000476837","","","25","15558","6215","&#9761;","elianto","#3366ff99","-1"," ","0","0","[1269.9000000953674]","1","0","2","","","","","","","",""
"pit-trial","50","484489","0.0-2.0-11.2-3.2","battery-v0.2","","""event"",""trial"",""time""
""fullscreenenter"",""1"",""2030""
","
","
","""event"",""trial"",""time""
""fullscreenenter"",""1"",""2030""
","
","","","-1","","","25","15558","6215","&#9761;","elianto","#3366ff99","-1","-1","1","0","[]","0","0","2","","","","","","","",""
"pit-trial","51","489345","0.0-2.0-11.2-4.2","battery-v0.2","","""event"",""trial"",""time""
""fullscreenenter"",""1"",""2030""
","
","
","""event"",""trial"",""time""
""fullscreenenter"",""1"",""2030""
","
","","","-1","","","25","15558","6215","&#9761;","elianto","#3366ff99","-1","-1","1","+10","[]","0","0","2","","","","","","","",""
"pit-trial","52","494202","0.0-2.0-11.3-0.3","battery-v0.2","","""event"",""trial"",""time""
""fullscreenenter"",""1"",""2030""
","
","
","""event"",""trial"",""time""
""fullscreenenter"",""1"",""2030""
","
","","","-1","","","25","15558","6215","&#9761;","elianto","#3366ff99","-1","-1","1","+10","[]","0","0","2","","","","","","","",""
"pit-trial","53","499057","0.0-2.0-11.3-1.3","battery-v0.2","","""event"",""trial"",""time""
""fullscreenenter"",""1"",""2030""
","
","
","""event"",""trial"",""time""
""fullscreenenter"",""1"",""2030""
","
","","","-1","","","25","15558","6215","&#9761;","elianto","#3366ff99","-1","-1","1","+10","[]","0","0","2","","","","","","","",""
"pit-trial","54","503913","0.0-2.0-11.3-2.3","battery-v0.2","","""event"",""trial"",""time""
""fullscreenenter"",""1"",""2030""
","
","
","""event"",""trial"",""time""
""fullscreenenter"",""1"",""2030""
","
","","","-1","","","25","15558","6215","&#9761;","elianto","#3366ff99","-1","-1","1","+10","[]","0","0","2","","","","","","","",""
"pit-trial","55","508769","0.0-2.0-11.3-3.3","battery-v0.2","","""event"",""trial"",""time""
""fullscreenenter"",""1"",""2030""
","
","
","""event"",""trial"",""time""
""fullscreenenter"",""1"",""2030""
","
","","","-1","","","25","15558","6215","&#9761;","elianto","#3366ff99","-1","-1","1","0","[]","0","0","2","","","","","","","",""
"pit-trial","56","513624","0.0-2.0-11.3-4.3","battery-v0.2","","""event"",""trial"",""time""
""fullscreenenter"",""1"",""2030""
","
","
","""event"",""trial"",""time""
""fullscreenenter"",""1"",""2030""
","
","","","-1","","","25","15558","6215","&#9761;","elianto","#3366ff99","-1","-1","1","+10","[]","0","0","2","","","","","","","",""
"call-function","57","513627","0.0-2.0-12.0","battery-v0.2","","""event"",""trial"",""time""
""fullscreenenter"",""1"",""2030""
","
","
","""event"",""trial"",""time""
""fullscreenenter"",""1"",""2030""
","
","","","","","","","","","","","","","","","","","","","","","","","","","","",""
"pit-instructions","58","544123","0.0-2.0-13.0","battery-v0.2","","""event"",""trial"",""time""
""fullscreenenter"",""1"",""2030""
","
","
","""event"",""trial"",""time""
""fullscreenenter"",""1"",""2030""
","
","","[{""page_index"":0,""viewing_time"":4756.200000047684},{""page_index"":1,""viewing_time"":6689.899999976158},{""page_index"":2,""viewing_time"":4354.600000023842},{""page_index"":3,""viewing_time"":10199.199999928474},{""page_index"":4,""viewing_time"":4493.800000071526}]","30494.200000047684","","","","","","","","","","","","","","","","","","","","","","","",""
"pit-trial","59","547916","0.0-2.0-14.0-0.0","battery-v0.2","","""event"",""trial"",""time""
""fullscreenenter"",""1"",""2030""
","
","
","""event"",""trial"",""time""
""fullscreenenter"",""1"",""2030""
","
","","","938","","","25","15558","6215","&#9826;","elianto","#f73b6a7A","-1"," ","0","-10","[1789.1000000238419]","1","0","3","","","","","","","",""
"pit-trial","60","552770","0.0-2.0-14.0-1.0","battery-v0.2","","""event"",""trial"",""time""
""fullscreenenter"",""1"",""2030""
","
","
","""event"",""trial"",""time""
""fullscreenenter"",""1"",""2030""
","
","","","-1","","","25","15558","6215","&#9826;","elianto","#f73b6a7A","-1","-1","1","0","[]","0","0","3","","","","","","","",""
"pit-trial","61","557624","0.0-2.0-14.0-2.0","battery-v0.2","","""event"",""trial"",""time""
""fullscreenenter"",""1"",""2030""
","
","
","""event"",""trial"",""time""
""fullscreenenter"",""1"",""2030""
","
","","","-1","","","25","15558","6215","&#9826;","elianto","#f73b6a7A","-1","-1","1","0","[]","0","0","3","","","","","","","",""
"pit-trial","62","562481","0.0-2.0-14.0-3.0","battery-v0.2","","""event"",""trial"",""time""
""fullscreenenter"",""1"",""2030""
","
","
","""event"",""trial"",""time""
""fullscreenenter"",""1"",""2030""
","
","","","-1","","","25","15558","6215","&#9826;","elianto","#f73b6a7A","-1","-1","1","-10","[]","0","0","3","","","","","","","",""
"pit-trial","63","567337","0.0-2.0-14.0-4.0","battery-v0.2","","""event"",""trial"",""time""
""fullscreenenter"",""1"",""2030""
","
","
","""event"",""trial"",""time""
""fullscreenenter"",""1"",""2030""
","
","","","-1","","","25","15558","6215","&#9826;","elianto","#f73b6a7A","-1","-1","1","0","[]","0","0","3","","","","","","","",""
"pit-trial","64","572195","0.0-2.0-14.1-0.1","battery-v0.2","","""event"",""trial"",""time""
""fullscreenenter"",""1"",""2030""
","
","
","""event"",""trial"",""time""
""fullscreenenter"",""1"",""2030""
","
","","","-1","","","25","15558","6215","&#9826;","elianto","#f73b6a7A","-1","-1","1","0","[]","0","0","3","","","","","","","",""
"pit-trial","65","577050","0.0-2.0-14.1-1.1","battery-v0.2","","""event"",""trial"",""time""
""fullscreenenter"",""1"",""2030""
","
","
","""event"",""trial"",""time""
""fullscreenenter"",""1"",""2030""
","
","","","-1","","","25","15558","6215","&#9826;","elianto","#f73b6a7A","-1","-1","1","0","[]","0","0","3","","","","","","","",""
"pit-trial","66","581905","0.0-2.0-14.1-2.1","battery-v0.2","","""event"",""trial"",""time""
""fullscreenenter"",""1"",""2030""
","
","
","""event"",""trial"",""time""
""fullscreenenter"",""1"",""2030""
","
","","","-1","","","25","15558","6215","&#9826;","elianto","#f73b6a7A","-1","-1","1","0","[]","0","0","3","","","","","","","",""
"pit-trial","67","586761","0.0-2.0-14.1-3.1","battery-v0.2","","""event"",""trial"",""time""
""fullscreenenter"",""1"",""2030""
","
","
","""event"",""trial"",""time""
""fullscreenenter"",""1"",""2030""
","
","","","-1","","","25","15558","6215","&#9826;","elianto","#f73b6a7A","-1","-1","1","-10","[]","0","0","3","","","","","","","",""
"pit-trial","68","591615","0.0-2.0-14.1-4.1","battery-v0.2","","""event"",""trial"",""time""
""fullscreenenter"",""1"",""2030""
","
","
","""event"",""trial"",""time""
""fullscreenenter"",""1"",""2030""
","
","","","-1","","","25","15558","6215","&#9826;","elianto","#f73b6a7A","-1","-1","1","0","[]","0","0","3","","","","","","","",""
"pit-trial","69","596472","0.0-2.0-14.2-0.2","battery-v0.2","","""event"",""trial"",""time""
""fullscreenenter"",""1"",""2030""
","
","
","""event"",""trial"",""time""
""fullscreenenter"",""1"",""2030""
","
","","","-1","","","25","15558","6215","&#9826;","elianto","#f73b6a7A","-1","-1","1","0","[]","0","0","3","","","","","","","",""
"pit-trial","70","601328","0.0-2.0-14.2-1.2","battery-v0.2","","""event"",""trial"",""time""
""fullscreenenter"",""1"",""2030""
","
","
","""event"",""trial"",""time""
""fullscreenenter"",""1"",""2030""
","
","","","-1","","","25","15558","6215","&#9826;","elianto","#f73b6a7A","-1","-1","1","0","[]","0","0","3","","","","","","","",""
"pit-trial","71","606183","0.0-2.0-14.2-2.2","battery-v0.2","","""event"",""trial"",""time""
""fullscreenenter"",""1"",""2030""
","
","
","""event"",""trial"",""time""
""fullscreenenter"",""1"",""2030""
","
","","","-1","","","25","15558","6215","&#9826;","elianto","#f73b6a7A","-1","-1","1","0","[]","0","0","3","","","","","","","",""
"pit-trial","72","611039","0.0-2.0-14.2-3.2","battery-v0.2","","""event"",""trial"",""time""
""fullscreenenter"",""1"",""2030""
","
","
","""event"",""trial"",""time""
""fullscreenenter"",""1"",""2030""
","
","","","-1","","","25","15558","6215","&#9826;","elianto","#f73b6a7A","-1","-1","1","-10","[]","0","0","3","","","","","","","",""
"pit-trial","73","615894","0.0-2.0-14.2-4.2","battery-v0.2","","""event"",""trial"",""time""
""fullscreenenter"",""1"",""2030""
","
","
","""event"",""trial"",""time""
""fullscreenenter"",""1"",""2030""
","
","","","-1","","","25","15558","6215","&#9826;","elianto","#f73b6a7A","-1","-1","1","0","[]","0","0","3","","","","","","","",""
"pit-trial","74","620750","0.0-2.0-14.3-0.3","battery-v0.2","","""event"",""trial"",""time""
""fullscreenenter"",""1"",""2030""
","
","
","""event"",""trial"",""time""
""fullscreenenter"",""1"",""2030""
","
","","","-1","","","25","15558","6215","&#9826;","elianto","#f73b6a7A","-1","-1","1","0","[]","0","0","3","","","","","","","",""
"pit-trial","75","625606","0.0-2.0-14.3-1.3","battery-v0.2","","""event"",""trial"",""time""
""fullscreenenter"",""1"",""2030""
","
","
","""event"",""trial"",""time""
""fullscreenenter"",""1"",""2030""
","
","","","-1","","","25","15558","6215","&#9826;","elianto","#f73b6a7A","-1","-1","1","0","[]","0","0","3","","","","","","","",""
"pit-trial","76","630463","0.0-2.0-14.3-2.3","battery-v0.2","","""event"",""trial"",""time""
""fullscreenenter"",""1"",""2030""
","
","
","""event"",""trial"",""time""
""fullscreenenter"",""1"",""2030""
","
","","","-1","","","25","15558","6215","&#9826;","elianto","#f73b6a7A","-1","-1","1","0","[]","0","0","3","","","","","","","",""
"pit-trial","77","635318","0.0-2.0-14.3-3.3","battery-v0.2","","""event"",""trial"",""time""
""fullscreenenter"",""1"",""2030""
","
","
","""event"",""trial"",""time""
""fullscreenenter"",""1"",""2030""
","
","","","-1","","","25","15558","6215","&#9826;","elianto","#f73b6a7A","-1","-1","1","-10","[]","0","0","3","","","","","","","",""
"pit-trial","78","640173","0.0-2.0-14.3-4.3","battery-v0.2","","""event"",""trial"",""time""
""fullscreenenter"",""1"",""2030""
","
","
","""event"",""trial"",""time""
""fullscreenenter"",""1"",""2030""
","
","","","-1","","","25","15558","6215","&#9826;","elianto","#f73b6a7A","-1","-1","1","0","[]","0","0","3","","","","","","","",""
"call-function","79","640176","0.0-2.0-15.0","battery-v0.2","","""event"",""trial"",""time""
""fullscreenenter"",""1"",""2030""
","
","
","""event"",""trial"",""time""
""fullscreenenter"",""1"",""2030""
","
","","","","","","","","","","","","","","","","","","","","","","","","","","",""
"pit-instructions","80","663375","0.0-2.0-16.0","battery-v0.2","","""event"",""trial"",""time""
""fullscreenenter"",""1"",""2030""
","
","
","""event"",""trial"",""time""
""fullscreenenter"",""1"",""2030""
","
","","[{""page_index"":0,""viewing_time"":6287.600000023842},{""page_index"":1,""viewing_time"":8138.799999952316},{""page_index"":2,""viewing_time"":4174.100000023842},{""page_index"":3,""viewing_time"":4596.899999976158}]","23197.799999952316","","","","","","","","","","","","","","","","","","","","","","","",""
"pit-trial","81","668088","0.0-2.0-17.0-0.0","battery-v0.2","","""event"",""trial"",""time""
""fullscreenenter"",""1"",""2030""
","
","
","""event"",""trial"",""time""
""fullscreenenter"",""1"",""2030""
","
","","","1859.4000000953674","","","25","15558","6215","&#9789;","elianto","#f73b6a7A"," "," ","1","0","[2710]","1","0","4","","","","","","","",""
"pit-trial","82","672736","0.0-2.0-17.0-1.0","battery-v0.2","","""event"",""trial"",""time""
""fullscreenenter"",""1"",""2030""
","
","
","""event"",""trial"",""time""
""fullscreenenter"",""1"",""2030""
","
","","","1793.6000000238419","","","25","15558","6215","&#9789;","elianto","#f73b6a7A"," "," ","1","0","[2644.5]","1","0","4","","","","","","","",""
"pit-trial","83","676133","0.0-2.0-17.0-2.0","battery-v0.2","","""event"",""trial"",""time""
""fullscreenenter"",""1"",""2030""
","
","
","""event"",""trial"",""time""
""fullscreenenter"",""1"",""2030""
","
","","","541.2999999523163","","","25","15558","6215","&#9789;","elianto","#f73b6a7A"," "," ","1","0","[1392.2999999523163]","1","0","4","","","","","","","",""
"pit-trial","84","679420","0.0-2.0-17.0-3.0","battery-v0.2","","""event"",""trial"",""time""
""fullscreenenter"",""1"",""2030""
","
","
","""event"",""trial"",""time""
""fullscreenenter"",""1"",""2030""
","
","","","432.1999999284744","","","25","15558","6215","&#9789;","elianto","#f73b6a7A"," "," ","1","-10","[1283.6000000238419]","1","0","4","","","","","","","",""
"pit-trial","85","682746","0.0-2.0-17.0-4.0","battery-v0.2","","""event"",""trial"",""time""
""fullscreenenter"",""1"",""2030""
","
","
","""event"",""trial"",""time""
""fullscreenenter"",""1"",""2030""
","
","","","468.8000000715256","","","25","15558","6215","&#9789;","elianto","#f73b6a7A"," "," ","1","0","[662.1000000238419,1322.7000000476837]","2","0","4","","","","","","","",""
"pit-trial","86","686004","0.0-2.0-17.1-0.1","battery-v0.2","","""event"",""trial"",""time""
""fullscreenenter"",""1"",""2030""
","
","
","""event"",""trial"",""time""
""fullscreenenter"",""1"",""2030""
","
","","","403.39999997615814","","","25","15558","6215","&#9789;","elianto","#f73b6a7A"," "," ","1","0","[1253.8999999761581]","1","0","4","","","","","","","",""
"pit-trial","87","689169","0.0-2.0-17.1-1.1","battery-v0.2","","""event"",""trial"",""time""
""fullscreenenter"",""1"",""2030""
","
","
","""event"",""trial"",""time""
""fullscreenenter"",""1"",""2030""
","
","","","310","","","25","15558","6215","&#9789;","elianto","#f73b6a7A"," "," ","1","0","[1161.0999999046326]","1","0","4","","","","","","","",""
"pit-trial","88","692265","0.0-2.0-17.1-2.1","battery-v0.2","","""event"",""trial"",""time""
""fullscreenenter"",""1"",""2030""
","
","
","""event"",""trial"",""time""
""fullscreenenter"",""1"",""2030""
","
","","","241.19999992847443","","","25","15558","6215","&#9789;","elianto","#f73b6a7A"," "," ","1","0","[428.7999999523163,1091.8999999761581,1304.1000000238419]","3","0","4","","","","","","","",""
"pit-trial","89","695148","0.0-2.0-17.1-3.1","battery-v0.2","","""event"",""trial"",""time""
""fullscreenenter"",""1"",""2030""
","
","
","""event"",""trial"",""time""
""fullscreenenter"",""1"",""2030""
","
","","","27.5","","","25","15558","6215","&#9789;","elianto","#f73b6a7A"," "," ","1","-10","[654.3999999761581,878.7999999523163,1081.6999999284744,1304.3999999761581,1618.7999999523163,1835,2040.2999999523163,2223.0999999046326,2420.899999976158,2653]","10","0","4","","","","","","","",""
"pit-trial","90","698474","0.0-2.0-17.1-4.1","battery-v0.2","","""event"",""trial"",""time""
""fullscreenenter"",""1"",""2030""
","
","
","""event"",""trial"",""time""
""fullscreenenter"",""1"",""2030""
","
","","","472","","","25","15558","6215","&#9789;","elianto","#f73b6a7A"," "," ","1","0","[1323.1000000238419]","1","0","4","","","","","","","",""
"pit-trial","91","702023","0.0-2.0-17.2-0.2","battery-v0.2","","""event"",""trial"",""time""
""fullscreenenter"",""1"",""2030""
","
","
","""event"",""trial"",""time""
""fullscreenenter"",""1"",""2030""
","
","","","691.5","","","25","15558","6215","&#9789;","elianto","#f73b6a7A"," "," ","1","0","[1543]","1","0","4","","","","","","","",""
"pit-trial","92","705356","0.0-2.0-17.2-1.2","battery-v0.2","","""event"",""trial"",""time""
""fullscreenenter"",""1"",""2030""
","
","
","""event"",""trial"",""time""
""fullscreenenter"",""1"",""2030""
","
","","","477.60000002384186","","","25","15558","6215","&#9789;","elianto","#f73b6a7A"," "," ","1","0","[1328.2000000476837]","1","0","4","","","","","","","",""
"pit-trial","93","709953","0.0-2.0-17.2-2.2","battery-v0.2","","""event"",""trial"",""time""
""fullscreenenter"",""1"",""2030""
","
","
","""event"",""trial"",""time""
""fullscreenenter"",""1"",""2030""
","
","","","1742.7000000476837","","","25","15558","6215","&#9789;","elianto","#f73b6a7A"," "," ","1","0","[2592.6999999284744,2795.5999999046326]","2","0","4","","","","","","","",""
"pit-trial","94","714810","0.0-2.0-17.2-3.2","battery-v0.2","","""event"",""trial"",""time""
""fullscreenenter"",""1"",""2030""
","
","
","""event"",""trial"",""time""
""fullscreenenter"",""1"",""2030""
","
","","","-1","","","25","15558","6215","&#9789;","elianto","#f73b6a7A"," ","-1","0","0","[]","0","0","4","","","","","","","",""
"pit-trial","95","719666","0.0-2.0-17.2-4.2","battery-v0.2","","""event"",""trial"",""time""
""fullscreenenter"",""1"",""2030""
","
","
","""event"",""trial"",""time""
""fullscreenenter"",""1"",""2030""
","
","","","-1","","","25","15558","6215","&#9789;","elianto","#f73b6a7A"," ","-1","0","-10","[]","0","0","4","","","","","","","",""
"pit-trial","96","724524","0.0-2.0-17.3-0.3","battery-v0.2","","""event"",""trial"",""time""
""fullscreenenter"",""1"",""2030""
","
","
","""event"",""trial"",""time""
""fullscreenenter"",""1"",""2030""
","
","","","-1","","","25","15558","6215","&#9789;","elianto","#f73b6a7A"," ","-1","0","-10","[]","0","0","4","","","","","","","",""
"pit-trial","97","727759","0.0-2.0-17.3-1.3","battery-v0.2","","""event"",""trial"",""time""
""fullscreenenter"",""1"",""2030""
","
","
","""event"",""trial"",""time""
""fullscreenenter"",""1"",""2030""
","
","","","380","","","25","15558","6215","&#9789;","elianto","#f73b6a7A"," "," ","1","0","[1230.2999999523163]","1","0","4","","","","","","","",""
"pit-trial","98","730943","0.0-2.0-17.3-2.3","battery-v0.2","","""event"",""trial"",""time""
""fullscreenenter"",""1"",""2030""
","
","
","""event"",""trial"",""time""
""fullscreenenter"",""1"",""2030""
","
","","","329.60000002384186","","","25","15558","6215","&#9789;","elianto","#f73b6a7A"," "," ","1","0","[1179.7999999523163]","1","0","4","","","","","","","",""
"pit-trial","99","734208","0.0-2.0-17.3-3.3","battery-v0.2","","""event"",""trial"",""time""
""fullscreenenter"",""1"",""2030""
","
","
","""event"",""trial"",""time""
""fullscreenenter"",""1"",""2030""
","
","","","410.5","","","25","15558","6215","&#9789;","elianto","#f73b6a7A"," "," ","1","-10","[233.79999995231628,823.5999999046326,1261.0999999046326]","3","0","4","","","","","","","",""
"pit-trial","100","737436","0.0-2.0-17.3-4.3","battery-v0.2","","""event"",""trial"",""time""
""fullscreenenter"",""1"",""2030""
","
","
","""event"",""trial"",""time""
""fullscreenenter"",""1"",""2030""
","
","","","372.5","","","25","15558","6215","&#9789;","elianto","#f73b6a7A"," "," ","1","0","[1223]","1","0","4","","","","","","","",""
"call-function","101","737439","0.0-2.0-18.0","battery-v0.2","","""event"",""trial"",""time""
""fullscreenenter"",""1"",""2030""
","
","
","""event"",""trial"",""time""
""fullscreenenter"",""1"",""2030""
","
","","","","","","","","","","","","","","","","","","","","","","","","","","",""
"pit-instructions","102","847496","0.0-2.0-19.0","battery-v0.2","","""event"",""trial"",""time""
""fullscreenenter"",""1"",""2030""
","
","
","""event"",""trial"",""time""
""fullscreenenter"",""1"",""2030""
","
","","[{""page_index"":0,""viewing_time"":6303.5},{""page_index"":1,""viewing_time"":6341.399999976158},{""page_index"":2,""viewing_time"":26421.800000071526},{""page_index"":3,""viewing_time"":2297.2999999523163},{""page_index"":2,""viewing_time"":1036.5},{""page_index"":1,""viewing_time"":1077.1000000238419},{""page_index"":2,""viewing_time"":12675.700000047684},{""page_index"":3,""viewing_time"":7147.199999928474},{""page_index"":4,""viewing_time"":20961.100000023842},{""page_index"":5,""viewing_time"":8382.200000047684},{""page_index"":6,""viewing_time"":8190.599999904633},{""page_index"":7,""viewing_time"":5532.700000047684},{""page_index"":8,""viewing_time"":3686}]","110053.5","","","","","","","","","","","","","","","","","","","","","","","",""
"pit-comprehension","103","851603","0.0-2.0-20.0-0.0","battery-v0.2","","""event"",""trial"",""time""
""fullscreenenter"",""1"",""2030""
","
","
","""event"",""trial"",""time""
""fullscreenenter"",""1"",""2030""
","
","","","4101.299999952316","[""SPACE""]","0","25","15558","6215","","","","","","","","","","","","","","","","","","",""
"pit-instructions","104","853755","0.0-2.0-20.0-1.0","battery-v0.2","","""event"",""trial"",""time""
""fullscreenenter"",""1"",""2030""
","
","
","""event"",""trial"",""time""
""fullscreenenter"",""1"",""2030""
","
","","[{""page_index"":0,""viewing_time"":2110.600000023842}]","2111","","","","","","","","","","","","","","","","","","","","","","","",""
"pit-comprehension","105","859362","0.0-2.0-21.0-0.0","battery-v0.2","","""event"",""trial"",""time""
""fullscreenenter"",""1"",""2030""
","
","
","""event"",""trial"",""time""
""fullscreenenter"",""1"",""2030""
","
","","","5603.800000071526","[""10""]","0","25","15558","6215","","","","","","","","","","","","","","","","","","",""
"pit-instructions","106","863915","0.0-2.0-21.0-1.0","battery-v0.2","","""event"",""trial"",""time""
""fullscreenenter"",""1"",""2030""
","
","
","""event"",""trial"",""time""
""fullscreenenter"",""1"",""2030""
","
","","[{""page_index"":0,""viewing_time"":4511.600000023842}]","4511.900000095367","","","","","","","","","","","","","","","","","","","","","","","",""
"pit-comprehension","107","870628","0.0-2.0-22.0-0.0","battery-v0.2","","""event"",""trial"",""time""
""fullscreenenter"",""1"",""2030""
","
","
","""event"",""trial"",""time""
""fullscreenenter"",""1"",""2030""
","
","","","6709.200000047684","[""0""]","0","25","15558","6215","","","","","","","","","","","","","","","","","","",""
"pit-instructions","108","878168","0.0-2.0-22.0-1.0","battery-v0.2","","""event"",""trial"",""time""
""fullscreenenter"",""1"",""2030""
","
","
","""event"",""trial"",""time""
""fullscreenenter"",""1"",""2030""
","
","","[{""page_index"":0,""viewing_time"":7499}]","7499.299999952316","","","","","","","","","","","","","","","","","","","","","","","",""
"pit-comprehension","109","900765","0.0-2.0-23.0-0.0","battery-v0.2","","""event"",""trial"",""time""
""fullscreenenter"",""1"",""2030""
","
","
","""event"",""trial"",""time""
""fullscreenenter"",""1"",""2030""
","
","","","22592.899999976158","[""True""]","0","25","15558","6215","","","","","","","","","","","","","","","","","","",""
"pit-instructions","110","905234","0.0-2.0-23.0-1.0","battery-v0.2","","""event"",""trial"",""time""
""fullscreenenter"",""1"",""2030""
","
","
","""event"",""trial"",""time""
""fullscreenenter"",""1"",""2030""
","
","","[{""page_index"":0,""viewing_time"":4415.5}]","4415.799999952316","","","","","","","","","","","","","","","","","","","","","","","",""
"pit-comprehension","111","912422","0.0-2.0-24.0-0.0","battery-v0.2","","""event"",""trial"",""time""
""fullscreenenter"",""1"",""2030""
","
","
","""event"",""trial"",""time""
""fullscreenenter"",""1"",""2030""
","
","","","7184.100000023842","[""True""]","0","25","15558","6215","","","","","","","","","","","","","","","","","","",""
"pit-instructions","112","918229","0.0-2.0-24.0-1.0","battery-v0.2","","""event"",""trial"",""time""
""fullscreenenter"",""1"",""2030""
","
","
","""event"",""trial"",""time""
""fullscreenenter"",""1"",""2030""
","
","","[{""page_index"":0,""viewing_time"":5762.699999928474}]","5763","","","","","","","","","","","","","","","","","","","","","","","",""
"pit-comprehension","113","924749","0.0-2.0-25.0-0.0","battery-v0.2","","""event"",""trial"",""time""
""fullscreenenter"",""1"",""2030""
","
","
","""event"",""trial"",""time""
""fullscreenenter"",""1"",""2030""
","
","","","6517.100000023842","[""True""]","0","25","15558","6215","","","","","","","","","","","","","","","","","","",""
"pit-instructions","114","926390","0.0-2.0-25.0-1.0","battery-v0.2","","""event"",""trial"",""time""
""fullscreenenter"",""1"",""2030""
","
","
","""event"",""trial"",""time""
""fullscreenenter"",""1"",""2030""
","
","","[{""page_index"":0,""viewing_time"":1595.8000000715256}]","1596.1000000238419","","","","","","","","","","","","","","","","","","","","","","","",""
"pit-comprehension","115","931568","0.0-2.0-26.0-0.0","battery-v0.2","","""event"",""trial"",""time""
""fullscreenenter"",""1"",""2030""
","
","
","""event"",""trial"",""time""
""fullscreenenter"",""1"",""2030""
","
","","","5174.700000047684","[""False""]","0","25","15558","6215","","","","","","","","","","","","","","","","","","",""
"pit-instructions","116","983806","0.0-2.0-26.0-1.0","battery-v0.2","","""event"",""trial"",""time""
""fullscreenenter"",""1"",""2030""
","
","
","""event"",""trial"",""time""
""fullscreenenter"",""1"",""2030""
","
","","[{""page_index"":0,""viewing_time"":52189.799999952316}]","52190.299999952316","","","","","","","","","","","","","","","","","","","","","","","",""
"pit-instructions","117","1082463","0.0-3.0","battery-v0.2","","""event"",""trial"",""time""
""fullscreenenter"",""1"",""2030""
","
","
","""event"",""trial"",""time""
""fullscreenenter"",""1"",""2030""
","
","","[{""page_index"":0,""viewing_time"":3925.100000023842},{""page_index"":1,""viewing_time"":82326},{""page_index"":2,""viewing_time"":12398.199999928474}]","98649.5","","","","","","","","","","","","","","","","","","","","","","","",""
"pit-trial","118","1087320","0.0-4.0","battery-v0.2","","""event"",""trial"",""time""
""fullscreenenter"",""1"",""2030""
","
","
","""event"",""trial"",""time""
""fullscreenenter"",""1"",""2030""
","
","","","-1","","","25","15558","6215","&#9733;","elianto","#3366ff99","-1","-1","1","+10","[]","0","1","","","15558","1","2","2","win","no-go","0"
"pit-trial","119","1091586","0.0-5.0","battery-v0.2","","""event"",""trial"",""time""
""fullscreenenter"",""1"",""2030""
","
","
","""event"",""trial"",""time""
""fullscreenenter"",""1"",""2030""
","
","","","1410.2000000476837","","","25","15558","6215","&#9752;","elianto","#f73b6a7A"," "," ","1","0","[2261.8000000715256]","1","1","","","15558","2","3","3","lose","go","0"
"pit-trial","120","1095679","0.0-6.0","battery-v0.2","","""event"",""trial"",""time""
""fullscreenenter"",""1"",""2030""
","
","
","""event"",""trial"",""time""
""fullscreenenter"",""1"",""2030""
","
","","","1238.6000000238419","","","25","15558","6215","&#9728;","elianto","#f73b6a7A","-1"," ","0","-10","[2090.5]","1","1","","","15558","3","0","4","lose","no-go","0"
"pit-trial","121","1099543","0.0-7.0","battery-v0.2","","""event"",""trial"",""time""
""fullscreenenter"",""1"",""2030""
","
","
","""event"",""trial"",""time""
""fullscreenenter"",""1"",""2030""
","
","","","1010.5","","","25","15558","6215","&#9730;","elianto","#3366ff99"," "," ","1","+10","[1861.8999999761581]","1","1","","","15558","4","1","1","win","go","0"
"pit-trial","122","1103616","0.0-8.0","battery-v0.2","","""event"",""trial"",""time""
""fullscreenenter"",""1"",""2030""
","
","
","""event"",""trial"",""time""
""fullscreenenter"",""1"",""2030""
","
","","","1218.1000000238419","","","25","15558","6215","&#9752;","elianto","#f73b6a7A"," "," ","1","0","[2068.899999976158]","1","1","","","15558","5","3","3","lose","go","0"
"pit-trial","123","1107271","0.0-9.0","battery-v0.2","","""event"",""trial"",""time""
""fullscreenenter"",""1"",""2030""
","
","
","""event"",""trial"",""time""
""fullscreenenter"",""1"",""2030""
","
","","","798.8000000715256","","","25","15558","6215","&#9730;","elianto","#3366ff99"," "," ","1","+10","[1649.6000000238419]","1","1","","","15558","6","1","1","win","go","0"
"pit-trial","124","1111428","0.0-10.0","battery-v0.2","","""event"",""trial"",""time""
""fullscreenenter"",""1"",""2030""
","
","
","""event"",""trial"",""time""
""fullscreenenter"",""1"",""2030""
","
","","","1300.8999999761581","","","25","15558","6215","&#9733;","elianto","#3366ff99","-1"," ","0","0","[2152.9000000953674]","1","1","","","15558","7","2","2","win","no-go","0"
"pit-trial","125","1116285","0.0-11.0","battery-v0.2","","""event"",""trial"",""time""
""fullscreenenter"",""1"",""2030""
","
","
","""event"",""trial"",""time""
""fullscreenenter"",""1"",""2030""
","
","","","-1","","","25","15558","6215","&#9728;","elianto","#f73b6a7A","-1","-1","1","0","[]","0","1","","","15558","8","0","4","lose","no-go","0"
"pit-trial","126","1121140","0.0-12.0","battery-v0.2","","""event"",""trial"",""time""
""fullscreenenter"",""1"",""2030""
","
","
","""event"",""trial"",""time""
""fullscreenenter"",""1"",""2030""
","
","","","-1","","","25","15558","6215","&#9752;","elianto","#f73b6a7A"," ","-1","0","-10","[3058.399999976158]","1","1","","","15558","9","3","3","lose","go","0"
"pit-trial","127","1125779","0.0-13.0","battery-v0.2","","""event"",""trial"",""time""
""fullscreenenter"",""1"",""2030""
","
","
","""event"",""trial"",""time""
""fullscreenenter"",""1"",""2030""
","
","","","1784.1000000238419","","","25","15558","6215","&#9728;","elianto","#f73b6a7A","-1"," ","0","-10","[2634.600000023842]","1","1","","","15558","10","0","4","lose","no-go","0"
"pit-trial","128","1130631","0.0-14.0","battery-v0.2","","""event"",""trial"",""time""
""fullscreenenter"",""1"",""2030""
","
","
","""event"",""trial"",""time""
""fullscreenenter"",""1"",""2030""
","
","","","-1","","","25","15558","6215","&#9733;","elianto","#3366ff99","-1","-1","1","+10","[]","0","1","","","15558","11","2","2","win","no-go","0"
"pit-trial","129","1134374","0.0-15.0","battery-v0.2","","""event"",""trial"",""time""
""fullscreenenter"",""1"",""2030""
","
","
","""event"",""trial"",""time""
""fullscreenenter"",""1"",""2030""
","
","","","897","","","25","15558","6215","&#9730;","elianto","#3366ff99"," "," ","1","+10","[1748.2999999523163]","1","1","","","15558","12","1","1","win","go","0"
"pit-trial","130","1139220","0.0-16.0","battery-v0.2","","""event"",""trial"",""time""
""fullscreenenter"",""1"",""2030""
","
","
","""event"",""trial"",""time""
""fullscreenenter"",""1"",""2030""
","
","","","-1","","","25","15558","6215","&#9752;","elianto","#f73b6a7A"," ","-1","0","-10","[]","0","1","","","15558","13","3","3","lose","go","0"
"pit-trial","131","1143487","0.0-17.0","battery-v0.2","","""event"",""trial"",""time""
""fullscreenenter"",""1"",""2030""
","
","
","""event"",""trial"",""time""
""fullscreenenter"",""1"",""2030""
","
","","","1416.2000000476837","","","25","15558","6215","&#9733;","elianto","#3366ff99","-1"," ","0","0","[2268]","1","1","","","15558","14","2","2","win","no-go","0"
"pit-trial","132","1147436","0.0-18.0","battery-v0.2","","""event"",""trial"",""time""
""fullscreenenter"",""1"",""2030""
","
","
","""event"",""trial"",""time""
""fullscreenenter"",""1"",""2030""
","
","","","1098.5","","","25","15558","6215","&#9730;","elianto","#3366ff99"," "," ","1","0","[1949.2999999523163]","1","1","","","15558","15","1","1","win","go","1"
"pit-trial","133","1151882","0.0-19.0","battery-v0.2","","""event"",""trial"",""time""
""fullscreenenter"",""1"",""2030""
","
","
","""event"",""trial"",""time""
""fullscreenenter"",""1"",""2030""
","
","","","1595.3999999761581","","","25","15558","6215","&#9728;","elianto","#f73b6a7A","-1"," ","0","0","[2445.7000000476837]","1","1","","","15558","16","0","4","lose","no-go","1"
"pit-trial","134","1156736","0.0-20.0","battery-v0.2","","""event"",""trial"",""time""
""fullscreenenter"",""1"",""2030""
","
","
","""event"",""trial"",""time""
""fullscreenenter"",""1"",""2030""
","
","","","-1","","","25","15558","6215","&#9752;","elianto","#f73b6a7A"," ","-1","0","-10","[]","0","1","","","15558","17","3","3","lose","go","0"
"pit-trial","135","1161588","0.0-21.0","battery-v0.2","","""event"",""trial"",""time""
""fullscreenenter"",""1"",""2030""
","
","
","""event"",""trial"",""time""
""fullscreenenter"",""1"",""2030""
","
","","","-1","","","25","15558","6215","&#9730;","elianto","#3366ff99"," ","-1","0","0","[]","0","1","","","15558","18","1","1","win","go","0"
"pit-trial","136","1166441","0.0-22.0","battery-v0.2","","""event"",""trial"",""time""
""fullscreenenter"",""1"",""2030""
","
","
","""event"",""trial"",""time""
""fullscreenenter"",""1"",""2030""
","
","","","-1","","","25","15558","6215","&#9733;","elianto","#3366ff99","-1","-1","1","+10","[194.30000007152557]","1","1","","","15558","19","2","2","win","no-go","0"
"pit-trial","137","1170443","0.0-23.0","battery-v0.2","","""event"",""trial"",""time""
""fullscreenenter"",""1"",""2030""
","
","
","""event"",""trial"",""time""
""fullscreenenter"",""1"",""2030""
","
","","","1148.3999999761581","","","25","15558","6215","&#9728;","elianto","#f73b6a7A","-1"," ","0","-10","[1998.7000000476837]","1","1","","","15558","20","0","4","lose","no-go","0"
"pit-instructions","138","1182590","0.0-24.0","battery-v0.2","","""event"",""trial"",""time""
""fullscreenenter"",""1"",""2030""
","
","
","""event"",""trial"",""time""
""fullscreenenter"",""1"",""2030""
","
","","[{""page_index"":0,""viewing_time"":5537.5},{""page_index"":1,""viewing_time"":6607.799999952316}]","12145.600000023842","","","","","","","","","","","","","","","","","","","","","","","",""
"pit-trial","139","1186305","0.0-25.0","battery-v0.2","","""event"",""trial"",""time""
""fullscreenenter"",""1"",""2030""
","
","
","""event"",""trial"",""time""
""fullscreenenter"",""1"",""2030""
","
","","","860.1000000238419","","","25","15558","6215","g","elianto","#f73b6a7A"," "," ","1","0","[1710.6000000238419]","1","2","","","15558","21","3","3","lose","go","0"
"pit-trial","140","1189908","0.0-26.0","battery-v0.2","","""event"",""trial"",""time""
""fullscreenenter"",""1"",""2030""
","
","
","""event"",""trial"",""time""
""fullscreenenter"",""1"",""2030""
","
","","","747.8999999761581","","","25","15558","6215","l","elianto","#3366ff99"," "," ","1","+10","[1599.0999999046326]","1","2","","","15558","22","1","1","win","go","0"
"pit-trial","141","1194057","0.0-27.0","battery-v0.2","","""event"",""trial"",""time""
""fullscreenenter"",""1"",""2030""
","
","
","""event"",""trial"",""time""
""fullscreenenter"",""1"",""2030""
","
","","","1293.7000000476837","","","25","15558","6215","u","elianto","#f73b6a7A","-1"," ","0","-10","[2144.600000023842]","1","2","","","15558","23","0","4","lose","no-go","0"
"pit-trial","142","1197691","0.0-28.0","battery-v0.2","","""event"",""trial"",""time""
""fullscreenenter"",""1"",""2030""
","
","
","""event"",""trial"",""time""
""fullscreenenter"",""1"",""2030""
","
","","","780","","","25","15558","6215","a","elianto","#f73b6a7A","-1"," ","0","-10","[1630.1999999284744]","1","2","","","15558","24","2","4","lose","no-go","0"
"pit-trial","143","1202546","0.0-29.0","battery-v0.2","","""event"",""trial"",""time""
""fullscreenenter"",""1"",""2030""
","
","
","""event"",""trial"",""time""
""fullscreenenter"",""1"",""2030""
","
","","","-1","","","25","15558","6215","a","elianto","#f73b6a7A","-1","-1","1","-10","[]","0","2","","","15558","25","2","4","lose","no-go","1"
"pit-trial","144","1206876","0.0-30.0","battery-v0.2","","""event"",""trial"",""time""
""fullscreenenter"",""1"",""2030""
","
","
","""event"",""trial"",""time""
""fullscreenenter"",""1"",""2030""
","
","","","1475","","","25","15558","6215","l","elianto","#3366ff99"," "," ","1","0","[2325.7000000476837]","1","2","","","15558","26","1","1","win","go","1"
"pit-trial","145","1211731","0.0-31.0","battery-v0.2","","""event"",""trial"",""time""
""fullscreenenter"",""1"",""2030""
","
","
","""event"",""trial"",""time""
""fullscreenenter"",""1"",""2030""
","
","","","-1","","","25","15558","6215","g","elianto","#f73b6a7A"," ","-1","0","-10","[]","0","2","","","15558","27","3","3","lose","go","0"
"pit-trial","146","1216586","0.0-32.0","battery-v0.2","","""event"",""trial"",""time""
""fullscreenenter"",""1"",""2030""
","
","
","""event"",""trial"",""time""
""fullscreenenter"",""1"",""2030""
","
","","","-1","","","25","15558","6215","u","elianto","#f73b6a7A","-1","-1","1","0","[]","0","2","","","15558","28","0","4","lose","no-go","0"
"pit-trial","147","1220404","0.0-33.0","battery-v0.2","","""event"",""trial"",""time""
""fullscreenenter"",""1"",""2030""
","
","
","""event"",""trial"",""time""
""fullscreenenter"",""1"",""2030""
","
","","","963.8999999761581","","","25","15558","6215","l","elianto","#3366ff99"," "," ","1","+10","[1814]","1","2","","","15558","29","1","1","win","go","0"
"pit-trial","148","1225260","0.0-34.0","battery-v0.2","","""event"",""trial"",""time""
""fullscreenenter"",""1"",""2030""
","
","
","""event"",""trial"",""time""
""fullscreenenter"",""1"",""2030""
","
","","","-1","","","25","15558","6215","a","elianto","#f73b6a7A","-1","-1","1","0","[]","0","2","","","15558","30","2","4","lose","no-go","0"
"pit-trial","149","1229052","0.0-35.0","battery-v0.2","","""event"",""trial"",""time""
""fullscreenenter"",""1"",""2030""
","
","
","""event"",""trial"",""time""
""fullscreenenter"",""1"",""2030""
","
","","","937","","","25","15558","6215","g","elianto","#f73b6a7A"," "," ","1","0","[1788.2000000476837]","1","2","","","15558","31","3","3","lose","go","0"
"pit-trial","150","1233907","0.0-36.0","battery-v0.2","","""event"",""trial"",""time""
""fullscreenenter"",""1"",""2030""
","
","
","""event"",""trial"",""time""
""fullscreenenter"",""1"",""2030""
","
","","","-1","","","25","15558","6215","u","elianto","#f73b6a7A","-1","-1","1","0","[]","0","2","","","15558","32","0","4","lose","no-go","0"
"pit-trial","151","1238764","0.0-37.0","battery-v0.2","","""event"",""trial"",""time""
""fullscreenenter"",""1"",""2030""
","
","
","""event"",""trial"",""time""
""fullscreenenter"",""1"",""2030""
","
","","","-1","","","25","15558","6215","u","elianto","#f73b6a7A","-1","-1","1","0","[]","0","2","","","15558","33","0","4","lose","no-go","0"
"pit-trial","152","1243461","0.0-38.0","battery-v0.2","","""event"",""trial"",""time""
""fullscreenenter"",""1"",""2030""
","
","
","""event"",""trial"",""time""
""fullscreenenter"",""1"",""2030""
","
","","","1842.5","","","25","15558","6215","a","elianto","#f73b6a7A","-1"," ","0","0","[2693.7000000476837]","1","2","","","15558","34","2","4","lose","no-go","1"
"pit-trial","153","1247575","0.0-39.0","battery-v0.2","","""event"",""trial"",""time""
""fullscreenenter"",""1"",""2030""
","
","
","""event"",""trial"",""time""
""fullscreenenter"",""1"",""2030""
","
","","","1258","","","25","15558","6215","l","elianto","#3366ff99"," "," ","1","+10","[2109.3000000715256]","1","2","","","15558","35","1","1","win","go","0"
"pit-trial","154","1251104","0.0-40.0","battery-v0.2","","""event"",""trial"",""time""
""fullscreenenter"",""1"",""2030""
","
","
","""event"",""trial"",""time""
""fullscreenenter"",""1"",""2030""
","
","","","673.6000000238419","","","25","15558","6215","g","elianto","#f73b6a7A"," "," ","1","0","[1524.7000000476837]","1","2","","","15558","36","3","3","lose","go","0"
"pit-trial","155","1255241","0.0-41.0","battery-v0.2","","""event"",""trial"",""time""
""fullscreenenter"",""1"",""2030""
","
","
","""event"",""trial"",""time""
""fullscreenenter"",""1"",""2030""
","
","","","1280.1999999284744","","","25","15558","6215","l","elianto","#3366ff99"," "," ","1","+10","[2132.100000023842]","1","2","","","15558","37","1","1","win","go","0"
"pit-trial","156","1258898","0.0-42.0","battery-v0.2","","""event"",""trial"",""time""
""fullscreenenter"",""1"",""2030""
","
","
","""event"",""trial"",""time""
""fullscreenenter"",""1"",""2030""
","
","","","802.1000000238419","","","25","15558","6215","g","elianto","#f73b6a7A"," "," ","1","0","[1653.1000000238419]","1","2","","","15558","38","3","3","lose","go","0"
"pit-trial","157","1263754","0.0-43.0","battery-v0.2","","""event"",""trial"",""time""
""fullscreenenter"",""1"",""2030""
","
","
","""event"",""trial"",""time""
""fullscreenenter"",""1"",""2030""
","
","","","-1","","","25","15558","6215","u","elianto","#f73b6a7A","-1","-1","1","0","[]","0","2","","","15558","39","0","4","lose","no-go","0"
"pit-trial","158","1267891","0.0-44.0","battery-v0.2","","""event"",""trial"",""time""
""fullscreenenter"",""1"",""2030""
","
","
","""event"",""trial"",""time""
""fullscreenenter"",""1"",""2030""
","
","","","1282.2999999523163","","","25","15558","6215","a","elianto","#f73b6a7A","-1"," ","0","-10","[2132.899999976158]","1","2","","","15558","40","2","4","lose","no-go","0"
"pit-trial","159","1272748","0.0-45.0","battery-v0.2","","""event"",""trial"",""time""
""fullscreenenter"",""1"",""2030""
","
","
","""event"",""trial"",""time""
""fullscreenenter"",""1"",""2030""
","
","","","-1","","","25","15558","6215","u","elianto","#f73b6a7A","-1","-1","1","0","[]","0","2","","","15558","41","0","4","lose","no-go","0"
"pit-trial","160","1276777","0.0-46.0","battery-v0.2","","""event"",""trial"",""time""
""fullscreenenter"",""1"",""2030""
","
","
","""event"",""trial"",""time""
""fullscreenenter"",""1"",""2030""
","
","","","1172.5","","","25","15558","6215","l","elianto","#3366ff99"," "," ","1","0","[2024.3999999761581]","1","2","","","15558","42","1","1","win","go","1"
"pit-trial","161","1281632","0.0-47.0","battery-v0.2","","""event"",""trial"",""time""
""fullscreenenter"",""1"",""2030""
","
","
","""event"",""trial"",""time""
""fullscreenenter"",""1"",""2030""
","
","","","-1","","","25","15558","6215","a","elianto","#f73b6a7A","-1","-1","1","0","[2877.399999976158]","1","2","","","15558","43","2","4","lose","no-go","0"
"pit-trial","162","1285583","0.0-48.0","battery-v0.2","","""event"",""trial"",""time""
""fullscreenenter"",""1"",""2030""
","
","
","""event"",""trial"",""time""
""fullscreenenter"",""1"",""2030""
","
","","","1094.8000000715256","","","25","15558","6215","g","elianto","#f73b6a7A"," "," ","1","0","[1945.2999999523163]","1","2","","","15558","44","3","3","lose","go","0"
"pit-trial","163","1289156","0.0-49.0","battery-v0.2","","""event"",""trial"",""time""
""fullscreenenter"",""1"",""2030""
","
","
","""event"",""trial"",""time""
""fullscreenenter"",""1"",""2030""
","
","","","717","","","25","15558","6215","g","elianto","#f73b6a7A"," "," ","1","0","[1568.3999999761581]","1","2","","","15558","45","3","3","lose","go","0"
"pit-trial","164","1293772","0.0-50.0","battery-v0.2","","""event"",""trial"",""time""
""fullscreenenter"",""1"",""2030""
","
","
","""event"",""trial"",""time""
""fullscreenenter"",""1"",""2030""
","
","","","1761.2000000476837","","","25","15558","6215","a","elianto","#f73b6a7A","-1"," ","0","-10","[2612.100000023842]","1","2","","","15558","46","2","4","lose","no-go","0"
"pit-trial","165","1298628","0.0-51.0","battery-v0.2","","""event"",""trial"",""time""
""fullscreenenter"",""1"",""2030""
","
","
","""event"",""trial"",""time""
""fullscreenenter"",""1"",""2030""
","
","","","-1","","","25","15558","6215","u","elianto","#f73b6a7A","-1","-1","1","-10","[]","0","2","","","15558","47","0","4","lose","no-go","1"
"pit-trial","166","1302260","0.0-52.0","battery-v0.2","","""event"",""trial"",""time""
""fullscreenenter"",""1"",""2030""
","
","
","""event"",""trial"",""time""
""fullscreenenter"",""1"",""2030""
","
","","","777","","","25","15558","6215","p","elianto","#3366ff99","-1"," ","0","0","[1628.4000000953674]","1","2","","","15558","48","4","2","win","no-go","0"
"pit-trial","167","1307115","0.0-53.0","battery-v0.2","","""event"",""trial"",""time""
""fullscreenenter"",""1"",""2030""
","
","
","""event"",""trial"",""time""
""fullscreenenter"",""1"",""2030""
","
","","","-1","","","25","15558","6215","p","elianto","#3366ff99","-1","-1","1","0","[]","0","2","","","15558","49","4","2","win","no-go","1"
"pit-trial","168","1310778","0.0-54.0","battery-v0.2","","""event"",""trial"",""time""
""fullscreenenter"",""1"",""2030""
","
","
","""event"",""trial"",""time""
""fullscreenenter"",""1"",""2030""
","
","","","808.7000000476837","","","25","15558","6215","g","elianto","#f73b6a7A"," "," ","1","0","[1659,3096.2999999523163]","2","2","","","15558","50","3","3","lose","go","0"
"pit-trial","169","1315634","0.0-55.0","battery-v0.2","","""event"",""trial"",""time""
""fullscreenenter"",""1"",""2030""
","
","
","""event"",""trial"",""time""
""fullscreenenter"",""1"",""2030""
","
","","","-1","","","25","15558","6215","l","elianto","#3366ff99"," ","-1","0","+10","[]","0","2","","","15558","51","1","1","win","go","1"
"pit-trial","170","1320490","0.0-56.0","battery-v0.2","","""event"",""trial"",""time""
""fullscreenenter"",""1"",""2030""
","
","
","""event"",""trial"",""time""
""fullscreenenter"",""1"",""2030""
","
","","","-1","","","25","15558","6215","u","elianto","#f73b6a7A","-1","-1","1","-10","[]","0","2","","","15558","52","0","4","lose","no-go","1"
"pit-trial","171","1325345","0.0-57.0","battery-v0.2","","""event"",""trial"",""time""
""fullscreenenter"",""1"",""2030""
","
","
","""event"",""trial"",""time""
""fullscreenenter"",""1"",""2030""
","
","","","-1","","","25","15558","6215","u","elianto","#f73b6a7A","-1","-1","1","0","[]","0","2","","","15558","53","0","4","lose","no-go","0"
"pit-trial","172","1330201","0.0-58.0","battery-v0.2","","""event"",""trial"",""time""
""fullscreenenter"",""1"",""2030""
","
","
","""event"",""trial"",""time""
""fullscreenenter"",""1"",""2030""
","
","","","-1","","","25","15558","6215","a","elianto","#f73b6a7A","-1","-1","1","0","[]","0","2","","","15558","54","2","4","lose","no-go","0"
"pit-trial","173","1334068","0.0-59.0","battery-v0.2","","""event"",""trial"",""time""
""fullscreenenter"",""1"",""2030""
","
","
","""event"",""trial"",""time""
""fullscreenenter"",""1"",""2030""
","
","","","1010.6000000238419","","","25","15558","6215","l","elianto","#3366ff99"," "," ","1","+10","[1861.9000000953674]","1","2","","","15558","55","1","1","win","go","0"
"pit-trial","174","1338923","0.0-60.0","battery-v0.2","","""event"",""trial"",""time""
""fullscreenenter"",""1"",""2030""
","
","
","""event"",""trial"",""time""
""fullscreenenter"",""1"",""2030""
","
","","","-1","","","25","15558","6215","p","elianto","#3366ff99","-1","-1","1","0","[]","0","2","","","15558","56","4","2","win","no-go","1"
"pit-trial","175","1342705","0.0-61.0","battery-v0.2","","""event"",""trial"",""time""
""fullscreenenter"",""1"",""2030""
","
","
","""event"",""trial"",""time""
""fullscreenenter"",""1"",""2030""
","
","","","928.6999999284744","","","25","15558","6215","l","elianto","#3366ff99"," "," ","1","+10","[1779]","1","2","","","15558","57","1","1","win","go","0"
"pit-trial","176","1346340","0.0-62.0","battery-v0.2","","""event"",""trial"",""time""
""fullscreenenter"",""1"",""2030""
","
","
","""event"",""trial"",""time""
""fullscreenenter"",""1"",""2030""
","
","","","779.5","","","25","15558","6215","g","elianto","#f73b6a7A"," "," ","1","0","[1630.6000000238419]","1","2","","","15558","58","3","3","lose","go","0"
"pit-trial","177","1350235","0.0-63.0","battery-v0.2","","""event"",""trial"",""time""
""fullscreenenter"",""1"",""2030""
","
","
","""event"",""trial"",""time""
""fullscreenenter"",""1"",""2030""
","
","","","1040.6000000238419","","","25","15558","6215","p","elianto","#3366ff99","-1"," ","0","0","[1891.6999999284744]","1","2","","","15558","59","4","2","win","no-go","0"
"pit-trial","178","1355091","0.0-64.0","battery-v0.2","","""event"",""trial"",""time""
""fullscreenenter"",""1"",""2030""
","
","
","""event"",""trial"",""time""
""fullscreenenter"",""1"",""2030""
","
","","","-1","","","25","15558","6215","u","elianto","#f73b6a7A","-1","-1","1","0","[]","0","2","","","15558","60","0","4","lose","no-go","0"
"pit-trial","179","1358796","0.0-65.0","battery-v0.2","","""event"",""trial"",""time""
""fullscreenenter"",""1"",""2030""
","
","
","""event"",""trial"",""time""
""fullscreenenter"",""1"",""2030""
","
","","","849.5","","","25","15558","6215","g","elianto","#f73b6a7A"," "," ","1","-10","[1700.6000000238419]","1","2","","","15558","61","3","3","lose","go","1"
"pit-trial","180","1363651","0.0-66.0","battery-v0.2","","""event"",""trial"",""time""
""fullscreenenter"",""1"",""2030""
","
","
","""event"",""trial"",""time""
""fullscreenenter"",""1"",""2030""
","
","","","-1","","","25","15558","6215","p","elianto","#3366ff99","-1","-1","1","+10","[]","0","2","","","15558","62","4","2","win","no-go","0"
"pit-trial","181","1368507","0.0-67.0","battery-v0.2","","""event"",""trial"",""time""
""fullscreenenter"",""1"",""2030""
","
","
","""event"",""trial"",""time""
""fullscreenenter"",""1"",""2030""
","
","","","-1","","","25","15558","6215","a","elianto","#f73b6a7A","-1","-1","1","0","[]","0","2","","","15558","63","2","4","lose","no-go","0"
"pit-trial","182","1372349","0.0-68.0","battery-v0.2","","""event"",""trial"",""time""
""fullscreenenter"",""1"",""2030""
","
","
","""event"",""trial"",""time""
""fullscreenenter"",""1"",""2030""
","
","","","986.8999999761581","","","25","15558","6215","l","elianto","#3366ff99"," "," ","1","+10","[1838.7999999523163]","1","2","","","15558","64","1","1","win","go","0"
"pit-trial","183","1377204","0.0-69.0","battery-v0.2","","""event"",""trial"",""time""
""fullscreenenter"",""1"",""2030""
","
","
","""event"",""trial"",""time""
""fullscreenenter"",""1"",""2030""
","
","","","-1","","","25","15558","6215","p","elianto","#3366ff99","-1","-1","1","+10","[]","0","2","","","15558","65","4","2","win","no-go","0"
"pit-trial","184","1382059","0.0-70.0","battery-v0.2","","""event"",""trial"",""time""
""fullscreenenter"",""1"",""2030""
","
","
","""event"",""trial"",""time""
""fullscreenenter"",""1"",""2030""
","
","","","-1","","","25","15558","6215","a","elianto","#f73b6a7A","-1","-1","1","0","[]","0","2","","","15558","66","2","4","lose","no-go","0"
"pit-trial","185","1385711","0.0-71.0","battery-v0.2","","""event"",""trial"",""time""
""fullscreenenter"",""1"",""2030""
","
","
","""event"",""trial"",""time""
""fullscreenenter"",""1"",""2030""
","
","","","796.1000000238419","","","25","15558","6215","g","elianto","#f73b6a7A"," "," ","1","0","[1646.7999999523163]","1","2","","","15558","67","3","3","lose","go","0"
"pit-trial","186","1389755","0.0-72.0","battery-v0.2","","""event"",""trial"",""time""
""fullscreenenter"",""1"",""2030""
","
","
","""event"",""trial"",""time""
""fullscreenenter"",""1"",""2030""
","
","","","1189","","","25","15558","6215","l","elianto","#3366ff99"," "," ","1","+10","[2039.7999999523163]","1","2","","","15558","68","1","1","win","go","0"
"pit-trial","187","1394612","0.0-73.0","battery-v0.2","","""event"",""trial"",""time""
""fullscreenenter"",""1"",""2030""
","
","
","""event"",""trial"",""time""
""fullscreenenter"",""1"",""2030""
","
","","","-1","","","25","15558","6215","g","elianto","#f73b6a7A"," ","-1","0","0","[3135.8000000715256]","1","2","","","15558","69","3","3","lose","go","1"
"pit-trial","188","1399468","0.0-74.0","battery-v0.2","","""event"",""trial"",""time""
""fullscreenenter"",""1"",""2030""
","
","
","""event"",""trial"",""time""
""fullscreenenter"",""1"",""2030""
","
","","","-1","","","25","15558","6215","l","elianto","#3366ff99"," ","-1","0","0","[]","0","2","","","15558","70","1","1","win","go","0"
"pit-trial","189","1404323","0.0-75.0","battery-v0.2","","""event"",""trial"",""time""
""fullscreenenter"",""1"",""2030""
","
","
","""event"",""trial"",""time""
""fullscreenenter"",""1"",""2030""
","
","","","-1","","","25","15558","6215","p","elianto","#3366ff99","-1","-1","1","0","[]","0","2","","","15558","71","4","2","win","no-go","1"
"pit-trial","190","1408418","0.0-76.0","battery-v0.2","","""event"",""trial"",""time""
""fullscreenenter"",""1"",""2030""
","
","
","""event"",""trial"",""time""
""fullscreenenter"",""1"",""2030""
","
","","","1240.3999999761581","","","25","15558","6215","s","elianto","#3366ff99"," "," ","1","+10","[2090.899999976158]","1","2","","","15558","72","5","1","win","go","0"
"pit-trial","191","1413273","0.0-77.0","battery-v0.2","","""event"",""trial"",""time""
""fullscreenenter"",""1"",""2030""
","
","
","""event"",""trial"",""time""
""fullscreenenter"",""1"",""2030""
","
","","","-1","","","25","15558","6215","l","elianto","#3366ff99"," ","-1","0","0","[4256.5]","1","2","","","15558","73","1","1","win","go","0"
"pit-trial","192","1418129","0.0-78.0","battery-v0.2","","""event"",""trial"",""time""
""fullscreenenter"",""1"",""2030""
","
","
","""event"",""trial"",""time""
""fullscreenenter"",""1"",""2030""
","
","","","-1","","","25","15558","6215","s","elianto","#3366ff99"," ","-1","0","0","[]","0","2","","","15558","74","5","1","win","go","0"
"pit-trial","193","1421609","0.0-79.0","battery-v0.2","","""event"",""trial"",""time""
""fullscreenenter"",""1"",""2030""
","
","
","""event"",""trial"",""time""
""fullscreenenter"",""1"",""2030""
","
","","","625.1999999284744","","","25","15558","6215","g","elianto","#f73b6a7A"," "," ","1","0","[1475.7999999523163]","1","2","","","15558","75","3","3","lose","go","0"
"pit-trial","194","1426466","0.0-80.0","battery-v0.2","","""event"",""trial"",""time""
""fullscreenenter"",""1"",""2030""
","
","
","""event"",""trial"",""time""
""fullscreenenter"",""1"",""2030""
","
","","","-1","","","25","15558","6215","p","elianto","#3366ff99","-1","-1","1","+10","[]","0","2","","","15558","76","4","2","win","no-go","0"
"pit-trial","195","1430631","0.0-81.0","battery-v0.2","","""event"",""trial"",""time""
""fullscreenenter"",""1"",""2030""
","
","
","""event"",""trial"",""time""
""fullscreenenter"",""1"",""2030""
","
","","","1310","","","25","15558","6215","w","elianto","#f73b6a7A","-1"," ","0","-10","[2161.100000023842]","1","2","","","15558","77","6","4","lose","no-go","0"
"pit-trial","196","1435486","0.0-82.0","battery-v0.2","","""event"",""trial"",""time""
""fullscreenenter"",""1"",""2030""
","
","
","""event"",""trial"",""time""
""fullscreenenter"",""1"",""2030""
","
","","","-1","","","25","15558","6215","p","elianto","#3366ff99","-1","-1","1","+10","[]","0","2","","","15558","78","4","2","win","no-go","0"
"pit-trial","197","1439064","0.0-83.0","battery-v0.2","","""event"",""trial"",""time""
""fullscreenenter"",""1"",""2030""
","
","
","""event"",""trial"",""time""
""fullscreenenter"",""1"",""2030""
","
","","","720.8999999761581","","","25","15558","6215","g","elianto","#f73b6a7A"," "," ","1","0","[1572.7999999523163]","1","2","","","15558","79","3","3","lose","go","0"
"pit-trial","198","1443243","0.0-84.0","battery-v0.2","","""event"",""trial"",""time""
""fullscreenenter"",""1"",""2030""
","
","
","""event"",""trial"",""time""
""fullscreenenter"",""1"",""2030""
","
","","","1322.6000000238419","","","25","15558","6215","s","elianto","#3366ff99"," "," ","1","+10","[2174.2999999523163]","1","2","","","15558","80","5","1","win","go","0"
"pit-trial","199","1446666","0.0-85.0","battery-v0.2","","""event"",""trial"",""time""
""fullscreenenter"",""1"",""2030""
","
","
","""event"",""trial"",""time""
""fullscreenenter"",""1"",""2030""
","
","","","568.3999999761581","","","25","15558","6215","s","elianto","#3366ff99"," "," ","1","+10","[1419.5,1842.7000000476837]","2","2","","","15558","81","5","1","win","go","0"
"pit-trial","200","1451522","0.0-86.0","battery-v0.2","","""event"",""trial"",""time""
""fullscreenenter"",""1"",""2030""
","
","
","""event"",""trial"",""time""
""fullscreenenter"",""1"",""2030""
","
","","","-1","","","25","15558","6215","p","elianto","#3366ff99","-1","-1","1","+10","[]","0","2","","","15558","82","4","2","win","no-go","0"
"pit-trial","201","1456379","0.0-87.0","battery-v0.2","","""event"",""trial"",""time""
""fullscreenenter"",""1"",""2030""
","
","
","""event"",""trial"",""time""
""fullscreenenter"",""1"",""2030""
","
","","","-1","","","25","15558","6215","w","elianto","#f73b6a7A","-1","-1","1","0","[]","0","2","","","15558","83","6","4","lose","no-go","0"
"pit-trial","202","1460607","0.0-88.0","battery-v0.2","","""event"",""trial"",""time""
""fullscreenenter"",""1"",""2030""
","
","
","""event"",""trial"",""time""
""fullscreenenter"",""1"",""2030""
","
","","","1371.6000000238419","","","25","15558","6215","e","elianto","#f73b6a7A"," "," ","1","0","[2223.3000000715256]","1","2","","","15558","84","7","3","lose","go","0"
"pit-trial","203","1465463","0.0-89.0","battery-v0.2","","""event"",""trial"",""time""
""fullscreenenter"",""1"",""2030""
","
","
","""event"",""trial"",""time""
""fullscreenenter"",""1"",""2030""
","
","","","-1","","","25","15558","6215","p","elianto","#3366ff99","-1","-1","1","+10","[]","0","2","","","15558","85","4","2","win","no-go","0"
"pit-trial","204","1470319","0.0-90.0","battery-v0.2","","""event"",""trial"",""time""
""fullscreenenter"",""1"",""2030""
","
","
","""event"",""trial"",""time""
""fullscreenenter"",""1"",""2030""
","
","","","-1","","","25","15558","6215","w","elianto","#f73b6a7A","-1","-1","1","0","[]","0","2","","","15558","86","6","4","lose","no-go","0"
"pit-trial","205","1474574","0.0-91.0","battery-v0.2","","""event"",""trial"",""time""
""fullscreenenter"",""1"",""2030""
","
","
","""event"",""trial"",""time""
""fullscreenenter"",""1"",""2030""
","
","","","1400.6000000238419","","","25","15558","6215","s","elianto","#3366ff99"," "," ","1","+10","[2251.100000023842]","1","2","","","15558","87","5","1","win","go","0"
"pit-trial","206","1479429","0.0-92.0","battery-v0.2","","""event"",""trial"",""time""
""fullscreenenter"",""1"",""2030""
","
","
","""event"",""trial"",""time""
""fullscreenenter"",""1"",""2030""
","
","","","-1","","","25","15558","6215","e","elianto","#f73b6a7A"," ","-1","0","0","[]","0","2","","","15558","88","7","3","lose","go","1"
"pit-trial","207","1484286","0.0-93.0","battery-v0.2","","""event"",""trial"",""time""
""fullscreenenter"",""1"",""2030""
","
","
","""event"",""trial"",""time""
""fullscreenenter"",""1"",""2030""
","
","","","-1","","","25","15558","6215","w","elianto","#f73b6a7A","-1","-1","1","0","[]","0","2","","","15558","89","6","4","lose","no-go","0"
"pit-trial","208","1489141","0.0-94.0","battery-v0.2","","""event"",""trial"",""time""
""fullscreenenter"",""1"",""2030""
","
","
","""event"",""trial"",""time""
""fullscreenenter"",""1"",""2030""
","
","","","-1","","","25","15558","6215","p","elianto","#3366ff99","-1","-1","1","+10","[]","0","2","","","15558","90","4","2","win","no-go","0"
"pit-trial","209","1493997","0.0-95.0","battery-v0.2","","""event"",""trial"",""time""
""fullscreenenter"",""1"",""2030""
","
","
","""event"",""trial"",""time""
""fullscreenenter"",""1"",""2030""
","
","","","-1","","","25","15558","6215","s","elianto","#3366ff99"," ","-1","0","0","[]","0","2","","","15558","91","5","1","win","go","0"
"pit-trial","210","1498853","0.0-96.0","battery-v0.2","","""event"",""trial"",""time""
""fullscreenenter"",""1"",""2030""
","
","
","""event"",""trial"",""time""
""fullscreenenter"",""1"",""2030""
","
","","","-1","","","25","15558","6215","e","elianto","#f73b6a7A"," ","-1","0","-10","[]","0","2","","","15558","92","7","3","lose","go","0"
"pit-trial","211","1503709","0.0-97.0","battery-v0.2","","""event"",""trial"",""time""
""fullscreenenter"",""1"",""2030""
","
","
","""event"",""trial"",""time""
""fullscreenenter"",""1"",""2030""
","
","","","-1","","","25","15558","6215","d","elianto","#3366ff99","-1","-1","1","+10","[]","0","2","","","15558","93","8","2","win","no-go","0"
"pit-trial","212","1508565","0.0-98.0","battery-v0.2","","""event"",""trial"",""time""
""fullscreenenter"",""1"",""2030""
","
","
","""event"",""trial"",""time""
""fullscreenenter"",""1"",""2030""
","
","","","-1","","","25","15558","6215","e","elianto","#f73b6a7A"," ","-1","0","-10","[]","0","2","","","15558","94","7","3","lose","go","0"
"pit-trial","213","1513421","0.0-99.0","battery-v0.2","","""event"",""trial"",""time""
""fullscreenenter"",""1"",""2030""
","
","
","""event"",""trial"",""time""
""fullscreenenter"",""1"",""2030""
","
","","","-1","","","25","15558","6215","w","elianto","#f73b6a7A","-1","-1","1","0","[131.70000004768372]","1","2","","","15558","95","6","4","lose","no-go","0"
"pit-trial","214","1518276","0.0-100.0","battery-v0.2","","""event"",""trial"",""time""
""fullscreenenter"",""1"",""2030""
","
","
","""event"",""trial"",""time""
""fullscreenenter"",""1"",""2030""
","
","","","-1","","","25","15558","6215","s","elianto","#3366ff99"," ","-1","0","+10","[]","0","2","","","15558","96","5","1","win","go","1"
"pit-trial","215","1523131","0.0-101.0","battery-v0.2","","""event"",""trial"",""time""
""fullscreenenter"",""1"",""2030""
","
","
","""event"",""trial"",""time""
""fullscreenenter"",""1"",""2030""
","
","","","-1","","","25","15558","6215","e","elianto","#f73b6a7A"," ","-1","0","-10","[]","0","2","","","15558","97","7","3","lose","go","0"
"pit-trial","216","1527988","0.0-102.0","battery-v0.2","","""event"",""trial"",""time""
""fullscreenenter"",""1"",""2030""
","
","
","""event"",""trial"",""time""
""fullscreenenter"",""1"",""2030""
","
","","","-1","","","25","15558","6215","w","elianto","#f73b6a7A","-1","-1","1","0","[]","0","2","","","15558","98","6","4","lose","no-go","0"
"pit-trial","217","1532845","0.0-103.0","battery-v0.2","","""event"",""trial"",""time""
""fullscreenenter"",""1"",""2030""
","
","
","""event"",""trial"",""time""
""fullscreenenter"",""1"",""2030""
","
","","","-1","","","25","15558","6215","d","elianto","#3366ff99","-1","-1","1","+10","[]","0","2","","","15558","99","8","2","win","no-go","0"
"pit-trial","218","1536308","0.0-104.0","battery-v0.2","","""event"",""trial"",""time""
""fullscreenenter"",""1"",""2030""
","
","
","""event"",""trial"",""time""
""fullscreenenter"",""1"",""2030""
","
","","","605.8999999761581","","","25","15558","6215","s","elianto","#3366ff99"," "," ","1","+10","[1458.5]","1","2","","","15558","100","5","1","win","go","0"
"pit-trial","219","1541165","0.0-105.0","battery-v0.2","","""event"",""trial"",""time""
""fullscreenenter"",""1"",""2030""
","
","
","""event"",""trial"",""time""
""fullscreenenter"",""1"",""2030""
","
","","","-1","","","25","15558","6215","d","elianto","#3366ff99","-1","-1","1","+10","[]","0","2","","","15558","101","8","2","win","no-go","0"
"pit-trial","220","1546021","0.0-106.0","battery-v0.2","","""event"",""trial"",""time""
""fullscreenenter"",""1"",""2030""
","
","
","""event"",""trial"",""time""
""fullscreenenter"",""1"",""2030""
","
","","","-1","","","25","15558","6215","w","elianto","#f73b6a7A","-1","-1","1","0","[]","0","2","","","15558","102","6","4","lose","no-go","0"
"pit-trial","221","1550876","0.0-107.0","battery-v0.2","","""event"",""trial"",""time""
""fullscreenenter"",""1"",""2030""
","
","
","""event"",""trial"",""time""
""fullscreenenter"",""1"",""2030""
","
","","","-1","","","25","15558","6215","j","elianto","#3366ff99","-1","-1","1","+10","[]","0","2","","","15558","103","9","2","win","no-go","0"
"pit-trial","222","1555731","0.0-108.0","battery-v0.2","","""event"",""trial"",""time""
""fullscreenenter"",""1"",""2030""
","
","
","""event"",""trial"",""time""
""fullscreenenter"",""1"",""2030""
","
","","","-1","","","25","15558","6215","s","elianto","#3366ff99"," ","-1","0","0","[]","0","2","","","15558","104","5","1","win","go","0"
"pit-trial","223","1560587","0.0-109.0","battery-v0.2","","""event"",""trial"",""time""
""fullscreenenter"",""1"",""2030""
","
","
","""event"",""trial"",""time""
""fullscreenenter"",""1"",""2030""
","
","","","-1","","","25","15558","6215","s","elianto","#3366ff99"," ","-1","0","0","[]","0","2","","","15558","105","5","1","win","go","0"
"pit-trial","224","1565443","0.0-110.0","battery-v0.2","","""event"",""trial"",""time""
""fullscreenenter"",""1"",""2030""
","
","
","""event"",""trial"",""time""
""fullscreenenter"",""1"",""2030""
","
","","","-1","","","25","15558","6215","w","elianto","#f73b6a7A","-1","-1","1","0","[]","0","2","","","15558","106","6","4","lose","no-go","0"
"pit-trial","225","1570298","0.0-111.0","battery-v0.2","","""event"",""trial"",""time""
""fullscreenenter"",""1"",""2030""
","
","
","""event"",""trial"",""time""
""fullscreenenter"",""1"",""2030""
","
","","","-1","","","25","15558","6215","j","elianto","#3366ff99","-1","-1","1","+10","[]","0","2","","","15558","107","9","2","win","no-go","0"
"pit-trial","226","1575153","0.0-112.0","battery-v0.2","","""event"",""trial"",""time""
""fullscreenenter"",""1"",""2030""
","
","
","""event"",""trial"",""time""
""fullscreenenter"",""1"",""2030""
","
","","","-1","","","25","15558","6215","d","elianto","#3366ff99","-1","-1","1","+10","[]","0","2","","","15558","108","8","2","win","no-go","0"
"pit-trial","227","1580008","0.0-113.0","battery-v0.2","","""event"",""trial"",""time""
""fullscreenenter"",""1"",""2030""
","
","
","""event"",""trial"",""time""
""fullscreenenter"",""1"",""2030""
","
","","","-1","","","25","15558","6215","w","elianto","#f73b6a7A","-1","-1","1","0","[]","0","2","","","15558","109","6","4","lose","no-go","0"
"pit-trial","228","1584863","0.0-114.0","battery-v0.2","","""event"",""trial"",""time""
""fullscreenenter"",""1"",""2030""
","
","
","""event"",""trial"",""time""
""fullscreenenter"",""1"",""2030""
","
","","","-1","","","25","15558","6215","d","elianto","#3366ff99","-1","-1","1","0","[]","0","2","","","15558","110","8","2","win","no-go","1"
"pit-trial","229","1589720","0.0-115.0","battery-v0.2","","""event"",""trial"",""time""
""fullscreenenter"",""1"",""2030""
","
","
","""event"",""trial"",""time""
""fullscreenenter"",""1"",""2030""
","
","","","-1","","","25","15558","6215","j","elianto","#3366ff99","-1","-1","1","+10","[]","0","2","","","15558","111","9","2","win","no-go","0"
"pit-trial","230","1594575","0.0-116.0","battery-v0.2","","""event"",""trial"",""time""
""fullscreenenter"",""1"",""2030""
","
","
","""event"",""trial"",""time""
""fullscreenenter"",""1"",""2030""
","
","","","-1","","","25","15558","6215","s","elianto","#3366ff99"," ","-1","0","0","[]","0","2","","","15558","112","5","1","win","go","0"
"pit-trial","231","1599432","0.0-117.0","battery-v0.2","","""event"",""trial"",""time""
""fullscreenenter"",""1"",""2030""
","
","
","""event"",""trial"",""time""
""fullscreenenter"",""1"",""2030""
","
","","","-1","","","25","15558","6215","d","elianto","#3366ff99","-1","-1","1","0","[]","0","2","","","15558","113","8","2","win","no-go","1"
"pit-trial","232","1604286","0.0-118.0","battery-v0.2","","""event"",""trial"",""time""
""fullscreenenter"",""1"",""2030""
","
","
","""event"",""trial"",""time""
""fullscreenenter"",""1"",""2030""
","
","","","-1","","","25","15558","6215","s","elianto","#3366ff99"," ","-1","0","0","[]","0","2","","","15558","114","5","1","win","go","0"
"pit-trial","233","1609143","0.0-119.0","battery-v0.2","","""event"",""trial"",""time""
""fullscreenenter"",""1"",""2030""
","
","
","""event"",""trial"",""time""
""fullscreenenter"",""1"",""2030""
","
","","","-1","","","25","15558","6215","j","elianto","#3366ff99","-1","-1","1","+10","[]","0","2","","","15558","115","9","2","win","no-go","0"
"pit-trial","234","1613998","0.0-120.0","battery-v0.2","","""event"",""trial"",""time""
""fullscreenenter"",""1"",""2030""
","
","
","""event"",""trial"",""time""
""fullscreenenter"",""1"",""2030""
","
","","","-1","","","25","15558","6215","e","elianto","#f73b6a7A"," ","-1","0","-10","[]","0","2","","","15558","116","7","3","lose","go","0"
"pit-trial","235","1618852","0.0-121.0","battery-v0.2","","""event"",""trial"",""time""
""fullscreenenter"",""1"",""2030""
","
","
","""event"",""trial"",""time""
""fullscreenenter"",""1"",""2030""
","
","","","-1","","","25","15558","6215","d","elianto","#3366ff99","-1","-1","1","+10","[]","0","2","","","15558","117","8","2","win","no-go","0"
"pit-trial","236","1623708","0.0-122.0","battery-v0.2","","""event"",""trial"",""time""
""fullscreenenter"",""1"",""2030""
","
","
","""event"",""trial"",""time""
""fullscreenenter"",""1"",""2030""
","
","","","-1","","","25","15558","6215","s","elianto","#3366ff99"," ","-1","0","+10","[]","0","2","","","15558","118","5","1","win","go","1"
"pit-trial","237","1628563","0.0-123.0","battery-v0.2","","""event"",""trial"",""time""
""fullscreenenter"",""1"",""2030""
","
","
","""event"",""trial"",""time""
""fullscreenenter"",""1"",""2030""
","
","","","-1","","","25","15558","6215","j","elianto","#3366ff99","-1","-1","1","+10","[]","0","2","","","15558","119","9","2","win","no-go","0"
"pit-trial","238","1633418","0.0-124.0","battery-v0.2","","""event"",""trial"",""time""
""fullscreenenter"",""1"",""2030""
","
","
","""event"",""trial"",""time""
""fullscreenenter"",""1"",""2030""
","
","","","-1","","","25","15558","6215","w","elianto","#f73b6a7A","-1","-1","1","0","[]","0","2","","","15558","120","6","4","lose","no-go","0"
"pit-trial","239","1638272","0.0-125.0","battery-v0.2","","""event"",""trial"",""time""
""fullscreenenter"",""1"",""2030""
","
","
","""event"",""trial"",""time""
""fullscreenenter"",""1"",""2030""
","
","","","-1","","","25","15558","6215","e","elianto","#f73b6a7A"," ","-1","0","-10","[]","0","2","","","15558","121","7","3","lose","go","0"
"pit-trial","240","1643128","0.0-126.0","battery-v0.2","","""event"",""trial"",""time""
""fullscreenenter"",""1"",""2030""
","
","
","""event"",""trial"",""time""
""fullscreenenter"",""1"",""2030""
","
","","","-1","","","25","15558","6215","d","elianto","#3366ff99","-1","-1","1","+10","[]","0","2","","","15558","122","8","2","win","no-go","0"
"pit-trial","241","1647983","0.0-127.0","battery-v0.2","","""event"",""trial"",""time""
""fullscreenenter"",""1"",""2030""
","
","
","""event"",""trial"",""time""
""fullscreenenter"",""1"",""2030""
","
","","","-1","","","25","15558","6215","s","elianto","#3366ff99"," ","-1","0","0","[]","0","2","","","15558","123","5","1","win","go","0"
"pit-trial","242","1652839","0.0-128.0","battery-v0.2","","""event"",""trial"",""time""
""fullscreenenter"",""1"",""2030""
","
","
","""event"",""trial"",""time""
""fullscreenenter"",""1"",""2030""
","
","","","-1","","","25","15558","6215","j","elianto","#3366ff99","-1","-1","1","+10","[]","0","2","","","15558","124","9","2","win","no-go","0"
"pit-trial","243","1657693","0.0-129.0","battery-v0.2","","""event"",""trial"",""time""
""fullscreenenter"",""1"",""2030""
","
","
","""event"",""trial"",""time""
""fullscreenenter"",""1"",""2030""
","
","","","-1","","","25","15558","6215","d","elianto","#3366ff99","-1","-1","1","0","[]","0","2","","","15558","125","8","2","win","no-go","1"
"pit-trial","244","1662549","0.0-130.0","battery-v0.2","","""event"",""trial"",""time""
""fullscreenenter"",""1"",""2030""
","
","
","""event"",""trial"",""time""
""fullscreenenter"",""1"",""2030""
","
","","","-1","","","25","15558","6215","j","elianto","#3366ff99","-1","-1","1","+10","[]","0","2","","","15558","126","9","2","win","no-go","0"
"pit-trial","245","1667403","0.0-131.0","battery-v0.2","","""event"",""trial"",""time""
""fullscreenenter"",""1"",""2030""
","
","
","""event"",""trial"",""time""
""fullscreenenter"",""1"",""2030""
","
","","","-1","","","25","15558","6215","e","elianto","#f73b6a7A"," ","-1","0","-10","[]","0","2","","","15558","127","7","3","lose","go","0"
"pit-trial","246","1672258","0.0-132.0","battery-v0.2","","""event"",""trial"",""time""
""fullscreenenter"",""1"",""2030""
","
","
","""event"",""trial"",""time""
""fullscreenenter"",""1"",""2030""
","
","","","-1","","","25","15558","6215","w","elianto","#f73b6a7A","-1","-1","1","0","[]","0","2","","","15558","128","6","4","lose","no-go","0"
"pit-trial","247","1677114","0.0-133.0","battery-v0.2","","""event"",""trial"",""time""
""fullscreenenter"",""1"",""2030""
","
","
","""event"",""trial"",""time""
""fullscreenenter"",""1"",""2030""
","
","","","-1","","","25","15558","6215","j","elianto","#3366ff99","-1","-1","1","+10","[]","0","2","","","15558","129","9","2","win","no-go","0"
"pit-trial","248","1681970","0.0-134.0","battery-v0.2","","""event"",""trial"",""time""
""fullscreenenter"",""1"",""2030""
","
","
","""event"",""trial"",""time""
""fullscreenenter"",""1"",""2030""
","
","","","-1","","","25","15558","6215","w","elianto","#f73b6a7A","-1","-1","1","0","[]","0","2","","","15558","130","6","4","lose","no-go","0"
"pit-trial","249","1686825","0.0-135.0","battery-v0.2","","""event"",""trial"",""time""
""fullscreenenter"",""1"",""2030""
","
","
","""event"",""trial"",""time""
""fullscreenenter"",""1"",""2030""
","
","","","-1","","","25","15558","6215","d","elianto","#3366ff99","-1","-1","1","+10","[]","0","2","","","15558","131","8","2","win","no-go","0"
"pit-trial","250","1691681","0.0-136.0","battery-v0.2","","""event"",""trial"",""time""
""fullscreenenter"",""1"",""2030""
","
","
","""event"",""trial"",""time""
""fullscreenenter"",""1"",""2030""
","
","","","-1","","","25","15558","6215","e","elianto","#f73b6a7A"," ","-1","0","-10","[]","0","2","","","15558","132","7","3","lose","go","0"
"pit-trial","251","1696535","0.0-137.0","battery-v0.2","","""event"",""trial"",""time""
""fullscreenenter"",""1"",""2030""
","
","
","""event"",""trial"",""time""
""fullscreenenter"",""1"",""2030""
","
","","","-1","","","25","15558","6215","e","elianto","#f73b6a7A"," ","-1","0","-10","[]","0","2","","","15558","133","7","3","lose","go","0"
"pit-trial","252","1701390","0.0-138.0","battery-v0.2","","""event"",""trial"",""time""
""fullscreenenter"",""1"",""2030""
","
","
","""event"",""trial"",""time""
""fullscreenenter"",""1"",""2030""
","
","","","-1","","","25","15558","6215","d","elianto","#3366ff99","-1","-1","1","+10","[]","0","2","","","15558","134","8","2","win","no-go","0"
"pit-trial","253","1706245","0.0-139.0","battery-v0.2","","""event"",""trial"",""time""
""fullscreenenter"",""1"",""2030""
","
","
","""event"",""trial"",""time""
""fullscreenenter"",""1"",""2030""
","
","","","-1","","","25","15558","6215","j","elianto","#3366ff99","-1","-1","1","+10","[]","0","2","","","15558","135","9","2","win","no-go","0"
"pit-trial","254","1711099","0.0-140.0","battery-v0.2","","""event"",""trial"",""time""
""fullscreenenter"",""1"",""2030""
","
","
","""event"",""trial"",""time""
""fullscreenenter"",""1"",""2030""
","
","","","-1","","","25","15558","6215","w","elianto","#f73b6a7A","-1","-1","1","0","[]","0","2","","","15558","136","6","4","lose","no-go","0"
"pit-trial","255","1715955","0.0-141.0","battery-v0.2","","""event"",""trial"",""time""
""fullscreenenter"",""1"",""2030""
","
","
","""event"",""trial"",""time""
""fullscreenenter"",""1"",""2030""
","
","","","-1","","","25","15558","6215","w","elianto","#f73b6a7A","-1","-1","1","0","[]","0","2","","","15558","137","6","4","lose","no-go","0"
"pit-trial","256","1720811","0.0-142.0","battery-v0.2","","""event"",""trial"",""time""
""fullscreenenter"",""1"",""2030""
","
","
","""event"",""trial"",""time""
""fullscreenenter"",""1"",""2030""
","
","","","-1","","","25","15558","6215","d","elianto","#3366ff99","-1","-1","1","+10","[]","0","2","","","15558","138","8","2","win","no-go","0"
"pit-trial","257","1725666","0.0-143.0","battery-v0.2","","""event"",""trial"",""time""
""fullscreenenter"",""1"",""2030""
","
","
","""event"",""trial"",""time""
""fullscreenenter"",""1"",""2030""
","
","","","-1","","","25","15558","6215","j","elianto","#3366ff99","-1","-1","1","+10","[]","0","2","","","15558","139","9","2","win","no-go","0"
"pit-trial","258","1730523","0.0-144.0","battery-v0.2","","""event"",""trial"",""time""
""fullscreenenter"",""1"",""2030""
","
","
","""event"",""trial"",""time""
""fullscreenenter"",""1"",""2030""
","
","","","-1","","","25","15558","6215","e","elianto","#f73b6a7A"," ","-1","0","0","[]","0","2","","","15558","140","7","3","lose","go","1"
"pit-instructions","259","2058644","0.0-145.0","battery-v0.2","","""event"",""trial"",""time""
""fullscreenenter"",""1"",""2030""
","
","
","""event"",""trial"",""time""
""fullscreenenter"",""1"",""2030""
","
","","[{""page_index"":0,""viewing_time"":320033.2000000477},{""page_index"":1,""viewing_time"":8075.899999976158}]","328109.39999997616","","","","","","","","","","","","","","","","","","","","","","","",""
"pit-trial","260","2062083","0.0-146.0","battery-v0.2","","""event"",""trial"",""time""
""fullscreenenter"",""1"",""2030""
","
","
","""event"",""trial"",""time""
""fullscreenenter"",""1"",""2030""
","
","","","577.0999999046326","","","25","15558","6215","r","elianto","#3366ff99","-1"," ","0","0","[1432.3999999761581]","1","3","","","15558","141","1","2","win","no-go","0"
"pit-trial","261","2066092","0.0-147.0","battery-v0.2","","""event"",""trial"",""time""
""fullscreenenter"",""1"",""2030""
","
","
","""event"",""trial"",""time""
""fullscreenenter"",""1"",""2030""
","
","","","1152.6000000238419","","","25","15558","6215","m","elianto","#f73b6a7A"," "," ","1","-10","[2004]","1","3","","","15558","142","0","3","lose","go","1"
"pit-trial","262","2069755","0.0-148.0","battery-v0.2","","""event"",""trial"",""time""
""fullscreenenter"",""1"",""2030""
","
","
","""event"",""trial"",""time""
""fullscreenenter"",""1"",""2030""
","
","","","807.6000000238419","","","25","15558","6215","y","elianto","#f73b6a7A"," "," ","1","0","[1657.7000000476837]","1","3","","","15558","143","2","3","lose","go","0"
"pit-trial","263","2073821","0.0-149.0","battery-v0.2","","""event"",""trial"",""time""
""fullscreenenter"",""1"",""2030""
","
","
","""event"",""trial"",""time""
""fullscreenenter"",""1"",""2030""
","
","","","1210.6999999284744","","","25","15558","6215","h","elianto","#f73b6a7A","-1"," ","0","-10","[2062.7999999523163]","1","3","","","15558","144","3","4","lose","no-go","0"
"pit-trial","264","2077952","0.0-150.0","battery-v0.2","","""event"",""trial"",""time""
""fullscreenenter"",""1"",""2030""
","
","
","""event"",""trial"",""time""
""fullscreenenter"",""1"",""2030""
","
","","","1274.6000000238419","","","25","15558","6215","m","elianto","#f73b6a7A"," "," ","1","0","[2125.8000000715256]","1","3","","","15558","145","0","3","lose","go","0"
"pit-trial","265","2082807","0.0-151.0","battery-v0.2","","""event"",""trial"",""time""
""fullscreenenter"",""1"",""2030""
","
","
","""event"",""trial"",""time""
""fullscreenenter"",""1"",""2030""
","
","","","-1","","","25","15558","6215","h","elianto","#f73b6a7A","-1","-1","1","0","[]","0","3","","","15558","146","3","4","lose","no-go","0"
"pit-trial","266","2086589","0.0-152.0","battery-v0.2","","""event"",""trial"",""time""
""fullscreenenter"",""1"",""2030""
","
","
","""event"",""trial"",""time""
""fullscreenenter"",""1"",""2030""
","
","","","924.8999999761581","","","25","15558","6215","y","elianto","#f73b6a7A"," "," ","1","0","[1778.5]","1","3","","","15558","147","2","3","lose","go","0"
