"trial_type","trial_index","time_elapsed","internal_node_id","task_version","subject_id","interactions","blur_events","focus_events","fullscreenenter_events","fullscreenexit_events","success","view_history","rt","responses","num_errors","age","subject","participantId","rune","rune_set","hex","correct","choice","accuracy","outcome","keys","total_keys","block","practice","value","sub","trial","stimulus","robot","valence","action","sham"
"pavlovia","0","6","0.0-0.0","battery-v0.2","","""event"",""trial"",""time""
""fullscreenenter"",""1"",""6099""
","
","
","""event"",""trial"",""time""
""fullscreenenter"",""1"",""6099""
","
","","","","","","","","","","","","","","","","","","","","","","","","","","",""
"fullscreen","1","7094","0.0-1.0","battery-v0.2","","""event"",""trial"",""time""
""fullscreenenter"",""1"",""6099""
","
","
","""event"",""trial"",""time""
""fullscreenenter"",""1"",""6099""
","
","true","","","","","","","","","","","","","","","","","","","","","","","","","",""
"pit-instructions","2","10745","0.0-2.0-0.0","battery-v0.2","","""event"",""trial"",""time""
""fullscreenenter"",""1"",""6099""
","
","
","""event"",""trial"",""time""
""fullscreenenter"",""1"",""6099""
","
","","[{""page_index"":0,""viewing_time"":3647.400000035763}]","3647.699999988079","","","","","","","","","","","","","","","","","","","","","","","",""
"pit-comprehension","3","14921","0.0-2.0-1.0-0.0","battery-v0.2","","""event"",""trial"",""time""
""fullscreenenter"",""1"",""6099""
","
","
","""event"",""trial"",""time""
""fullscreenenter"",""1"",""6099""
","
","","","4173.899999976158","[""shark""]","0","12","19469","6158","","","","","","","","","","","","","","","","","","",""
"pit-instructions","4","16368","0.0-2.0-1.0-1.0","battery-v0.2","","""event"",""trial"",""time""
""fullscreenenter"",""1"",""6099""
","
","
","""event"",""trial"",""time""
""fullscreenenter"",""1"",""6099""
","
","","[{""page_index"":0,""viewing_time"":1429.0999999642372}]","1429.300000011921","","","","","","","","","","","","","","","","","","","","","","","",""
"pit-comprehension","5","18841","0.0-2.0-2.0-0.0","battery-v0.2","","""event"",""trial"",""time""
""fullscreenenter"",""1"",""6099""
","
","
","""event"",""trial"",""time""
""fullscreenenter"",""1"",""6099""
","
","","","2471.100000023842","[""tiger""]","0","12","19469","6158","","","","","","","","","","","","","","","","","","",""
"pit-instructions","6","24273","0.0-2.0-2.0-1.0","battery-v0.2","","""event"",""trial"",""time""
""fullscreenenter"",""1"",""6099""
","
","
","""event"",""trial"",""time""
""fullscreenenter"",""1"",""6099""
","
","","[{""page_index"":0,""viewing_time"":5429.900000035763}]","5430.100000023842","","","","","","","","","","","","","","","","","","","","","","","",""
"pit-instructions","7","166521","0.0-2.0-3.0","battery-v0.2","","""event"",""trial"",""time""
""fullscreenenter"",""1"",""6099""
","
","
","""event"",""trial"",""time""
""fullscreenenter"",""1"",""6099""
","
","","[{""page_index"":0,""viewing_time"":17662},{""page_index"":1,""viewing_time"":16504.19999998808},{""page_index"":2,""viewing_time"":6536},{""page_index"":3,""viewing_time"":6407.900000035763},{""page_index"":4,""viewing_time"":9911.699999988079},{""page_index"":5,""viewing_time"":10407.899999976158},{""page_index"":6,""viewing_time"":9976.100000023842},{""page_index"":7,""viewing_time"":15032.300000011921},{""page_index"":8,""viewing_time"":7304.399999976158},{""page_index"":9,""viewing_time"":10567.600000023842},{""page_index"":10,""viewing_time"":7896.699999988079},{""page_index"":11,""viewing_time"":9943.699999988079},{""page_index"":12,""viewing_time"":6647.699999988079},{""page_index"":13,""viewing_time"":7447.300000011921}]","142245.80000001192","","","","","","","","","","","","","","","","","","","","","","","",""
"pit-trial","8","170707","0.0-2.0-4.0-0.0","battery-v0.2","","""event"",""trial"",""time""
""fullscreenenter"",""1"",""6099""
","
","
","""event"",""trial"",""time""
""fullscreenenter"",""1"",""6099""
","
","","","1310.5","","","12","19469","6158","&#9784;","elianto","#FFFFF080"," "," ","1","&#10004","[2170]","1","0","0","","","","","","","",""
"pit-trial","9","174777","0.0-2.0-4.1-0.1","battery-v0.2","","""event"",""trial"",""time""
""fullscreenenter"",""1"",""6099""
","
","
","""event"",""trial"",""time""
""fullscreenenter"",""1"",""6099""
","
","","","1204.699999988079","","","12","19469","6158","&#9784;","elianto","#FFFFF080"," "," ","1","&#10004","[2059.300000011921]","1","0","0","","","","","","","",""
"pit-trial","10","178357","0.0-2.0-4.2-0.2","battery-v0.2","","""event"",""trial"",""time""
""fullscreenenter"",""1"",""6099""
","
","
","""event"",""trial"",""time""
""fullscreenenter"",""1"",""6099""
","
","","","713.1999999880791","","","12","19469","6158","&#9784;","elianto","#FFFFF080"," "," ","1","&#10004","[1575.199999988079]","1","0","0","","","","","","","",""
"pit-trial","11","182777","0.0-2.0-4.3-0.3","battery-v0.2","","""event"",""trial"",""time""
""fullscreenenter"",""1"",""6099""
","
","
","""event"",""trial"",""time""
""fullscreenenter"",""1"",""6099""
","
","","","1561.800000011921","","","12","19469","6158","&#9784;","elianto","#FFFFF080"," "," ","1","&#10004","[2412.100000023842]","1","0","0","","","","","","","",""
"pit-trial","12","187646","0.0-2.0-4.4-0.4","battery-v0.2","","""event"",""trial"",""time""
""fullscreenenter"",""1"",""6099""
","
","
","""event"",""trial"",""time""
""fullscreenenter"",""1"",""6099""
","
","","","-1","","","12","19469","6158","&#9784;","elianto","#FFFFF080"," ","-1","0","&#10060","[]","0","0","0","","","","","","","",""
"pit-trial","13","191367","0.0-2.0-4.5-0.5","battery-v0.2","","""event"",""trial"",""time""
""fullscreenenter"",""1"",""6099""
","
","
","""event"",""trial"",""time""
""fullscreenenter"",""1"",""6099""
","
","","","863.3999999761581","","","12","19469","6158","&#9784;","elianto","#FFFFF080"," "," ","1","&#10004","[1713.699999988079]","1","0","0","","","","","","","",""
"pit-trial","14","196221","0.0-2.0-4.6-0.6","battery-v0.2","","""event"",""trial"",""time""
""fullscreenenter"",""1"",""6099""
","
","
","""event"",""trial"",""time""
""fullscreenenter"",""1"",""6099""
","
","","","-1","","","12","19469","6158","&#9784;","elianto","#FFFFF080"," ","-1","0","&#10060","[]","0","0","0","","","","","","","",""
"pit-instructions","15","214018","0.0-2.0-4.6-1.6-0.6","battery-v0.2","","""event"",""trial"",""time""
""fullscreenenter"",""1"",""6099""
","
","
","""event"",""trial"",""time""
""fullscreenenter"",""1"",""6099""
","
","","[{""page_index"":0,""viewing_time"":8154.199999988079},{""page_index"":1,""viewing_time"":9640.699999988079}]","17795.099999964237","","","","","","","","","","","","","","","","","","","","","","","",""
"pit-trial","16","217430","0.0-2.0-4.7-0.7","battery-v0.2","","""event"",""trial"",""time""
""fullscreenenter"",""1"",""6099""
","
","
","""event"",""trial"",""time""
""fullscreenenter"",""1"",""6099""
","
","","","549","","","12","19469","6158","&#9784;","elianto","#FFFFF080"," "," ","1","&#10004","[1400.199999988079]","1","0","0","","","","","","","",""
"pit-trial","17","220870","0.0-2.0-4.8-0.8","battery-v0.2","","""event"",""trial"",""time""
""fullscreenenter"",""1"",""6099""
","
","
","""event"",""trial"",""time""
""fullscreenenter"",""1"",""6099""
","
","","","566.9000000357628","","","12","19469","6158","&#9784;","elianto","#FFFFF080"," "," ","1","&#10004","[1418.300000011921]","1","0","0","","","","","","","",""
"pit-trial","18","224530","0.0-2.0-4.9-0.9","battery-v0.2","","""event"",""trial"",""time""
""fullscreenenter"",""1"",""6099""
","
","
","""event"",""trial"",""time""
""fullscreenenter"",""1"",""6099""
","
","","","784.3000000119209","","","12","19469","6158","&#9784;","elianto","#FFFFF080"," "," ","1","&#10004","[1646.199999988079]","1","0","0","","","","","","","",""
"pit-instructions","19","268833","0.0-2.0-5.0","battery-v0.2","","""event"",""trial"",""time""
""fullscreenenter"",""1"",""6099""
","
","
","""event"",""trial"",""time""
""fullscreenenter"",""1"",""6099""
","
","","[{""page_index"":0,""viewing_time"":10044.299999952316},{""page_index"":1,""viewing_time"":13776.400000035763},{""page_index"":2,""viewing_time"":12583.399999976158},{""page_index"":3,""viewing_time"":7895.600000023842}]","44299.89999997616","","","","","","","","","","","","","","","","","","","","","","","",""
"pit-trial","20","273710","0.0-2.0-6.0-0.0","battery-v0.2","","""event"",""trial"",""time""
""fullscreenenter"",""1"",""6099""
","
","
","""event"",""trial"",""time""
""fullscreenenter"",""1"",""6099""
","
","","","-1","","","12","19469","6158","&#9854;","elianto","#FFFFF080","-1","-1","1","&#10004","[]","0","0","1","","","","","","","",""
"pit-trial","21","278590","0.0-2.0-6.1-0.1","battery-v0.2","","""event"",""trial"",""time""
""fullscreenenter"",""1"",""6099""
","
","
","""event"",""trial"",""time""
""fullscreenenter"",""1"",""6099""
","
","","","-1","","","12","19469","6158","&#9854;","elianto","#FFFFF080","-1","-1","1","&#10004","[]","0","0","1","","","","","","","",""
"pit-trial","22","283480","0.0-2.0-6.2-0.2","battery-v0.2","","""event"",""trial"",""time""
""fullscreenenter"",""1"",""6099""
","
","
","""event"",""trial"",""time""
""fullscreenenter"",""1"",""6099""
","
","","","-1","","","12","19469","6158","&#9854;","elianto","#FFFFF080","-1","-1","1","&#10004","[]","0","0","1","","","","","","","",""
"pit-trial","23","288339","0.0-2.0-6.3-0.3","battery-v0.2","","""event"",""trial"",""time""
""fullscreenenter"",""1"",""6099""
","
","
","""event"",""trial"",""time""
""fullscreenenter"",""1"",""6099""
","
","","","-1","","","12","19469","6158","&#9854;","elianto","#FFFFF080","-1","-1","1","&#10004","[]","0","0","1","","","","","","","",""
"pit-trial","24","293230","0.0-2.0-6.4-0.4","battery-v0.2","","""event"",""trial"",""time""
""fullscreenenter"",""1"",""6099""
","
","
","""event"",""trial"",""time""
""fullscreenenter"",""1"",""6099""
","
","","","-1","","","12","19469","6158","&#9854;","elianto","#FFFFF080","-1","-1","1","&#10004","[]","0","0","1","","","","","","","",""
"pit-instructions","25","492240","0.0-2.0-7.0","battery-v0.2","","""event"",""trial"",""time""
""fullscreenenter"",""1"",""6099""
","
","
","""event"",""trial"",""time""
""fullscreenenter"",""1"",""6099""
","
","","[{""page_index"":0,""viewing_time"":7256},{""page_index"":1,""viewing_time"":6912.099999964237},{""page_index"":2,""viewing_time"":10111.900000035763},{""page_index"":3,""viewing_time"":7520.399999976158},{""page_index"":4,""viewing_time"":6952.5},{""page_index"":5,""viewing_time"":30334.900000035763},{""page_index"":6,""viewing_time"":10032.099999964237},{""page_index"":7,""viewing_time"":9064.5},{""page_index"":8,""viewing_time"":7767.800000011921},{""page_index"":9,""viewing_time"":7016.300000011921},{""page_index"":10,""viewing_time"":8071.699999988079},{""page_index"":11,""viewing_time"":17959.69999998808},{""page_index"":12,""viewing_time"":12264.300000011921},{""page_index"":13,""viewing_time"":6583.800000011921},{""page_index"":14,""viewing_time"":24640.399999976158},{""page_index"":15,""viewing_time"":8039.699999988079},{""page_index"":16,""viewing_time"":10840.800000011921},{""page_index"":17,""viewing_time"":7647}]","199016.09999996424","","","","","","","","","","","","","","","","","","","","","","","",""
"pit-trial","26","496611","0.0-2.0-8.0-0.0","battery-v0.2","","""event"",""trial"",""time""
""fullscreenenter"",""1"",""6099""
","
","
","""event"",""trial"",""time""
""fullscreenenter"",""1"",""6099""
","
","","","1504.199999988079","","","12","19469","6158","&#9776;","elianto","#3366ff99"," "," ","1","+10","[2360.800000011921]","1","0","1","","","","","","","",""
"pit-trial","27","500621","0.0-2.0-8.0-1.0","battery-v0.2","","""event"",""trial"",""time""
""fullscreenenter"",""1"",""6099""
","
","
","""event"",""trial"",""time""
""fullscreenenter"",""1"",""6099""
","
","","","1145","","","12","19469","6158","&#9776;","elianto","#3366ff99"," "," ","1","+10","[2006.5]","1","0","1","","","","","","","",""
"pit-trial","28","504418","0.0-2.0-8.0-2.0","battery-v0.2","","""event"",""trial"",""time""
""fullscreenenter"",""1"",""6099""
","
","
","""event"",""trial"",""time""
""fullscreenenter"",""1"",""6099""
","
","","","917.6000000238419","","","12","19469","6158","&#9776;","elianto","#3366ff99"," "," ","1","+10","[1769.7000000476837]","1","0","1","","","","","","","",""
"pit-trial","29","508348","0.0-2.0-8.0-3.0","battery-v0.2","","""event"",""trial"",""time""
""fullscreenenter"",""1"",""6099""
","
","
","""event"",""trial"",""time""
""fullscreenenter"",""1"",""6099""
","
","","","1054.0999999642372","","","12","19469","6158","&#9776;","elianto","#3366ff99"," "," ","1","0","[1907]","1","0","1","","","","","","","",""
"pit-trial","30","512088","0.0-2.0-8.0-4.0","battery-v0.2","","""event"",""trial"",""time""
""fullscreenenter"",""1"",""6099""
","
","
","""event"",""trial"",""time""
""fullscreenenter"",""1"",""6099""
","
","","","881.5","","","12","19469","6158","&#9776;","elianto","#3366ff99"," "," ","1","+10","[1738.5999999642372]","1","0","1","","","","","","","",""
"pit-trial","31","516738","0.0-2.0-8.1-0.1","battery-v0.2","","""event"",""trial"",""time""
""fullscreenenter"",""1"",""6099""
","
","
","""event"",""trial"",""time""
""fullscreenenter"",""1"",""6099""
","
","","","1781.5","","","12","19469","6158","&#9776;","elianto","#3366ff99"," "," ","1","+10","[2640.899999976158]","1","0","1","","","","","","","",""
"pit-trial","32","521486","0.0-2.0-8.1-1.1","battery-v0.2","","""event"",""trial"",""time""
""fullscreenenter"",""1"",""6099""
","
","
","""event"",""trial"",""time""
""fullscreenenter"",""1"",""6099""
","
","","","1895.3999999761581","","","12","19469","6158","&#9776;","elianto","#3366ff99"," "," ","1","+10","[2745.7999999523163]","1","0","1","","","","","","","",""
"pit-trial","33","525537","0.0-2.0-8.1-2.1","battery-v0.2","","""event"",""trial"",""time""
""fullscreenenter"",""1"",""6099""
","
","
","""event"",""trial"",""time""
""fullscreenenter"",""1"",""6099""
","
","","","1198","","","12","19469","6158","&#9776;","elianto","#3366ff99"," "," ","1","+10","[2048.5]","1","0","1","","","","","","","",""
"pit-trial","34","529452","0.0-2.0-8.1-3.1","battery-v0.2","","""event"",""trial"",""time""
""fullscreenenter"",""1"",""6099""
","
","
","""event"",""trial"",""time""
""fullscreenenter"",""1"",""6099""
","
","","","1062.6000000238419","","","12","19469","6158","&#9776;","elianto","#3366ff99"," "," ","1","0","[1913]","1","0","1","","","","","","","",""
"pit-trial","35","533894","0.0-2.0-8.1-4.1","battery-v0.2","","""event"",""trial"",""time""
""fullscreenenter"",""1"",""6099""
","
","
","""event"",""trial"",""time""
""fullscreenenter"",""1"",""6099""
","
","","","1589.7999999523163","","","12","19469","6158","&#9776;","elianto","#3366ff99"," "," ","1","+10","[2440.399999976158]","1","0","1","","","","","","","",""
"pit-trial","36","538095","0.0-2.0-8.2-0.2","battery-v0.2","","""event"",""trial"",""time""
""fullscreenenter"",""1"",""6099""
","
","
","""event"",""trial"",""time""
""fullscreenenter"",""1"",""6099""
","
","","","1347.199999988079","","","12","19469","6158","&#9776;","elianto","#3366ff99"," "," ","1","+10","[2197.800000011921]","1","0","1","","","","","","","",""
"pit-trial","37","542399","0.0-2.0-8.2-1.2","battery-v0.2","","""event"",""trial"",""time""
""fullscreenenter"",""1"",""6099""
","
","
","""event"",""trial"",""time""
""fullscreenenter"",""1"",""6099""
","
","","","1450.9000000357628","","","12","19469","6158","&#9776;","elianto","#3366ff99"," "," ","1","+10","[2301.800000011921]","1","0","1","","","","","","","",""
"pit-trial","38","545986","0.0-2.0-8.2-2.2","battery-v0.2","","""event"",""trial"",""time""
""fullscreenenter"",""1"",""6099""
","
","
","""event"",""trial"",""time""
""fullscreenenter"",""1"",""6099""
","
","","","733.1999999880791","","","12","19469","6158","&#9776;","elianto","#3366ff99"," "," ","1","+10","[1584.6000000238419]","1","0","1","","","","","","","",""
"pit-trial","39","549882","0.0-2.0-8.2-3.2","battery-v0.2","","""event"",""trial"",""time""
""fullscreenenter"",""1"",""6099""
","
","
","""event"",""trial"",""time""
""fullscreenenter"",""1"",""6099""
","
","","","1042.5","","","12","19469","6158","&#9776;","elianto","#3366ff99"," "," ","1","0","[1893.5]","1","0","1","","","","","","","",""
"pit-trial","40","554736","0.0-2.0-8.2-4.2","battery-v0.2","","""event"",""trial"",""time""
""fullscreenenter"",""1"",""6099""
","
","
","""event"",""trial"",""time""
""fullscreenenter"",""1"",""6099""
","
","","","-1","","","12","19469","6158","&#9776;","elianto","#3366ff99"," ","-1","0","0","[3115.199999988079]","1","0","1","","","","","","","",""
"call-function","41","554737","0.0-2.0-9.0","battery-v0.2","","""event"",""trial"",""time""
""fullscreenenter"",""1"",""6099""
","
","
","""event"",""trial"",""time""
""fullscreenenter"",""1"",""6099""
","
","","","","","","","","","","","","","","","","","","","","","","","","","","",""
"pit-instructions","42","622472","0.0-2.0-10.0","battery-v0.2","","""event"",""trial"",""time""
""fullscreenenter"",""1"",""6099""
","
","
","""event"",""trial"",""time""
""fullscreenenter"",""1"",""6099""
","
","","[{""page_index"":0,""viewing_time"":14110.100000023842},{""page_index"":1,""viewing_time"":25367.899999976158},{""page_index"":2,""viewing_time"":10943.699999988079},{""page_index"":3,""viewing_time"":9959.800000011921},{""page_index"":4,""viewing_time"":7351.900000035763}]","67733.60000002384","","","","","","","","","","","","","","","","","","","","","","","",""
"pit-trial","43","627354","0.0-2.0-11.0-0.0","battery-v0.2","","""event"",""trial"",""time""
""fullscreenenter"",""1"",""6099""
","
","
","""event"",""trial"",""time""
""fullscreenenter"",""1"",""6099""
","
","","","-1","","","12","19469","6158","&#9761;","elianto","#3366ff99","-1","-1","1","+10","[]","0","0","2","","","","","","","",""
"pit-trial","44","632234","0.0-2.0-11.0-1.0","battery-v0.2","","""event"",""trial"",""time""
""fullscreenenter"",""1"",""6099""
","
","
","""event"",""trial"",""time""
""fullscreenenter"",""1"",""6099""
","
","","","-1","","","12","19469","6158","&#9761;","elianto","#3366ff99","-1","-1","1","+10","[]","0","0","2","","","","","","","",""
"pit-trial","45","637104","0.0-2.0-11.0-2.0","battery-v0.2","","""event"",""trial"",""time""
""fullscreenenter"",""1"",""6099""
","
","
","""event"",""trial"",""time""
""fullscreenenter"",""1"",""6099""
","
","","","-1","","","12","19469","6158","&#9761;","elianto","#3366ff99","-1","-1","1","+10","[]","0","0","2","","","","","","","",""
"pit-trial","46","641983","0.0-2.0-11.0-3.0","battery-v0.2","","""event"",""trial"",""time""
""fullscreenenter"",""1"",""6099""
","
","
","""event"",""trial"",""time""
""fullscreenenter"",""1"",""6099""
","
","","","-1","","","12","19469","6158","&#9761;","elianto","#3366ff99","-1","-1","1","0","[]","0","0","2","","","","","","","",""
"pit-trial","47","646854","0.0-2.0-11.0-4.0","battery-v0.2","","""event"",""trial"",""time""
""fullscreenenter"",""1"",""6099""
","
","
","""event"",""trial"",""time""
""fullscreenenter"",""1"",""6099""
","
","","","-1","","","12","19469","6158","&#9761;","elianto","#3366ff99","-1","-1","1","+10","[]","0","0","2","","","","","","","",""
"pit-trial","48","651743","0.0-2.0-11.1-0.1","battery-v0.2","","""event"",""trial"",""time""
""fullscreenenter"",""1"",""6099""
","
","
","""event"",""trial"",""time""
""fullscreenenter"",""1"",""6099""
","
","","","-1","","","12","19469","6158","&#9761;","elianto","#3366ff99","-1","-1","1","+10","[]","0","0","2","","","","","","","",""
"pit-trial","49","656602","0.0-2.0-11.1-1.1","battery-v0.2","","""event"",""trial"",""time""
""fullscreenenter"",""1"",""6099""
","
","
","""event"",""trial"",""time""
""fullscreenenter"",""1"",""6099""
","
","","","-1","","","12","19469","6158","&#9761;","elianto","#3366ff99","-1","-1","1","+10","[]","0","0","2","","","","","","","",""
"pit-trial","50","661455","0.0-2.0-11.1-2.1","battery-v0.2","","""event"",""trial"",""time""
""fullscreenenter"",""1"",""6099""
","
","
","""event"",""trial"",""time""
""fullscreenenter"",""1"",""6099""
","
","","","-1","","","12","19469","6158","&#9761;","elianto","#3366ff99","-1","-1","1","+10","[]","0","0","2","","","","","","","",""
"pit-trial","51","666308","0.0-2.0-11.1-3.1","battery-v0.2","","""event"",""trial"",""time""
""fullscreenenter"",""1"",""6099""
","
","
","""event"",""trial"",""time""
""fullscreenenter"",""1"",""6099""
","
","","","-1","","","12","19469","6158","&#9761;","elianto","#3366ff99","-1","-1","1","0","[]","0","0","2","","","","","","","",""
"pit-trial","52","671160","0.0-2.0-11.1-4.1","battery-v0.2","","""event"",""trial"",""time""
""fullscreenenter"",""1"",""6099""
","
","
","""event"",""trial"",""time""
""fullscreenenter"",""1"",""6099""
","
","","","-1","","","12","19469","6158","&#9761;","elianto","#3366ff99","-1","-1","1","+10","[]","0","0","2","","","","","","","",""
"pit-trial","53","676012","0.0-2.0-11.2-0.2","battery-v0.2","","""event"",""trial"",""time""
""fullscreenenter"",""1"",""6099""
","
","
","""event"",""trial"",""time""
""fullscreenenter"",""1"",""6099""
","
","","","-1","","","12","19469","6158","&#9761;","elianto","#3366ff99","-1","-1","1","+10","[]","0","0","2","","","","","","","",""
"pit-trial","54","680865","0.0-2.0-11.2-1.2","battery-v0.2","","""event"",""trial"",""time""
""fullscreenenter"",""1"",""6099""
","
","
","""event"",""trial"",""time""
""fullscreenenter"",""1"",""6099""
","
","","","-1","","","12","19469","6158","&#9761;","elianto","#3366ff99","-1","-1","1","+10","[]","0","0","2","","","","","","","",""
"pit-trial","55","685717","0.0-2.0-11.2-2.2","battery-v0.2","","""event"",""trial"",""time""
""fullscreenenter"",""1"",""6099""
","
","
","""event"",""trial"",""time""
""fullscreenenter"",""1"",""6099""
","
","","","-1","","","12","19469","6158","&#9761;","elianto","#3366ff99","-1","-1","1","+10","[]","0","0","2","","","","","","","",""
"pit-trial","56","690571","0.0-2.0-11.2-3.2","battery-v0.2","","""event"",""trial"",""time""
""fullscreenenter"",""1"",""6099""
","
","
","""event"",""trial"",""time""
""fullscreenenter"",""1"",""6099""
","
","","","-1","","","12","19469","6158","&#9761;","elianto","#3366ff99","-1","-1","1","0","[]","0","0","2","","","","","","","",""
"pit-trial","57","695424","0.0-2.0-11.2-4.2","battery-v0.2","","""event"",""trial"",""time""
""fullscreenenter"",""1"",""6099""
","
","
","""event"",""trial"",""time""
""fullscreenenter"",""1"",""6099""
","
","","","-1","","","12","19469","6158","&#9761;","elianto","#3366ff99","-1","-1","1","+10","[]","0","0","2","","","","","","","",""
"pit-trial","58","700278","0.0-2.0-11.3-0.3","battery-v0.2","","""event"",""trial"",""time""
""fullscreenenter"",""1"",""6099""
","
","
","""event"",""trial"",""time""
""fullscreenenter"",""1"",""6099""
","
","","","-1","","","12","19469","6158","&#9761;","elianto","#3366ff99","-1","-1","1","+10","[]","0","0","2","","","","","","","",""
"pit-trial","59","705131","0.0-2.0-11.3-1.3","battery-v0.2","","""event"",""trial"",""time""
""fullscreenenter"",""1"",""6099""
","
","
","""event"",""trial"",""time""
""fullscreenenter"",""1"",""6099""
","
","","","-1","","","12","19469","6158","&#9761;","elianto","#3366ff99","-1","-1","1","+10","[]","0","0","2","","","","","","","",""
"pit-trial","60","709984","0.0-2.0-11.3-2.3","battery-v0.2","","""event"",""trial"",""time""
""fullscreenenter"",""1"",""6099""
","
","
","""event"",""trial"",""time""
""fullscreenenter"",""1"",""6099""
","
","","","-1","","","12","19469","6158","&#9761;","elianto","#3366ff99","-1","-1","1","+10","[]","0","0","2","","","","","","","",""
"pit-trial","61","714837","0.0-2.0-11.3-3.3","battery-v0.2","","""event"",""trial"",""time""
""fullscreenenter"",""1"",""6099""
","
","
","""event"",""trial"",""time""
""fullscreenenter"",""1"",""6099""
","
","","","-1","","","12","19469","6158","&#9761;","elianto","#3366ff99","-1","-1","1","0","[]","0","0","2","","","","","","","",""
"pit-trial","62","719691","0.0-2.0-11.3-4.3","battery-v0.2","","""event"",""trial"",""time""
""fullscreenenter"",""1"",""6099""
","
","
","""event"",""trial"",""time""
""fullscreenenter"",""1"",""6099""
","
","","","-1","","","12","19469","6158","&#9761;","elianto","#3366ff99","-1","-1","1","+10","[]","0","0","2","","","","","","","",""
"call-function","63","719692","0.0-2.0-12.0","battery-v0.2","","""event"",""trial"",""time""
""fullscreenenter"",""1"",""6099""
","
","
","""event"",""trial"",""time""
""fullscreenenter"",""1"",""6099""
","
","","","","","","","","","","","","","","","","","","","","","","","","","","",""
"pit-instructions","64","767345","0.0-2.0-13.0","battery-v0.2","","""event"",""trial"",""time""
""fullscreenenter"",""1"",""6099""
","
","
","""event"",""trial"",""time""
""fullscreenenter"",""1"",""6099""
","
","","[{""page_index"":0,""viewing_time"":10283.699999988079},{""page_index"":1,""viewing_time"":7943.900000035763},{""page_index"":2,""viewing_time"":3664},{""page_index"":3,""viewing_time"":17120.30000001192},{""page_index"":4,""viewing_time"":8640.299999952316}]","47652.19999998808","","","","","","","","","","","","","","","","","","","","","","","",""
"pit-trial","65","772201","0.0-2.0-14.0-0.0","battery-v0.2","","""event"",""trial"",""time""
""fullscreenenter"",""1"",""6099""
","
","
","""event"",""trial"",""time""
""fullscreenenter"",""1"",""6099""
","
","","","-1","","","12","19469","6158","&#9826;","elianto","#f73b6a7A","-1","-1","1","0","[]","0","0","3","","","","","","","",""
"pit-trial","66","777071","0.0-2.0-14.0-1.0","battery-v0.2","","""event"",""trial"",""time""
""fullscreenenter"",""1"",""6099""
","
","
","""event"",""trial"",""time""
""fullscreenenter"",""1"",""6099""
","
","","","-1","","","12","19469","6158","&#9826;","elianto","#f73b6a7A","-1","-1","1","0","[]","0","0","3","","","","","","","",""
"pit-trial","67","781951","0.0-2.0-14.0-2.0","battery-v0.2","","""event"",""trial"",""time""
""fullscreenenter"",""1"",""6099""
","
","
","""event"",""trial"",""time""
""fullscreenenter"",""1"",""6099""
","
","","","-1","","","12","19469","6158","&#9826;","elianto","#f73b6a7A","-1","-1","1","0","[]","0","0","3","","","","","","","",""
"pit-trial","68","786811","0.0-2.0-14.0-3.0","battery-v0.2","","""event"",""trial"",""time""
""fullscreenenter"",""1"",""6099""
","
","
","""event"",""trial"",""time""
""fullscreenenter"",""1"",""6099""
","
","","","-1","","","12","19469","6158","&#9826;","elianto","#f73b6a7A","-1","-1","1","-10","[]","0","0","3","","","","","","","",""
"pit-trial","69","791681","0.0-2.0-14.0-4.0","battery-v0.2","","""event"",""trial"",""time""
""fullscreenenter"",""1"",""6099""
","
","
","""event"",""trial"",""time""
""fullscreenenter"",""1"",""6099""
","
","","","-1","","","12","19469","6158","&#9826;","elianto","#f73b6a7A","-1","-1","1","0","[]","0","0","3","","","","","","","",""
"pit-trial","70","796534","0.0-2.0-14.1-0.1","battery-v0.2","","""event"",""trial"",""time""
""fullscreenenter"",""1"",""6099""
","
","
","""event"",""trial"",""time""
""fullscreenenter"",""1"",""6099""
","
","","","-1","","","12","19469","6158","&#9826;","elianto","#f73b6a7A","-1","-1","1","0","[]","0","0","3","","","","","","","",""
"pit-trial","71","801387","0.0-2.0-14.1-1.1","battery-v0.2","","""event"",""trial"",""time""
""fullscreenenter"",""1"",""6099""
","
","
","""event"",""trial"",""time""
""fullscreenenter"",""1"",""6099""
","
","","","-1","","","12","19469","6158","&#9826;","elianto","#f73b6a7A","-1","-1","1","0","[]","0","0","3","","","","","","","",""
"pit-trial","72","806240","0.0-2.0-14.1-2.1","battery-v0.2","","""event"",""trial"",""time""
""fullscreenenter"",""1"",""6099""
","
","
","""event"",""trial"",""time""
""fullscreenenter"",""1"",""6099""
","
","","","-1","","","12","19469","6158","&#9826;","elianto","#f73b6a7A","-1","-1","1","0","[]","0","0","3","","","","","","","",""
"pit-trial","73","811095","0.0-2.0-14.1-3.1","battery-v0.2","","""event"",""trial"",""time""
""fullscreenenter"",""1"",""6099""
","
","
","""event"",""trial"",""time""
""fullscreenenter"",""1"",""6099""
","
","","","-1","","","12","19469","6158","&#9826;","elianto","#f73b6a7A","-1","-1","1","-10","[]","0","0","3","","","","","","","",""
"pit-trial","74","815948","0.0-2.0-14.1-4.1","battery-v0.2","","""event"",""trial"",""time""
""fullscreenenter"",""1"",""6099""
","
","
","""event"",""trial"",""time""
""fullscreenenter"",""1"",""6099""
","
","","","-1","","","12","19469","6158","&#9826;","elianto","#f73b6a7A","-1","-1","1","0","[]","0","0","3","","","","","","","",""
"pit-trial","75","820801","0.0-2.0-14.2-0.2","battery-v0.2","","""event"",""trial"",""time""
""fullscreenenter"",""1"",""6099""
","
","
","""event"",""trial"",""time""
""fullscreenenter"",""1"",""6099""
","
","","","-1","","","12","19469","6158","&#9826;","elianto","#f73b6a7A","-1","-1","1","0","[]","0","0","3","","","","","","","",""
"pit-trial","76","825653","0.0-2.0-14.2-1.2","battery-v0.2","","""event"",""trial"",""time""
""fullscreenenter"",""1"",""6099""
","
","
","""event"",""trial"",""time""
""fullscreenenter"",""1"",""6099""
","
","","","-1","","","12","19469","6158","&#9826;","elianto","#f73b6a7A","-1","-1","1","0","[]","0","0","3","","","","","","","",""
"pit-trial","77","830507","0.0-2.0-14.2-2.2","battery-v0.2","","""event"",""trial"",""time""
""fullscreenenter"",""1"",""6099""
","
","
","""event"",""trial"",""time""
""fullscreenenter"",""1"",""6099""
","
","","","-1","","","12","19469","6158","&#9826;","elianto","#f73b6a7A","-1","-1","1","0","[]","0","0","3","","","","","","","",""
"pit-trial","78","835360","0.0-2.0-14.2-3.2","battery-v0.2","","""event"",""trial"",""time""
""fullscreenenter"",""1"",""6099""
","
","
","""event"",""trial"",""time""
""fullscreenenter"",""1"",""6099""
","
","","","-1","","","12","19469","6158","&#9826;","elianto","#f73b6a7A","-1","-1","1","-10","[]","0","0","3","","","","","","","",""
"pit-trial","79","840214","0.0-2.0-14.2-4.2","battery-v0.2","","""event"",""trial"",""time""
""fullscreenenter"",""1"",""6099""
","
","
","""event"",""trial"",""time""
""fullscreenenter"",""1"",""6099""
","
","","","-1","","","12","19469","6158","&#9826;","elianto","#f73b6a7A","-1","-1","1","0","[]","0","0","3","","","","","","","",""
"pit-trial","80","845066","0.0-2.0-14.3-0.3","battery-v0.2","","""event"",""trial"",""time""
""fullscreenenter"",""1"",""6099""
","
","
","""event"",""trial"",""time""
""fullscreenenter"",""1"",""6099""
","
","","","-1","","","12","19469","6158","&#9826;","elianto","#f73b6a7A","-1","-1","1","0","[]","0","0","3","","","","","","","",""
"pit-trial","81","849919","0.0-2.0-14.3-1.3","battery-v0.2","","""event"",""trial"",""time""
""fullscreenenter"",""1"",""6099""
","
","
","""event"",""trial"",""time""
""fullscreenenter"",""1"",""6099""
","
","","","-1","","","12","19469","6158","&#9826;","elianto","#f73b6a7A","-1","-1","1","0","[]","0","0","3","","","","","","","",""
"pit-trial","82","854772","0.0-2.0-14.3-2.3","battery-v0.2","","""event"",""trial"",""time""
""fullscreenenter"",""1"",""6099""
","
","
","""event"",""trial"",""time""
""fullscreenenter"",""1"",""6099""
","
","","","-1","","","12","19469","6158","&#9826;","elianto","#f73b6a7A","-1","-1","1","0","[]","0","0","3","","","","","","","",""
"pit-trial","83","859625","0.0-2.0-14.3-3.3","battery-v0.2","","""event"",""trial"",""time""
""fullscreenenter"",""1"",""6099""
","
","
","""event"",""trial"",""time""
""fullscreenenter"",""1"",""6099""
","
","","","-1","","","12","19469","6158","&#9826;","elianto","#f73b6a7A","-1","-1","1","-10","[]","0","0","3","","","","","","","",""
"pit-trial","84","864478","0.0-2.0-14.3-4.3","battery-v0.2","","""event"",""trial"",""time""
""fullscreenenter"",""1"",""6099""
","
","
","""event"",""trial"",""time""
""fullscreenenter"",""1"",""6099""
","
","","","-1","","","12","19469","6158","&#9826;","elianto","#f73b6a7A","-1","-1","1","0","[]","0","0","3","","","","","","","",""
"call-function","85","864479","0.0-2.0-15.0","battery-v0.2","","""event"",""trial"",""time""
""fullscreenenter"",""1"",""6099""
","
","
","""event"",""trial"",""time""
""fullscreenenter"",""1"",""6099""
","
","","","","","","","","","","","","","","","","","","","","","","","","","","",""
"pit-instructions","86","891184","0.0-2.0-16.0","battery-v0.2","","""event"",""trial"",""time""
""fullscreenenter"",""1"",""6099""
","
","
","""event"",""trial"",""time""
""fullscreenenter"",""1"",""6099""
","
","","[{""page_index"":0,""viewing_time"":6903.899999976158},{""page_index"":1,""viewing_time"":8392.400000035763},{""page_index"":2,""viewing_time"":6559.599999964237},{""page_index"":3,""viewing_time"":4848}]","26704.100000023842","","","","","","","","","","","","","","","","","","","","","","","",""
"pit-trial","87","896056","0.0-2.0-17.0-0.0","battery-v0.2","","""event"",""trial"",""time""
""fullscreenenter"",""1"",""6099""
","
","
","""event"",""trial"",""time""
""fullscreenenter"",""1"",""6099""
","
","","","-1","","","12","19469","6158","&#9789;","elianto","#f73b6a7A"," ","-1","0","-10","[]","0","0","4","","","","","","","",""
"pit-trial","88","900937","0.0-2.0-17.0-1.0","battery-v0.2","","""event"",""trial"",""time""
""fullscreenenter"",""1"",""6099""
","
","
","""event"",""trial"",""time""
""fullscreenenter"",""1"",""6099""
","
","","","-1","","","12","19469","6158","&#9789;","elianto","#f73b6a7A"," ","-1","0","-10","[]","0","0","4","","","","","","","",""
"pit-trial","89","905826","0.0-2.0-17.0-2.0","battery-v0.2","","""event"",""trial"",""time""
""fullscreenenter"",""1"",""6099""
","
","
","""event"",""trial"",""time""
""fullscreenenter"",""1"",""6099""
","
","","","-1","","","12","19469","6158","&#9789;","elianto","#f73b6a7A"," ","-1","0","-10","[]","0","0","4","","","","","","","",""
"pit-trial","90","910707","0.0-2.0-17.0-3.0","battery-v0.2","","""event"",""trial"",""time""
""fullscreenenter"",""1"",""6099""
","
","
","""event"",""trial"",""time""
""fullscreenenter"",""1"",""6099""
","
","","","-1","","","12","19469","6158","&#9789;","elianto","#f73b6a7A"," ","-1","0","0","[]","0","0","4","","","","","","","",""
"pit-trial","91","915597","0.0-2.0-17.0-4.0","battery-v0.2","","""event"",""trial"",""time""
""fullscreenenter"",""1"",""6099""
","
","
","""event"",""trial"",""time""
""fullscreenenter"",""1"",""6099""
","
","","","-1","","","12","19469","6158","&#9789;","elianto","#f73b6a7A"," ","-1","0","-10","[]","0","0","4","","","","","","","",""
"pit-trial","92","920477","0.0-2.0-17.1-0.1","battery-v0.2","","""event"",""trial"",""time""
""fullscreenenter"",""1"",""6099""
","
","
","""event"",""trial"",""time""
""fullscreenenter"",""1"",""6099""
","
","","","-1","","","12","19469","6158","&#9789;","elianto","#f73b6a7A"," ","-1","0","-10","[]","0","0","4","","","","","","","",""
"pit-trial","93","925330","0.0-2.0-17.1-1.1","battery-v0.2","","""event"",""trial"",""time""
""fullscreenenter"",""1"",""6099""
","
","
","""event"",""trial"",""time""
""fullscreenenter"",""1"",""6099""
","
","","","-1","","","12","19469","6158","&#9789;","elianto","#f73b6a7A"," ","-1","0","-10","[]","0","0","4","","","","","","","",""
"pit-trial","94","930183","0.0-2.0-17.1-2.1","battery-v0.2","","""event"",""trial"",""time""
""fullscreenenter"",""1"",""6099""
","
","
","""event"",""trial"",""time""
""fullscreenenter"",""1"",""6099""
","
","","","-1","","","12","19469","6158","&#9789;","elianto","#f73b6a7A"," ","-1","0","-10","[]","0","0","4","","","","","","","",""
"pit-trial","95","935036","0.0-2.0-17.1-3.1","battery-v0.2","","""event"",""trial"",""time""
""fullscreenenter"",""1"",""6099""
","
","
","""event"",""trial"",""time""
""fullscreenenter"",""1"",""6099""
","
","","","-1","","","12","19469","6158","&#9789;","elianto","#f73b6a7A"," ","-1","0","0","[]","0","0","4","","","","","","","",""
"pit-trial","96","939890","0.0-2.0-17.1-4.1","battery-v0.2","","""event"",""trial"",""time""
""fullscreenenter"",""1"",""6099""
","
","
","""event"",""trial"",""time""
""fullscreenenter"",""1"",""6099""
","
","","","-1","","","12","19469","6158","&#9789;","elianto","#f73b6a7A"," ","-1","0","-10","[]","0","0","4","","","","","","","",""
"pit-trial","97","944743","0.0-2.0-17.2-0.2","battery-v0.2","","""event"",""trial"",""time""
""fullscreenenter"",""1"",""6099""
","
","
","""event"",""trial"",""time""
""fullscreenenter"",""1"",""6099""
","
","","","-1","","","12","19469","6158","&#9789;","elianto","#f73b6a7A"," ","-1","0","-10","[]","0","0","4","","","","","","","",""
"pit-trial","98","949597","0.0-2.0-17.2-1.2","battery-v0.2","","""event"",""trial"",""time""
""fullscreenenter"",""1"",""6099""
","
","
","""event"",""trial"",""time""
""fullscreenenter"",""1"",""6099""
","
","","","-1","","","12","19469","6158","&#9789;","elianto","#f73b6a7A"," ","-1","0","-10","[]","0","0","4","","","","","","","",""
"pit-trial","99","954450","0.0-2.0-17.2-2.2","battery-v0.2","","""event"",""trial"",""time""
""fullscreenenter"",""1"",""6099""
","
","
","""event"",""trial"",""time""
""fullscreenenter"",""1"",""6099""
","
","","","-1","","","12","19469","6158","&#9789;","elianto","#f73b6a7A"," ","-1","0","-10","[]","0","0","4","","","","","","","",""
"pit-trial","100","959303","0.0-2.0-17.2-3.2","battery-v0.2","","""event"",""trial"",""time""
""fullscreenenter"",""1"",""6099""
","
","
","""event"",""trial"",""time""
""fullscreenenter"",""1"",""6099""
","
","","","-1","","","12","19469","6158","&#9789;","elianto","#f73b6a7A"," ","-1","0","0","[]","0","0","4","","","","","","","",""
"pit-trial","101","964155","0.0-2.0-17.2-4.2","battery-v0.2","","""event"",""trial"",""time""
""fullscreenenter"",""1"",""6099""
","
","
","""event"",""trial"",""time""
""fullscreenenter"",""1"",""6099""
","
","","","-1","","","12","19469","6158","&#9789;","elianto","#f73b6a7A"," ","-1","0","-10","[]","0","0","4","","","","","","","",""
"pit-trial","102","969008","0.0-2.0-17.3-0.3","battery-v0.2","","""event"",""trial"",""time""
""fullscreenenter"",""1"",""6099""
","
","
","""event"",""trial"",""time""
""fullscreenenter"",""1"",""6099""
","
","","","-1","","","12","19469","6158","&#9789;","elianto","#f73b6a7A"," ","-1","0","-10","[]","0","0","4","","","","","","","",""
"pit-trial","103","973861","0.0-2.0-17.3-1.3","battery-v0.2","","""event"",""trial"",""time""
""fullscreenenter"",""1"",""6099""
","
","
","""event"",""trial"",""time""
""fullscreenenter"",""1"",""6099""
","
","","","-1","","","12","19469","6158","&#9789;","elianto","#f73b6a7A"," ","-1","0","-10","[]","0","0","4","","","","","","","",""
"pit-trial","104","978714","0.0-2.0-17.3-2.3","battery-v0.2","","""event"",""trial"",""time""
""fullscreenenter"",""1"",""6099""
","
","
","""event"",""trial"",""time""
""fullscreenenter"",""1"",""6099""
","
","","","-1","","","12","19469","6158","&#9789;","elianto","#f73b6a7A"," ","-1","0","-10","[]","0","0","4","","","","","","","",""
"pit-trial","105","983567","0.0-2.0-17.3-3.3","battery-v0.2","","""event"",""trial"",""time""
""fullscreenenter"",""1"",""6099""
","
","
","""event"",""trial"",""time""
""fullscreenenter"",""1"",""6099""
","
","","","-1","","","12","19469","6158","&#9789;","elianto","#f73b6a7A"," ","-1","0","0","[]","0","0","4","","","","","","","",""
"pit-trial","106","988420","0.0-2.0-17.3-4.3","battery-v0.2","","""event"",""trial"",""time""
""fullscreenenter"",""1"",""6099""
","
","
","""event"",""trial"",""time""
""fullscreenenter"",""1"",""6099""
","
","","","-1","","","12","19469","6158","&#9789;","elianto","#f73b6a7A"," ","-1","0","-10","[]","0","0","4","","","","","","","",""
"call-function","107","988421","0.0-2.0-18.0","battery-v0.2","","""event"",""trial"",""time""
""fullscreenenter"",""1"",""6099""
","
","
","""event"",""trial"",""time""
""fullscreenenter"",""1"",""6099""
","
","","","","","","","","","","","","","","","","","","","","","","","","","","",""
"pit-instructions","108","1071945","0.0-2.0-19.0","battery-v0.2","","""event"",""trial"",""time""
""fullscreenenter"",""1"",""6099""
","
","
","""event"",""trial"",""time""
""fullscreenenter"",""1"",""6099""
","
","","[{""page_index"":0,""viewing_time"":13314.199999988079},{""page_index"":1,""viewing_time"":7424},{""page_index"":2,""viewing_time"":14920},{""page_index"":3,""viewing_time"":9984.300000011921},{""page_index"":4,""viewing_time"":10744},{""page_index"":5,""viewing_time"":8103.899999976158},{""page_index"":6,""viewing_time"":8279.900000035763},{""page_index"":7,""viewing_time"":6872.800000011921},{""page_index"":8,""viewing_time"":3879.599999964237}]","83522.89999997616","","","","","","","","","","","","","","","","","","","","","","","",""
"pit-comprehension","109","1079192","0.0-2.0-20.0-0.0","battery-v0.2","","""event"",""trial"",""time""
""fullscreenenter"",""1"",""6099""
","
","
","""event"",""trial"",""time""
""fullscreenenter"",""1"",""6099""
","
","","","7245.800000011921","[""SPACE""]","0","12","19469","6158","","","","","","","","","","","","","","","","","","",""
"pit-instructions","110","1083016","0.0-2.0-20.0-1.0","battery-v0.2","","""event"",""trial"",""time""
""fullscreenenter"",""1"",""6099""
","
","
","""event"",""trial"",""time""
""fullscreenenter"",""1"",""6099""
","
","","[{""page_index"":0,""viewing_time"":3782.2999999523163}]","3782.5","","","","","","","","","","","","","","","","","","","","","","","",""
"pit-comprehension","111","1089073","0.0-2.0-21.0-0.0","battery-v0.2","","""event"",""trial"",""time""
""fullscreenenter"",""1"",""6099""
","
","
","""event"",""trial"",""time""
""fullscreenenter"",""1"",""6099""
","
","","","6054.899999976158","[""10""]","0","12","19469","6158","","","","","","","","","","","","","","","","","","",""
"pit-instructions","112","1090849","0.0-2.0-21.0-1.0","battery-v0.2","","""event"",""trial"",""time""
""fullscreenenter"",""1"",""6099""
","
","
","""event"",""trial"",""time""
""fullscreenenter"",""1"",""6099""
","
","","[{""page_index"":0,""viewing_time"":1750.800000011921}]","1751","","","","","","","","","","","","","","","","","","","","","","","",""
"pit-comprehension","113","1102369","0.0-2.0-22.0-0.0","battery-v0.2","","""event"",""trial"",""time""
""fullscreenenter"",""1"",""6099""
","
","
","""event"",""trial"",""time""
""fullscreenenter"",""1"",""6099""
","
","","","11518","[""10""]","1","12","19469","6158","","","","","","","","","","","","","","","","","","",""
"pit-instructions","114","1113616","0.0-2.0-22.0-1.0","battery-v0.2","","""event"",""trial"",""time""
""fullscreenenter"",""1"",""6099""
","
","
","""event"",""trial"",""time""
""fullscreenenter"",""1"",""6099""
","
","","[{""page_index"":0,""viewing_time"":11222.300000011921}]","11222.400000035763","","","","","","","","","","","","","","","","","","","","","","","",""
"pit-instructions","115","1116721","0.0-2.0-22.0-2.0-0.0","battery-v0.2","","""event"",""trial"",""time""
""fullscreenenter"",""1"",""6099""
","
","
","""event"",""trial"",""time""
""fullscreenenter"",""1"",""6099""
","
","","[{""page_index"":0,""viewing_time"":3104}]","3104.099999964237","","","","","","","","","","","","","","","","","","","","","","","",""
"pit-comprehension","116","1126465","0.0-2.0-22.1-0.1","battery-v0.2","","""event"",""trial"",""time""
""fullscreenenter"",""1"",""6099""
","
","
","""event"",""trial"",""time""
""fullscreenenter"",""1"",""6099""
","
","","","9742.600000023842","[""0""]","0","12","19469","6158","","","","","","","","","","","","","","","","","","",""
"pit-instructions","117","1129024","0.0-2.0-22.1-1.1","battery-v0.2","","""event"",""trial"",""time""
""fullscreenenter"",""1"",""6099""
","
","
","""event"",""trial"",""time""
""fullscreenenter"",""1"",""6099""
","
","","[{""page_index"":0,""viewing_time"":2530}]","2530.199999988079","","","","","","","","","","","","","","","","","","","","","","","",""
"pit-comprehension","118","1140144","0.0-2.0-23.0-0.0","battery-v0.2","","""event"",""trial"",""time""
""fullscreenenter"",""1"",""6099""
","
","
","""event"",""trial"",""time""
""fullscreenenter"",""1"",""6099""
","
","","","11119","[""False""]","1","12","19469","6158","","","","","","","","","","","","","","","","","","",""
"pit-instructions","119","1146640","0.0-2.0-23.0-1.0","battery-v0.2","","""event"",""trial"",""time""
""fullscreenenter"",""1"",""6099""
","
","
","""event"",""trial"",""time""
""fullscreenenter"",""1"",""6099""
","
","","[{""page_index"":0,""viewing_time"":6468.800000011921}]","6468.899999976158","","","","","","","","","","","","","","","","","","","","","","","",""
"pit-instructions","120","1149336","0.0-2.0-23.0-2.0-0.0","battery-v0.2","","""event"",""trial"",""time""
""fullscreenenter"",""1"",""6099""
","
","
","""event"",""trial"",""time""
""fullscreenenter"",""1"",""6099""
","
","","[{""page_index"":0,""viewing_time"":2695}]","2695.099999964237","","","","","","","","","","","","","","","","","","","","","","","",""
"pit-comprehension","121","1157864","0.0-2.0-23.1-0.1","battery-v0.2","","""event"",""trial"",""time""
""fullscreenenter"",""1"",""6099""
","
","
","""event"",""trial"",""time""
""fullscreenenter"",""1"",""6099""
","
","","","8527.300000011921","[""True""]","0","12","19469","6158","","","","","","","","","","","","","","","","","","",""
"pit-instructions","122","1163928","0.0-2.0-23.1-1.1","battery-v0.2","","""event"",""trial"",""time""
""fullscreenenter"",""1"",""6099""
","
","
","""event"",""trial"",""time""
""fullscreenenter"",""1"",""6099""
","
","","[{""page_index"":0,""viewing_time"":6043}]","6043.100000023842","","","","","","","","","","","","","","","","","","","","","","","",""
"pit-comprehension","123","1171545","0.0-2.0-24.0-0.0","battery-v0.2","","""event"",""trial"",""time""
""fullscreenenter"",""1"",""6099""
","
","
","""event"",""trial"",""time""
""fullscreenenter"",""1"",""6099""
","
","","","7615.600000023842","[""True""]","0","12","19469","6158","","","","","","","","","","","","","","","","","","",""
"pit-instructions","124","1173792","0.0-2.0-24.0-1.0","battery-v0.2","","""event"",""trial"",""time""
""fullscreenenter"",""1"",""6099""
","
","
","""event"",""trial"",""time""
""fullscreenenter"",""1"",""6099""
","
","","[{""page_index"":0,""viewing_time"":2221.100000023842}]","2221.199999988079","","","","","","","","","","","","","","","","","","","","","","","",""
"pit-comprehension","125","1180344","0.0-2.0-25.0-0.0","battery-v0.2","","""event"",""trial"",""time""
""fullscreenenter"",""1"",""6099""
","
","
","""event"",""trial"",""time""
""fullscreenenter"",""1"",""6099""
","
","","","6550.599999964237","[""True""]","0","12","19469","6158","","","","","","","","","","","","","","","","","","",""
"pit-instructions","126","1182816","0.0-2.0-25.0-1.0","battery-v0.2","","""event"",""trial"",""time""
""fullscreenenter"",""1"",""6099""
","
","
","""event"",""trial"",""time""
""fullscreenenter"",""1"",""6099""
","
","","[{""page_index"":0,""viewing_time"":2441.5}]","2441.600000023842","","","","","","","","","","","","","","","","","","","","","","","",""
"pit-comprehension","127","1191481","0.0-2.0-26.0-0.0","battery-v0.2","","""event"",""trial"",""time""
""fullscreenenter"",""1"",""6099""
","
","
","""event"",""trial"",""time""
""fullscreenenter"",""1"",""6099""
","
","","","8663.199999988079","[""True""]","1","12","19469","6158","","","","","","","","","","","","","","","","","","",""
"pit-instructions","128","1201160","0.0-2.0-26.0-1.0","battery-v0.2","","""event"",""trial"",""time""
""fullscreenenter"",""1"",""6099""
","
","
","""event"",""trial"",""time""
""fullscreenenter"",""1"",""6099""
","
","","[{""page_index"":0,""viewing_time"":9652.399999976158}]","9652.599999964237","","","","","","","","","","","","","","","","","","","","","","","",""
"pit-instructions","129","1202625","0.0-2.0-26.0-2.0-0.0","battery-v0.2","","""event"",""trial"",""time""
""fullscreenenter"",""1"",""6099""
","
","
","""event"",""trial"",""time""
""fullscreenenter"",""1"",""6099""
","
","","[{""page_index"":0,""viewing_time"":1463.699999988079}]","1463.800000011921","","","","","","","","","","","","","","","","","","","","","","","",""
"pit-comprehension","130","1208392","0.0-2.0-26.1-0.1","battery-v0.2","","""event"",""trial"",""time""
""fullscreenenter"",""1"",""6099""
","
","
","""event"",""trial"",""time""
""fullscreenenter"",""1"",""6099""
","
","","","5766.100000023842","[""False""]","0","12","19469","6158","","","","","","","","","","","","","","","","","","",""
"pit-instructions","131","1212264","0.0-2.0-26.1-1.1","battery-v0.2","","""event"",""trial"",""time""
""fullscreenenter"",""1"",""6099""
","
","
","""event"",""trial"",""time""
""fullscreenenter"",""1"",""6099""
","
","","[{""page_index"":0,""viewing_time"":3843.5}]","3843.800000011921","","","","","","","","","","","","","","","","","","","","","","","",""
"pit-instructions","132","1232136","0.0-3.0","battery-v0.2","","""event"",""trial"",""time""
""fullscreenenter"",""1"",""6099""
","
","
","""event"",""trial"",""time""
""fullscreenenter"",""1"",""6099""
","
","","[{""page_index"":0,""viewing_time"":6606.399999976158},{""page_index"":1,""viewing_time"":6584.100000023842},{""page_index"":2,""viewing_time"":6679.899999976158}]","19870.600000023842","","","","","","","","","","","","","","","","","","","","","","","",""
"pit-trial","133","1237020","0.0-4.0","battery-v0.2","","""event"",""trial"",""time""
""fullscreenenter"",""1"",""6099""
","
","
","""event"",""trial"",""time""
""fullscreenenter"",""1"",""6099""
","
","","","-1","","","12","19469","6158","&#9733;","elianto","#3366ff99","-1","-1","1","+10","[]","0","1","","","19469","1","2","2","win","no-go","0"
"pit-trial","134","1241910","0.0-5.0","battery-v0.2","","""event"",""trial"",""time""
""fullscreenenter"",""1"",""6099""
","
","
","""event"",""trial"",""time""
""fullscreenenter"",""1"",""6099""
","
","","","-1","","","12","19469","6158","&#9730;","elianto","#3366ff99"," ","-1","0","0","[]","0","1","","","19469","2","1","1","win","go","0"
"pit-trial","135","1246790","0.0-6.0","battery-v0.2","","""event"",""trial"",""time""
""fullscreenenter"",""1"",""6099""
","
","
","""event"",""trial"",""time""
""fullscreenenter"",""1"",""6099""
","
","","","-1","","","12","19469","6158","&#9752;","elianto","#f73b6a7A"," ","-1","0","-10","[]","0","1","","","19469","3","3","3","lose","go","0"
"pit-trial","136","1251670","0.0-7.0","battery-v0.2","","""event"",""trial"",""time""
""fullscreenenter"",""1"",""6099""
","
","
","""event"",""trial"",""time""
""fullscreenenter"",""1"",""6099""
","
","","","-1","","","12","19469","6158","&#9728;","elianto","#f73b6a7A","-1","-1","1","0","[]","0","1","","","19469","4","0","4","lose","no-go","0"
"pit-trial","137","1256560","0.0-8.0","battery-v0.2","","""event"",""trial"",""time""
""fullscreenenter"",""1"",""6099""
","
","
","""event"",""trial"",""time""
""fullscreenenter"",""1"",""6099""
","
","","","-1","","","12","19469","6158","&#9733;","elianto","#3366ff99","-1","-1","1","0","[]","0","1","","","19469","5","2","2","win","no-go","1"
"pit-trial","138","1261440","0.0-9.0","battery-v0.2","","""event"",""trial"",""time""
""fullscreenenter"",""1"",""6099""
","
","
","""event"",""trial"",""time""
""fullscreenenter"",""1"",""6099""
","
","","","-1","","","12","19469","6158","&#9728;","elianto","#f73b6a7A","-1","-1","1","0","[]","0","1","","","19469","6","0","4","lose","no-go","0"
"pit-trial","139","1266301","0.0-10.0","battery-v0.2","","""event"",""trial"",""time""
""fullscreenenter"",""1"",""6099""
","
","
","""event"",""trial"",""time""
""fullscreenenter"",""1"",""6099""
","
","","","-1","","","12","19469","6158","&#9730;","elianto","#3366ff99"," ","-1","0","+10","[]","0","1","","","19469","7","1","1","win","go","1"
"pit-trial","140","1271155","0.0-11.0","battery-v0.2","","""event"",""trial"",""time""
""fullscreenenter"",""1"",""6099""
","
","
","""event"",""trial"",""time""
""fullscreenenter"",""1"",""6099""
","
","","","-1","","","12","19469","6158","&#9752;","elianto","#f73b6a7A"," ","-1","0","-10","[]","0","1","","","19469","8","3","3","lose","go","0"
"pit-trial","141","1276024","0.0-12.0","battery-v0.2","","""event"",""trial"",""time""
""fullscreenenter"",""1"",""6099""
","
","
","""event"",""trial"",""time""
""fullscreenenter"",""1"",""6099""
","
","","","-1","","","12","19469","6158","&#9733;","elianto","#3366ff99","-1","-1","1","+10","[]","0","1","","","19469","9","2","2","win","no-go","0"
"pit-trial","142","1280878","0.0-13.0","battery-v0.2","","""event"",""trial"",""time""
""fullscreenenter"",""1"",""6099""
","
","
","""event"",""trial"",""time""
""fullscreenenter"",""1"",""6099""
","
","","","-1","","","12","19469","6158","&#9752;","elianto","#f73b6a7A"," ","-1","0","-10","[]","0","1","","","19469","10","3","3","lose","go","0"
"pit-trial","143","1285731","0.0-14.0","battery-v0.2","","""event"",""trial"",""time""
""fullscreenenter"",""1"",""6099""
","
","
","""event"",""trial"",""time""
""fullscreenenter"",""1"",""6099""
","
","","","-1","","","12","19469","6158","&#9730;","elianto","#3366ff99"," ","-1","0","+10","[]","0","1","","","19469","11","1","1","win","go","1"
"pit-trial","144","1290584","0.0-15.0","battery-v0.2","","""event"",""trial"",""time""
""fullscreenenter"",""1"",""6099""
","
","
","""event"",""trial"",""time""
""fullscreenenter"",""1"",""6099""
","
","","","-1","","","12","19469","6158","&#9728;","elianto","#f73b6a7A","-1","-1","1","0","[]","0","1","","","19469","12","0","4","lose","no-go","0"
"pit-trial","145","1295436","0.0-16.0","battery-v0.2","","""event"",""trial"",""time""
""fullscreenenter"",""1"",""6099""
","
","
","""event"",""trial"",""time""
""fullscreenenter"",""1"",""6099""
","
","","","-1","","","12","19469","6158","&#9728;","elianto","#f73b6a7A","-1","-1","1","0","[]","0","1","","","19469","13","0","4","lose","no-go","0"
"pit-trial","146","1300289","0.0-17.0","battery-v0.2","","""event"",""trial"",""time""
""fullscreenenter"",""1"",""6099""
","
","
","""event"",""trial"",""time""
""fullscreenenter"",""1"",""6099""
","
","","","-1","","","12","19469","6158","&#9733;","elianto","#3366ff99","-1","-1","1","+10","[]","0","1","","","19469","14","2","2","win","no-go","0"
"pit-trial","147","1305141","0.0-18.0","battery-v0.2","","""event"",""trial"",""time""
""fullscreenenter"",""1"",""6099""
","
","
","""event"",""trial"",""time""
""fullscreenenter"",""1"",""6099""
","
","","","-1","","","12","19469","6158","&#9730;","elianto","#3366ff99"," ","-1","0","0","[]","0","1","","","19469","15","1","1","win","go","0"
"pit-trial","148","1309994","0.0-19.0","battery-v0.2","","""event"",""trial"",""time""
""fullscreenenter"",""1"",""6099""
","
","
","""event"",""trial"",""time""
""fullscreenenter"",""1"",""6099""
","
","","","-1","","","12","19469","6158","&#9752;","elianto","#f73b6a7A"," ","-1","0","-10","[]","0","1","","","19469","16","3","3","lose","go","0"
"pit-trial","149","1314848","0.0-20.0","battery-v0.2","","""event"",""trial"",""time""
""fullscreenenter"",""1"",""6099""
","
","
","""event"",""trial"",""time""
""fullscreenenter"",""1"",""6099""
","
","","","-1","","","12","19469","6158","&#9752;","elianto","#f73b6a7A"," ","-1","0","-10","[]","0","1","","","19469","17","3","3","lose","go","0"
"pit-trial","150","1319701","0.0-21.0","battery-v0.2","","""event"",""trial"",""time""
""fullscreenenter"",""1"",""6099""
","
","
","""event"",""trial"",""time""
""fullscreenenter"",""1"",""6099""
","
","","","-1","","","12","19469","6158","&#9728;","elianto","#f73b6a7A","-1","-1","1","0","[]","0","1","","","19469","18","0","4","lose","no-go","0"
"pit-trial","151","1324554","0.0-22.0","battery-v0.2","","""event"",""trial"",""time""
""fullscreenenter"",""1"",""6099""
","
","
","""event"",""trial"",""time""
""fullscreenenter"",""1"",""6099""
","
","","","-1","","","12","19469","6158","&#9733;","elianto","#3366ff99","-1","-1","1","0","[]","0","1","","","19469","19","2","2","win","no-go","1"
"pit-trial","152","1329407","0.0-23.0","battery-v0.2","","""event"",""trial"",""time""
""fullscreenenter"",""1"",""6099""
","
","
","""event"",""trial"",""time""
""fullscreenenter"",""1"",""6099""
","
","","","-1","","","12","19469","6158","&#9730;","elianto","#3366ff99"," ","-1","0","0","[]","0","1","","","19469","20","1","1","win","go","0"
"pit-instructions","153","1342663","0.0-24.0","battery-v0.2","","""event"",""trial"",""time""
""fullscreenenter"",""1"",""6099""
","
","
","""event"",""trial"",""time""
""fullscreenenter"",""1"",""6099""
","
","","[{""page_index"":0,""viewing_time"":6159.199999988079},{""page_index"":1,""viewing_time"":7095.5}]","13254.899999976158","","","","","","","","","","","","","","","","","","","","","","","",""
"pit-trial","154","1347550","0.0-25.0","battery-v0.2","","""event"",""trial"",""time""
""fullscreenenter"",""1"",""6099""
","
","
","""event"",""trial"",""time""
""fullscreenenter"",""1"",""6099""
","
","","","-1","","","12","19469","6158","u","elianto","#f73b6a7A"," ","-1","0","-10","[]","0","2","","","19469","21","0","3","lose","go","0"
"pit-trial","155","1352421","0.0-26.0","battery-v0.2","","""event"",""trial"",""time""
""fullscreenenter"",""1"",""6099""
","
","
","""event"",""trial"",""time""
""fullscreenenter"",""1"",""6099""
","
","","","-1","","","12","19469","6158","a","elianto","#f73b6a7A"," ","-1","0","0","[]","0","2","","","19469","22","2","3","lose","go","1"
"pit-trial","156","1356241","0.0-27.0","battery-v0.2","","""event"",""trial"",""time""
""fullscreenenter"",""1"",""6099""
","
","
","""event"",""trial"",""time""
""fullscreenenter"",""1"",""6099""
","
","","","942.5","","","12","19469","6158","l","elianto","#3366ff99","-1"," ","0","0","[1801.4000000357628]","1","2","","","19469","23","1","2","win","no-go","0"
"pit-trial","157","1361131","0.0-28.0","battery-v0.2","","""event"",""trial"",""time""
""fullscreenenter"",""1"",""6099""
","
","
","""event"",""trial"",""time""
""fullscreenenter"",""1"",""6099""
","
","","","-1","","","12","19469","6158","g","elianto","#f73b6a7A","-1","-1","1","0","[]","0","2","","","19469","24","3","4","lose","no-go","0"
"pit-trial","158","1365280","0.0-29.0","battery-v0.2","","""event"",""trial"",""time""
""fullscreenenter"",""1"",""6099""
","
","
","""event"",""trial"",""time""
""fullscreenenter"",""1"",""6099""
","
","","","1282.699999988079","","","12","19469","6158","l","elianto","#3366ff99","-1"," ","0","0","[2134.899999976158]","1","2","","","19469","25","1","2","win","no-go","0"
"pit-trial","159","1370151","0.0-30.0","battery-v0.2","","""event"",""trial"",""time""
""fullscreenenter"",""1"",""6099""
","
","
","""event"",""trial"",""time""
""fullscreenenter"",""1"",""6099""
","
","","","-1","","","12","19469","6158","a","elianto","#f73b6a7A"," ","-1","0","-10","[]","0","2","","","19469","26","2","3","lose","go","0"
"pit-trial","160","1375005","0.0-31.0","battery-v0.2","","""event"",""trial"",""time""
""fullscreenenter"",""1"",""6099""
","
","
","""event"",""trial"",""time""
""fullscreenenter"",""1"",""6099""
","
","","","-1","","","12","19469","6158","u","elianto","#f73b6a7A"," ","-1","0","-10","[]","0","2","","","19469","27","0","3","lose","go","0"
"pit-trial","161","1379858","0.0-32.0","battery-v0.2","","""event"",""trial"",""time""
""fullscreenenter"",""1"",""6099""
","
","
","""event"",""trial"",""time""
""fullscreenenter"",""1"",""6099""
","
","","","-1","","","12","19469","6158","g","elianto","#f73b6a7A","-1","-1","1","-10","[]","0","2","","","19469","28","3","4","lose","no-go","1"
"pit-trial","162","1384710","0.0-33.0","battery-v0.2","","""event"",""trial"",""time""
""fullscreenenter"",""1"",""6099""
","
","
","""event"",""trial"",""time""
""fullscreenenter"",""1"",""6099""
","
","","","-1","","","12","19469","6158","l","elianto","#3366ff99","-1","-1","1","0","[]","0","2","","","19469","29","1","2","win","no-go","1"
"pit-trial","163","1389564","0.0-34.0","battery-v0.2","","""event"",""trial"",""time""
""fullscreenenter"",""1"",""6099""
","
","
","""event"",""trial"",""time""
""fullscreenenter"",""1"",""6099""
","
","","","-1","","","12","19469","6158","g","elianto","#f73b6a7A","-1","-1","1","0","[]","0","2","","","19469","30","3","4","lose","no-go","0"
"pit-trial","164","1394417","0.0-35.0","battery-v0.2","","""event"",""trial"",""time""
""fullscreenenter"",""1"",""6099""
","
","
","""event"",""trial"",""time""
""fullscreenenter"",""1"",""6099""
","
","","","-1","","","12","19469","6158","a","elianto","#f73b6a7A"," ","-1","0","0","[]","0","2","","","19469","31","2","3","lose","go","1"
"pit-trial","165","1399270","0.0-36.0","battery-v0.2","","""event"",""trial"",""time""
""fullscreenenter"",""1"",""6099""
","
","
","""event"",""trial"",""time""
""fullscreenenter"",""1"",""6099""
","
","","","-1","","","12","19469","6158","u","elianto","#f73b6a7A"," ","-1","0","-10","[]","0","2","","","19469","32","0","3","lose","go","0"
"pit-trial","166","1404124","0.0-37.0","battery-v0.2","","""event"",""trial"",""time""
""fullscreenenter"",""1"",""6099""
","
","
","""event"",""trial"",""time""
""fullscreenenter"",""1"",""6099""
","
","","","-1","","","12","19469","6158","a","elianto","#f73b6a7A"," ","-1","0","-10","[]","0","2","","","19469","33","2","3","lose","go","0"
"pit-trial","167","1408977","0.0-38.0","battery-v0.2","","""event"",""trial"",""time""
""fullscreenenter"",""1"",""6099""
","
","
","""event"",""trial"",""time""
""fullscreenenter"",""1"",""6099""
","
","","","-1","","","12","19469","6158","l","elianto","#3366ff99","-1","-1","1","+10","[]","0","2","","","19469","34","1","2","win","no-go","0"
"pit-trial","168","1413830","0.0-39.0","battery-v0.2","","""event"",""trial"",""time""
""fullscreenenter"",""1"",""6099""
","
","
","""event"",""trial"",""time""
""fullscreenenter"",""1"",""6099""
","
","","","-1","","","12","19469","6158","g","elianto","#f73b6a7A","-1","-1","1","0","[]","0","2","","","19469","35","3","4","lose","no-go","0"
"pit-trial","169","1418684","0.0-40.0","battery-v0.2","","""event"",""trial"",""time""
""fullscreenenter"",""1"",""6099""
","
","
","""event"",""trial"",""time""
""fullscreenenter"",""1"",""6099""
","
","","","-1","","","12","19469","6158","u","elianto","#f73b6a7A"," ","-1","0","0","[]","0","2","","","19469","36","0","3","lose","go","1"
"pit-trial","170","1423536","0.0-41.0","battery-v0.2","","""event"",""trial"",""time""
""fullscreenenter"",""1"",""6099""
","
","
","""event"",""trial"",""time""
""fullscreenenter"",""1"",""6099""
","
","","","-1","","","12","19469","6158","u","elianto","#f73b6a7A"," ","-1","0","0","[]","0","2","","","19469","37","0","3","lose","go","1"
"pit-trial","171","1428390","0.0-42.0","battery-v0.2","","""event"",""trial"",""time""
""fullscreenenter"",""1"",""6099""
","
","
","""event"",""trial"",""time""
""fullscreenenter"",""1"",""6099""
","
","","","-1","","","12","19469","6158","g","elianto","#f73b6a7A","-1","-1","1","0","[]","0","2","","","19469","38","3","4","lose","no-go","0"
"pit-trial","172","1433244","0.0-43.0","battery-v0.2","","""event"",""trial"",""time""
""fullscreenenter"",""1"",""6099""
","
","
","""event"",""trial"",""time""
""fullscreenenter"",""1"",""6099""
","
","","","-1","","","12","19469","6158","l","elianto","#3366ff99","-1","-1","1","+10","[]","0","2","","","19469","39","1","2","win","no-go","0"
"pit-trial","173","1438097","0.0-44.0","battery-v0.2","","""event"",""trial"",""time""
""fullscreenenter"",""1"",""6099""
","
","
","""event"",""trial"",""time""
""fullscreenenter"",""1"",""6099""
","
","","","-1","","","12","19469","6158","a","elianto","#f73b6a7A"," ","-1","0","-10","[]","0","2","","","19469","40","2","3","lose","go","0"
"pit-trial","174","1442949","0.0-45.0","battery-v0.2","","""event"",""trial"",""time""
""fullscreenenter"",""1"",""6099""
","
","
","""event"",""trial"",""time""
""fullscreenenter"",""1"",""6099""
","
","","","-1","","","12","19469","6158","u","elianto","#f73b6a7A"," ","-1","0","-10","[]","0","2","","","19469","41","0","3","lose","go","0"
"pit-trial","175","1446593","0.0-46.0","battery-v0.2","","""event"",""trial"",""time""
""fullscreenenter"",""1"",""6099""
","
","
","""event"",""trial"",""time""
""fullscreenenter"",""1"",""6099""
","
","","","789.8000000119209","","","12","19469","6158","l","elianto","#3366ff99","-1"," ","0","0","[1641.1000000238419]","1","2","","","19469","42","1","2","win","no-go","0"
"pit-trial","176","1451445","0.0-47.0","battery-v0.2","","""event"",""trial"",""time""
""fullscreenenter"",""1"",""6099""
","
","
","""event"",""trial"",""time""
""fullscreenenter"",""1"",""6099""
","
","","","-1","","","12","19469","6158","g","elianto","#f73b6a7A","-1","-1","1","0","[]","0","2","","","19469","43","3","4","lose","no-go","0"
"pit-trial","177","1456301","0.0-48.0","battery-v0.2","","""event"",""trial"",""time""
""fullscreenenter"",""1"",""6099""
","
","
","""event"",""trial"",""time""
""fullscreenenter"",""1"",""6099""
","
","","","-1","","","12","19469","6158","a","elianto","#f73b6a7A"," ","-1","0","-10","[]","0","2","","","19469","44","2","3","lose","go","0"
"pit-trial","178","1461155","0.0-49.0","battery-v0.2","","""event"",""trial"",""time""
""fullscreenenter"",""1"",""6099""
","
","
","""event"",""trial"",""time""
""fullscreenenter"",""1"",""6099""
","
","","","-1","","","12","19469","6158","a","elianto","#f73b6a7A"," ","-1","0","-10","[]","0","2","","","19469","45","2","3","lose","go","0"
"pit-trial","179","1465620","0.0-50.0","battery-v0.2","","""event"",""trial"",""time""
""fullscreenenter"",""1"",""6099""
","
","
","""event"",""trial"",""time""
""fullscreenenter"",""1"",""6099""
","
","","","1611.7000000476837","","","12","19469","6158","l","elianto","#3366ff99","-1"," ","0","+10","[2462.100000023842]","1","2","","","19469","46","1","2","win","no-go","1"
"pit-trial","180","1470474","0.0-51.0","battery-v0.2","","""event"",""trial"",""time""
""fullscreenenter"",""1"",""6099""
","
","
","""event"",""trial"",""time""
""fullscreenenter"",""1"",""6099""
","
","","","-1","","","12","19469","6158","g","elianto","#f73b6a7A","-1","-1","1","-10","[]","0","2","","","19469","47","3","4","lose","no-go","1"
"pit-trial","181","1475327","0.0-52.0","battery-v0.2","","""event"",""trial"",""time""
""fullscreenenter"",""1"",""6099""
","
","
","""event"",""trial"",""time""
""fullscreenenter"",""1"",""6099""
","
","","","-1","","","12","19469","6158","u","elianto","#f73b6a7A"," ","-1","0","-10","[]","0","2","","","19469","48","0","3","lose","go","0"
"pit-trial","182","1479726","0.0-53.0","battery-v0.2","","""event"",""trial"",""time""
""fullscreenenter"",""1"",""6099""
","
","
","""event"",""trial"",""time""
""fullscreenenter"",""1"",""6099""
","
","","","1546","","","12","19469","6158","l","elianto","#3366ff99","-1"," ","0","0","[2396.5]","1","2","","","19469","49","1","2","win","no-go","0"
"pit-trial","183","1484578","0.0-54.0","battery-v0.2","","""event"",""trial"",""time""
""fullscreenenter"",""1"",""6099""
","
","
","""event"",""trial"",""time""
""fullscreenenter"",""1"",""6099""
","
","","","-1","","","12","19469","6158","u","elianto","#f73b6a7A"," ","-1","0","-10","[]","0","2","","","19469","50","0","3","lose","go","0"
"pit-trial","184","1488295","0.0-55.0","battery-v0.2","","""event"",""trial"",""time""
""fullscreenenter"",""1"",""6099""
","
","
","""event"",""trial"",""time""
""fullscreenenter"",""1"",""6099""
","
","","","864.2000000476837","","","12","19469","6158","a","elianto","#f73b6a7A"," "," ","1","0","[1714.7000000476837]","1","2","","","19469","51","2","3","lose","go","0"
"pit-trial","185","1493155","0.0-56.0","battery-v0.2","","""event"",""trial"",""time""
""fullscreenenter"",""1"",""6099""
","
","
","""event"",""trial"",""time""
""fullscreenenter"",""1"",""6099""
","
","","","-1","","","12","19469","6158","g","elianto","#f73b6a7A","-1","-1","1","0","[]","0","2","","","19469","52","3","4","lose","no-go","0"
"pit-trial","186","1498008","0.0-57.0","battery-v0.2","","""event"",""trial"",""time""
""fullscreenenter"",""1"",""6099""
","
","
","""event"",""trial"",""time""
""fullscreenenter"",""1"",""6099""
","
","","","-1","","","12","19469","6158","g","elianto","#f73b6a7A","-1","-1","1","-10","[]","0","2","","","19469","53","3","4","lose","no-go","1"
"pit-trial","187","1502861","0.0-58.0","battery-v0.2","","""event"",""trial"",""time""
""fullscreenenter"",""1"",""6099""
","
","
","""event"",""trial"",""time""
""fullscreenenter"",""1"",""6099""
","
","","","-1","","","12","19469","6158","u","elianto","#f73b6a7A"," ","-1","0","-10","[]","0","2","","","19469","54","0","3","lose","go","0"
"pit-trial","188","1507714","0.0-59.0","battery-v0.2","","""event"",""trial"",""time""
""fullscreenenter"",""1"",""6099""
","
","
","""event"",""trial"",""time""
""fullscreenenter"",""1"",""6099""
","
","","","-1","","","12","19469","6158","l","elianto","#3366ff99","-1","-1","1","+10","[]","0","2","","","19469","55","1","2","win","no-go","0"
"pit-trial","189","1512567","0.0-60.0","battery-v0.2","","""event"",""trial"",""time""
""fullscreenenter"",""1"",""6099""
","
","
","""event"",""trial"",""time""
""fullscreenenter"",""1"",""6099""
","
","","","-1","","","12","19469","6158","a","elianto","#f73b6a7A"," ","-1","0","-10","[]","0","2","","","19469","56","2","3","lose","go","0"
"pit-trial","190","1517420","0.0-61.0","battery-v0.2","","""event"",""trial"",""time""
""fullscreenenter"",""1"",""6099""
","
","
","""event"",""trial"",""time""
""fullscreenenter"",""1"",""6099""
","
","","","-1","","","12","19469","6158","p","elianto","#3366ff99"," ","-1","0","+10","[]","0","2","","","19469","57","4","1","win","go","1"
"pit-trial","191","1522272","0.0-62.0","battery-v0.2","","""event"",""trial"",""time""
""fullscreenenter"",""1"",""6099""
","
","
","""event"",""trial"",""time""
""fullscreenenter"",""1"",""6099""
","
","","","-1","","","12","19469","6158","u","elianto","#f73b6a7A"," ","-1","0","-10","[]","0","2","","","19469","58","0","3","lose","go","0"
"pit-trial","192","1527125","0.0-63.0","battery-v0.2","","""event"",""trial"",""time""
""fullscreenenter"",""1"",""6099""
","
","
","""event"",""trial"",""time""
""fullscreenenter"",""1"",""6099""
","
","","","-1","","","12","19469","6158","g","elianto","#f73b6a7A","-1","-1","1","0","[]","0","2","","","19469","59","3","4","lose","no-go","0"
"pit-trial","193","1531978","0.0-64.0","battery-v0.2","","""event"",""trial"",""time""
""fullscreenenter"",""1"",""6099""
","
","
","""event"",""trial"",""time""
""fullscreenenter"",""1"",""6099""
","
","","","-1","","","12","19469","6158","a","elianto","#f73b6a7A"," ","-1","0","-10","[]","0","2","","","19469","60","2","3","lose","go","0"
"pit-trial","194","1536831","0.0-65.0","battery-v0.2","","""event"",""trial"",""time""
""fullscreenenter"",""1"",""6099""
","
","
","""event"",""trial"",""time""
""fullscreenenter"",""1"",""6099""
","
","","","-1","","","12","19469","6158","p","elianto","#3366ff99"," ","-1","0","0","[]","0","2","","","19469","61","4","1","win","go","0"
"pit-trial","195","1541684","0.0-66.0","battery-v0.2","","""event"",""trial"",""time""
""fullscreenenter"",""1"",""6099""
","
","
","""event"",""trial"",""time""
""fullscreenenter"",""1"",""6099""
","
","","","-1","","","12","19469","6158","l","elianto","#3366ff99","-1","-1","1","+10","[4195.700000047684]","1","2","","","19469","62","1","2","win","no-go","0"
"pit-trial","196","1546538","0.0-67.0","battery-v0.2","","""event"",""trial"",""time""
""fullscreenenter"",""1"",""6099""
","
","
","""event"",""trial"",""time""
""fullscreenenter"",""1"",""6099""
","
","","","-1","","","12","19469","6158","g","elianto","#f73b6a7A","-1","-1","1","0","[]","0","2","","","19469","63","3","4","lose","no-go","0"
"pit-trial","197","1551391","0.0-68.0","battery-v0.2","","""event"",""trial"",""time""
""fullscreenenter"",""1"",""6099""
","
","
","""event"",""trial"",""time""
""fullscreenenter"",""1"",""6099""
","
","","","-1","","","12","19469","6158","a","elianto","#f73b6a7A"," ","-1","0","-10","[]","0","2","","","19469","64","2","3","lose","go","0"
"pit-trial","198","1556009","0.0-69.0","battery-v0.2","","""event"",""trial"",""time""
""fullscreenenter"",""1"",""6099""
","
","
","""event"",""trial"",""time""
""fullscreenenter"",""1"",""6099""
","
","","","1765.199999988079","","","12","19469","6158","l","elianto","#3366ff99","-1"," ","0","0","[2616.599999964237]","1","2","","","19469","65","1","2","win","no-go","0"
"pit-trial","199","1560863","0.0-70.0","battery-v0.2","","""event"",""trial"",""time""
""fullscreenenter"",""1"",""6099""
","
","
","""event"",""trial"",""time""
""fullscreenenter"",""1"",""6099""
","
","","","-1","","","12","19469","6158","g","elianto","#f73b6a7A","-1","-1","1","0","[]","0","2","","","19469","66","3","4","lose","no-go","0"
"pit-trial","200","1565716","0.0-71.0","battery-v0.2","","""event"",""trial"",""time""
""fullscreenenter"",""1"",""6099""
","
","
","""event"",""trial"",""time""
""fullscreenenter"",""1"",""6099""
","
","","","-1","","","12","19469","6158","s","elianto","#3366ff99","-1","-1","1","+10","[]","0","2","","","19469","67","5","2","win","no-go","0"
"pit-trial","201","1570570","0.0-72.0","battery-v0.2","","""event"",""trial"",""time""
""fullscreenenter"",""1"",""6099""
","
","
","""event"",""trial"",""time""
""fullscreenenter"",""1"",""6099""
","
","","","-1","","","12","19469","6158","p","elianto","#3366ff99"," ","-1","0","+10","[]","0","2","","","19469","68","4","1","win","go","1"
"pit-trial","202","1574345","0.0-73.0","battery-v0.2","","""event"",""trial"",""time""
""fullscreenenter"",""1"",""6099""
","
","
","""event"",""trial"",""time""
""fullscreenenter"",""1"",""6099""
","
","","","921.5999999642372","","","12","19469","6158","s","elianto","#3366ff99","-1"," ","0","+10","[1772.5999999642372]","1","2","","","19469","69","5","2","win","no-go","1"
"pit-trial","203","1577821","0.0-74.0","battery-v0.2","","""event"",""trial"",""time""
""fullscreenenter"",""1"",""6099""
","
","
","""event"",""trial"",""time""
""fullscreenenter"",""1"",""6099""
","
","","","622.6999999880791","","","12","19469","6158","p","elianto","#3366ff99"," "," ","1","+10","[1473.800000011921]","1","2","","","19469","70","4","1","win","go","0"
"pit-trial","204","1582675","0.0-75.0","battery-v0.2","","""event"",""trial"",""time""
""fullscreenenter"",""1"",""6099""
","
","
","""event"",""trial"",""time""
""fullscreenenter"",""1"",""6099""
","
","","","-1","","","12","19469","6158","a","elianto","#f73b6a7A"," ","-1","0","-10","[]","0","2","","","19469","71","2","3","lose","go","0"
"pit-trial","205","1587527","0.0-76.0","battery-v0.2","","""event"",""trial"",""time""
""fullscreenenter"",""1"",""6099""
","
","
","""event"",""trial"",""time""
""fullscreenenter"",""1"",""6099""
","
","","","-1","","","12","19469","6158","l","elianto","#3366ff99","-1","-1","1","+10","[]","0","2","","","19469","72","1","2","win","no-go","0"
"pit-trial","206","1591078","0.0-77.0","battery-v0.2","","""event"",""trial"",""time""
""fullscreenenter"",""1"",""6099""
","
","
","""event"",""trial"",""time""
""fullscreenenter"",""1"",""6099""
","
","","","697.4000000357628","","","12","19469","6158","p","elianto","#3366ff99"," "," ","1","+10","[1548.699999988079]","1","2","","","19469","73","4","1","win","go","0"
"pit-trial","207","1595172","0.0-78.0","battery-v0.2","","""event"",""trial"",""time""
""fullscreenenter"",""1"",""6099""
","
","
","""event"",""trial"",""time""
""fullscreenenter"",""1"",""6099""
","
","","","1240.5","","","12","19469","6158","s","elianto","#3366ff99","-1"," ","0","0","[2091.600000023842]","1","2","","","19469","74","5","2","win","no-go","0"
"pit-trial","208","1600025","0.0-79.0","battery-v0.2","","""event"",""trial"",""time""
""fullscreenenter"",""1"",""6099""
","
","
","""event"",""trial"",""time""
""fullscreenenter"",""1"",""6099""
","
","","","-1","","","12","19469","6158","g","elianto","#f73b6a7A","-1","-1","1","0","[]","0","2","","","19469","75","3","4","lose","no-go","0"
"pit-trial","209","1604425","0.0-80.0","battery-v0.2","","""event"",""trial"",""time""
""fullscreenenter"",""1"",""6099""
","
","
","""event"",""trial"",""time""
""fullscreenenter"",""1"",""6099""
","
","","","1546","","","12","19469","6158","l","elianto","#3366ff99","-1"," ","0","0","[2397.199999988079]","1","2","","","19469","76","1","2","win","no-go","0"
"pit-trial","210","1607831","0.0-81.0","battery-v0.2","","""event"",""trial"",""time""
""fullscreenenter"",""1"",""6099""
","
","
","""event"",""trial"",""time""
""fullscreenenter"",""1"",""6099""
","
","","","552.0999999642372","","","12","19469","6158","p","elianto","#3366ff99"," "," ","1","+10","[1404.0999999642372]","1","2","","","19469","77","4","1","win","go","0"
"pit-trial","211","1612685","0.0-82.0","battery-v0.2","","""event"",""trial"",""time""
""fullscreenenter"",""1"",""6099""
","
","
","""event"",""trial"",""time""
""fullscreenenter"",""1"",""6099""
","
","","","-1","","","12","19469","6158","s","elianto","#3366ff99","-1","-1","1","0","[]","0","2","","","19469","78","5","2","win","no-go","1"
"pit-trial","212","1616202","0.0-83.0","battery-v0.2","","""event"",""trial"",""time""
""fullscreenenter"",""1"",""6099""
","
","
","""event"",""trial"",""time""
""fullscreenenter"",""1"",""6099""
","
","","","664.5","","","12","19469","6158","p","elianto","#3366ff99"," "," ","1","+10","[1515.6000000238419]","1","2","","","19469","79","4","1","win","go","0"
"pit-trial","213","1621055","0.0-84.0","battery-v0.2","","""event"",""trial"",""time""
""fullscreenenter"",""1"",""6099""
","
","
","""event"",""trial"",""time""
""fullscreenenter"",""1"",""6099""
","
","","","-1","","","12","19469","6158","g","elianto","#f73b6a7A","-1","-1","1","-10","[]","0","2","","","19469","80","3","4","lose","no-go","1"
"pit-trial","214","1624982","0.0-85.0","battery-v0.2","","""event"",""trial"",""time""
""fullscreenenter"",""1"",""6099""
","
","
","""event"",""trial"",""time""
""fullscreenenter"",""1"",""6099""
","
","","","1074.3999999761581","","","12","19469","6158","g","elianto","#f73b6a7A","-1"," ","0","-10","[1925]","1","2","","","19469","81","3","4","lose","no-go","0"
"pit-trial","215","1628665","0.0-86.0","battery-v0.2","","""event"",""trial"",""time""
""fullscreenenter"",""1"",""6099""
","
","
","""event"",""trial"",""time""
""fullscreenenter"",""1"",""6099""
","
","","","828.0999999642372","","","12","19469","6158","p","elianto","#3366ff99"," "," ","1","+10","[1678.800000011921]","1","2","","","19469","82","4","1","win","go","0"
"pit-trial","216","1633518","0.0-87.0","battery-v0.2","","""event"",""trial"",""time""
""fullscreenenter"",""1"",""6099""
","
","
","""event"",""trial"",""time""
""fullscreenenter"",""1"",""6099""
","
","","","-1","","","12","19469","6158","e","elianto","#f73b6a7A","-1","-1","1","0","[]","0","2","","","19469","83","7","4","lose","no-go","0"
"pit-trial","217","1638371","0.0-88.0","battery-v0.2","","""event"",""trial"",""time""
""fullscreenenter"",""1"",""6099""
","
","
","""event"",""trial"",""time""
""fullscreenenter"",""1"",""6099""
","
","","","-1","","","12","19469","6158","s","elianto","#3366ff99","-1","-1","1","0","[]","0","2","","","19469","84","5","2","win","no-go","1"
"pit-trial","218","1643225","0.0-89.0","battery-v0.2","","""event"",""trial"",""time""
""fullscreenenter"",""1"",""6099""
","
","
","""event"",""trial"",""time""
""fullscreenenter"",""1"",""6099""
","
","","","-1","","","12","19469","6158","s","elianto","#3366ff99","-1","-1","1","+10","[]","0","2","","","19469","85","5","2","win","no-go","0"
"pit-trial","219","1646837","0.0-90.0","battery-v0.2","","""event"",""trial"",""time""
""fullscreenenter"",""1"",""6099""
","
","
","""event"",""trial"",""time""
""fullscreenenter"",""1"",""6099""
","
","","","760","","","12","19469","6158","p","elianto","#3366ff99"," "," ","1","0","[1610.699999988079]","1","2","","","19469","86","4","1","win","go","1"
"pit-trial","220","1651692","0.0-91.0","battery-v0.2","","""event"",""trial"",""time""
""fullscreenenter"",""1"",""6099""
","
","
","""event"",""trial"",""time""
""fullscreenenter"",""1"",""6099""
","
","","","-1","","","12","19469","6158","e","elianto","#f73b6a7A","-1","-1","1","0","[]","0","2","","","19469","87","7","4","lose","no-go","0"
"pit-trial","221","1656545","0.0-92.0","battery-v0.2","","""event"",""trial"",""time""
""fullscreenenter"",""1"",""6099""
","
","
","""event"",""trial"",""time""
""fullscreenenter"",""1"",""6099""
","
","","","-1","","","12","19469","6158","w","elianto","#f73b6a7A"," ","-1","0","0","[]","0","2","","","19469","88","6","3","lose","go","1"
"pit-trial","222","1661397","0.0-93.0","battery-v0.2","","""event"",""trial"",""time""
""fullscreenenter"",""1"",""6099""
","
","
","""event"",""trial"",""time""
""fullscreenenter"",""1"",""6099""
","
","","","-1","","","12","19469","6158","e","elianto","#f73b6a7A","-1","-1","1","0","[]","0","2","","","19469","89","7","4","lose","no-go","0"
"pit-trial","223","1666251","0.0-94.0","battery-v0.2","","""event"",""trial"",""time""
""fullscreenenter"",""1"",""6099""
","
","
","""event"",""trial"",""time""
""fullscreenenter"",""1"",""6099""
","
","","","-1","","","12","19469","6158","w","elianto","#f73b6a7A"," ","-1","0","-10","[]","0","2","","","19469","90","6","3","lose","go","0"
"pit-trial","224","1671105","0.0-95.0","battery-v0.2","","""event"",""trial"",""time""
""fullscreenenter"",""1"",""6099""
","
","
","""event"",""trial"",""time""
""fullscreenenter"",""1"",""6099""
","
","","","-1","","","12","19469","6158","p","elianto","#3366ff99"," ","-1","0","0","[3089.599999964237]","1","2","","","19469","91","4","1","win","go","0"
"pit-trial","225","1675958","0.0-96.0","battery-v0.2","","""event"",""trial"",""time""
""fullscreenenter"",""1"",""6099""
","
","
","""event"",""trial"",""time""
""fullscreenenter"",""1"",""6099""
","
","","","-1","","","12","19469","6158","s","elianto","#3366ff99","-1","-1","1","+10","[]","0","2","","","19469","92","5","2","win","no-go","0"
"pit-trial","226","1680811","0.0-97.0","battery-v0.2","","""event"",""trial"",""time""
""fullscreenenter"",""1"",""6099""
","
","
","""event"",""trial"",""time""
""fullscreenenter"",""1"",""6099""
","
","","","-1","","","12","19469","6158","w","elianto","#f73b6a7A"," ","-1","0","-10","[]","0","2","","","19469","93","6","3","lose","go","0"
"pit-trial","227","1685664","0.0-98.0","battery-v0.2","","""event"",""trial"",""time""
""fullscreenenter"",""1"",""6099""
","
","
","""event"",""trial"",""time""
""fullscreenenter"",""1"",""6099""
","
","","","-1","","","12","19469","6158","e","elianto","#f73b6a7A","-1","-1","1","0","[]","0","2","","","19469","94","7","4","lose","no-go","0"
"pit-trial","228","1690518","0.0-99.0","battery-v0.2","","""event"",""trial"",""time""
""fullscreenenter"",""1"",""6099""
","
","
","""event"",""trial"",""time""
""fullscreenenter"",""1"",""6099""
","
","","","-1","","","12","19469","6158","s","elianto","#3366ff99","-1","-1","1","0","[]","0","2","","","19469","95","5","2","win","no-go","1"
"pit-trial","229","1695372","0.0-100.0","battery-v0.2","","""event"",""trial"",""time""
""fullscreenenter"",""1"",""6099""
","
","
","""event"",""trial"",""time""
""fullscreenenter"",""1"",""6099""
","
","","","-1","","","12","19469","6158","d","elianto","#3366ff99"," ","-1","0","0","[]","0","2","","","19469","96","8","1","win","go","0"
"pit-trial","230","1700225","0.0-101.0","battery-v0.2","","""event"",""trial"",""time""
""fullscreenenter"",""1"",""6099""
","
","
","""event"",""trial"",""time""
""fullscreenenter"",""1"",""6099""
","
","","","-1","","","12","19469","6158","w","elianto","#f73b6a7A"," ","-1","0","-10","[]","0","2","","","19469","97","6","3","lose","go","0"
"pit-trial","231","1705078","0.0-102.0","battery-v0.2","","""event"",""trial"",""time""
""fullscreenenter"",""1"",""6099""
","
","
","""event"",""trial"",""time""
""fullscreenenter"",""1"",""6099""
","
","","","-1","","","12","19469","6158","s","elianto","#3366ff99","-1","-1","1","+10","[]","0","2","","","19469","98","5","2","win","no-go","0"
"pit-trial","232","1709931","0.0-103.0","battery-v0.2","","""event"",""trial"",""time""
""fullscreenenter"",""1"",""6099""
","
","
","""event"",""trial"",""time""
""fullscreenenter"",""1"",""6099""
","
","","","-1","","","12","19469","6158","e","elianto","#f73b6a7A","-1","-1","1","-10","[]","0","2","","","19469","99","7","4","lose","no-go","1"
"pit-trial","233","1714783","0.0-104.0","battery-v0.2","","""event"",""trial"",""time""
""fullscreenenter"",""1"",""6099""
","
","
","""event"",""trial"",""time""
""fullscreenenter"",""1"",""6099""
","
","","","-1","","","12","19469","6158","d","elianto","#3366ff99"," ","-1","0","0","[]","0","2","","","19469","100","8","1","win","go","0"
"pit-trial","234","1719636","0.0-105.0","battery-v0.2","","""event"",""trial"",""time""
""fullscreenenter"",""1"",""6099""
","
","
","""event"",""trial"",""time""
""fullscreenenter"",""1"",""6099""
","
","","","-1","","","12","19469","6158","j","elianto","#3366ff99"," ","-1","0","0","[]","0","2","","","19469","101","9","1","win","go","0"
"pit-trial","235","1724489","0.0-106.0","battery-v0.2","","""event"",""trial"",""time""
""fullscreenenter"",""1"",""6099""
","
","
","""event"",""trial"",""time""
""fullscreenenter"",""1"",""6099""
","
","","","-1","","","12","19469","6158","s","elianto","#3366ff99","-1","-1","1","0","[2906.7999999523163]","1","2","","","19469","102","5","2","win","no-go","1"
"pit-trial","236","1729342","0.0-107.0","battery-v0.2","","""event"",""trial"",""time""
""fullscreenenter"",""1"",""6099""
","
","
","""event"",""trial"",""time""
""fullscreenenter"",""1"",""6099""
","
","","","-1","","","12","19469","6158","e","elianto","#f73b6a7A","-1","-1","1","0","[]","0","2","","","19469","103","7","4","lose","no-go","0"
"pit-trial","237","1734196","0.0-108.0","battery-v0.2","","""event"",""trial"",""time""
""fullscreenenter"",""1"",""6099""
","
","
","""event"",""trial"",""time""
""fullscreenenter"",""1"",""6099""
","
","","","-1","","","12","19469","6158","d","elianto","#3366ff99"," ","-1","0","0","[]","0","2","","","19469","104","8","1","win","go","0"
"pit-trial","238","1739049","0.0-109.0","battery-v0.2","","""event"",""trial"",""time""
""fullscreenenter"",""1"",""6099""
","
","
","""event"",""trial"",""time""
""fullscreenenter"",""1"",""6099""
","
","","","-1","","","12","19469","6158","p","elianto","#3366ff99"," ","-1","0","+10","[]","0","2","","","19469","105","4","1","win","go","1"
"pit-trial","239","1743902","0.0-110.0","battery-v0.2","","""event"",""trial"",""time""
""fullscreenenter"",""1"",""6099""
","
","
","""event"",""trial"",""time""
""fullscreenenter"",""1"",""6099""
","
","","","-1","","","12","19469","6158","w","elianto","#f73b6a7A"," ","-1","0","-10","[]","0","2","","","19469","106","6","3","lose","go","0"
"pit-trial","240","1748755","0.0-111.0","battery-v0.2","","""event"",""trial"",""time""
""fullscreenenter"",""1"",""6099""
","
","
","""event"",""trial"",""time""
""fullscreenenter"",""1"",""6099""
","
","","","-1","","","12","19469","6158","d","elianto","#3366ff99"," ","-1","0","0","[]","0","2","","","19469","107","8","1","win","go","0"
"pit-trial","241","1753608","0.0-112.0","battery-v0.2","","""event"",""trial"",""time""
""fullscreenenter"",""1"",""6099""
","
","
","""event"",""trial"",""time""
""fullscreenenter"",""1"",""6099""
","
","","","-1","","","12","19469","6158","j","elianto","#3366ff99"," ","-1","0","0","[]","0","2","","","19469","108","9","1","win","go","0"
"pit-trial","242","1758460","0.0-113.0","battery-v0.2","","""event"",""trial"",""time""
""fullscreenenter"",""1"",""6099""
","
","
","""event"",""trial"",""time""
""fullscreenenter"",""1"",""6099""
","
","","","-1","","","12","19469","6158","d","elianto","#3366ff99"," ","-1","0","0","[]","0","2","","","19469","109","8","1","win","go","0"
"pit-trial","243","1763314","0.0-114.0","battery-v0.2","","""event"",""trial"",""time""
""fullscreenenter"",""1"",""6099""
","
","
","""event"",""trial"",""time""
""fullscreenenter"",""1"",""6099""
","
","","","-1","","","12","19469","6158","w","elianto","#f73b6a7A"," ","-1","0","-10","[]","0","2","","","19469","110","6","3","lose","go","0"
"pit-trial","244","1768166","0.0-115.0","battery-v0.2","","""event"",""trial"",""time""
""fullscreenenter"",""1"",""6099""
","
","
","""event"",""trial"",""time""
""fullscreenenter"",""1"",""6099""
","
","","","-1","","","12","19469","6158","s","elianto","#3366ff99","-1","-1","1","+10","[]","0","2","","","19469","111","5","2","win","no-go","0"
"pit-trial","245","1773019","0.0-116.0","battery-v0.2","","""event"",""trial"",""time""
""fullscreenenter"",""1"",""6099""
","
","
","""event"",""trial"",""time""
""fullscreenenter"",""1"",""6099""
","
","","","-1","","","12","19469","6158","j","elianto","#3366ff99"," ","-1","0","0","[]","0","2","","","19469","112","9","1","win","go","0"
"pit-trial","246","1777874","0.0-117.0","battery-v0.2","","""event"",""trial"",""time""
""fullscreenenter"",""1"",""6099""
","
","
","""event"",""trial"",""time""
""fullscreenenter"",""1"",""6099""
","
","","","-1","","","12","19469","6158","w","elianto","#f73b6a7A"," ","-1","0","-10","[]","0","2","","","19469","113","6","3","lose","go","0"
"pit-trial","247","1782727","0.0-118.0","battery-v0.2","","""event"",""trial"",""time""
""fullscreenenter"",""1"",""6099""
","
","
","""event"",""trial"",""time""
""fullscreenenter"",""1"",""6099""
","
","","","-1","","","12","19469","6158","j","elianto","#3366ff99"," ","-1","0","0","[]","0","2","","","19469","114","9","1","win","go","0"
"pit-trial","248","1787582","0.0-119.0","battery-v0.2","","""event"",""trial"",""time""
""fullscreenenter"",""1"",""6099""
","
","
","""event"",""trial"",""time""
""fullscreenenter"",""1"",""6099""
","
","","","-1","","","12","19469","6158","d","elianto","#3366ff99"," ","-1","0","0","[]","0","2","","","19469","115","8","1","win","go","0"
"pit-trial","249","1791102","0.0-120.0","battery-v0.2","","""event"",""trial"",""time""
""fullscreenenter"",""1"",""6099""
","
","
","""event"",""trial"",""time""
""fullscreenenter"",""1"",""6099""
","
","","","666.9000000357628","","","12","19469","6158","s","elianto","#3366ff99","-1"," ","0","0","[1517.9000000357628]","1","2","","","19469","116","5","2","win","no-go","0"
"pit-trial","250","1795956","0.0-121.0","battery-v0.2","","""event"",""trial"",""time""
""fullscreenenter"",""1"",""6099""
","
","
","""event"",""trial"",""time""
""fullscreenenter"",""1"",""6099""
","
","","","-1","","","12","19469","6158","j","elianto","#3366ff99"," ","-1","0","0","[]","0","2","","","19469","117","9","1","win","go","0"
"pit-trial","251","1800809","0.0-122.0","battery-v0.2","","""event"",""trial"",""time""
""fullscreenenter"",""1"",""6099""
","
","
","""event"",""trial"",""time""
""fullscreenenter"",""1"",""6099""
","
","","","-1","","","12","19469","6158","d","elianto","#3366ff99"," ","-1","0","0","[]","0","2","","","19469","118","8","1","win","go","0"
"pit-trial","252","1805665","0.0-123.0","battery-v0.2","","""event"",""trial"",""time""
""fullscreenenter"",""1"",""6099""
","
","
","""event"",""trial"",""time""
""fullscreenenter"",""1"",""6099""
","
","","","-1","","","12","19469","6158","s","elianto","#3366ff99","-1","-1","1","0","[]","0","2","","","19469","119","5","2","win","no-go","1"
"pit-trial","253","1810517","0.0-124.0","battery-v0.2","","""event"",""trial"",""time""
""fullscreenenter"",""1"",""6099""
","
","
","""event"",""trial"",""time""
""fullscreenenter"",""1"",""6099""
","
","","","-1","","","12","19469","6158","w","elianto","#f73b6a7A"," ","-1","0","-10","[]","0","2","","","19469","120","6","3","lose","go","0"
"pit-trial","254","1815371","0.0-125.0","battery-v0.2","","""event"",""trial"",""time""
""fullscreenenter"",""1"",""6099""
","
","
","""event"",""trial"",""time""
""fullscreenenter"",""1"",""6099""
","
","","","-1","","","12","19469","6158","w","elianto","#f73b6a7A"," ","-1","0","-10","[]","0","2","","","19469","121","6","3","lose","go","0"
"pit-trial","255","1820223","0.0-126.0","battery-v0.2","","""event"",""trial"",""time""
""fullscreenenter"",""1"",""6099""
","
","
","""event"",""trial"",""time""
""fullscreenenter"",""1"",""6099""
","
","","","-1","","","12","19469","6158","d","elianto","#3366ff99"," ","-1","0","0","[]","0","2","","","19469","122","8","1","win","go","0"
"pit-trial","256","1825077","0.0-127.0","battery-v0.2","","""event"",""trial"",""time""
""fullscreenenter"",""1"",""6099""
","
","
","""event"",""trial"",""time""
""fullscreenenter"",""1"",""6099""
","
","","","-1","","","12","19469","6158","j","elianto","#3366ff99"," ","-1","0","0","[]","0","2","","","19469","123","9","1","win","go","0"
"pit-trial","257","1829930","0.0-128.0","battery-v0.2","","""event"",""trial"",""time""
""fullscreenenter"",""1"",""6099""
","
","
","""event"",""trial"",""time""
""fullscreenenter"",""1"",""6099""
","
","","","-1","","","12","19469","6158","e","elianto","#f73b6a7A","-1","-1","1","0","[]","0","2","","","19469","124","7","4","lose","no-go","0"
"pit-trial","258","1834787","0.0-129.0","battery-v0.2","","""event"",""trial"",""time""
""fullscreenenter"",""1"",""6099""
","
","
","""event"",""trial"",""time""
""fullscreenenter"",""1"",""6099""
","
","","","-1","","","12","19469","6158","w","elianto","#f73b6a7A"," ","-1","0","0","[]","0","2","","","19469","125","6","3","lose","go","1"
"pit-trial","259","1839640","0.0-130.0","battery-v0.2","","""event"",""trial"",""time""
""fullscreenenter"",""1"",""6099""
","
","
","""event"",""trial"",""time""
""fullscreenenter"",""1"",""6099""
","
","","","-1","","","12","19469","6158","d","elianto","#3366ff99"," ","-1","0","0","[]","0","2","","","19469","126","8","1","win","go","0"
"pit-trial","260","1844492","0.0-131.0","battery-v0.2","","""event"",""trial"",""time""
""fullscreenenter"",""1"",""6099""
","
","
","""event"",""trial"",""time""
""fullscreenenter"",""1"",""6099""
","
","","","-1","","","12","19469","6158","e","elianto","#f73b6a7A","-1","-1","1","0","[]","0","2","","","19469","127","7","4","lose","no-go","0"
"pit-trial","261","1849345","0.0-132.0","battery-v0.2","","""event"",""trial"",""time""
""fullscreenenter"",""1"",""6099""
","
","
","""event"",""trial"",""time""
""fullscreenenter"",""1"",""6099""
","
","","","-1","","","12","19469","6158","j","elianto","#3366ff99"," ","-1","0","0","[]","0","2","","","19469","128","9","1","win","go","0"
"pit-trial","262","1854197","0.0-133.0","battery-v0.2","","""event"",""trial"",""time""
""fullscreenenter"",""1"",""6099""
","
","
","""event"",""trial"",""time""
""fullscreenenter"",""1"",""6099""
","
","","","-1","","","12","19469","6158","e","elianto","#f73b6a7A","-1","-1","1","0","[]","0","2","","","19469","129","7","4","lose","no-go","0"
"pit-trial","263","1859050","0.0-134.0","battery-v0.2","","""event"",""trial"",""time""
""fullscreenenter"",""1"",""6099""
","
","
","""event"",""trial"",""time""
""fullscreenenter"",""1"",""6099""
","
","","","-1","","","12","19469","6158","w","elianto","#f73b6a7A"," ","-1","0","-10","[]","0","2","","","19469","130","6","3","lose","go","0"
"pit-trial","264","1863904","0.0-135.0","battery-v0.2","","""event"",""trial"",""time""
""fullscreenenter"",""1"",""6099""
","
","
","""event"",""trial"",""time""
""fullscreenenter"",""1"",""6099""
","
","","","-1","","","12","19469","6158","j","elianto","#3366ff99"," ","-1","0","0","[]","0","2","","","19469","131","9","1","win","go","0"
"pit-trial","265","1868757","0.0-136.0","battery-v0.2","","""event"",""trial"",""time""
""fullscreenenter"",""1"",""6099""
","
","
","""event"",""trial"",""time""
""fullscreenenter"",""1"",""6099""
","
","","","-1","","","12","19469","6158","d","elianto","#3366ff99"," ","-1","0","0","[]","0","2","","","19469","132","8","1","win","go","0"
"pit-trial","266","1873610","0.0-137.0","battery-v0.2","","""event"",""trial"",""time""
""fullscreenenter"",""1"",""6099""
","
","
","""event"",""trial"",""time""
""fullscreenenter"",""1"",""6099""
","
","","","-1","","","12","19469","6158","d","elianto","#3366ff99"," ","-1","0","0","[]","0","2","","","19469","133","8","1","win","go","0"
"pit-trial","267","1878478","0.0-138.0","battery-v0.2","","""event"",""trial"",""time""
""fullscreenenter"",""1"",""6099""
","
","
","""event"",""trial"",""time""
""fullscreenenter"",""1"",""6099""
","
","","","-1","","","12","19469","6158","e","elianto","#f73b6a7A","-1","-1","1","-10","[]","0","2","","","19469","134","7","4","lose","no-go","1"
"pit-trial","268","1883332","0.0-139.0","battery-v0.2","","""event"",""trial"",""time""
""fullscreenenter"",""1"",""6099""
","
","
","""event"",""trial"",""time""
""fullscreenenter"",""1"",""6099""
","
","","","-1","","","12","19469","6158","j","elianto","#3366ff99"," ","-1","0","0","[]","0","2","","","19469","135","9","1","win","go","0"
"pit-trial","269","1887322","0.0-140.0","battery-v0.2","","""event"",""trial"",""time""
""fullscreenenter"",""1"",""6099""
","
","
","""event"",""trial"",""time""
""fullscreenenter"",""1"",""6099""
","
","","","1137.5","","","12","19469","6158","w","elianto","#f73b6a7A"," "," ","1","0","[1987.800000011921]","1","2","","","19469","136","6","3","lose","go","0"
"pit-trial","270","1892176","0.0-141.0","battery-v0.2","","""event"",""trial"",""time""
""fullscreenenter"",""1"",""6099""
","
","
","""event"",""trial"",""time""
""fullscreenenter"",""1"",""6099""
","
","","","-1","","","12","19469","6158","j","elianto","#3366ff99"," ","-1","0","0","[]","0","2","","","19469","137","9","1","win","go","0"
"pit-trial","271","1896686","0.0-142.0","battery-v0.2","","""event"",""trial"",""time""
""fullscreenenter"",""1"",""6099""
","
","
","""event"",""trial"",""time""
""fullscreenenter"",""1"",""6099""
","
","","","1657.6000000238419","","","12","19469","6158","d","elianto","#3366ff99"," "," ","1","+10","[2508.399999976158]","1","2","","","19469","138","8","1","win","go","0"
"pit-trial","272","1901539","0.0-143.0","battery-v0.2","","""event"",""trial"",""time""
""fullscreenenter"",""1"",""6099""
","
","
","""event"",""trial"",""time""
""fullscreenenter"",""1"",""6099""
","
","","","-1","","","12","19469","6158","e","elianto","#f73b6a7A","-1","-1","1","0","[]","0","2","","","19469","139","7","4","lose","no-go","0"
