"trial_type","trial_index","time_elapsed","internal_node_id","task_version","subject_id","interactions","blur_events","focus_events","fullscreenenter_events","fullscreenexit_events","success","view_history","rt","responses","num_errors","age","subject","participantId","rune","rune_set","hex","correct","choice","accuracy","outcome","keys","total_keys","block","practice","value","sub","trial","stimulus","robot","valence","action","sham"
"pavlovia","0","4","0.0-0.0","battery-v0.2","","""event"",""trial"",""time""
""fullscreenenter"",""1"",""4394""
","
","
","""event"",""trial"",""time""
""fullscreenenter"",""1"",""4394""
","
","","","","","","","","","","","","","","","","","","","","","","","","","","",""
"fullscreen","1","5382","0.0-1.0","battery-v0.2","","""event"",""trial"",""time""
""fullscreenenter"",""1"",""4394""
","
","
","""event"",""trial"",""time""
""fullscreenenter"",""1"",""4394""
","
","true","","","","","","","","","","","","","","","","","","","","","","","","","",""
"pit-instructions","2","10652","0.0-2.0-0.0","battery-v0.2","","""event"",""trial"",""time""
""fullscreenenter"",""1"",""4394""
""fullscreenexit"",""3"",""27779""
""blur"",""3"",""29556""
""focus"",""3"",""34284""
","""event"",""trial"",""time""
""blur"",""3"",""29556""
","""event"",""trial"",""time""
""focus"",""3"",""34284""
","""event"",""trial"",""time""
""fullscreenenter"",""1"",""4394""
","""event"",""trial"",""time""
""fullscreenexit"",""3"",""27779""
","","[{""page_index"":0,""viewing_time"":5264.200000047684}]","5264.399999976158","","","","","","","","","","","","","","","","","","","","","","","",""
"pit-comprehension","3","34396","0.0-2.0-1.0-0.0","battery-v0.2","","""event"",""trial"",""time""
""fullscreenenter"",""1"",""4394""
""fullscreenexit"",""3"",""27779""
""blur"",""3"",""29556""
""focus"",""3"",""34284""
","""event"",""trial"",""time""
""blur"",""3"",""29556""
","""event"",""trial"",""time""
""focus"",""3"",""34284""
","""event"",""trial"",""time""
""fullscreenenter"",""1"",""4394""
","""event"",""trial"",""time""
""fullscreenexit"",""3"",""27779""
","","","23742.300000071526","[""shark""]","0","11","10128","4784","","","","","","","","","","","","","","","","","","",""
"pit-instructions","4","37376","0.0-2.0-1.0-1.0","battery-v0.2","","""event"",""trial"",""time""
""fullscreenenter"",""1"",""4394""
""fullscreenexit"",""3"",""27779""
""blur"",""3"",""29556""
""focus"",""3"",""34284""
","""event"",""trial"",""time""
""blur"",""3"",""29556""
","""event"",""trial"",""time""
""focus"",""3"",""34284""
","""event"",""trial"",""time""
""fullscreenenter"",""1"",""4394""
","""event"",""trial"",""time""
""fullscreenexit"",""3"",""27779""
","","[{""page_index"":0,""viewing_time"":2974.5}]","2974.6999999284744","","","","","","","","","","","","","","","","","","","","","","","",""
"pit-comprehension","5","52962","0.0-2.0-2.0-0.0","battery-v0.2","","""event"",""trial"",""time""
""fullscreenenter"",""1"",""4394""
""fullscreenexit"",""3"",""27779""
""blur"",""3"",""29556""
""focus"",""3"",""34284""
","""event"",""trial"",""time""
""blur"",""3"",""29556""
","""event"",""trial"",""time""
""focus"",""3"",""34284""
","""event"",""trial"",""time""
""fullscreenenter"",""1"",""4394""
","""event"",""trial"",""time""
""fullscreenexit"",""3"",""27779""
","","","15584.399999976158","[""turtle""]","1","11","10128","4784","","","","","","","","","","","","","","","","","","",""
"pit-instructions","6","54767","0.0-2.0-2.0-1.0","battery-v0.2","","""event"",""trial"",""time""
""fullscreenenter"",""1"",""4394""
""fullscreenexit"",""3"",""27779""
""blur"",""3"",""29556""
""focus"",""3"",""34284""
","""event"",""trial"",""time""
""blur"",""3"",""29556""
","""event"",""trial"",""time""
""focus"",""3"",""34284""
","""event"",""trial"",""time""
""fullscreenenter"",""1"",""4394""
","""event"",""trial"",""time""
""fullscreenexit"",""3"",""27779""
","","[{""page_index"":0,""viewing_time"":1803.6999999284744}]","1803.7999999523163","","","","","","","","","","","","","","","","","","","","","","","",""
"pit-instructions","7","56285","0.0-2.0-2.0-2.0-0.0","battery-v0.2","","""event"",""trial"",""time""
""fullscreenenter"",""1"",""4394""
""fullscreenexit"",""3"",""27779""
""blur"",""3"",""29556""
""focus"",""3"",""34284""
","""event"",""trial"",""time""
""blur"",""3"",""29556""
","""event"",""trial"",""time""
""focus"",""3"",""34284""
","""event"",""trial"",""time""
""fullscreenenter"",""1"",""4394""
","""event"",""trial"",""time""
""fullscreenexit"",""3"",""27779""
","","[{""page_index"":0,""viewing_time"":1517.1999999284744}]","1517.2999999523163","","","","","","","","","","","","","","","","","","","","","","","",""
"pit-comprehension","8","73997","0.0-2.0-2.1-0.1","battery-v0.2","","""event"",""trial"",""time""
""fullscreenenter"",""1"",""4394""
""fullscreenexit"",""3"",""27779""
""blur"",""3"",""29556""
""focus"",""3"",""34284""
","""event"",""trial"",""time""
""blur"",""3"",""29556""
","""event"",""trial"",""time""
""focus"",""3"",""34284""
","""event"",""trial"",""time""
""fullscreenenter"",""1"",""4394""
","""event"",""trial"",""time""
""fullscreenexit"",""3"",""27779""
","","","17711.100000023842","[""tiger""]","0","11","10128","4784","","","","","","","","","","","","","","","","","","",""
"pit-instructions","9","75944","0.0-2.0-2.1-1.1","battery-v0.2","","""event"",""trial"",""time""
""fullscreenenter"",""1"",""4394""
""fullscreenexit"",""3"",""27779""
""blur"",""3"",""29556""
""focus"",""3"",""34284""
""blur"",""10"",""136154""
""focus"",""10"",""168721""
""blur"",""10"",""168835""
""focus"",""10"",""192366""
","""event"",""trial"",""time""
""blur"",""3"",""29556""
""blur"",""10"",""136154""
""blur"",""10"",""168835""
","""event"",""trial"",""time""
""focus"",""3"",""34284""
""focus"",""10"",""168721""
""focus"",""10"",""192366""
","""event"",""trial"",""time""
""fullscreenenter"",""1"",""4394""
","""event"",""trial"",""time""
""fullscreenexit"",""3"",""27779""
","","[{""page_index"":0,""viewing_time"":1944.8999999761581}]","1945","","","","","","","","","","","","","","","","","","","","","","","",""
"pit-instructions","10","287789","0.0-2.0-3.0","battery-v0.2","","""event"",""trial"",""time""
""fullscreenenter"",""1"",""4394""
""fullscreenexit"",""3"",""27779""
""blur"",""3"",""29556""
""focus"",""3"",""34284""
""blur"",""10"",""136154""
""focus"",""10"",""168721""
""blur"",""10"",""168835""
""focus"",""10"",""192366""
","""event"",""trial"",""time""
""blur"",""3"",""29556""
""blur"",""10"",""136154""
""blur"",""10"",""168835""
","""event"",""trial"",""time""
""focus"",""3"",""34284""
""focus"",""10"",""168721""
""focus"",""10"",""192366""
","""event"",""trial"",""time""
""fullscreenenter"",""1"",""4394""
","""event"",""trial"",""time""
""fullscreenexit"",""3"",""27779""
","","[{""page_index"":0,""viewing_time"":122538.89999997616},{""page_index"":1,""viewing_time"":7451.600000023842},{""page_index"":2,""viewing_time"":6869.199999928474},{""page_index"":3,""viewing_time"":5163.800000071526},{""page_index"":4,""viewing_time"":6184},{""page_index"":5,""viewing_time"":5782.199999928474},{""page_index"":6,""viewing_time"":6957.5},{""page_index"":7,""viewing_time"":6988.5},{""page_index"":8,""viewing_time"":6153.300000071526},{""page_index"":9,""viewing_time"":9651.599999904633},{""page_index"":10,""viewing_time"":7795.800000071526},{""page_index"":11,""viewing_time"":8046.299999952316},{""page_index"":12,""viewing_time"":6871},{""page_index"":13,""viewing_time"":5388.300000071526}]","211842.69999992847","","","","","","","","","","","","","","","","","","","","","","","",""
"pit-trial","11","291218","0.0-2.0-4.0-0.0","battery-v0.2","","""event"",""trial"",""time""
""fullscreenenter"",""1"",""4394""
""fullscreenexit"",""3"",""27779""
""blur"",""3"",""29556""
""focus"",""3"",""34284""
""blur"",""10"",""136154""
""focus"",""10"",""168721""
""blur"",""10"",""168835""
""focus"",""10"",""192366""
","""event"",""trial"",""time""
""blur"",""3"",""29556""
""blur"",""10"",""136154""
""blur"",""10"",""168835""
","""event"",""trial"",""time""
""focus"",""3"",""34284""
""focus"",""10"",""168721""
""focus"",""10"",""192366""
","""event"",""trial"",""time""
""fullscreenenter"",""1"",""4394""
","""event"",""trial"",""time""
""fullscreenexit"",""3"",""27779""
","","","556.8000000715256","","","11","10128","4784","&#9784;","elianto","#FFFFF080"," "," ","1","&#10004","[1412.2000000476837]","1","0","0","","","","","","","",""
"pit-trial","12","294656","0.0-2.0-4.1-0.1","battery-v0.2","","""event"",""trial"",""time""
""fullscreenenter"",""1"",""4394""
""fullscreenexit"",""3"",""27779""
""blur"",""3"",""29556""
""focus"",""3"",""34284""
""blur"",""10"",""136154""
""focus"",""10"",""168721""
""blur"",""10"",""168835""
""focus"",""10"",""192366""
","""event"",""trial"",""time""
""blur"",""3"",""29556""
""blur"",""10"",""136154""
""blur"",""10"",""168835""
","""event"",""trial"",""time""
""focus"",""3"",""34284""
""focus"",""10"",""168721""
""focus"",""10"",""192366""
","""event"",""trial"",""time""
""fullscreenenter"",""1"",""4394""
","""event"",""trial"",""time""
""fullscreenexit"",""3"",""27779""
","","","582.6000000238419","","","11","10128","4784","&#9784;","elianto","#FFFFF080"," "," ","1","&#10004","[1434.3999999761581]","1","0","0","","","","","","","",""
"pit-trial","13","298089","0.0-2.0-4.2-0.2","battery-v0.2","","""event"",""trial"",""time""
""fullscreenenter"",""1"",""4394""
""fullscreenexit"",""3"",""27779""
""blur"",""3"",""29556""
""focus"",""3"",""34284""
""blur"",""10"",""136154""
""focus"",""10"",""168721""
""blur"",""10"",""168835""
""focus"",""10"",""192366""
","""event"",""trial"",""time""
""blur"",""3"",""29556""
""blur"",""10"",""136154""
""blur"",""10"",""168835""
","""event"",""trial"",""time""
""focus"",""3"",""34284""
""focus"",""10"",""168721""
""focus"",""10"",""192366""
","""event"",""trial"",""time""
""fullscreenenter"",""1"",""4394""
","""event"",""trial"",""time""
""fullscreenexit"",""3"",""27779""
","","","563.6000000238419","","","11","10128","4784","&#9784;","elianto","#FFFFF080"," "," ","1","&#10004","[1416.3999999761581]","1","0","0","","","","","","","",""
"pit-trial","14","301479","0.0-2.0-4.3-0.3","battery-v0.2","","""event"",""trial"",""time""
""fullscreenenter"",""1"",""4394""
""fullscreenexit"",""3"",""27779""
""blur"",""3"",""29556""
""focus"",""3"",""34284""
""blur"",""10"",""136154""
""focus"",""10"",""168721""
""blur"",""10"",""168835""
""focus"",""10"",""192366""
","""event"",""trial"",""time""
""blur"",""3"",""29556""
""blur"",""10"",""136154""
""blur"",""10"",""168835""
","""event"",""trial"",""time""
""focus"",""3"",""34284""
""focus"",""10"",""168721""
""focus"",""10"",""192366""
","""event"",""trial"",""time""
""fullscreenenter"",""1"",""4394""
","""event"",""trial"",""time""
""fullscreenexit"",""3"",""27779""
","","","522.1999999284744","","","11","10128","4784","&#9784;","elianto","#FFFFF080"," "," ","1","&#10004","[1377.5]","1","0","0","","","","","","","",""
"pit-trial","15","304878","0.0-2.0-4.4-0.4","battery-v0.2","","""event"",""trial"",""time""
""fullscreenenter"",""1"",""4394""
""fullscreenexit"",""3"",""27779""
""blur"",""3"",""29556""
""focus"",""3"",""34284""
""blur"",""10"",""136154""
""focus"",""10"",""168721""
""blur"",""10"",""168835""
""focus"",""10"",""192366""
","""event"",""trial"",""time""
""blur"",""3"",""29556""
""blur"",""10"",""136154""
""blur"",""10"",""168835""
","""event"",""trial"",""time""
""focus"",""3"",""34284""
""focus"",""10"",""168721""
""focus"",""10"",""192366""
","""event"",""trial"",""time""
""fullscreenenter"",""1"",""4394""
","""event"",""trial"",""time""
""fullscreenexit"",""3"",""27779""
","","","543.3000000715256","","","11","10128","4784","&#9784;","elianto","#FFFFF080"," "," ","1","&#10004","[1393.4000000953674]","1","0","0","","","","","","","",""
"pit-instructions","16","331177","0.0-2.0-5.0","battery-v0.2","","""event"",""trial"",""time""
""fullscreenenter"",""1"",""4394""
""fullscreenexit"",""3"",""27779""
""blur"",""3"",""29556""
""focus"",""3"",""34284""
""blur"",""10"",""136154""
""focus"",""10"",""168721""
""blur"",""10"",""168835""
""focus"",""10"",""192366""
","""event"",""trial"",""time""
""blur"",""3"",""29556""
""blur"",""10"",""136154""
""blur"",""10"",""168835""
","""event"",""trial"",""time""
""focus"",""3"",""34284""
""focus"",""10"",""168721""
""focus"",""10"",""192366""
","""event"",""trial"",""time""
""fullscreenenter"",""1"",""4394""
","""event"",""trial"",""time""
""fullscreenexit"",""3"",""27779""
","","[{""page_index"":0,""viewing_time"":5955.100000023842},{""page_index"":1,""viewing_time"":5989.699999928474},{""page_index"":2,""viewing_time"":8028.900000095367},{""page_index"":3,""viewing_time"":6319}]","26293.299999952316","","","","","","","","","","","","","","","","","","","","","","","",""
"pit-trial","17","336055","0.0-2.0-6.0-0.0","battery-v0.2","","""event"",""trial"",""time""
""fullscreenenter"",""1"",""4394""
""fullscreenexit"",""3"",""27779""
""blur"",""3"",""29556""
""focus"",""3"",""34284""
""blur"",""10"",""136154""
""focus"",""10"",""168721""
""blur"",""10"",""168835""
""focus"",""10"",""192366""
","""event"",""trial"",""time""
""blur"",""3"",""29556""
""blur"",""10"",""136154""
""blur"",""10"",""168835""
","""event"",""trial"",""time""
""focus"",""3"",""34284""
""focus"",""10"",""168721""
""focus"",""10"",""192366""
","""event"",""trial"",""time""
""fullscreenenter"",""1"",""4394""
","""event"",""trial"",""time""
""fullscreenexit"",""3"",""27779""
","","","-1","","","11","10128","4784","&#9854;","elianto","#FFFFF080","-1","-1","1","&#10004","[]","0","0","1","","","","","","","",""
"pit-trial","18","340930","0.0-2.0-6.1-0.1","battery-v0.2","","""event"",""trial"",""time""
""fullscreenenter"",""1"",""4394""
""fullscreenexit"",""3"",""27779""
""blur"",""3"",""29556""
""focus"",""3"",""34284""
""blur"",""10"",""136154""
""focus"",""10"",""168721""
""blur"",""10"",""168835""
""focus"",""10"",""192366""
","""event"",""trial"",""time""
""blur"",""3"",""29556""
""blur"",""10"",""136154""
""blur"",""10"",""168835""
","""event"",""trial"",""time""
""focus"",""3"",""34284""
""focus"",""10"",""168721""
""focus"",""10"",""192366""
","""event"",""trial"",""time""
""fullscreenenter"",""1"",""4394""
","""event"",""trial"",""time""
""fullscreenexit"",""3"",""27779""
","","","-1","","","11","10128","4784","&#9854;","elianto","#FFFFF080","-1","-1","1","&#10004","[]","0","0","1","","","","","","","",""
"pit-trial","19","345800","0.0-2.0-6.2-0.2","battery-v0.2","","""event"",""trial"",""time""
""fullscreenenter"",""1"",""4394""
""fullscreenexit"",""3"",""27779""
""blur"",""3"",""29556""
""focus"",""3"",""34284""
""blur"",""10"",""136154""
""focus"",""10"",""168721""
""blur"",""10"",""168835""
""focus"",""10"",""192366""
","""event"",""trial"",""time""
""blur"",""3"",""29556""
""blur"",""10"",""136154""
""blur"",""10"",""168835""
","""event"",""trial"",""time""
""focus"",""3"",""34284""
""focus"",""10"",""168721""
""focus"",""10"",""192366""
","""event"",""trial"",""time""
""fullscreenenter"",""1"",""4394""
","""event"",""trial"",""time""
""fullscreenexit"",""3"",""27779""
","","","-1","","","11","10128","4784","&#9854;","elianto","#FFFFF080","-1","-1","1","&#10004","[]","0","0","1","","","","","","","",""
"pit-trial","20","350679","0.0-2.0-6.3-0.3","battery-v0.2","","""event"",""trial"",""time""
""fullscreenenter"",""1"",""4394""
""fullscreenexit"",""3"",""27779""
""blur"",""3"",""29556""
""focus"",""3"",""34284""
""blur"",""10"",""136154""
""focus"",""10"",""168721""
""blur"",""10"",""168835""
""focus"",""10"",""192366""
","""event"",""trial"",""time""
""blur"",""3"",""29556""
""blur"",""10"",""136154""
""blur"",""10"",""168835""
","""event"",""trial"",""time""
""focus"",""3"",""34284""
""focus"",""10"",""168721""
""focus"",""10"",""192366""
","""event"",""trial"",""time""
""fullscreenenter"",""1"",""4394""
","""event"",""trial"",""time""
""fullscreenexit"",""3"",""27779""
","","","-1","","","11","10128","4784","&#9854;","elianto","#FFFFF080","-1","-1","1","&#10004","[]","0","0","1","","","","","","","",""
"pit-trial","21","355551","0.0-2.0-6.4-0.4","battery-v0.2","","""event"",""trial"",""time""
""fullscreenenter"",""1"",""4394""
""fullscreenexit"",""3"",""27779""
""blur"",""3"",""29556""
""focus"",""3"",""34284""
""blur"",""10"",""136154""
""focus"",""10"",""168721""
""blur"",""10"",""168835""
""focus"",""10"",""192366""
","""event"",""trial"",""time""
""blur"",""3"",""29556""
""blur"",""10"",""136154""
""blur"",""10"",""168835""
","""event"",""trial"",""time""
""focus"",""3"",""34284""
""focus"",""10"",""168721""
""focus"",""10"",""192366""
","""event"",""trial"",""time""
""fullscreenenter"",""1"",""4394""
","""event"",""trial"",""time""
""fullscreenexit"",""3"",""27779""
","","","-1","","","11","10128","4784","&#9854;","elianto","#FFFFF080","-1","-1","1","&#10004","[]","0","0","1","","","","","","","",""
"pit-instructions","22","484098","0.0-2.0-7.0","battery-v0.2","","""event"",""trial"",""time""
""fullscreenenter"",""1"",""4394""
""fullscreenexit"",""3"",""27779""
""blur"",""3"",""29556""
""focus"",""3"",""34284""
""blur"",""10"",""136154""
""focus"",""10"",""168721""
""blur"",""10"",""168835""
""focus"",""10"",""192366""
","""event"",""trial"",""time""
""blur"",""3"",""29556""
""blur"",""10"",""136154""
""blur"",""10"",""168835""
","""event"",""trial"",""time""
""focus"",""3"",""34284""
""focus"",""10"",""168721""
""focus"",""10"",""192366""
","""event"",""trial"",""time""
""fullscreenenter"",""1"",""4394""
","""event"",""trial"",""time""
""fullscreenexit"",""3"",""27779""
","","[{""page_index"":0,""viewing_time"":10313.300000071526},{""page_index"":1,""viewing_time"":7554.100000023842},{""page_index"":2,""viewing_time"":6372.299999952316},{""page_index"":3,""viewing_time"":6915.700000047684},{""page_index"":4,""viewing_time"":6148.599999904633},{""page_index"":5,""viewing_time"":5876.700000047684},{""page_index"":6,""viewing_time"":4726.799999952316},{""page_index"":7,""viewing_time"":8232.300000071526},{""page_index"":8,""viewing_time"":7361.600000023842},{""page_index"":9,""viewing_time"":6747.599999904633},{""page_index"":10,""viewing_time"":7547.700000047684},{""page_index"":11,""viewing_time"":5269.700000047684},{""page_index"":12,""viewing_time"":9299.599999904633},{""page_index"":13,""viewing_time"":6635.900000095367},{""page_index"":14,""viewing_time"":7753.099999904633},{""page_index"":15,""viewing_time"":6281},{""page_index"":16,""viewing_time"":7219},{""page_index"":17,""viewing_time"":8288.400000095367}]","128544.10000002384","","","","","","","","","","","","","","","","","","","","","","","",""
"pit-trial","23","487435","0.0-2.0-8.0-0.0","battery-v0.2","","""event"",""trial"",""time""
""fullscreenenter"",""1"",""4394""
""fullscreenexit"",""3"",""27779""
""blur"",""3"",""29556""
""focus"",""3"",""34284""
""blur"",""10"",""136154""
""focus"",""10"",""168721""
""blur"",""10"",""168835""
""focus"",""10"",""192366""
","""event"",""trial"",""time""
""blur"",""3"",""29556""
""blur"",""10"",""136154""
""blur"",""10"",""168835""
","""event"",""trial"",""time""
""focus"",""3"",""34284""
""focus"",""10"",""168721""
""focus"",""10"",""192366""
","""event"",""trial"",""time""
""fullscreenenter"",""1"",""4394""
","""event"",""trial"",""time""
""fullscreenexit"",""3"",""27779""
","","","473.5","","","11","10128","4784","&#9776;","elianto","#3366ff99"," "," ","1","+10","[1323.2999999523163]","1","0","1","","","","","","","",""
"pit-trial","24","492300","0.0-2.0-8.0-1.0","battery-v0.2","","""event"",""trial"",""time""
""fullscreenenter"",""1"",""4394""
""fullscreenexit"",""3"",""27779""
""blur"",""3"",""29556""
""focus"",""3"",""34284""
""blur"",""10"",""136154""
""focus"",""10"",""168721""
""blur"",""10"",""168835""
""focus"",""10"",""192366""
","""event"",""trial"",""time""
""blur"",""3"",""29556""
""blur"",""10"",""136154""
""blur"",""10"",""168835""
","""event"",""trial"",""time""
""focus"",""3"",""34284""
""focus"",""10"",""168721""
""focus"",""10"",""192366""
","""event"",""trial"",""time""
""fullscreenenter"",""1"",""4394""
","""event"",""trial"",""time""
""fullscreenexit"",""3"",""27779""
","","","-1","","","11","10128","4784","&#9776;","elianto","#3366ff99"," ","-1","0","0","[]","0","0","1","","","","","","","",""
"pit-trial","25","495668","0.0-2.0-8.0-2.0","battery-v0.2","","""event"",""trial"",""time""
""fullscreenenter"",""1"",""4394""
""fullscreenexit"",""3"",""27779""
""blur"",""3"",""29556""
""focus"",""3"",""34284""
""blur"",""10"",""136154""
""focus"",""10"",""168721""
""blur"",""10"",""168835""
""focus"",""10"",""192366""
","""event"",""trial"",""time""
""blur"",""3"",""29556""
""blur"",""10"",""136154""
""blur"",""10"",""168835""
","""event"",""trial"",""time""
""focus"",""3"",""34284""
""focus"",""10"",""168721""
""focus"",""10"",""192366""
","""event"",""trial"",""time""
""fullscreenenter"",""1"",""4394""
","""event"",""trial"",""time""
""fullscreenexit"",""3"",""27779""
","","","503","","","11","10128","4784","&#9776;","elianto","#3366ff99"," "," ","1","+10","[1358.7000000476837]","1","0","1","","","","","","","",""
"pit-trial","26","498904","0.0-2.0-8.0-3.0","battery-v0.2","","""event"",""trial"",""time""
""fullscreenenter"",""1"",""4394""
""fullscreenexit"",""3"",""27779""
""blur"",""3"",""29556""
""focus"",""3"",""34284""
""blur"",""10"",""136154""
""focus"",""10"",""168721""
""blur"",""10"",""168835""
""focus"",""10"",""192366""
","""event"",""trial"",""time""
""blur"",""3"",""29556""
""blur"",""10"",""136154""
""blur"",""10"",""168835""
","""event"",""trial"",""time""
""focus"",""3"",""34284""
""focus"",""10"",""168721""
""focus"",""10"",""192366""
","""event"",""trial"",""time""
""fullscreenenter"",""1"",""4394""
","""event"",""trial"",""time""
""fullscreenexit"",""3"",""27779""
","","","372.7000000476837","","","11","10128","4784","&#9776;","elianto","#3366ff99"," "," ","1","0","[1226.8000000715256]","1","0","1","","","","","","","",""
"pit-trial","27","502050","0.0-2.0-8.0-4.0","battery-v0.2","","""event"",""trial"",""time""
""fullscreenenter"",""1"",""4394""
""fullscreenexit"",""3"",""27779""
""blur"",""3"",""29556""
""focus"",""3"",""34284""
""blur"",""10"",""136154""
""focus"",""10"",""168721""
""blur"",""10"",""168835""
""focus"",""10"",""192366""
","""event"",""trial"",""time""
""blur"",""3"",""29556""
""blur"",""10"",""136154""
""blur"",""10"",""168835""
","""event"",""trial"",""time""
""focus"",""3"",""34284""
""focus"",""10"",""168721""
""focus"",""10"",""192366""
","""event"",""trial"",""time""
""fullscreenenter"",""1"",""4394""
","""event"",""trial"",""time""
""fullscreenexit"",""3"",""27779""
","","","282.6999999284744","","","11","10128","4784","&#9776;","elianto","#3366ff99"," "," ","1","+10","[1134.2999999523163]","1","0","1","","","","","","","",""
"pit-trial","28","505536","0.0-2.0-8.1-0.1","battery-v0.2","","""event"",""trial"",""time""
""fullscreenenter"",""1"",""4394""
""fullscreenexit"",""3"",""27779""
""blur"",""3"",""29556""
""focus"",""3"",""34284""
""blur"",""10"",""136154""
""focus"",""10"",""168721""
""blur"",""10"",""168835""
""focus"",""10"",""192366""
","""event"",""trial"",""time""
""blur"",""3"",""29556""
""blur"",""10"",""136154""
""blur"",""10"",""168835""
","""event"",""trial"",""time""
""focus"",""3"",""34284""
""focus"",""10"",""168721""
""focus"",""10"",""192366""
","""event"",""trial"",""time""
""fullscreenenter"",""1"",""4394""
","""event"",""trial"",""time""
""fullscreenexit"",""3"",""27779""
","","","625.1000000238419","","","11","10128","4784","&#9776;","elianto","#3366ff99"," "," ","1","+10","[1475.6999999284744]","1","0","1","","","","","","","",""
"pit-trial","29","508937","0.0-2.0-8.1-1.1","battery-v0.2","","""event"",""trial"",""time""
""fullscreenenter"",""1"",""4394""
""fullscreenexit"",""3"",""27779""
""blur"",""3"",""29556""
""focus"",""3"",""34284""
""blur"",""10"",""136154""
""focus"",""10"",""168721""
""blur"",""10"",""168835""
""focus"",""10"",""192366""
","""event"",""trial"",""time""
""blur"",""3"",""29556""
""blur"",""10"",""136154""
""blur"",""10"",""168835""
","""event"",""trial"",""time""
""focus"",""3"",""34284""
""focus"",""10"",""168721""
""focus"",""10"",""192366""
","""event"",""trial"",""time""
""fullscreenenter"",""1"",""4394""
","""event"",""trial"",""time""
""fullscreenexit"",""3"",""27779""
","","","541.7999999523163","","","11","10128","4784","&#9776;","elianto","#3366ff99"," "," ","1","+10","[1394.3999999761581]","1","0","1","","","","","","","",""
"pit-trial","30","511994","0.0-2.0-8.1-2.1","battery-v0.2","","""event"",""trial"",""time""
""fullscreenenter"",""1"",""4394""
""fullscreenexit"",""3"",""27779""
""blur"",""3"",""29556""
""focus"",""3"",""34284""
""blur"",""10"",""136154""
""focus"",""10"",""168721""
""blur"",""10"",""168835""
""focus"",""10"",""192366""
","""event"",""trial"",""time""
""blur"",""3"",""29556""
""blur"",""10"",""136154""
""blur"",""10"",""168835""
","""event"",""trial"",""time""
""focus"",""3"",""34284""
""focus"",""10"",""168721""
""focus"",""10"",""192366""
","""event"",""trial"",""time""
""fullscreenenter"",""1"",""4394""
","""event"",""trial"",""time""
""fullscreenexit"",""3"",""27779""
","","","189.29999995231628","","","11","10128","4784","&#9776;","elianto","#3366ff99"," "," ","1","+10","[1040.5]","1","0","1","","","","","","","",""
"pit-trial","31","514986","0.0-2.0-8.1-3.1","battery-v0.2","","""event"",""trial"",""time""
""fullscreenenter"",""1"",""4394""
""fullscreenexit"",""3"",""27779""
""blur"",""3"",""29556""
""focus"",""3"",""34284""
""blur"",""10"",""136154""
""focus"",""10"",""168721""
""blur"",""10"",""168835""
""focus"",""10"",""192366""
","""event"",""trial"",""time""
""blur"",""3"",""29556""
""blur"",""10"",""136154""
""blur"",""10"",""168835""
","""event"",""trial"",""time""
""focus"",""3"",""34284""
""focus"",""10"",""168721""
""focus"",""10"",""192366""
","""event"",""trial"",""time""
""fullscreenenter"",""1"",""4394""
","""event"",""trial"",""time""
""fullscreenexit"",""3"",""27779""
","","","137.79999995231628","","","11","10128","4784","&#9776;","elianto","#3366ff99"," "," ","1","0","[987.8999999761581]","1","0","1","","","","","","","",""
"pit-trial","32","518298","0.0-2.0-8.1-4.1","battery-v0.2","","""event"",""trial"",""time""
""fullscreenenter"",""1"",""4394""
""fullscreenexit"",""3"",""27779""
""blur"",""3"",""29556""
""focus"",""3"",""34284""
""blur"",""10"",""136154""
""focus"",""10"",""168721""
""blur"",""10"",""168835""
""focus"",""10"",""192366""
","""event"",""trial"",""time""
""blur"",""3"",""29556""
""blur"",""10"",""136154""
""blur"",""10"",""168835""
","""event"",""trial"",""time""
""focus"",""3"",""34284""
""focus"",""10"",""168721""
""focus"",""10"",""192366""
","""event"",""trial"",""time""
""fullscreenenter"",""1"",""4394""
","""event"",""trial"",""time""
""fullscreenexit"",""3"",""27779""
","","","459","","","11","10128","4784","&#9776;","elianto","#3366ff99"," "," ","1","+10","[1309.3999999761581]","1","0","1","","","","","","","",""
"pit-trial","33","521528","0.0-2.0-8.2-0.2","battery-v0.2","","""event"",""trial"",""time""
""fullscreenenter"",""1"",""4394""
""fullscreenexit"",""3"",""27779""
""blur"",""3"",""29556""
""focus"",""3"",""34284""
""blur"",""10"",""136154""
""focus"",""10"",""168721""
""blur"",""10"",""168835""
""focus"",""10"",""192366""
","""event"",""trial"",""time""
""blur"",""3"",""29556""
""blur"",""10"",""136154""
""blur"",""10"",""168835""
","""event"",""trial"",""time""
""focus"",""3"",""34284""
""focus"",""10"",""168721""
""focus"",""10"",""192366""
","""event"",""trial"",""time""
""fullscreenenter"",""1"",""4394""
","""event"",""trial"",""time""
""fullscreenexit"",""3"",""27779""
","","","374.2000000476837","","","11","10128","4784","&#9776;","elianto","#3366ff99"," "," ","1","+10","[1225.7999999523163]","1","0","1","","","","","","","",""
"pit-trial","34","524691","0.0-2.0-8.2-1.2","battery-v0.2","","""event"",""trial"",""time""
""fullscreenenter"",""1"",""4394""
""fullscreenexit"",""3"",""27779""
""blur"",""3"",""29556""
""focus"",""3"",""34284""
""blur"",""10"",""136154""
""focus"",""10"",""168721""
""blur"",""10"",""168835""
""focus"",""10"",""192366""
","""event"",""trial"",""time""
""blur"",""3"",""29556""
""blur"",""10"",""136154""
""blur"",""10"",""168835""
","""event"",""trial"",""time""
""focus"",""3"",""34284""
""focus"",""10"",""168721""
""focus"",""10"",""192366""
","""event"",""trial"",""time""
""fullscreenenter"",""1"",""4394""
","""event"",""trial"",""time""
""fullscreenexit"",""3"",""27779""
","","","310.10000002384186","","","11","10128","4784","&#9776;","elianto","#3366ff99"," "," ","1","+10","[1160.4000000953674]","1","0","1","","","","","","","",""
"pit-trial","35","527942","0.0-2.0-8.2-2.2","battery-v0.2","","""event"",""trial"",""time""
""fullscreenenter"",""1"",""4394""
""fullscreenexit"",""3"",""27779""
""blur"",""3"",""29556""
""focus"",""3"",""34284""
""blur"",""10"",""136154""
""focus"",""10"",""168721""
""blur"",""10"",""168835""
""focus"",""10"",""192366""
","""event"",""trial"",""time""
""blur"",""3"",""29556""
""blur"",""10"",""136154""
""blur"",""10"",""168835""
","""event"",""trial"",""time""
""focus"",""3"",""34284""
""focus"",""10"",""168721""
""focus"",""10"",""192366""
","""event"",""trial"",""time""
""fullscreenenter"",""1"",""4394""
","""event"",""trial"",""time""
""fullscreenexit"",""3"",""27779""
","","","397.10000002384186","","","11","10128","4784","&#9776;","elianto","#3366ff99"," "," ","1","+10","[1247.2999999523163]","1","0","1","","","","","","","",""
"pit-trial","36","530978","0.0-2.0-8.2-3.2","battery-v0.2","","""event"",""trial"",""time""
""fullscreenenter"",""1"",""4394""
""fullscreenexit"",""3"",""27779""
""blur"",""3"",""29556""
""focus"",""3"",""34284""
""blur"",""10"",""136154""
""focus"",""10"",""168721""
""blur"",""10"",""168835""
""focus"",""10"",""192366""
","""event"",""trial"",""time""
""blur"",""3"",""29556""
""blur"",""10"",""136154""
""blur"",""10"",""168835""
","""event"",""trial"",""time""
""focus"",""3"",""34284""
""focus"",""10"",""168721""
""focus"",""10"",""192366""
","""event"",""trial"",""time""
""fullscreenenter"",""1"",""4394""
","""event"",""trial"",""time""
""fullscreenexit"",""3"",""27779""
","","","182.89999997615814","","","11","10128","4784","&#9776;","elianto","#3366ff99"," "," ","1","0","[1033.5]","1","0","1","","","","","","","",""
"pit-trial","37","533979","0.0-2.0-8.2-4.2","battery-v0.2","","""event"",""trial"",""time""
""fullscreenenter"",""1"",""4394""
""fullscreenexit"",""3"",""27779""
""blur"",""3"",""29556""
""focus"",""3"",""34284""
""blur"",""10"",""136154""
""focus"",""10"",""168721""
""blur"",""10"",""168835""
""focus"",""10"",""192366""
","""event"",""trial"",""time""
""blur"",""3"",""29556""
""blur"",""10"",""136154""
""blur"",""10"",""168835""
","""event"",""trial"",""time""
""focus"",""3"",""34284""
""focus"",""10"",""168721""
""focus"",""10"",""192366""
","""event"",""trial"",""time""
""fullscreenenter"",""1"",""4394""
","""event"",""trial"",""time""
""fullscreenexit"",""3"",""27779""
","","","146.39999997615814","","","11","10128","4784","&#9776;","elianto","#3366ff99"," "," ","1","+10","[997.5]","1","0","1","","","","","","","",""
"call-function","38","533981","0.0-2.0-9.0","battery-v0.2","","""event"",""trial"",""time""
""fullscreenenter"",""1"",""4394""
""fullscreenexit"",""3"",""27779""
""blur"",""3"",""29556""
""focus"",""3"",""34284""
""blur"",""10"",""136154""
""focus"",""10"",""168721""
""blur"",""10"",""168835""
""focus"",""10"",""192366""
","""event"",""trial"",""time""
""blur"",""3"",""29556""
""blur"",""10"",""136154""
""blur"",""10"",""168835""
","""event"",""trial"",""time""
""focus"",""3"",""34284""
""focus"",""10"",""168721""
""focus"",""10"",""192366""
","""event"",""trial"",""time""
""fullscreenenter"",""1"",""4394""
","""event"",""trial"",""time""
""fullscreenexit"",""3"",""27779""
","","","","","","","","","","","","","","","","","","","","","","","","","","",""
"pit-instructions","39","582643","0.0-2.0-10.0","battery-v0.2","","""event"",""trial"",""time""
""fullscreenenter"",""1"",""4394""
""fullscreenexit"",""3"",""27779""
""blur"",""3"",""29556""
""focus"",""3"",""34284""
""blur"",""10"",""136154""
""focus"",""10"",""168721""
""blur"",""10"",""168835""
""focus"",""10"",""192366""
","""event"",""trial"",""time""
""blur"",""3"",""29556""
""blur"",""10"",""136154""
""blur"",""10"",""168835""
","""event"",""trial"",""time""
""focus"",""3"",""34284""
""focus"",""10"",""168721""
""focus"",""10"",""192366""
","""event"",""trial"",""time""
""fullscreenenter"",""1"",""4394""
","""event"",""trial"",""time""
""fullscreenexit"",""3"",""27779""
","","[{""page_index"":0,""viewing_time"":9402.899999976158},{""page_index"":1,""viewing_time"":9189.100000023842},{""page_index"":2,""viewing_time"":10873.799999952316},{""page_index"":3,""viewing_time"":10330.399999976158},{""page_index"":4,""viewing_time"":8864.300000071526}]","48660.60000002384","","","","","","","","","","","","","","","","","","","","","","","",""
"pit-trial","40","587503","0.0-2.0-11.0-0.0","battery-v0.2","","""event"",""trial"",""time""
""fullscreenenter"",""1"",""4394""
""fullscreenexit"",""3"",""27779""
""blur"",""3"",""29556""
""focus"",""3"",""34284""
""blur"",""10"",""136154""
""focus"",""10"",""168721""
""blur"",""10"",""168835""
""focus"",""10"",""192366""
","""event"",""trial"",""time""
""blur"",""3"",""29556""
""blur"",""10"",""136154""
""blur"",""10"",""168835""
","""event"",""trial"",""time""
""focus"",""3"",""34284""
""focus"",""10"",""168721""
""focus"",""10"",""192366""
","""event"",""trial"",""time""
""fullscreenenter"",""1"",""4394""
","""event"",""trial"",""time""
""fullscreenexit"",""3"",""27779""
","","","-1","","","11","10128","4784","&#9761;","elianto","#3366ff99","-1","-1","1","+10","[]","0","0","2","","","","","","","",""
"pit-trial","41","592382","0.0-2.0-11.0-1.0","battery-v0.2","","""event"",""trial"",""time""
""fullscreenenter"",""1"",""4394""
""fullscreenexit"",""3"",""27779""
""blur"",""3"",""29556""
""focus"",""3"",""34284""
""blur"",""10"",""136154""
""focus"",""10"",""168721""
""blur"",""10"",""168835""
""focus"",""10"",""192366""
","""event"",""trial"",""time""
""blur"",""3"",""29556""
""blur"",""10"",""136154""
""blur"",""10"",""168835""
","""event"",""trial"",""time""
""focus"",""3"",""34284""
""focus"",""10"",""168721""
""focus"",""10"",""192366""
","""event"",""trial"",""time""
""fullscreenenter"",""1"",""4394""
","""event"",""trial"",""time""
""fullscreenexit"",""3"",""27779""
","","","-1","","","11","10128","4784","&#9761;","elianto","#3366ff99","-1","-1","1","+10","[]","0","0","2","","","","","","","",""
"pit-trial","42","597248","0.0-2.0-11.0-2.0","battery-v0.2","","""event"",""trial"",""time""
""fullscreenenter"",""1"",""4394""
""fullscreenexit"",""3"",""27779""
""blur"",""3"",""29556""
""focus"",""3"",""34284""
""blur"",""10"",""136154""
""focus"",""10"",""168721""
""blur"",""10"",""168835""
""focus"",""10"",""192366""
","""event"",""trial"",""time""
""blur"",""3"",""29556""
""blur"",""10"",""136154""
""blur"",""10"",""168835""
","""event"",""trial"",""time""
""focus"",""3"",""34284""
""focus"",""10"",""168721""
""focus"",""10"",""192366""
","""event"",""trial"",""time""
""fullscreenenter"",""1"",""4394""
","""event"",""trial"",""time""
""fullscreenexit"",""3"",""27779""
","","","-1","","","11","10128","4784","&#9761;","elianto","#3366ff99","-1","-1","1","+10","[]","0","0","2","","","","","","","",""
"pit-trial","43","602109","0.0-2.0-11.0-3.0","battery-v0.2","","""event"",""trial"",""time""
""fullscreenenter"",""1"",""4394""
""fullscreenexit"",""3"",""27779""
""blur"",""3"",""29556""
""focus"",""3"",""34284""
""blur"",""10"",""136154""
""focus"",""10"",""168721""
""blur"",""10"",""168835""
""focus"",""10"",""192366""
","""event"",""trial"",""time""
""blur"",""3"",""29556""
""blur"",""10"",""136154""
""blur"",""10"",""168835""
","""event"",""trial"",""time""
""focus"",""3"",""34284""
""focus"",""10"",""168721""
""focus"",""10"",""192366""
","""event"",""trial"",""time""
""fullscreenenter"",""1"",""4394""
","""event"",""trial"",""time""
""fullscreenexit"",""3"",""27779""
","","","-1","","","11","10128","4784","&#9761;","elianto","#3366ff99","-1","-1","1","0","[]","0","0","2","","","","","","","",""
"pit-trial","44","606973","0.0-2.0-11.0-4.0","battery-v0.2","","""event"",""trial"",""time""
""fullscreenenter"",""1"",""4394""
""fullscreenexit"",""3"",""27779""
""blur"",""3"",""29556""
""focus"",""3"",""34284""
""blur"",""10"",""136154""
""focus"",""10"",""168721""
""blur"",""10"",""168835""
""focus"",""10"",""192366""
","""event"",""trial"",""time""
""blur"",""3"",""29556""
""blur"",""10"",""136154""
""blur"",""10"",""168835""
","""event"",""trial"",""time""
""focus"",""3"",""34284""
""focus"",""10"",""168721""
""focus"",""10"",""192366""
","""event"",""trial"",""time""
""fullscreenenter"",""1"",""4394""
","""event"",""trial"",""time""
""fullscreenexit"",""3"",""27779""
","","","-1","","","11","10128","4784","&#9761;","elianto","#3366ff99","-1","-1","1","+10","[]","0","0","2","","","","","","","",""
"pit-trial","45","611835","0.0-2.0-11.1-0.1","battery-v0.2","","""event"",""trial"",""time""
""fullscreenenter"",""1"",""4394""
""fullscreenexit"",""3"",""27779""
""blur"",""3"",""29556""
""focus"",""3"",""34284""
""blur"",""10"",""136154""
""focus"",""10"",""168721""
""blur"",""10"",""168835""
""focus"",""10"",""192366""
","""event"",""trial"",""time""
""blur"",""3"",""29556""
""blur"",""10"",""136154""
""blur"",""10"",""168835""
","""event"",""trial"",""time""
""focus"",""3"",""34284""
""focus"",""10"",""168721""
""focus"",""10"",""192366""
","""event"",""trial"",""time""
""fullscreenenter"",""1"",""4394""
","""event"",""trial"",""time""
""fullscreenexit"",""3"",""27779""
","","","-1","","","11","10128","4784","&#9761;","elianto","#3366ff99","-1","-1","1","+10","[]","0","0","2","","","","","","","",""
"pit-trial","46","616689","0.0-2.0-11.1-1.1","battery-v0.2","","""event"",""trial"",""time""
""fullscreenenter"",""1"",""4394""
""fullscreenexit"",""3"",""27779""
""blur"",""3"",""29556""
""focus"",""3"",""34284""
""blur"",""10"",""136154""
""focus"",""10"",""168721""
""blur"",""10"",""168835""
""focus"",""10"",""192366""
","""event"",""trial"",""time""
""blur"",""3"",""29556""
""blur"",""10"",""136154""
""blur"",""10"",""168835""
","""event"",""trial"",""time""
""focus"",""3"",""34284""
""focus"",""10"",""168721""
""focus"",""10"",""192366""
","""event"",""trial"",""time""
""fullscreenenter"",""1"",""4394""
","""event"",""trial"",""time""
""fullscreenexit"",""3"",""27779""
","","","-1","","","11","10128","4784","&#9761;","elianto","#3366ff99","-1","-1","1","+10","[]","0","0","2","","","","","","","",""
"pit-trial","47","621543","0.0-2.0-11.1-2.1","battery-v0.2","","""event"",""trial"",""time""
""fullscreenenter"",""1"",""4394""
""fullscreenexit"",""3"",""27779""
""blur"",""3"",""29556""
""focus"",""3"",""34284""
""blur"",""10"",""136154""
""focus"",""10"",""168721""
""blur"",""10"",""168835""
""focus"",""10"",""192366""
","""event"",""trial"",""time""
""blur"",""3"",""29556""
""blur"",""10"",""136154""
""blur"",""10"",""168835""
","""event"",""trial"",""time""
""focus"",""3"",""34284""
""focus"",""10"",""168721""
""focus"",""10"",""192366""
","""event"",""trial"",""time""
""fullscreenenter"",""1"",""4394""
","""event"",""trial"",""time""
""fullscreenexit"",""3"",""27779""
","","","-1","","","11","10128","4784","&#9761;","elianto","#3366ff99","-1","-1","1","+10","[]","0","0","2","","","","","","","",""
"pit-trial","48","626397","0.0-2.0-11.1-3.1","battery-v0.2","","""event"",""trial"",""time""
""fullscreenenter"",""1"",""4394""
""fullscreenexit"",""3"",""27779""
""blur"",""3"",""29556""
""focus"",""3"",""34284""
""blur"",""10"",""136154""
""focus"",""10"",""168721""
""blur"",""10"",""168835""
""focus"",""10"",""192366""
","""event"",""trial"",""time""
""blur"",""3"",""29556""
""blur"",""10"",""136154""
""blur"",""10"",""168835""
","""event"",""trial"",""time""
""focus"",""3"",""34284""
""focus"",""10"",""168721""
""focus"",""10"",""192366""
","""event"",""trial"",""time""
""fullscreenenter"",""1"",""4394""
","""event"",""trial"",""time""
""fullscreenexit"",""3"",""27779""
","","","-1","","","11","10128","4784","&#9761;","elianto","#3366ff99","-1","-1","1","0","[]","0","0","2","","","","","","","",""
"pit-trial","49","631251","0.0-2.0-11.1-4.1","battery-v0.2","","""event"",""trial"",""time""
""fullscreenenter"",""1"",""4394""
""fullscreenexit"",""3"",""27779""
""blur"",""3"",""29556""
""focus"",""3"",""34284""
""blur"",""10"",""136154""
""focus"",""10"",""168721""
""blur"",""10"",""168835""
""focus"",""10"",""192366""
","""event"",""trial"",""time""
""blur"",""3"",""29556""
""blur"",""10"",""136154""
""blur"",""10"",""168835""
","""event"",""trial"",""time""
""focus"",""3"",""34284""
""focus"",""10"",""168721""
""focus"",""10"",""192366""
","""event"",""trial"",""time""
""fullscreenenter"",""1"",""4394""
","""event"",""trial"",""time""
""fullscreenexit"",""3"",""27779""
","","","-1","","","11","10128","4784","&#9761;","elianto","#3366ff99","-1","-1","1","+10","[]","0","0","2","","","","","","","",""
"pit-trial","50","636107","0.0-2.0-11.2-0.2","battery-v0.2","","""event"",""trial"",""time""
""fullscreenenter"",""1"",""4394""
""fullscreenexit"",""3"",""27779""
""blur"",""3"",""29556""
""focus"",""3"",""34284""
""blur"",""10"",""136154""
""focus"",""10"",""168721""
""blur"",""10"",""168835""
""focus"",""10"",""192366""
","""event"",""trial"",""time""
""blur"",""3"",""29556""
""blur"",""10"",""136154""
""blur"",""10"",""168835""
","""event"",""trial"",""time""
""focus"",""3"",""34284""
""focus"",""10"",""168721""
""focus"",""10"",""192366""
","""event"",""trial"",""time""
""fullscreenenter"",""1"",""4394""
","""event"",""trial"",""time""
""fullscreenexit"",""3"",""27779""
","","","-1","","","11","10128","4784","&#9761;","elianto","#3366ff99","-1","-1","1","+10","[]","0","0","2","","","","","","","",""
"pit-trial","51","640961","0.0-2.0-11.2-1.2","battery-v0.2","","""event"",""trial"",""time""
""fullscreenenter"",""1"",""4394""
""fullscreenexit"",""3"",""27779""
""blur"",""3"",""29556""
""focus"",""3"",""34284""
""blur"",""10"",""136154""
""focus"",""10"",""168721""
""blur"",""10"",""168835""
""focus"",""10"",""192366""
","""event"",""trial"",""time""
""blur"",""3"",""29556""
""blur"",""10"",""136154""
""blur"",""10"",""168835""
","""event"",""trial"",""time""
""focus"",""3"",""34284""
""focus"",""10"",""168721""
""focus"",""10"",""192366""
","""event"",""trial"",""time""
""fullscreenenter"",""1"",""4394""
","""event"",""trial"",""time""
""fullscreenexit"",""3"",""27779""
","","","-1","","","11","10128","4784","&#9761;","elianto","#3366ff99","-1","-1","1","+10","[]","0","0","2","","","","","","","",""
"pit-trial","52","645815","0.0-2.0-11.2-2.2","battery-v0.2","","""event"",""trial"",""time""
""fullscreenenter"",""1"",""4394""
""fullscreenexit"",""3"",""27779""
""blur"",""3"",""29556""
""focus"",""3"",""34284""
""blur"",""10"",""136154""
""focus"",""10"",""168721""
""blur"",""10"",""168835""
""focus"",""10"",""192366""
","""event"",""trial"",""time""
""blur"",""3"",""29556""
""blur"",""10"",""136154""
""blur"",""10"",""168835""
","""event"",""trial"",""time""
""focus"",""3"",""34284""
""focus"",""10"",""168721""
""focus"",""10"",""192366""
","""event"",""trial"",""time""
""fullscreenenter"",""1"",""4394""
","""event"",""trial"",""time""
""fullscreenexit"",""3"",""27779""
","","","-1","","","11","10128","4784","&#9761;","elianto","#3366ff99","-1","-1","1","+10","[]","0","0","2","","","","","","","",""
"pit-trial","53","650668","0.0-2.0-11.2-3.2","battery-v0.2","","""event"",""trial"",""time""
""fullscreenenter"",""1"",""4394""
""fullscreenexit"",""3"",""27779""
""blur"",""3"",""29556""
""focus"",""3"",""34284""
""blur"",""10"",""136154""
""focus"",""10"",""168721""
""blur"",""10"",""168835""
""focus"",""10"",""192366""
","""event"",""trial"",""time""
""blur"",""3"",""29556""
""blur"",""10"",""136154""
""blur"",""10"",""168835""
","""event"",""trial"",""time""
""focus"",""3"",""34284""
""focus"",""10"",""168721""
""focus"",""10"",""192366""
","""event"",""trial"",""time""
""fullscreenenter"",""1"",""4394""
","""event"",""trial"",""time""
""fullscreenexit"",""3"",""27779""
","","","-1","","","11","10128","4784","&#9761;","elianto","#3366ff99","-1","-1","1","0","[]","0","0","2","","","","","","","",""
"pit-trial","54","655521","0.0-2.0-11.2-4.2","battery-v0.2","","""event"",""trial"",""time""
""fullscreenenter"",""1"",""4394""
""fullscreenexit"",""3"",""27779""
""blur"",""3"",""29556""
""focus"",""3"",""34284""
""blur"",""10"",""136154""
""focus"",""10"",""168721""
""blur"",""10"",""168835""
""focus"",""10"",""192366""
","""event"",""trial"",""time""
""blur"",""3"",""29556""
""blur"",""10"",""136154""
""blur"",""10"",""168835""
","""event"",""trial"",""time""
""focus"",""3"",""34284""
""focus"",""10"",""168721""
""focus"",""10"",""192366""
","""event"",""trial"",""time""
""fullscreenenter"",""1"",""4394""
","""event"",""trial"",""time""
""fullscreenexit"",""3"",""27779""
","","","-1","","","11","10128","4784","&#9761;","elianto","#3366ff99","-1","-1","1","+10","[]","0","0","2","","","","","","","",""
"pit-trial","55","660396","0.0-2.0-11.3-0.3","battery-v0.2","","""event"",""trial"",""time""
""fullscreenenter"",""1"",""4394""
""fullscreenexit"",""3"",""27779""
""blur"",""3"",""29556""
""focus"",""3"",""34284""
""blur"",""10"",""136154""
""focus"",""10"",""168721""
""blur"",""10"",""168835""
""focus"",""10"",""192366""
","""event"",""trial"",""time""
""blur"",""3"",""29556""
""blur"",""10"",""136154""
""blur"",""10"",""168835""
","""event"",""trial"",""time""
""focus"",""3"",""34284""
""focus"",""10"",""168721""
""focus"",""10"",""192366""
","""event"",""trial"",""time""
""fullscreenenter"",""1"",""4394""
","""event"",""trial"",""time""
""fullscreenexit"",""3"",""27779""
","","","-1","","","11","10128","4784","&#9761;","elianto","#3366ff99","-1","-1","1","+10","[]","0","0","2","","","","","","","",""
"pit-trial","56","665250","0.0-2.0-11.3-1.3","battery-v0.2","","""event"",""trial"",""time""
""fullscreenenter"",""1"",""4394""
""fullscreenexit"",""3"",""27779""
""blur"",""3"",""29556""
""focus"",""3"",""34284""
""blur"",""10"",""136154""
""focus"",""10"",""168721""
""blur"",""10"",""168835""
""focus"",""10"",""192366""
","""event"",""trial"",""time""
""blur"",""3"",""29556""
""blur"",""10"",""136154""
""blur"",""10"",""168835""
","""event"",""trial"",""time""
""focus"",""3"",""34284""
""focus"",""10"",""168721""
""focus"",""10"",""192366""
","""event"",""trial"",""time""
""fullscreenenter"",""1"",""4394""
","""event"",""trial"",""time""
""fullscreenexit"",""3"",""27779""
","","","-1","","","11","10128","4784","&#9761;","elianto","#3366ff99","-1","-1","1","+10","[]","0","0","2","","","","","","","",""
"pit-trial","57","670104","0.0-2.0-11.3-2.3","battery-v0.2","","""event"",""trial"",""time""
""fullscreenenter"",""1"",""4394""
""fullscreenexit"",""3"",""27779""
""blur"",""3"",""29556""
""focus"",""3"",""34284""
""blur"",""10"",""136154""
""focus"",""10"",""168721""
""blur"",""10"",""168835""
""focus"",""10"",""192366""
","""event"",""trial"",""time""
""blur"",""3"",""29556""
""blur"",""10"",""136154""
""blur"",""10"",""168835""
","""event"",""trial"",""time""
""focus"",""3"",""34284""
""focus"",""10"",""168721""
""focus"",""10"",""192366""
","""event"",""trial"",""time""
""fullscreenenter"",""1"",""4394""
","""event"",""trial"",""time""
""fullscreenexit"",""3"",""27779""
","","","-1","","","11","10128","4784","&#9761;","elianto","#3366ff99","-1","-1","1","+10","[]","0","0","2","","","","","","","",""
"pit-trial","58","674959","0.0-2.0-11.3-3.3","battery-v0.2","","""event"",""trial"",""time""
""fullscreenenter"",""1"",""4394""
""fullscreenexit"",""3"",""27779""
""blur"",""3"",""29556""
""focus"",""3"",""34284""
""blur"",""10"",""136154""
""focus"",""10"",""168721""
""blur"",""10"",""168835""
""focus"",""10"",""192366""
","""event"",""trial"",""time""
""blur"",""3"",""29556""
""blur"",""10"",""136154""
""blur"",""10"",""168835""
","""event"",""trial"",""time""
""focus"",""3"",""34284""
""focus"",""10"",""168721""
""focus"",""10"",""192366""
","""event"",""trial"",""time""
""fullscreenenter"",""1"",""4394""
","""event"",""trial"",""time""
""fullscreenexit"",""3"",""27779""
","","","-1","","","11","10128","4784","&#9761;","elianto","#3366ff99","-1","-1","1","0","[]","0","0","2","","","","","","","",""
"pit-trial","59","679813","0.0-2.0-11.3-4.3","battery-v0.2","","""event"",""trial"",""time""
""fullscreenenter"",""1"",""4394""
""fullscreenexit"",""3"",""27779""
""blur"",""3"",""29556""
""focus"",""3"",""34284""
""blur"",""10"",""136154""
""focus"",""10"",""168721""
""blur"",""10"",""168835""
""focus"",""10"",""192366""
","""event"",""trial"",""time""
""blur"",""3"",""29556""
""blur"",""10"",""136154""
""blur"",""10"",""168835""
","""event"",""trial"",""time""
""focus"",""3"",""34284""
""focus"",""10"",""168721""
""focus"",""10"",""192366""
","""event"",""trial"",""time""
""fullscreenenter"",""1"",""4394""
","""event"",""trial"",""time""
""fullscreenexit"",""3"",""27779""
","","","-1","","","11","10128","4784","&#9761;","elianto","#3366ff99","-1","-1","1","+10","[]","0","0","2","","","","","","","",""
"call-function","60","679816","0.0-2.0-12.0","battery-v0.2","","""event"",""trial"",""time""
""fullscreenenter"",""1"",""4394""
""fullscreenexit"",""3"",""27779""
""blur"",""3"",""29556""
""focus"",""3"",""34284""
""blur"",""10"",""136154""
""focus"",""10"",""168721""
""blur"",""10"",""168835""
""focus"",""10"",""192366""
","""event"",""trial"",""time""
""blur"",""3"",""29556""
""blur"",""10"",""136154""
""blur"",""10"",""168835""
","""event"",""trial"",""time""
""focus"",""3"",""34284""
""focus"",""10"",""168721""
""focus"",""10"",""192366""
","""event"",""trial"",""time""
""fullscreenenter"",""1"",""4394""
","""event"",""trial"",""time""
""fullscreenexit"",""3"",""27779""
","","","","","","","","","","","","","","","","","","","","","","","","","","",""
"pit-instructions","61","720058","0.0-2.0-13.0","battery-v0.2","","""event"",""trial"",""time""
""fullscreenenter"",""1"",""4394""
""fullscreenexit"",""3"",""27779""
""blur"",""3"",""29556""
""focus"",""3"",""34284""
""blur"",""10"",""136154""
""focus"",""10"",""168721""
""blur"",""10"",""168835""
""focus"",""10"",""192366""
","""event"",""trial"",""time""
""blur"",""3"",""29556""
""blur"",""10"",""136154""
""blur"",""10"",""168835""
","""event"",""trial"",""time""
""focus"",""3"",""34284""
""focus"",""10"",""168721""
""focus"",""10"",""192366""
","""event"",""trial"",""time""
""fullscreenenter"",""1"",""4394""
","""event"",""trial"",""time""
""fullscreenexit"",""3"",""27779""
","","[{""page_index"":0,""viewing_time"":8389.5},{""page_index"":1,""viewing_time"":7857.100000023842},{""page_index"":2,""viewing_time"":6073.299999952316},{""page_index"":3,""viewing_time"":12144.299999952316},{""page_index"":4,""viewing_time"":5776.900000095367}]","40241.799999952316","","","","","","","","","","","","","","","","","","","","","","","",""
"pit-trial","62","723019","0.0-2.0-14.0-0.0","battery-v0.2","","""event"",""trial"",""time""
""fullscreenenter"",""1"",""4394""
""fullscreenexit"",""3"",""27779""
""blur"",""3"",""29556""
""focus"",""3"",""34284""
""blur"",""10"",""136154""
""focus"",""10"",""168721""
""blur"",""10"",""168835""
""focus"",""10"",""192366""
","""event"",""trial"",""time""
""blur"",""3"",""29556""
""blur"",""10"",""136154""
""blur"",""10"",""168835""
","""event"",""trial"",""time""
""focus"",""3"",""34284""
""focus"",""10"",""168721""
""focus"",""10"",""192366""
","""event"",""trial"",""time""
""fullscreenenter"",""1"",""4394""
","""event"",""trial"",""time""
""fullscreenexit"",""3"",""27779""
","","","85","","","11","10128","4784","&#9826;","elianto","#f73b6a7A","-1"," ","0","-10","[942.1999999284744]","1","0","3","","","","","","","",""
"pit-trial","63","727897","0.0-2.0-14.0-1.0","battery-v0.2","","""event"",""trial"",""time""
""fullscreenenter"",""1"",""4394""
""fullscreenexit"",""3"",""27779""
""blur"",""3"",""29556""
""focus"",""3"",""34284""
""blur"",""10"",""136154""
""focus"",""10"",""168721""
""blur"",""10"",""168835""
""focus"",""10"",""192366""
","""event"",""trial"",""time""
""blur"",""3"",""29556""
""blur"",""10"",""136154""
""blur"",""10"",""168835""
","""event"",""trial"",""time""
""focus"",""3"",""34284""
""focus"",""10"",""168721""
""focus"",""10"",""192366""
","""event"",""trial"",""time""
""fullscreenenter"",""1"",""4394""
","""event"",""trial"",""time""
""fullscreenexit"",""3"",""27779""
","","","-1","","","11","10128","4784","&#9826;","elianto","#f73b6a7A","-1","-1","1","0","[]","0","0","3","","","","","","","",""
"pit-trial","64","732774","0.0-2.0-14.0-2.0","battery-v0.2","","""event"",""trial"",""time""
""fullscreenenter"",""1"",""4394""
""fullscreenexit"",""3"",""27779""
""blur"",""3"",""29556""
""focus"",""3"",""34284""
""blur"",""10"",""136154""
""focus"",""10"",""168721""
""blur"",""10"",""168835""
""focus"",""10"",""192366""
","""event"",""trial"",""time""
""blur"",""3"",""29556""
""blur"",""10"",""136154""
""blur"",""10"",""168835""
","""event"",""trial"",""time""
""focus"",""3"",""34284""
""focus"",""10"",""168721""
""focus"",""10"",""192366""
","""event"",""trial"",""time""
""fullscreenenter"",""1"",""4394""
","""event"",""trial"",""time""
""fullscreenexit"",""3"",""27779""
","","","-1","","","11","10128","4784","&#9826;","elianto","#f73b6a7A","-1","-1","1","0","[]","0","0","3","","","","","","","",""
"pit-trial","65","737638","0.0-2.0-14.0-3.0","battery-v0.2","","""event"",""trial"",""time""
""fullscreenenter"",""1"",""4394""
""fullscreenexit"",""3"",""27779""
""blur"",""3"",""29556""
""focus"",""3"",""34284""
""blur"",""10"",""136154""
""focus"",""10"",""168721""
""blur"",""10"",""168835""
""focus"",""10"",""192366""
","""event"",""trial"",""time""
""blur"",""3"",""29556""
""blur"",""10"",""136154""
""blur"",""10"",""168835""
","""event"",""trial"",""time""
""focus"",""3"",""34284""
""focus"",""10"",""168721""
""focus"",""10"",""192366""
","""event"",""trial"",""time""
""fullscreenenter"",""1"",""4394""
","""event"",""trial"",""time""
""fullscreenexit"",""3"",""27779""
","","","-1","","","11","10128","4784","&#9826;","elianto","#f73b6a7A","-1","-1","1","-10","[]","0","0","3","","","","","","","",""
"pit-trial","66","742508","0.0-2.0-14.0-4.0","battery-v0.2","","""event"",""trial"",""time""
""fullscreenenter"",""1"",""4394""
""fullscreenexit"",""3"",""27779""
""blur"",""3"",""29556""
""focus"",""3"",""34284""
""blur"",""10"",""136154""
""focus"",""10"",""168721""
""blur"",""10"",""168835""
""focus"",""10"",""192366""
","""event"",""trial"",""time""
""blur"",""3"",""29556""
""blur"",""10"",""136154""
""blur"",""10"",""168835""
","""event"",""trial"",""time""
""focus"",""3"",""34284""
""focus"",""10"",""168721""
""focus"",""10"",""192366""
","""event"",""trial"",""time""
""fullscreenenter"",""1"",""4394""
","""event"",""trial"",""time""
""fullscreenexit"",""3"",""27779""
","","","-1","","","11","10128","4784","&#9826;","elianto","#f73b6a7A","-1","-1","1","0","[]","0","0","3","","","","","","","",""
"pit-trial","67","747379","0.0-2.0-14.1-0.1","battery-v0.2","","""event"",""trial"",""time""
""fullscreenenter"",""1"",""4394""
""fullscreenexit"",""3"",""27779""
""blur"",""3"",""29556""
""focus"",""3"",""34284""
""blur"",""10"",""136154""
""focus"",""10"",""168721""
""blur"",""10"",""168835""
""focus"",""10"",""192366""
","""event"",""trial"",""time""
""blur"",""3"",""29556""
""blur"",""10"",""136154""
""blur"",""10"",""168835""
","""event"",""trial"",""time""
""focus"",""3"",""34284""
""focus"",""10"",""168721""
""focus"",""10"",""192366""
","""event"",""trial"",""time""
""fullscreenenter"",""1"",""4394""
","""event"",""trial"",""time""
""fullscreenexit"",""3"",""27779""
","","","-1","","","11","10128","4784","&#9826;","elianto","#f73b6a7A","-1","-1","1","0","[]","0","0","3","","","","","","","",""
"pit-trial","68","752232","0.0-2.0-14.1-1.1","battery-v0.2","","""event"",""trial"",""time""
""fullscreenenter"",""1"",""4394""
""fullscreenexit"",""3"",""27779""
""blur"",""3"",""29556""
""focus"",""3"",""34284""
""blur"",""10"",""136154""
""focus"",""10"",""168721""
""blur"",""10"",""168835""
""focus"",""10"",""192366""
","""event"",""trial"",""time""
""blur"",""3"",""29556""
""blur"",""10"",""136154""
""blur"",""10"",""168835""
","""event"",""trial"",""time""
""focus"",""3"",""34284""
""focus"",""10"",""168721""
""focus"",""10"",""192366""
","""event"",""trial"",""time""
""fullscreenenter"",""1"",""4394""
","""event"",""trial"",""time""
""fullscreenexit"",""3"",""27779""
","","","-1","","","11","10128","4784","&#9826;","elianto","#f73b6a7A","-1","-1","1","0","[]","0","0","3","","","","","","","",""
"pit-trial","69","757086","0.0-2.0-14.1-2.1","battery-v0.2","","""event"",""trial"",""time""
""fullscreenenter"",""1"",""4394""
""fullscreenexit"",""3"",""27779""
""blur"",""3"",""29556""
""focus"",""3"",""34284""
""blur"",""10"",""136154""
""focus"",""10"",""168721""
""blur"",""10"",""168835""
""focus"",""10"",""192366""
","""event"",""trial"",""time""
""blur"",""3"",""29556""
""blur"",""10"",""136154""
""blur"",""10"",""168835""
","""event"",""trial"",""time""
""focus"",""3"",""34284""
""focus"",""10"",""168721""
""focus"",""10"",""192366""
","""event"",""trial"",""time""
""fullscreenenter"",""1"",""4394""
","""event"",""trial"",""time""
""fullscreenexit"",""3"",""27779""
","","","-1","","","11","10128","4784","&#9826;","elianto","#f73b6a7A","-1","-1","1","0","[]","0","0","3","","","","","","","",""
"pit-trial","70","761939","0.0-2.0-14.1-3.1","battery-v0.2","","""event"",""trial"",""time""
""fullscreenenter"",""1"",""4394""
""fullscreenexit"",""3"",""27779""
""blur"",""3"",""29556""
""focus"",""3"",""34284""
""blur"",""10"",""136154""
""focus"",""10"",""168721""
""blur"",""10"",""168835""
""focus"",""10"",""192366""
","""event"",""trial"",""time""
""blur"",""3"",""29556""
""blur"",""10"",""136154""
""blur"",""10"",""168835""
","""event"",""trial"",""time""
""focus"",""3"",""34284""
""focus"",""10"",""168721""
""focus"",""10"",""192366""
","""event"",""trial"",""time""
""fullscreenenter"",""1"",""4394""
","""event"",""trial"",""time""
""fullscreenexit"",""3"",""27779""
","","","-1","","","11","10128","4784","&#9826;","elianto","#f73b6a7A","-1","-1","1","-10","[]","0","0","3","","","","","","","",""
"pit-trial","71","766793","0.0-2.0-14.1-4.1","battery-v0.2","","""event"",""trial"",""time""
""fullscreenenter"",""1"",""4394""
""fullscreenexit"",""3"",""27779""
""blur"",""3"",""29556""
""focus"",""3"",""34284""
""blur"",""10"",""136154""
""focus"",""10"",""168721""
""blur"",""10"",""168835""
""focus"",""10"",""192366""
","""event"",""trial"",""time""
""blur"",""3"",""29556""
""blur"",""10"",""136154""
""blur"",""10"",""168835""
","""event"",""trial"",""time""
""focus"",""3"",""34284""
""focus"",""10"",""168721""
""focus"",""10"",""192366""
","""event"",""trial"",""time""
""fullscreenenter"",""1"",""4394""
","""event"",""trial"",""time""
""fullscreenexit"",""3"",""27779""
","","","-1","","","11","10128","4784","&#9826;","elianto","#f73b6a7A","-1","-1","1","0","[]","0","0","3","","","","","","","",""
"pit-trial","72","771078","0.0-2.0-14.2-0.2","battery-v0.2","","""event"",""trial"",""time""
""fullscreenenter"",""1"",""4394""
""fullscreenexit"",""3"",""27779""
""blur"",""3"",""29556""
""focus"",""3"",""34284""
""blur"",""10"",""136154""
""focus"",""10"",""168721""
""blur"",""10"",""168835""
""focus"",""10"",""192366""
","""event"",""trial"",""time""
""blur"",""3"",""29556""
""blur"",""10"",""136154""
""blur"",""10"",""168835""
","""event"",""trial"",""time""
""focus"",""3"",""34284""
""focus"",""10"",""168721""
""focus"",""10"",""192366""
","""event"",""trial"",""time""
""fullscreenenter"",""1"",""4394""
","""event"",""trial"",""time""
""fullscreenexit"",""3"",""27779""
","","","1431.8000000715256","","","11","10128","4784","&#9826;","elianto","#f73b6a7A","-1"," ","0","-10","[2281.9000000953674]","1","0","3","","","","","","","",""
"pit-trial","73","774235","0.0-2.0-14.2-1.2","battery-v0.2","","""event"",""trial"",""time""
""fullscreenenter"",""1"",""4394""
""fullscreenexit"",""3"",""27779""
""blur"",""3"",""29556""
""focus"",""3"",""34284""
""blur"",""10"",""136154""
""focus"",""10"",""168721""
""blur"",""10"",""168835""
""focus"",""10"",""192366""
","""event"",""trial"",""time""
""blur"",""3"",""29556""
""blur"",""10"",""136154""
""blur"",""10"",""168835""
","""event"",""trial"",""time""
""focus"",""3"",""34284""
""focus"",""10"",""168721""
""focus"",""10"",""192366""
","""event"",""trial"",""time""
""fullscreenenter"",""1"",""4394""
","""event"",""trial"",""time""
""fullscreenexit"",""3"",""27779""
","","","303.2999999523163","","","11","10128","4784","&#9826;","elianto","#f73b6a7A","-1"," ","0","-10","[1154.3999999761581]","1","0","3","","","","","","","",""
"pit-trial","74","777325","0.0-2.0-14.2-2.2","battery-v0.2","","""event"",""trial"",""time""
""fullscreenenter"",""1"",""4394""
""fullscreenexit"",""3"",""27779""
""blur"",""3"",""29556""
""focus"",""3"",""34284""
""blur"",""10"",""136154""
""focus"",""10"",""168721""
""blur"",""10"",""168835""
""focus"",""10"",""192366""
","""event"",""trial"",""time""
""blur"",""3"",""29556""
""blur"",""10"",""136154""
""blur"",""10"",""168835""
","""event"",""trial"",""time""
""focus"",""3"",""34284""
""focus"",""10"",""168721""
""focus"",""10"",""192366""
","""event"",""trial"",""time""
""fullscreenenter"",""1"",""4394""
","""event"",""trial"",""time""
""fullscreenexit"",""3"",""27779""
","","","237.10000002384186","","","11","10128","4784","&#9826;","elianto","#f73b6a7A","-1"," ","0","-10","[1087.3999999761581]","1","0","3","","","","","","","",""
"pit-trial","75","780904","0.0-2.0-14.2-3.2","battery-v0.2","","""event"",""trial"",""time""
""fullscreenenter"",""1"",""4394""
""fullscreenexit"",""3"",""27779""
""blur"",""3"",""29556""
""focus"",""3"",""34284""
""blur"",""10"",""136154""
""focus"",""10"",""168721""
""blur"",""10"",""168835""
""focus"",""10"",""192366""
","""event"",""trial"",""time""
""blur"",""3"",""29556""
""blur"",""10"",""136154""
""blur"",""10"",""168835""
","""event"",""trial"",""time""
""focus"",""3"",""34284""
""focus"",""10"",""168721""
""focus"",""10"",""192366""
","""event"",""trial"",""time""
""fullscreenenter"",""1"",""4394""
","""event"",""trial"",""time""
""fullscreenexit"",""3"",""27779""
","","","726","","","11","10128","4784","&#9826;","elianto","#f73b6a7A","-1"," ","0","0","[1576.5]","1","0","3","","","","","","","",""
"pit-trial","76","785758","0.0-2.0-14.2-4.2","battery-v0.2","","""event"",""trial"",""time""
""fullscreenenter"",""1"",""4394""
""fullscreenexit"",""3"",""27779""
""blur"",""3"",""29556""
""focus"",""3"",""34284""
""blur"",""10"",""136154""
""focus"",""10"",""168721""
""blur"",""10"",""168835""
""focus"",""10"",""192366""
","""event"",""trial"",""time""
""blur"",""3"",""29556""
""blur"",""10"",""136154""
""blur"",""10"",""168835""
","""event"",""trial"",""time""
""focus"",""3"",""34284""
""focus"",""10"",""168721""
""focus"",""10"",""192366""
","""event"",""trial"",""time""
""fullscreenenter"",""1"",""4394""
","""event"",""trial"",""time""
""fullscreenexit"",""3"",""27779""
","","","-1","","","11","10128","4784","&#9826;","elianto","#f73b6a7A","-1","-1","1","0","[]","0","0","3","","","","","","","",""
"pit-trial","77","789039","0.0-2.0-14.3-0.3","battery-v0.2","","""event"",""trial"",""time""
""fullscreenenter"",""1"",""4394""
""fullscreenexit"",""3"",""27779""
""blur"",""3"",""29556""
""focus"",""3"",""34284""
""blur"",""10"",""136154""
""focus"",""10"",""168721""
""blur"",""10"",""168835""
""focus"",""10"",""192366""
","""event"",""trial"",""time""
""blur"",""3"",""29556""
""blur"",""10"",""136154""
""blur"",""10"",""168835""
","""event"",""trial"",""time""
""focus"",""3"",""34284""
""focus"",""10"",""168721""
""focus"",""10"",""192366""
","""event"",""trial"",""time""
""fullscreenenter"",""1"",""4394""
","""event"",""trial"",""time""
""fullscreenexit"",""3"",""27779""
","","","426.1999999284744","","","11","10128","4784","&#9826;","elianto","#f73b6a7A","-1"," ","0","-10","[1276.0999999046326]","1","0","3","","","","","","","",""
"pit-trial","78","793893","0.0-2.0-14.3-1.3","battery-v0.2","","""event"",""trial"",""time""
""fullscreenenter"",""1"",""4394""
""fullscreenexit"",""3"",""27779""
""blur"",""3"",""29556""
""focus"",""3"",""34284""
""blur"",""10"",""136154""
""focus"",""10"",""168721""
""blur"",""10"",""168835""
""focus"",""10"",""192366""
","""event"",""trial"",""time""
""blur"",""3"",""29556""
""blur"",""10"",""136154""
""blur"",""10"",""168835""
","""event"",""trial"",""time""
""focus"",""3"",""34284""
""focus"",""10"",""168721""
""focus"",""10"",""192366""
","""event"",""trial"",""time""
""fullscreenenter"",""1"",""4394""
","""event"",""trial"",""time""
""fullscreenexit"",""3"",""27779""
","","","-1","","","11","10128","4784","&#9826;","elianto","#f73b6a7A","-1","-1","1","0","[]","0","0","3","","","","","","","",""
"pit-trial","79","798746","0.0-2.0-14.3-2.3","battery-v0.2","","""event"",""trial"",""time""
""fullscreenenter"",""1"",""4394""
""fullscreenexit"",""3"",""27779""
""blur"",""3"",""29556""
""focus"",""3"",""34284""
""blur"",""10"",""136154""
""focus"",""10"",""168721""
""blur"",""10"",""168835""
""focus"",""10"",""192366""
","""event"",""trial"",""time""
""blur"",""3"",""29556""
""blur"",""10"",""136154""
""blur"",""10"",""168835""
","""event"",""trial"",""time""
""focus"",""3"",""34284""
""focus"",""10"",""168721""
""focus"",""10"",""192366""
","""event"",""trial"",""time""
""fullscreenenter"",""1"",""4394""
","""event"",""trial"",""time""
""fullscreenexit"",""3"",""27779""
","","","-1","","","11","10128","4784","&#9826;","elianto","#f73b6a7A","-1","-1","1","0","[]","0","0","3","","","","","","","",""
"pit-trial","80","803598","0.0-2.0-14.3-3.3","battery-v0.2","","""event"",""trial"",""time""
""fullscreenenter"",""1"",""4394""
""fullscreenexit"",""3"",""27779""
""blur"",""3"",""29556""
""focus"",""3"",""34284""
""blur"",""10"",""136154""
""focus"",""10"",""168721""
""blur"",""10"",""168835""
""focus"",""10"",""192366""
","""event"",""trial"",""time""
""blur"",""3"",""29556""
""blur"",""10"",""136154""
""blur"",""10"",""168835""
","""event"",""trial"",""time""
""focus"",""3"",""34284""
""focus"",""10"",""168721""
""focus"",""10"",""192366""
","""event"",""trial"",""time""
""fullscreenenter"",""1"",""4394""
","""event"",""trial"",""time""
""fullscreenexit"",""3"",""27779""
","","","-1","","","11","10128","4784","&#9826;","elianto","#f73b6a7A","-1","-1","1","-10","[]","0","0","3","","","","","","","",""
"pit-trial","81","808452","0.0-2.0-14.3-4.3","battery-v0.2","","""event"",""trial"",""time""
""fullscreenenter"",""1"",""4394""
""fullscreenexit"",""3"",""27779""
""blur"",""3"",""29556""
""focus"",""3"",""34284""
""blur"",""10"",""136154""
""focus"",""10"",""168721""
""blur"",""10"",""168835""
""focus"",""10"",""192366""
","""event"",""trial"",""time""
""blur"",""3"",""29556""
""blur"",""10"",""136154""
""blur"",""10"",""168835""
","""event"",""trial"",""time""
""focus"",""3"",""34284""
""focus"",""10"",""168721""
""focus"",""10"",""192366""
","""event"",""trial"",""time""
""fullscreenenter"",""1"",""4394""
","""event"",""trial"",""time""
""fullscreenexit"",""3"",""27779""
","","","-1","","","11","10128","4784","&#9826;","elianto","#f73b6a7A","-1","-1","1","0","[]","0","0","3","","","","","","","",""
"call-function","82","808453","0.0-2.0-15.0","battery-v0.2","","""event"",""trial"",""time""
""fullscreenenter"",""1"",""4394""
""fullscreenexit"",""3"",""27779""
""blur"",""3"",""29556""
""focus"",""3"",""34284""
""blur"",""10"",""136154""
""focus"",""10"",""168721""
""blur"",""10"",""168835""
""focus"",""10"",""192366""
","""event"",""trial"",""time""
""blur"",""3"",""29556""
""blur"",""10"",""136154""
""blur"",""10"",""168835""
","""event"",""trial"",""time""
""focus"",""3"",""34284""
""focus"",""10"",""168721""
""focus"",""10"",""192366""
","""event"",""trial"",""time""
""fullscreenenter"",""1"",""4394""
","""event"",""trial"",""time""
""fullscreenexit"",""3"",""27779""
","","","","","","","","","","","","","","","","","","","","","","","","","","",""
"pit-instructions","83","836531","0.0-2.0-16.0","battery-v0.2","","""event"",""trial"",""time""
""fullscreenenter"",""1"",""4394""
""fullscreenexit"",""3"",""27779""
""blur"",""3"",""29556""
""focus"",""3"",""34284""
""blur"",""10"",""136154""
""focus"",""10"",""168721""
""blur"",""10"",""168835""
""focus"",""10"",""192366""
","""event"",""trial"",""time""
""blur"",""3"",""29556""
""blur"",""10"",""136154""
""blur"",""10"",""168835""
","""event"",""trial"",""time""
""focus"",""3"",""34284""
""focus"",""10"",""168721""
""focus"",""10"",""192366""
","""event"",""trial"",""time""
""fullscreenenter"",""1"",""4394""
","""event"",""trial"",""time""
""fullscreenexit"",""3"",""27779""
","","[{""page_index"":0,""viewing_time"":7406.699999928474},{""page_index"":1,""viewing_time"":9578.899999976158},{""page_index"":2,""viewing_time"":5457.200000047684},{""page_index"":3,""viewing_time"":5636.200000047684}]","28079.099999904633","","","","","","","","","","","","","","","","","","","","","","","",""
"pit-trial","84","840333","0.0-2.0-17.0-0.0","battery-v0.2","","""event"",""trial"",""time""
""fullscreenenter"",""1"",""4394""
""fullscreenexit"",""3"",""27779""
""blur"",""3"",""29556""
""focus"",""3"",""34284""
""blur"",""10"",""136154""
""focus"",""10"",""168721""
""blur"",""10"",""168835""
""focus"",""10"",""192366""
","""event"",""trial"",""time""
""blur"",""3"",""29556""
""blur"",""10"",""136154""
""blur"",""10"",""168835""
","""event"",""trial"",""time""
""focus"",""3"",""34284""
""focus"",""10"",""168721""
""focus"",""10"",""192366""
","""event"",""trial"",""time""
""fullscreenenter"",""1"",""4394""
","""event"",""trial"",""time""
""fullscreenexit"",""3"",""27779""
","","","938","","","11","10128","4784","&#9789;","elianto","#f73b6a7A"," "," ","1","0","[1790.7000000476837]","1","0","4","","","","","","","",""
"pit-trial","85","843257","0.0-2.0-17.0-1.0","battery-v0.2","","""event"",""trial"",""time""
""fullscreenenter"",""1"",""4394""
""fullscreenexit"",""3"",""27779""
""blur"",""3"",""29556""
""focus"",""3"",""34284""
""blur"",""10"",""136154""
""focus"",""10"",""168721""
""blur"",""10"",""168835""
""focus"",""10"",""192366""
","""event"",""trial"",""time""
""blur"",""3"",""29556""
""blur"",""10"",""136154""
""blur"",""10"",""168835""
","""event"",""trial"",""time""
""focus"",""3"",""34284""
""focus"",""10"",""168721""
""focus"",""10"",""192366""
","""event"",""trial"",""time""
""fullscreenenter"",""1"",""4394""
","""event"",""trial"",""time""
""fullscreenexit"",""3"",""27779""
","","","64.19999992847443","","","11","10128","4784","&#9789;","elianto","#f73b6a7A"," "," ","1","0","[915]","1","0","4","","","","","","","",""
"pit-trial","86","846440","0.0-2.0-17.0-2.0","battery-v0.2","","""event"",""trial"",""time""
""fullscreenenter"",""1"",""4394""
""fullscreenexit"",""3"",""27779""
""blur"",""3"",""29556""
""focus"",""3"",""34284""
""blur"",""10"",""136154""
""focus"",""10"",""168721""
""blur"",""10"",""168835""
""focus"",""10"",""192366""
","""event"",""trial"",""time""
""blur"",""3"",""29556""
""blur"",""10"",""136154""
""blur"",""10"",""168835""
","""event"",""trial"",""time""
""focus"",""3"",""34284""
""focus"",""10"",""168721""
""focus"",""10"",""192366""
","""event"",""trial"",""time""
""fullscreenenter"",""1"",""4394""
","""event"",""trial"",""time""
""fullscreenexit"",""3"",""27779""
","","","323.59999990463257","","","11","10128","4784","&#9789;","elianto","#f73b6a7A"," "," ","1","0","[1175.5999999046326]","1","0","4","","","","","","","",""
"pit-trial","87","849576","0.0-2.0-17.0-3.0","battery-v0.2","","""event"",""trial"",""time""
""fullscreenenter"",""1"",""4394""
""fullscreenexit"",""3"",""27779""
""blur"",""3"",""29556""
""focus"",""3"",""34284""
""blur"",""10"",""136154""
""focus"",""10"",""168721""
""blur"",""10"",""168835""
""focus"",""10"",""192366""
","""event"",""trial"",""time""
""blur"",""3"",""29556""
""blur"",""10"",""136154""
""blur"",""10"",""168835""
","""event"",""trial"",""time""
""focus"",""3"",""34284""
""focus"",""10"",""168721""
""focus"",""10"",""192366""
","""event"",""trial"",""time""
""fullscreenenter"",""1"",""4394""
","""event"",""trial"",""time""
""fullscreenexit"",""3"",""27779""
","","","272.5","","","11","10128","4784","&#9789;","elianto","#f73b6a7A"," "," ","1","-10","[1123.6999999284744]","1","0","4","","","","","","","",""
"pit-trial","88","852715","0.0-2.0-17.0-4.0","battery-v0.2","","""event"",""trial"",""time""
""fullscreenenter"",""1"",""4394""
""fullscreenexit"",""3"",""27779""
""blur"",""3"",""29556""
""focus"",""3"",""34284""
""blur"",""10"",""136154""
""focus"",""10"",""168721""
""blur"",""10"",""168835""
""focus"",""10"",""192366""
","""event"",""trial"",""time""
""blur"",""3"",""29556""
""blur"",""10"",""136154""
""blur"",""10"",""168835""
","""event"",""trial"",""time""
""focus"",""3"",""34284""
""focus"",""10"",""168721""
""focus"",""10"",""192366""
","""event"",""trial"",""time""
""fullscreenenter"",""1"",""4394""
","""event"",""trial"",""time""
""fullscreenexit"",""3"",""27779""
","","","279.09999990463257","","","11","10128","4784","&#9789;","elianto","#f73b6a7A"," "," ","1","0","[1129.8999999761581]","1","0","4","","","","","","","",""
"pit-trial","89","855840","0.0-2.0-17.1-0.1","battery-v0.2","","""event"",""trial"",""time""
""fullscreenenter"",""1"",""4394""
""fullscreenexit"",""3"",""27779""
""blur"",""3"",""29556""
""focus"",""3"",""34284""
""blur"",""10"",""136154""
""focus"",""10"",""168721""
""blur"",""10"",""168835""
""focus"",""10"",""192366""
","""event"",""trial"",""time""
""blur"",""3"",""29556""
""blur"",""10"",""136154""
""blur"",""10"",""168835""
","""event"",""trial"",""time""
""focus"",""3"",""34284""
""focus"",""10"",""168721""
""focus"",""10"",""192366""
","""event"",""trial"",""time""
""fullscreenenter"",""1"",""4394""
","""event"",""trial"",""time""
""fullscreenexit"",""3"",""27779""
","","","266.60000002384186","","","11","10128","4784","&#9789;","elianto","#f73b6a7A"," "," ","1","0","[1117.3999999761581]","1","0","4","","","","","","","",""
"pit-trial","90","858871","0.0-2.0-17.1-1.1","battery-v0.2","","""event"",""trial"",""time""
""fullscreenenter"",""1"",""4394""
""fullscreenexit"",""3"",""27779""
""blur"",""3"",""29556""
""focus"",""3"",""34284""
""blur"",""10"",""136154""
""focus"",""10"",""168721""
""blur"",""10"",""168835""
""focus"",""10"",""192366""
","""event"",""trial"",""time""
""blur"",""3"",""29556""
""blur"",""10"",""136154""
""blur"",""10"",""168835""
","""event"",""trial"",""time""
""focus"",""3"",""34284""
""focus"",""10"",""168721""
""focus"",""10"",""192366""
","""event"",""trial"",""time""
""fullscreenenter"",""1"",""4394""
","""event"",""trial"",""time""
""fullscreenexit"",""3"",""27779""
","","","166.69999992847443","","","11","10128","4784","&#9789;","elianto","#f73b6a7A"," "," ","1","0","[1018.2999999523163]","1","0","4","","","","","","","",""
"pit-trial","91","862830","0.0-2.0-17.1-2.1","battery-v0.2","","""event"",""trial"",""time""
""fullscreenenter"",""1"",""4394""
""fullscreenexit"",""3"",""27779""
""blur"",""3"",""29556""
""focus"",""3"",""34284""
""blur"",""10"",""136154""
""focus"",""10"",""168721""
""blur"",""10"",""168835""
""focus"",""10"",""192366""
","""event"",""trial"",""time""
""blur"",""3"",""29556""
""blur"",""10"",""136154""
""blur"",""10"",""168835""
","""event"",""trial"",""time""
""focus"",""3"",""34284""
""focus"",""10"",""168721""
""focus"",""10"",""192366""
","""event"",""trial"",""time""
""fullscreenenter"",""1"",""4394""
","""event"",""trial"",""time""
""fullscreenexit"",""3"",""27779""
","","","1103","","","11","10128","4784","&#9789;","elianto","#f73b6a7A"," "," ","1","0","[612.7999999523163,1954.7999999523163]","2","0","4","","","","","","","",""
"pit-trial","92","865765","0.0-2.0-17.1-3.1","battery-v0.2","","""event"",""trial"",""time""
""fullscreenenter"",""1"",""4394""
""fullscreenexit"",""3"",""27779""
""blur"",""3"",""29556""
""focus"",""3"",""34284""
""blur"",""10"",""136154""
""focus"",""10"",""168721""
""blur"",""10"",""168835""
""focus"",""10"",""192366""
","""event"",""trial"",""time""
""blur"",""3"",""29556""
""blur"",""10"",""136154""
""blur"",""10"",""168835""
","""event"",""trial"",""time""
""focus"",""3"",""34284""
""focus"",""10"",""168721""
""focus"",""10"",""192366""
","""event"",""trial"",""time""
""fullscreenenter"",""1"",""4394""
","""event"",""trial"",""time""
""fullscreenexit"",""3"",""27779""
","","","77.29999995231628","","","11","10128","4784","&#9789;","elianto","#f73b6a7A"," "," ","1","-10","[928.7999999523163]","1","0","4","","","","","","","",""
"pit-trial","93","868838","0.0-2.0-17.1-4.1","battery-v0.2","","""event"",""trial"",""time""
""fullscreenenter"",""1"",""4394""
""fullscreenexit"",""3"",""27779""
""blur"",""3"",""29556""
""focus"",""3"",""34284""
""blur"",""10"",""136154""
""focus"",""10"",""168721""
""blur"",""10"",""168835""
""focus"",""10"",""192366""
","""event"",""trial"",""time""
""blur"",""3"",""29556""
""blur"",""10"",""136154""
""blur"",""10"",""168835""
","""event"",""trial"",""time""
""focus"",""3"",""34284""
""focus"",""10"",""168721""
""focus"",""10"",""192366""
","""event"",""trial"",""time""
""fullscreenenter"",""1"",""4394""
","""event"",""trial"",""time""
""fullscreenexit"",""3"",""27779""
","","","218.39999997615814","","","11","10128","4784","&#9789;","elianto","#f73b6a7A"," "," ","1","0","[1070.1000000238419]","1","0","4","","","","","","","",""
"pit-trial","94","871886","0.0-2.0-17.2-0.2","battery-v0.2","","""event"",""trial"",""time""
""fullscreenenter"",""1"",""4394""
""fullscreenexit"",""3"",""27779""
""blur"",""3"",""29556""
""focus"",""3"",""34284""
""blur"",""10"",""136154""
""focus"",""10"",""168721""
""blur"",""10"",""168835""
""focus"",""10"",""192366""
","""event"",""trial"",""time""
""blur"",""3"",""29556""
""blur"",""10"",""136154""
""blur"",""10"",""168835""
","""event"",""trial"",""time""
""focus"",""3"",""34284""
""focus"",""10"",""168721""
""focus"",""10"",""192366""
","""event"",""trial"",""time""
""fullscreenenter"",""1"",""4394""
","""event"",""trial"",""time""
""fullscreenexit"",""3"",""27779""
","","","194","","","11","10128","4784","&#9789;","elianto","#f73b6a7A"," "," ","1","0","[1044.7000000476837]","1","0","4","","","","","","","",""
"pit-trial","95","874971","0.0-2.0-17.2-1.2","battery-v0.2","","""event"",""trial"",""time""
""fullscreenenter"",""1"",""4394""
""fullscreenexit"",""3"",""27779""
""blur"",""3"",""29556""
""focus"",""3"",""34284""
""blur"",""10"",""136154""
""focus"",""10"",""168721""
""blur"",""10"",""168835""
""focus"",""10"",""192366""
","""event"",""trial"",""time""
""blur"",""3"",""29556""
""blur"",""10"",""136154""
""blur"",""10"",""168835""
","""event"",""trial"",""time""
""focus"",""3"",""34284""
""focus"",""10"",""168721""
""focus"",""10"",""192366""
","""event"",""trial"",""time""
""fullscreenenter"",""1"",""4394""
","""event"",""trial"",""time""
""fullscreenexit"",""3"",""27779""
","","","233","","","11","10128","4784","&#9789;","elianto","#f73b6a7A"," "," ","1","0","[1084.1000000238419]","1","0","4","","","","","","","",""
"pit-trial","96","879108","0.0-2.0-17.2-2.2","battery-v0.2","","""event"",""trial"",""time""
""fullscreenenter"",""1"",""4394""
""fullscreenexit"",""3"",""27779""
""blur"",""3"",""29556""
""focus"",""3"",""34284""
""blur"",""10"",""136154""
""focus"",""10"",""168721""
""blur"",""10"",""168835""
""focus"",""10"",""192366""
","""event"",""trial"",""time""
""blur"",""3"",""29556""
""blur"",""10"",""136154""
""blur"",""10"",""168835""
","""event"",""trial"",""time""
""focus"",""3"",""34284""
""focus"",""10"",""168721""
""focus"",""10"",""192366""
","""event"",""trial"",""time""
""fullscreenenter"",""1"",""4394""
","""event"",""trial"",""time""
""fullscreenexit"",""3"",""27779""
","","","1282.7999999523163","","","11","10128","4784","&#9789;","elianto","#f73b6a7A"," "," ","1","0","[2133]","1","0","4","","","","","","","",""
"pit-trial","97","882124","0.0-2.0-17.2-3.2","battery-v0.2","","""event"",""trial"",""time""
""fullscreenenter"",""1"",""4394""
""fullscreenexit"",""3"",""27779""
""blur"",""3"",""29556""
""focus"",""3"",""34284""
""blur"",""10"",""136154""
""focus"",""10"",""168721""
""blur"",""10"",""168835""
""focus"",""10"",""192366""
","""event"",""trial"",""time""
""blur"",""3"",""29556""
""blur"",""10"",""136154""
""blur"",""10"",""168835""
","""event"",""trial"",""time""
""focus"",""3"",""34284""
""focus"",""10"",""168721""
""focus"",""10"",""192366""
","""event"",""trial"",""time""
""fullscreenenter"",""1"",""4394""
","""event"",""trial"",""time""
""fullscreenexit"",""3"",""27779""
","","","162.5","","","11","10128","4784","&#9789;","elianto","#f73b6a7A"," "," ","1","-10","[1014.1000000238419]","1","0","4","","","","","","","",""
"pit-trial","98","885425","0.0-2.0-17.2-4.2","battery-v0.2","","""event"",""trial"",""time""
""fullscreenenter"",""1"",""4394""
""fullscreenexit"",""3"",""27779""
""blur"",""3"",""29556""
""focus"",""3"",""34284""
""blur"",""10"",""136154""
""focus"",""10"",""168721""
""blur"",""10"",""168835""
""focus"",""10"",""192366""
","""event"",""trial"",""time""
""blur"",""3"",""29556""
""blur"",""10"",""136154""
""blur"",""10"",""168835""
","""event"",""trial"",""time""
""focus"",""3"",""34284""
""focus"",""10"",""168721""
""focus"",""10"",""192366""
","""event"",""trial"",""time""
""fullscreenenter"",""1"",""4394""
","""event"",""trial"",""time""
""fullscreenexit"",""3"",""27779""
","","","447.89999997615814","","","11","10128","4784","&#9789;","elianto","#f73b6a7A"," "," ","1","0","[1299]","1","0","4","","","","","","","",""
"pit-trial","99","888984","0.0-2.0-17.3-0.3","battery-v0.2","","""event"",""trial"",""time""
""fullscreenenter"",""1"",""4394""
""fullscreenexit"",""3"",""27779""
""blur"",""3"",""29556""
""focus"",""3"",""34284""
""blur"",""10"",""136154""
""focus"",""10"",""168721""
""blur"",""10"",""168835""
""focus"",""10"",""192366""
","""event"",""trial"",""time""
""blur"",""3"",""29556""
""blur"",""10"",""136154""
""blur"",""10"",""168835""
","""event"",""trial"",""time""
""focus"",""3"",""34284""
""focus"",""10"",""168721""
""focus"",""10"",""192366""
","""event"",""trial"",""time""
""fullscreenenter"",""1"",""4394""
","""event"",""trial"",""time""
""fullscreenexit"",""3"",""27779""
","","","706","","","11","10128","4784","&#9789;","elianto","#f73b6a7A"," "," ","1","0","[1556.1000000238419]","1","0","4","","","","","","","",""
"pit-trial","100","892208","0.0-2.0-17.3-1.3","battery-v0.2","","""event"",""trial"",""time""
""fullscreenenter"",""1"",""4394""
""fullscreenexit"",""3"",""27779""
""blur"",""3"",""29556""
""focus"",""3"",""34284""
""blur"",""10"",""136154""
""focus"",""10"",""168721""
""blur"",""10"",""168835""
""focus"",""10"",""192366""
","""event"",""trial"",""time""
""blur"",""3"",""29556""
""blur"",""10"",""136154""
""blur"",""10"",""168835""
","""event"",""trial"",""time""
""focus"",""3"",""34284""
""focus"",""10"",""168721""
""focus"",""10"",""192366""
","""event"",""trial"",""time""
""fullscreenenter"",""1"",""4394""
","""event"",""trial"",""time""
""fullscreenexit"",""3"",""27779""
","","","370.7000000476837","","","11","10128","4784","&#9789;","elianto","#f73b6a7A"," "," ","1","0","[1220.5]","1","0","4","","","","","","","",""
"pit-trial","101","895262","0.0-2.0-17.3-2.3","battery-v0.2","","""event"",""trial"",""time""
""fullscreenenter"",""1"",""4394""
""fullscreenexit"",""3"",""27779""
""blur"",""3"",""29556""
""focus"",""3"",""34284""
""blur"",""10"",""136154""
""focus"",""10"",""168721""
""blur"",""10"",""168835""
""focus"",""10"",""192366""
","""event"",""trial"",""time""
""blur"",""3"",""29556""
""blur"",""10"",""136154""
""blur"",""10"",""168835""
","""event"",""trial"",""time""
""focus"",""3"",""34284""
""focus"",""10"",""168721""
""focus"",""10"",""192366""
","""event"",""trial"",""time""
""fullscreenenter"",""1"",""4394""
","""event"",""trial"",""time""
""fullscreenexit"",""3"",""27779""
","","","200.29999995231628","","","11","10128","4784","&#9789;","elianto","#f73b6a7A"," "," ","1","0","[1051.1000000238419]","1","0","4","","","","","","","",""
"pit-trial","102","898420","0.0-2.0-17.3-3.3","battery-v0.2","","""event"",""trial"",""time""
""fullscreenenter"",""1"",""4394""
""fullscreenexit"",""3"",""27779""
""blur"",""3"",""29556""
""focus"",""3"",""34284""
""blur"",""10"",""136154""
""focus"",""10"",""168721""
""blur"",""10"",""168835""
""focus"",""10"",""192366""
","""event"",""trial"",""time""
""blur"",""3"",""29556""
""blur"",""10"",""136154""
""blur"",""10"",""168835""
","""event"",""trial"",""time""
""focus"",""3"",""34284""
""focus"",""10"",""168721""
""focus"",""10"",""192366""
","""event"",""trial"",""time""
""fullscreenenter"",""1"",""4394""
","""event"",""trial"",""time""
""fullscreenexit"",""3"",""27779""
","","","304.5","","","11","10128","4784","&#9789;","elianto","#f73b6a7A"," "," ","1","-10","[1155.3999999761581]","1","0","4","","","","","","","",""
"pit-trial","103","902739","0.0-2.0-17.3-4.3","battery-v0.2","","""event"",""trial"",""time""
""fullscreenenter"",""1"",""4394""
""fullscreenexit"",""3"",""27779""
""blur"",""3"",""29556""
""focus"",""3"",""34284""
""blur"",""10"",""136154""
""focus"",""10"",""168721""
""blur"",""10"",""168835""
""focus"",""10"",""192366""
","""event"",""trial"",""time""
""blur"",""3"",""29556""
""blur"",""10"",""136154""
""blur"",""10"",""168835""
","""event"",""trial"",""time""
""focus"",""3"",""34284""
""focus"",""10"",""168721""
""focus"",""10"",""192366""
","""event"",""trial"",""time""
""fullscreenenter"",""1"",""4394""
","""event"",""trial"",""time""
""fullscreenexit"",""3"",""27779""
","","","1464.7999999523163","","","11","10128","4784","&#9789;","elianto","#f73b6a7A"," "," ","1","0","[2316.399999976158]","1","0","4","","","","","","","",""
"call-function","104","902741","0.0-2.0-18.0","battery-v0.2","","""event"",""trial"",""time""
""fullscreenenter"",""1"",""4394""
""fullscreenexit"",""3"",""27779""
""blur"",""3"",""29556""
""focus"",""3"",""34284""
""blur"",""10"",""136154""
""focus"",""10"",""168721""
""blur"",""10"",""168835""
""focus"",""10"",""192366""
","""event"",""trial"",""time""
""blur"",""3"",""29556""
""blur"",""10"",""136154""
""blur"",""10"",""168835""
","""event"",""trial"",""time""
""focus"",""3"",""34284""
""focus"",""10"",""168721""
""focus"",""10"",""192366""
","""event"",""trial"",""time""
""fullscreenenter"",""1"",""4394""
","""event"",""trial"",""time""
""fullscreenexit"",""3"",""27779""
","","","","","","","","","","","","","","","","","","","","","","","","","","",""
"pit-instructions","105","974319","0.0-2.0-19.0","battery-v0.2","","""event"",""trial"",""time""
""fullscreenenter"",""1"",""4394""
""fullscreenexit"",""3"",""27779""
""blur"",""3"",""29556""
""focus"",""3"",""34284""
""blur"",""10"",""136154""
""focus"",""10"",""168721""
""blur"",""10"",""168835""
""focus"",""10"",""192366""
","""event"",""trial"",""time""
""blur"",""3"",""29556""
""blur"",""10"",""136154""
""blur"",""10"",""168835""
","""event"",""trial"",""time""
""focus"",""3"",""34284""
""focus"",""10"",""168721""
""focus"",""10"",""192366""
","""event"",""trial"",""time""
""fullscreenenter"",""1"",""4394""
","""event"",""trial"",""time""
""fullscreenexit"",""3"",""27779""
","","[{""page_index"":0,""viewing_time"":6700.5},{""page_index"":1,""viewing_time"":7089.100000023842},{""page_index"":2,""viewing_time"":14451.700000047684},{""page_index"":3,""viewing_time"":8865.099999904633},{""page_index"":4,""viewing_time"":9557.900000095367},{""page_index"":5,""viewing_time"":8556.399999976158},{""page_index"":6,""viewing_time"":4286.299999952316},{""page_index"":7,""viewing_time"":7036.100000023842},{""page_index"":8,""viewing_time"":5034.700000047684}]","71578","","","","","","","","","","","","","","","","","","","","","","","",""
"pit-comprehension","106","981666","0.0-2.0-20.0-0.0","battery-v0.2","","""event"",""trial"",""time""
""fullscreenenter"",""1"",""4394""
""fullscreenexit"",""3"",""27779""
""blur"",""3"",""29556""
""focus"",""3"",""34284""
""blur"",""10"",""136154""
""focus"",""10"",""168721""
""blur"",""10"",""168835""
""focus"",""10"",""192366""
","""event"",""trial"",""time""
""blur"",""3"",""29556""
""blur"",""10"",""136154""
""blur"",""10"",""168835""
","""event"",""trial"",""time""
""focus"",""3"",""34284""
""focus"",""10"",""168721""
""focus"",""10"",""192366""
","""event"",""trial"",""time""
""fullscreenenter"",""1"",""4394""
","""event"",""trial"",""time""
""fullscreenexit"",""3"",""27779""
","","","7345.100000023842","[""SPACE""]","0","11","10128","4784","","","","","","","","","","","","","","","","","","",""
"pit-instructions","107","986689","0.0-2.0-20.0-1.0","battery-v0.2","","""event"",""trial"",""time""
""fullscreenenter"",""1"",""4394""
""fullscreenexit"",""3"",""27779""
""blur"",""3"",""29556""
""focus"",""3"",""34284""
""blur"",""10"",""136154""
""focus"",""10"",""168721""
""blur"",""10"",""168835""
""focus"",""10"",""192366""
","""event"",""trial"",""time""
""blur"",""3"",""29556""
""blur"",""10"",""136154""
""blur"",""10"",""168835""
","""event"",""trial"",""time""
""focus"",""3"",""34284""
""focus"",""10"",""168721""
""focus"",""10"",""192366""
","""event"",""trial"",""time""
""fullscreenenter"",""1"",""4394""
","""event"",""trial"",""time""
""fullscreenexit"",""3"",""27779""
","","[{""page_index"":0,""viewing_time"":5001.5}]","5001.700000047684","","","","","","","","","","","","","","","","","","","","","","","",""
"pit-comprehension","108","995199","0.0-2.0-21.0-0.0","battery-v0.2","","""event"",""trial"",""time""
""fullscreenenter"",""1"",""4394""
""fullscreenexit"",""3"",""27779""
""blur"",""3"",""29556""
""focus"",""3"",""34284""
""blur"",""10"",""136154""
""focus"",""10"",""168721""
""blur"",""10"",""168835""
""focus"",""10"",""192366""
","""event"",""trial"",""time""
""blur"",""3"",""29556""
""blur"",""10"",""136154""
""blur"",""10"",""168835""
","""event"",""trial"",""time""
""focus"",""3"",""34284""
""focus"",""10"",""168721""
""focus"",""10"",""192366""
","""event"",""trial"",""time""
""fullscreenenter"",""1"",""4394""
","""event"",""trial"",""time""
""fullscreenexit"",""3"",""27779""
","","","8509.800000071526","[""10""]","0","11","10128","4784","","","","","","","","","","","","","","","","","","",""
"pit-instructions","109","998007","0.0-2.0-21.0-1.0","battery-v0.2","","""event"",""trial"",""time""
""fullscreenenter"",""1"",""4394""
""fullscreenexit"",""3"",""27779""
""blur"",""3"",""29556""
""focus"",""3"",""34284""
""blur"",""10"",""136154""
""focus"",""10"",""168721""
""blur"",""10"",""168835""
""focus"",""10"",""192366""
","""event"",""trial"",""time""
""blur"",""3"",""29556""
""blur"",""10"",""136154""
""blur"",""10"",""168835""
","""event"",""trial"",""time""
""focus"",""3"",""34284""
""focus"",""10"",""168721""
""focus"",""10"",""192366""
","""event"",""trial"",""time""
""fullscreenenter"",""1"",""4394""
","""event"",""trial"",""time""
""fullscreenexit"",""3"",""27779""
","","[{""page_index"":0,""viewing_time"":2788.899999976158}]","2789","","","","","","","","","","","","","","","","","","","","","","","",""
"pit-comprehension","110","1005254","0.0-2.0-22.0-0.0","battery-v0.2","","""event"",""trial"",""time""
""fullscreenenter"",""1"",""4394""
""fullscreenexit"",""3"",""27779""
""blur"",""3"",""29556""
""focus"",""3"",""34284""
""blur"",""10"",""136154""
""focus"",""10"",""168721""
""blur"",""10"",""168835""
""focus"",""10"",""192366""
","""event"",""trial"",""time""
""blur"",""3"",""29556""
""blur"",""10"",""136154""
""blur"",""10"",""168835""
","""event"",""trial"",""time""
""focus"",""3"",""34284""
""focus"",""10"",""168721""
""focus"",""10"",""192366""
","""event"",""trial"",""time""
""fullscreenenter"",""1"",""4394""
","""event"",""trial"",""time""
""fullscreenexit"",""3"",""27779""
","","","7245.900000095367","[""0""]","0","11","10128","4784","","","","","","","","","","","","","","","","","","",""
"pit-instructions","111","1007574","0.0-2.0-22.0-1.0","battery-v0.2","","""event"",""trial"",""time""
""fullscreenenter"",""1"",""4394""
""fullscreenexit"",""3"",""27779""
""blur"",""3"",""29556""
""focus"",""3"",""34284""
""blur"",""10"",""136154""
""focus"",""10"",""168721""
""blur"",""10"",""168835""
""focus"",""10"",""192366""
","""event"",""trial"",""time""
""blur"",""3"",""29556""
""blur"",""10"",""136154""
""blur"",""10"",""168835""
","""event"",""trial"",""time""
""focus"",""3"",""34284""
""focus"",""10"",""168721""
""focus"",""10"",""192366""
","""event"",""trial"",""time""
""fullscreenenter"",""1"",""4394""
","""event"",""trial"",""time""
""fullscreenexit"",""3"",""27779""
","","[{""page_index"":0,""viewing_time"":2299.399999976158}]","2299.5","","","","","","","","","","","","","","","","","","","","","","","",""
"pit-comprehension","112","1017413","0.0-2.0-23.0-0.0","battery-v0.2","","""event"",""trial"",""time""
""fullscreenenter"",""1"",""4394""
""fullscreenexit"",""3"",""27779""
""blur"",""3"",""29556""
""focus"",""3"",""34284""
""blur"",""10"",""136154""
""focus"",""10"",""168721""
""blur"",""10"",""168835""
""focus"",""10"",""192366""
","""event"",""trial"",""time""
""blur"",""3"",""29556""
""blur"",""10"",""136154""
""blur"",""10"",""168835""
","""event"",""trial"",""time""
""focus"",""3"",""34284""
""focus"",""10"",""168721""
""focus"",""10"",""192366""
","""event"",""trial"",""time""
""fullscreenenter"",""1"",""4394""
","""event"",""trial"",""time""
""fullscreenexit"",""3"",""27779""
","","","9837.600000023842","[""True""]","0","11","10128","4784","","","","","","","","","","","","","","","","","","",""
"pit-instructions","113","1020472","0.0-2.0-23.0-1.0","battery-v0.2","","""event"",""trial"",""time""
""fullscreenenter"",""1"",""4394""
""fullscreenexit"",""3"",""27779""
""blur"",""3"",""29556""
""focus"",""3"",""34284""
""blur"",""10"",""136154""
""focus"",""10"",""168721""
""blur"",""10"",""168835""
""focus"",""10"",""192366""
","""event"",""trial"",""time""
""blur"",""3"",""29556""
""blur"",""10"",""136154""
""blur"",""10"",""168835""
","""event"",""trial"",""time""
""focus"",""3"",""34284""
""focus"",""10"",""168721""
""focus"",""10"",""192366""
","""event"",""trial"",""time""
""fullscreenenter"",""1"",""4394""
","""event"",""trial"",""time""
""fullscreenexit"",""3"",""27779""
","","[{""page_index"":0,""viewing_time"":3039.100000023842}]","3039.2999999523163","","","","","","","","","","","","","","","","","","","","","","","",""
"pit-comprehension","114","1028392","0.0-2.0-24.0-0.0","battery-v0.2","","""event"",""trial"",""time""
""fullscreenenter"",""1"",""4394""
""fullscreenexit"",""3"",""27779""
""blur"",""3"",""29556""
""focus"",""3"",""34284""
""blur"",""10"",""136154""
""focus"",""10"",""168721""
""blur"",""10"",""168835""
""focus"",""10"",""192366""
","""event"",""trial"",""time""
""blur"",""3"",""29556""
""blur"",""10"",""136154""
""blur"",""10"",""168835""
","""event"",""trial"",""time""
""focus"",""3"",""34284""
""focus"",""10"",""168721""
""focus"",""10"",""192366""
","""event"",""trial"",""time""
""fullscreenenter"",""1"",""4394""
","""event"",""trial"",""time""
""fullscreenexit"",""3"",""27779""
","","","7919.399999976158","[""True""]","0","11","10128","4784","","","","","","","","","","","","","","","","","","",""
"pit-instructions","115","1030520","0.0-2.0-24.0-1.0","battery-v0.2","","""event"",""trial"",""time""
""fullscreenenter"",""1"",""4394""
""fullscreenexit"",""3"",""27779""
""blur"",""3"",""29556""
""focus"",""3"",""34284""
""blur"",""10"",""136154""
""focus"",""10"",""168721""
""blur"",""10"",""168835""
""focus"",""10"",""192366""
","""event"",""trial"",""time""
""blur"",""3"",""29556""
""blur"",""10"",""136154""
""blur"",""10"",""168835""
","""event"",""trial"",""time""
""focus"",""3"",""34284""
""focus"",""10"",""168721""
""focus"",""10"",""192366""
","""event"",""trial"",""time""
""fullscreenenter"",""1"",""4394""
","""event"",""trial"",""time""
""fullscreenexit"",""3"",""27779""
","","[{""page_index"":0,""viewing_time"":2106.5}]","2106.5","","","","","","","","","","","","","","","","","","","","","","","",""
"pit-comprehension","116","1038545","0.0-2.0-25.0-0.0","battery-v0.2","","""event"",""trial"",""time""
""fullscreenenter"",""1"",""4394""
""fullscreenexit"",""3"",""27779""
""blur"",""3"",""29556""
""focus"",""3"",""34284""
""blur"",""10"",""136154""
""focus"",""10"",""168721""
""blur"",""10"",""168835""
""focus"",""10"",""192366""
","""event"",""trial"",""time""
""blur"",""3"",""29556""
""blur"",""10"",""136154""
""blur"",""10"",""168835""
","""event"",""trial"",""time""
""focus"",""3"",""34284""
""focus"",""10"",""168721""
""focus"",""10"",""192366""
","""event"",""trial"",""time""
""fullscreenenter"",""1"",""4394""
","""event"",""trial"",""time""
""fullscreenexit"",""3"",""27779""
","","","8024","[""True""]","0","11","10128","4784","","","","","","","","","","","","","","","","","","",""
"pit-instructions","117","1040345","0.0-2.0-25.0-1.0","battery-v0.2","","""event"",""trial"",""time""
""fullscreenenter"",""1"",""4394""
""fullscreenexit"",""3"",""27779""
""blur"",""3"",""29556""
""focus"",""3"",""34284""
""blur"",""10"",""136154""
""focus"",""10"",""168721""
""blur"",""10"",""168835""
""focus"",""10"",""192366""
