"trial_type","trial_index","time_elapsed","internal_node_id","task_version","subject_id","interactions","blur_events","focus_events","fullscreenenter_events","fullscreenexit_events","success","view_history","rt","responses","num_errors","age","subject","participantId","rune","rune_set","hex","correct","choice","accuracy","outcome","keys","total_keys","block","practice","value","sub","trial","stimulus","robot","valence","action","sham"
"pavlovia","0","20","0.0-0.0","battery-v0.2","","""event"",""trial"",""time""
""focus"",""1"",""11535""
""fullscreenenter"",""1"",""11659""
","
","""event"",""trial"",""time""
""focus"",""1"",""11535""
","""event"",""trial"",""time""
""fullscreenenter"",""1"",""11659""
","
","","","","","","","","","","","","","","","","","","","","","","","","","","",""
"fullscreen","1","12625","0.0-1.0","battery-v0.2","","""event"",""trial"",""time""
""focus"",""1"",""11535""
""fullscreenenter"",""1"",""11659""
","
","""event"",""trial"",""time""
""focus"",""1"",""11535""
","""event"",""trial"",""time""
""fullscreenenter"",""1"",""11659""
","
","true","","","","","","","","","","","","","","","","","","","","","","","","","",""
"pit-instructions","2","22977","0.0-2.0-0.0","battery-v0.2","","""event"",""trial"",""time""
""focus"",""1"",""11535""
""fullscreenenter"",""1"",""11659""
","
","""event"",""trial"",""time""
""focus"",""1"",""11535""
","""event"",""trial"",""time""
""fullscreenenter"",""1"",""11659""
","
","","[{""page_index"":0,""viewing_time"":10336.399999976158}]","10338.099999904633","","","","","","","","","","","","","","","","","","","","","","","",""
"pit-comprehension","3","26204","0.0-2.0-1.0-0.0","battery-v0.2","","""event"",""trial"",""time""
""focus"",""1"",""11535""
""fullscreenenter"",""1"",""11659""
","
","""event"",""trial"",""time""
""focus"",""1"",""11535""
","""event"",""trial"",""time""
""fullscreenenter"",""1"",""11659""
","
","","","3213.2000000476837","[""shark""]","0","11","13392","5704","","","","","","","","","","","","","","","","","","",""
"pit-instructions","4","30218","0.0-2.0-1.0-1.0","battery-v0.2","","""event"",""trial"",""time""
""focus"",""1"",""11535""
""fullscreenenter"",""1"",""11659""
","
","""event"",""trial"",""time""
""focus"",""1"",""11535""
","""event"",""trial"",""time""
""fullscreenenter"",""1"",""11659""
","
","","[{""page_index"":0,""viewing_time"":4003.600000023842}]","4003.899999976158","","","","","","","","","","","","","","","","","","","","","","","",""
"pit-comprehension","5","33681","0.0-2.0-2.0-0.0","battery-v0.2","","""event"",""trial"",""time""
""focus"",""1"",""11535""
""fullscreenenter"",""1"",""11659""
","
","""event"",""trial"",""time""
""focus"",""1"",""11535""
","""event"",""trial"",""time""
""fullscreenenter"",""1"",""11659""
","
","","","3457.6999999284744","[""tiger""]","0","11","13392","5704","","","","","","","","","","","","","","","","","","",""
"pit-instructions","6","34789","0.0-2.0-2.0-1.0","battery-v0.2","","""event"",""trial"",""time""
""focus"",""1"",""11535""
""fullscreenenter"",""1"",""11659""
","
","""event"",""trial"",""time""
""focus"",""1"",""11535""
","""event"",""trial"",""time""
""fullscreenenter"",""1"",""11659""
","
","","[{""page_index"":0,""viewing_time"":1105.3999999761581}]","1105.7000000476837","","","","","","","","","","","","","","","","","","","","","","","",""
"pit-instructions","7","142258","0.0-2.0-3.0","battery-v0.2","","""event"",""trial"",""time""
""focus"",""1"",""11535""
""fullscreenenter"",""1"",""11659""
","
","""event"",""trial"",""time""
""focus"",""1"",""11535""
","""event"",""trial"",""time""
""fullscreenenter"",""1"",""11659""
","
","","[{""page_index"":0,""viewing_time"":7892.600000023842},{""page_index"":1,""viewing_time"":6443.199999928474},{""page_index"":2,""viewing_time"":11500.900000095367},{""page_index"":3,""viewing_time"":5914},{""page_index"":4,""viewing_time"":6216.799999952316},{""page_index"":5,""viewing_time"":8626.299999952316},{""page_index"":6,""viewing_time"":7279.600000023842},{""page_index"":7,""viewing_time"":6459.5},{""page_index"":8,""viewing_time"":6858.100000023842},{""page_index"":9,""viewing_time"":8592.299999952316},{""page_index"":10,""viewing_time"":8733.100000023842},{""page_index"":11,""viewing_time"":8974.600000023842},{""page_index"":12,""viewing_time"":7123.700000047684},{""page_index"":13,""viewing_time"":6851.199999928474}]","107466.29999995232","","","","","","","","","","","","","","","","","","","","","","","",""
"pit-trial","8","146500","0.0-2.0-4.0-0.0","battery-v0.2","","""event"",""trial"",""time""
""focus"",""1"",""11535""
""fullscreenenter"",""1"",""11659""
","
","""event"",""trial"",""time""
""focus"",""1"",""11535""
","""event"",""trial"",""time""
""fullscreenenter"",""1"",""11659""
","
","","","1367","","","11","13392","5704","&#9784;","elianto","#FFFFF080"," "," ","1","&#10004","[2221.100000023842]","1","0","0","","","","","","","",""
"pit-trial","9","150549","0.0-2.0-4.1-0.1","battery-v0.2","","""event"",""trial"",""time""
""focus"",""1"",""11535""
""fullscreenenter"",""1"",""11659""
","
","""event"",""trial"",""time""
""focus"",""1"",""11535""
","""event"",""trial"",""time""
""fullscreenenter"",""1"",""11659""
","
","","","1177.6000000238419","","","11","13392","5704","&#9784;","elianto","#FFFFF080"," "," ","1","&#10004","[2037.3999999761581]","1","0","0","","","","","","","",""
"pit-trial","10","154675","0.0-2.0-4.2-0.2","battery-v0.2","","""event"",""trial"",""time""
""focus"",""1"",""11535""
""fullscreenenter"",""1"",""11659""
","
","""event"",""trial"",""time""
""focus"",""1"",""11535""
","""event"",""trial"",""time""
""fullscreenenter"",""1"",""11659""
","
","","","1253.3999999761581","","","11","13392","5704","&#9784;","elianto","#FFFFF080"," "," ","1","&#10004","[2113.6999999284744,2172.899999976158]","2","0","0","","","","","","","",""
"pit-trial","11","158139","0.0-2.0-4.3-0.3","battery-v0.2","","""event"",""trial"",""time""
""focus"",""1"",""11535""
""fullscreenenter"",""1"",""11659""
","
","""event"",""trial"",""time""
""focus"",""1"",""11535""
","""event"",""trial"",""time""
""fullscreenenter"",""1"",""11659""
","
","","","605.6000000238419","","","11","13392","5704","&#9784;","elianto","#FFFFF080"," "," ","1","&#10004","[1456.6000000238419]","1","0","0","","","","","","","",""
"pit-trial","12","161678","0.0-2.0-4.4-0.4","battery-v0.2","","""event"",""trial"",""time""
""focus"",""1"",""11535""
""fullscreenenter"",""1"",""11659""
","
","""event"",""trial"",""time""
""focus"",""1"",""11535""
","""event"",""trial"",""time""
""fullscreenenter"",""1"",""11659""
","
","","","677.6000000238419","","","11","13392","5704","&#9784;","elianto","#FFFFF080"," "," ","1","&#10004","[1527.8999999761581]","1","0","0","","","","","","","",""
"pit-instructions","13","190248","0.0-2.0-5.0","battery-v0.2","","""event"",""trial"",""time""
""focus"",""1"",""11535""
""fullscreenenter"",""1"",""11659""
","
","""event"",""trial"",""time""
""focus"",""1"",""11535""
","""event"",""trial"",""time""
""fullscreenenter"",""1"",""11659""
","
","","[{""page_index"":0,""viewing_time"":5039.600000023842},{""page_index"":1,""viewing_time"":6924.899999976158},{""page_index"":2,""viewing_time"":10068.400000095367},{""page_index"":3,""viewing_time"":6531.099999904633}]","28564.300000071526","","","","","","","","","","","","","","","","","","","","","","","",""
"pit-trial","14","195128","0.0-2.0-6.0-0.0","battery-v0.2","","""event"",""trial"",""time""
""focus"",""1"",""11535""
""fullscreenenter"",""1"",""11659""
","
","""event"",""trial"",""time""
""focus"",""1"",""11535""
","""event"",""trial"",""time""
""fullscreenenter"",""1"",""11659""
","
","","","-1","","","11","13392","5704","&#9854;","elianto","#FFFFF080","-1","-1","1","&#10004","[]","0","0","1","","","","","","","",""
"pit-trial","15","200002","0.0-2.0-6.1-0.1","battery-v0.2","","""event"",""trial"",""time""
""focus"",""1"",""11535""
""fullscreenenter"",""1"",""11659""
","
","""event"",""trial"",""time""
""focus"",""1"",""11535""
","""event"",""trial"",""time""
""fullscreenenter"",""1"",""11659""
","
","","","-1","","","11","13392","5704","&#9854;","elianto","#FFFFF080","-1","-1","1","&#10004","[]","0","0","1","","","","","","","",""
"pit-trial","16","204872","0.0-2.0-6.2-0.2","battery-v0.2","","""event"",""trial"",""time""
""focus"",""1"",""11535""
""fullscreenenter"",""1"",""11659""
","
","""event"",""trial"",""time""
""focus"",""1"",""11535""
","""event"",""trial"",""time""
""fullscreenenter"",""1"",""11659""
","
","","","-1","","","11","13392","5704","&#9854;","elianto","#FFFFF080","-1","-1","1","&#10004","[]","0","0","1","","","","","","","",""
"pit-trial","17","209752","0.0-2.0-6.3-0.3","battery-v0.2","","""event"",""trial"",""time""
""focus"",""1"",""11535""
""fullscreenenter"",""1"",""11659""
","
","""event"",""trial"",""time""
""focus"",""1"",""11535""
","""event"",""trial"",""time""
""fullscreenenter"",""1"",""11659""
","
","","","-1","","","11","13392","5704","&#9854;","elianto","#FFFFF080","-1","-1","1","&#10004","[]","0","0","1","","","","","","","",""
"pit-trial","18","214629","0.0-2.0-6.4-0.4","battery-v0.2","","""event"",""trial"",""time""
""focus"",""1"",""11535""
""fullscreenenter"",""1"",""11659""
","
","""event"",""trial"",""time""
""focus"",""1"",""11535""
","""event"",""trial"",""time""
""fullscreenenter"",""1"",""11659""
","
","","","-1","","","11","13392","5704","&#9854;","elianto","#FFFFF080","-1","-1","1","&#10004","[]","0","0","1","","","","","","","",""
"pit-instructions","19","374861","0.0-2.0-7.0","battery-v0.2","","""event"",""trial"",""time""
""focus"",""1"",""11535""
""fullscreenenter"",""1"",""11659""
","
","""event"",""trial"",""time""
""focus"",""1"",""11535""
","""event"",""trial"",""time""
""fullscreenenter"",""1"",""11659""
","
","","[{""page_index"":0,""viewing_time"":7067.600000023842},{""page_index"":1,""viewing_time"":15848.300000071526},{""page_index"":2,""viewing_time"":7915},{""page_index"":3,""viewing_time"":9227.299999952316},{""page_index"":4,""viewing_time"":8907.799999952316},{""page_index"":5,""viewing_time"":5695},{""page_index"":6,""viewing_time"":5721.800000071526},{""page_index"":7,""viewing_time"":9957.5},{""page_index"":8,""viewing_time"":7553.600000023842},{""page_index"":9,""viewing_time"":5139.799999952316},{""page_index"":10,""viewing_time"":12086.799999952316},{""page_index"":11,""viewing_time"":11681.300000071526},{""page_index"":12,""viewing_time"":6287.299999952316},{""page_index"":13,""viewing_time"":8810.600000023842},{""page_index"":14,""viewing_time"":12503.299999952316},{""page_index"":15,""viewing_time"":8054.800000071526},{""page_index"":16,""viewing_time"":7546.100000023842},{""page_index"":17,""viewing_time"":10223.799999952316}]","160227.90000009537","","","","","","","","","","","","","","","","","","","","","","","",""
"pit-trial","20","378581","0.0-2.0-8.0-0.0","battery-v0.2","","""event"",""trial"",""time""
""focus"",""1"",""11535""
""fullscreenenter"",""1"",""11659""
","
","""event"",""trial"",""time""
""focus"",""1"",""11535""
","""event"",""trial"",""time""
""fullscreenenter"",""1"",""11659""
","
","","","852.5","","","11","13392","5704","&#9776;","elianto","#3366ff99"," "," ","1","+10","[1704.8999999761581]","1","0","1","","","","","","","",""
"pit-trial","21","382284","0.0-2.0-8.0-1.0","battery-v0.2","","""event"",""trial"",""time""
""focus"",""1"",""11535""
""fullscreenenter"",""1"",""11659""
","
","""event"",""trial"",""time""
""focus"",""1"",""11535""
","""event"",""trial"",""time""
""fullscreenenter"",""1"",""11659""
","
","","","843.6000000238419","","","11","13392","5704","&#9776;","elianto","#3366ff99"," "," ","1","+10","[1693.9000000953674]","1","0","1","","","","","","","",""
"pit-trial","22","385721","0.0-2.0-8.0-2.0","battery-v0.2","","""event"",""trial"",""time""
""focus"",""1"",""11535""
""fullscreenenter"",""1"",""11659""
","
","""event"",""trial"",""time""
""focus"",""1"",""11535""
","""event"",""trial"",""time""
""fullscreenenter"",""1"",""11659""
","
","","","574.3999999761581","","","11","13392","5704","&#9776;","elianto","#3366ff99"," "," ","1","+10","[1429.2000000476837]","1","0","1","","","","","","","",""
"pit-trial","23","389104","0.0-2.0-8.0-3.0","battery-v0.2","","""event"",""trial"",""time""
""focus"",""1"",""11535""
""fullscreenenter"",""1"",""11659""
","
","""event"",""trial"",""time""
""focus"",""1"",""11535""
","""event"",""trial"",""time""
""fullscreenenter"",""1"",""11659""
","
","","","502.6999999284744","","","11","13392","5704","&#9776;","elianto","#3366ff99"," "," ","1","0","[1364.5999999046326]","1","0","1","","","","","","","",""
"pit-trial","24","393032","0.0-2.0-8.0-4.0","battery-v0.2","","""event"",""trial"",""time""
""focus"",""1"",""11535""
""fullscreenenter"",""1"",""11659""
","
","""event"",""trial"",""time""
""focus"",""1"",""11535""
","""event"",""trial"",""time""
""fullscreenenter"",""1"",""11659""
","
","","","1062.7000000476837","","","11","13392","5704","&#9776;","elianto","#3366ff99"," "," ","1","+10","[1920.5]","1","0","1","","","","","","","",""
"pit-trial","25","396522","0.0-2.0-8.1-0.1","battery-v0.2","","""event"",""trial"",""time""
""focus"",""1"",""11535""
""fullscreenenter"",""1"",""11659""
","
","""event"",""trial"",""time""
""focus"",""1"",""11535""
","""event"",""trial"",""time""
""fullscreenenter"",""1"",""11659""
","
","","","625.3999999761581","","","11","13392","5704","&#9776;","elianto","#3366ff99"," "," ","1","+10","[1485.7999999523163]","1","0","1","","","","","","","",""
"pit-trial","26","400422","0.0-2.0-8.1-1.1","battery-v0.2","","""event"",""trial"",""time""
""focus"",""1"",""11535""
""fullscreenenter"",""1"",""11659""
","
","""event"",""trial"",""time""
""focus"",""1"",""11535""
","""event"",""trial"",""time""
""fullscreenenter"",""1"",""11659""
","
","","","1036.3999999761581","","","11","13392","5704","&#9776;","elianto","#3366ff99"," "," ","1","+10","[1887]","1","0","1","","","","","","","",""
"pit-trial","27","404836","0.0-2.0-8.1-2.1","battery-v0.2","","""event"",""trial"",""time""
""focus"",""1"",""11535""
""fullscreenenter"",""1"",""11659""
","
","""event"",""trial"",""time""
""focus"",""1"",""11535""
","""event"",""trial"",""time""
""fullscreenenter"",""1"",""11659""
","
","","","1549","","","11","13392","5704","&#9776;","elianto","#3366ff99"," "," ","1","+10","[2410.899999976158]","1","0","1","","","","","","","",""
"pit-trial","28","408304","0.0-2.0-8.1-3.1","battery-v0.2","","""event"",""trial"",""time""
""focus"",""1"",""11535""
""fullscreenenter"",""1"",""11659""
","
","""event"",""trial"",""time""
""focus"",""1"",""11535""
","""event"",""trial"",""time""
""fullscreenenter"",""1"",""11659""
","
","","","615.5","","","11","13392","5704","&#9776;","elianto","#3366ff99"," "," ","1","0","[1465.7000000476837]","1","0","1","","","","","","","",""
"pit-trial","29","411681","0.0-2.0-8.1-4.1","battery-v0.2","","""event"",""trial"",""time""
""focus"",""1"",""11535""
""fullscreenenter"",""1"",""11659""
","
","""event"",""trial"",""time""
""focus"",""1"",""11535""
","""event"",""trial"",""time""
""fullscreenenter"",""1"",""11659""
","
","","","524.1999999284744","","","11","13392","5704","&#9776;","elianto","#3366ff99"," "," ","1","+10","[1374.7999999523163,2319]","2","0","1","","","","","","","",""
"pit-trial","30","415155","0.0-2.0-8.2-0.2","battery-v0.2","","""event"",""trial"",""time""
""focus"",""1"",""11535""
""fullscreenenter"",""1"",""11659""
","
","""event"",""trial"",""time""
""focus"",""1"",""11535""
","""event"",""trial"",""time""
""fullscreenenter"",""1"",""11659""
","
","","","619.7000000476837","","","11","13392","5704","&#9776;","elianto","#3366ff99"," "," ","1","+10","[1470.2999999523163]","1","0","1","","","","","","","",""
"pit-trial","31","418602","0.0-2.0-8.2-1.2","battery-v0.2","","""event"",""trial"",""time""
""focus"",""1"",""11535""
""fullscreenenter"",""1"",""11659""
","
","""event"",""trial"",""time""
""focus"",""1"",""11535""
","""event"",""trial"",""time""
""fullscreenenter"",""1"",""11659""
","
","","","594.2000000476837","","","11","13392","5704","&#9776;","elianto","#3366ff99"," "," ","1","+10","[1445]","1","0","1","","","","","","","",""
"pit-trial","32","422429","0.0-2.0-8.2-2.2","battery-v0.2","","""event"",""trial"",""time""
""focus"",""1"",""11535""
""fullscreenenter"",""1"",""11659""
","
","""event"",""trial"",""time""
""focus"",""1"",""11535""
","""event"",""trial"",""time""
""fullscreenenter"",""1"",""11659""
","
","","","974.5","","","11","13392","5704","&#9776;","elianto","#3366ff99"," "," ","1","+10","[1824.7999999523163]","1","0","1","","","","","","","",""
"pit-trial","33","426384","0.0-2.0-8.2-3.2","battery-v0.2","","""event"",""trial"",""time""
""focus"",""1"",""11535""
""fullscreenenter"",""1"",""11659""
","
","""event"",""trial"",""time""
""focus"",""1"",""11535""
","""event"",""trial"",""time""
""fullscreenenter"",""1"",""11659""
","
","","","1101.3999999761581","","","11","13392","5704","&#9776;","elianto","#3366ff99"," "," ","1","0","[1952.5999999046326]","1","0","1","","","","","","","",""
"pit-trial","34","429333","0.0-2.0-8.2-4.2","battery-v0.2","","""event"",""trial"",""time""
""focus"",""1"",""11535""
""fullscreenenter"",""1"",""11659""
","
","""event"",""trial"",""time""
""focus"",""1"",""11535""
","""event"",""trial"",""time""
""fullscreenenter"",""1"",""11659""
","
","","","91.60000002384186","","","11","13392","5704","&#9776;","elianto","#3366ff99"," "," ","1","+10","[942.5]","1","0","1","","","","","","","",""
"call-function","35","429337","0.0-2.0-9.0","battery-v0.2","","""event"",""trial"",""time""
""focus"",""1"",""11535""
""fullscreenenter"",""1"",""11659""
","
","""event"",""trial"",""time""
""focus"",""1"",""11535""
","""event"",""trial"",""time""
""fullscreenenter"",""1"",""11659""
","
","","","","","","","","","","","","","","","","","","","","","","","","","","",""
"pit-instructions","36","479445","0.0-2.0-10.0","battery-v0.2","","""event"",""trial"",""time""
""focus"",""1"",""11535""
""fullscreenenter"",""1"",""11659""
","
","""event"",""trial"",""time""
""focus"",""1"",""11535""
","""event"",""trial"",""time""
""fullscreenenter"",""1"",""11659""
","
","","[{""page_index"":0,""viewing_time"":5617.800000071526},{""page_index"":1,""viewing_time"":6385},{""page_index"":2,""viewing_time"":14119.299999952316},{""page_index"":3,""viewing_time"":13078.600000023842},{""page_index"":4,""viewing_time"":10906.199999928474}]","50107.300000071526","","","","","","","","","","","","","","","","","","","","","","","",""
"pit-trial","37","483756","0.0-2.0-11.0-0.0","battery-v0.2","","""event"",""trial"",""time""
""focus"",""1"",""11535""
""fullscreenenter"",""1"",""11659""
","
","""event"",""trial"",""time""
""focus"",""1"",""11535""
","""event"",""trial"",""time""
""fullscreenenter"",""1"",""11659""
","
","","","1455.7999999523163","","","11","13392","5704","&#9761;","elianto","#3366ff99","-1"," ","0","0","[2308.1999999284744]","1","0","2","","","","","","","",""
"pit-trial","38","487844","0.0-2.0-11.0-1.0","battery-v0.2","","""event"",""trial"",""time""
""focus"",""1"",""11535""
""fullscreenenter"",""1"",""11659""
","
","""event"",""trial"",""time""
""focus"",""1"",""11535""
","""event"",""trial"",""time""
""fullscreenenter"",""1"",""11659""
","
","","","1217.1999999284744","","","11","13392","5704","&#9761;","elianto","#3366ff99","-1"," ","0","0","[2075.899999976158]","1","0","2","","","","","","","",""
"pit-trial","39","492715","0.0-2.0-11.0-2.0","battery-v0.2","","""event"",""trial"",""time""
""focus"",""1"",""11535""
""fullscreenenter"",""1"",""11659""
","
","""event"",""trial"",""time""
""focus"",""1"",""11535""
","""event"",""trial"",""time""
""fullscreenenter"",""1"",""11659""
","
","","","-1","","","11","13392","5704","&#9761;","elianto","#3366ff99","-1","-1","1","+10","[]","0","0","2","","","","","","","",""
"pit-trial","40","497598","0.0-2.0-11.0-3.0","battery-v0.2","","""event"",""trial"",""time""
""focus"",""1"",""11535""
""fullscreenenter"",""1"",""11659""
","
","""event"",""trial"",""time""
""focus"",""1"",""11535""
","""event"",""trial"",""time""
""fullscreenenter"",""1"",""11659""
","
","","","-1","","","11","13392","5704","&#9761;","elianto","#3366ff99","-1","-1","1","0","[]","0","0","2","","","","","","","",""
"pit-trial","41","501295","0.0-2.0-11.0-4.0","battery-v0.2","","""event"",""trial"",""time""
""focus"",""1"",""11535""
""fullscreenenter"",""1"",""11659""
","
","""event"",""trial"",""time""
""focus"",""1"",""11535""
","""event"",""trial"",""time""
""fullscreenenter"",""1"",""11659""
","
","","","837.5","","","11","13392","5704","&#9761;","elianto","#3366ff99","-1"," ","0","0","[1687.8999999761581]","1","0","2","","","","","","","",""
"pit-trial","42","506164","0.0-2.0-11.1-0.1","battery-v0.2","","""event"",""trial"",""time""
""focus"",""1"",""11535""
""fullscreenenter"",""1"",""11659""
","
","""event"",""trial"",""time""
""focus"",""1"",""11535""
","""event"",""trial"",""time""
""fullscreenenter"",""1"",""11659""
","
","","","-1","","","11","13392","5704","&#9761;","elianto","#3366ff99","-1","-1","1","+10","[]","0","0","2","","","","","","","",""
"pit-trial","43","511017","0.0-2.0-11.1-1.1","battery-v0.2","","""event"",""trial"",""time""
""focus"",""1"",""11535""
""fullscreenenter"",""1"",""11659""
","
","""event"",""trial"",""time""
""focus"",""1"",""11535""
","""event"",""trial"",""time""
""fullscreenenter"",""1"",""11659""
","
","","","-1","","","11","13392","5704","&#9761;","elianto","#3366ff99","-1","-1","1","+10","[]","0","0","2","","","","","","","",""
"pit-trial","44","515870","0.0-2.0-11.1-2.1","battery-v0.2","","""event"",""trial"",""time""
""focus"",""1"",""11535""
""fullscreenenter"",""1"",""11659""
","
","""event"",""trial"",""time""
""focus"",""1"",""11535""
","""event"",""trial"",""time""
""fullscreenenter"",""1"",""11659""
","
","","","-1","","","11","13392","5704","&#9761;","elianto","#3366ff99","-1","-1","1","+10","[]","0","0","2","","","","","","","",""
"pit-trial","45","520724","0.0-2.0-11.1-3.1","battery-v0.2","","""event"",""trial"",""time""
""focus"",""1"",""11535""
""fullscreenenter"",""1"",""11659""
","
","""event"",""trial"",""time""
""focus"",""1"",""11535""
","""event"",""trial"",""time""
""fullscreenenter"",""1"",""11659""
","
","","","-1","","","11","13392","5704","&#9761;","elianto","#3366ff99","-1","-1","1","0","[]","0","0","2","","","","","","","",""
"pit-trial","46","525576","0.0-2.0-11.1-4.1","battery-v0.2","","""event"",""trial"",""time""
""focus"",""1"",""11535""
""fullscreenenter"",""1"",""11659""
","
","""event"",""trial"",""time""
""focus"",""1"",""11535""
","""event"",""trial"",""time""
""fullscreenenter"",""1"",""11659""
","
","","","-1","","","11","13392","5704","&#9761;","elianto","#3366ff99","-1","-1","1","+10","[]","0","0","2","","","","","","","",""
"pit-trial","47","530429","0.0-2.0-11.2-0.2","battery-v0.2","","""event"",""trial"",""time""
""focus"",""1"",""11535""
""fullscreenenter"",""1"",""11659""
","
","""event"",""trial"",""time""
""focus"",""1"",""11535""
","""event"",""trial"",""time""
""fullscreenenter"",""1"",""11659""
","
","","","-1","","","11","13392","5704","&#9761;","elianto","#3366ff99","-1","-1","1","+10","[]","0","0","2","","","","","","","",""
"pit-trial","48","535284","0.0-2.0-11.2-1.2","battery-v0.2","","""event"",""trial"",""time""
""focus"",""1"",""11535""
""fullscreenenter"",""1"",""11659""
","
","""event"",""trial"",""time""
""focus"",""1"",""11535""
","""event"",""trial"",""time""
""fullscreenenter"",""1"",""11659""
","
","","","-1","","","11","13392","5704","&#9761;","elianto","#3366ff99","-1","-1","1","+10","[]","0","0","2","","","","","","","",""
"pit-trial","49","540138","0.0-2.0-11.2-2.2","battery-v0.2","","""event"",""trial"",""time""
""focus"",""1"",""11535""
""fullscreenenter"",""1"",""11659""
","
","""event"",""trial"",""time""
""focus"",""1"",""11535""
","""event"",""trial"",""time""
""fullscreenenter"",""1"",""11659""
","
","","","-1","","","11","13392","5704","&#9761;","elianto","#3366ff99","-1","-1","1","+10","[]","0","0","2","","","","","","","",""
"pit-trial","50","544991","0.0-2.0-11.2-3.2","battery-v0.2","","""event"",""trial"",""time""
""focus"",""1"",""11535""
""fullscreenenter"",""1"",""11659""
","
","""event"",""trial"",""time""
""focus"",""1"",""11535""
","""event"",""trial"",""time""
""fullscreenenter"",""1"",""11659""
","
","","","-1","","","11","13392","5704","&#9761;","elianto","#3366ff99","-1","-1","1","0","[]","0","0","2","","","","","","","",""
"pit-trial","51","549845","0.0-2.0-11.2-4.2","battery-v0.2","","""event"",""trial"",""time""
""focus"",""1"",""11535""
""fullscreenenter"",""1"",""11659""
","
","""event"",""trial"",""time""
""focus"",""1"",""11535""
","""event"",""trial"",""time""
""fullscreenenter"",""1"",""11659""
","
","","","-1","","","11","13392","5704","&#9761;","elianto","#3366ff99","-1","-1","1","+10","[]","0","0","2","","","","","","","",""
"pit-trial","52","554700","0.0-2.0-11.3-0.3","battery-v0.2","","""event"",""trial"",""time""
""focus"",""1"",""11535""
""fullscreenenter"",""1"",""11659""
","
","""event"",""trial"",""time""
""focus"",""1"",""11535""
","""event"",""trial"",""time""
""fullscreenenter"",""1"",""11659""
","
","","","-1","","","11","13392","5704","&#9761;","elianto","#3366ff99","-1","-1","1","+10","[]","0","0","2","","","","","","","",""
"pit-trial","53","559554","0.0-2.0-11.3-1.3","battery-v0.2","","""event"",""trial"",""time""
""focus"",""1"",""11535""
""fullscreenenter"",""1"",""11659""
","
","""event"",""trial"",""time""
""focus"",""1"",""11535""
","""event"",""trial"",""time""
""fullscreenenter"",""1"",""11659""
","
","","","-1","","","11","13392","5704","&#9761;","elianto","#3366ff99","-1","-1","1","+10","[]","0","0","2","","","","","","","",""
"pit-trial","54","564408","0.0-2.0-11.3-2.3","battery-v0.2","","""event"",""trial"",""time""
""focus"",""1"",""11535""
""fullscreenenter"",""1"",""11659""
","
","""event"",""trial"",""time""
""focus"",""1"",""11535""
","""event"",""trial"",""time""
""fullscreenenter"",""1"",""11659""
","
","","","-1","","","11","13392","5704","&#9761;","elianto","#3366ff99","-1","-1","1","+10","[]","0","0","2","","","","","","","",""
"pit-trial","55","569261","0.0-2.0-11.3-3.3","battery-v0.2","","""event"",""trial"",""time""
""focus"",""1"",""11535""
""fullscreenenter"",""1"",""11659""
","
","""event"",""trial"",""time""
""focus"",""1"",""11535""
","""event"",""trial"",""time""
""fullscreenenter"",""1"",""11659""
","
","","","-1","","","11","13392","5704","&#9761;","elianto","#3366ff99","-1","-1","1","0","[]","0","0","2","","","","","","","",""
"pit-trial","56","574116","0.0-2.0-11.3-4.3","battery-v0.2","","""event"",""trial"",""time""
""focus"",""1"",""11535""
""fullscreenenter"",""1"",""11659""
","
","""event"",""trial"",""time""
""focus"",""1"",""11535""
","""event"",""trial"",""time""
""fullscreenenter"",""1"",""11659""
","
","","","-1","","","11","13392","5704","&#9761;","elianto","#3366ff99","-1","-1","1","+10","[]","0","0","2","","","","","","","",""
"call-function","57","574118","0.0-2.0-12.0","battery-v0.2","","""event"",""trial"",""time""
""focus"",""1"",""11535""
""fullscreenenter"",""1"",""11659""
","
","""event"",""trial"",""time""
""focus"",""1"",""11535""
","""event"",""trial"",""time""
""fullscreenenter"",""1"",""11659""
","
","","","","","","","","","","","","","","","","","","","","","","","","","","",""
"pit-instructions","58","621788","0.0-2.0-13.0","battery-v0.2","","""event"",""trial"",""time""
""focus"",""1"",""11535""
""fullscreenenter"",""1"",""11659""
","
","""event"",""trial"",""time""
""focus"",""1"",""11535""
","""event"",""trial"",""time""
""fullscreenenter"",""1"",""11659""
","
","","[{""page_index"":0,""viewing_time"":6697.700000047684},{""page_index"":1,""viewing_time"":10943.899999976158},{""page_index"":2,""viewing_time"":3685},{""page_index"":3,""viewing_time"":17043},{""page_index"":4,""viewing_time"":9299}]","47668.800000071526","","","","","","","","","","","","","","","","","","","","","","","",""
"pit-trial","59","626663","0.0-2.0-14.0-0.0","battery-v0.2","","""event"",""trial"",""time""
""focus"",""1"",""11535""
""fullscreenenter"",""1"",""11659""
","
","""event"",""trial"",""time""
""focus"",""1"",""11535""
","""event"",""trial"",""time""
""fullscreenenter"",""1"",""11659""
","
","","","-1","","","11","13392","5704","&#9826;","elianto","#f73b6a7A","-1","-1","1","0","[]","0","0","3","","","","","","","",""
"pit-trial","60","631540","0.0-2.0-14.0-1.0","battery-v0.2","","""event"",""trial"",""time""
""focus"",""1"",""11535""
""fullscreenenter"",""1"",""11659""
","
","""event"",""trial"",""time""
""focus"",""1"",""11535""
","""event"",""trial"",""time""
""fullscreenenter"",""1"",""11659""
","
","","","-1","","","11","13392","5704","&#9826;","elianto","#f73b6a7A","-1","-1","1","0","[]","0","0","3","","","","","","","",""
"pit-trial","61","636402","0.0-2.0-14.0-2.0","battery-v0.2","","""event"",""trial"",""time""
""focus"",""1"",""11535""
""fullscreenenter"",""1"",""11659""
","
","""event"",""trial"",""time""
""focus"",""1"",""11535""
","""event"",""trial"",""time""
""fullscreenenter"",""1"",""11659""
","
","","","-1","","","11","13392","5704","&#9826;","elianto","#f73b6a7A","-1","-1","1","0","[]","0","0","3","","","","","","","",""
"pit-trial","62","641269","0.0-2.0-14.0-3.0","battery-v0.2","","""event"",""trial"",""time""
""focus"",""1"",""11535""
""fullscreenenter"",""1"",""11659""
","
","""event"",""trial"",""time""
""focus"",""1"",""11535""
","""event"",""trial"",""time""
""fullscreenenter"",""1"",""11659""
","
","","","-1","","","11","13392","5704","&#9826;","elianto","#f73b6a7A","-1","-1","1","-10","[]","0","0","3","","","","","","","",""
"pit-trial","63","646152","0.0-2.0-14.0-4.0","battery-v0.2","","""event"",""trial"",""time""
""focus"",""1"",""11535""
""fullscreenenter"",""1"",""11659""
","
","""event"",""trial"",""time""
""focus"",""1"",""11535""
","""event"",""trial"",""time""
""fullscreenenter"",""1"",""11659""
","
","","","-1","","","11","13392","5704","&#9826;","elianto","#f73b6a7A","-1","-1","1","0","[]","0","0","3","","","","","","","",""
"pit-trial","64","649291","0.0-2.0-14.1-0.1","battery-v0.2","","""event"",""trial"",""time""
""focus"",""1"",""11535""
""fullscreenenter"",""1"",""11659""
","
","""event"",""trial"",""time""
""focus"",""1"",""11535""
","""event"",""trial"",""time""
""fullscreenenter"",""1"",""11659""
","
","","","271.89999997615814","","","11","13392","5704","&#9826;","elianto","#f73b6a7A","-1"," ","0","-10","[1128.6000000238419,1186.8000000715256]","2","0","3","","","","","","","",""
"pit-trial","65","654146","0.0-2.0-14.1-1.1","battery-v0.2","","""event"",""trial"",""time""
""focus"",""1"",""11535""
""fullscreenenter"",""1"",""11659""
","
","""event"",""trial"",""time""
""focus"",""1"",""11535""
","""event"",""trial"",""time""
""fullscreenenter"",""1"",""11659""
","
","","","-1","","","11","13392","5704","&#9826;","elianto","#f73b6a7A","-1","-1","1","0","[]","0","0","3","","","","","","","",""
"pit-trial","66","658999","0.0-2.0-14.1-2.1","battery-v0.2","","""event"",""trial"",""time""
""focus"",""1"",""11535""
""fullscreenenter"",""1"",""11659""
","
","""event"",""trial"",""time""
""focus"",""1"",""11535""
","""event"",""trial"",""time""
""fullscreenenter"",""1"",""11659""
","
","","","-1","","","11","13392","5704","&#9826;","elianto","#f73b6a7A","-1","-1","1","0","[]","0","0","3","","","","","","","",""
"pit-trial","67","663852","0.0-2.0-14.1-3.1","battery-v0.2","","""event"",""trial"",""time""
""focus"",""1"",""11535""
""fullscreenenter"",""1"",""11659""
","
","""event"",""trial"",""time""
""focus"",""1"",""11535""
","""event"",""trial"",""time""
""fullscreenenter"",""1"",""11659""
","
","","","-1","","","11","13392","5704","&#9826;","elianto","#f73b6a7A","-1","-1","1","-10","[]","0","0","3","","","","","","","",""
"pit-trial","68","668706","0.0-2.0-14.1-4.1","battery-v0.2","","""event"",""trial"",""time""
""focus"",""1"",""11535""
""fullscreenenter"",""1"",""11659""
","
","""event"",""trial"",""time""
""focus"",""1"",""11535""
","""event"",""trial"",""time""
""fullscreenenter"",""1"",""11659""
","
","","","-1","","","11","13392","5704","&#9826;","elianto","#f73b6a7A","-1","-1","1","0","[]","0","0","3","","","","","","","",""
"pit-trial","69","673560","0.0-2.0-14.2-0.2","battery-v0.2","","""event"",""trial"",""time""
""focus"",""1"",""11535""
""fullscreenenter"",""1"",""11659""
","
","""event"",""trial"",""time""
""focus"",""1"",""11535""
","""event"",""trial"",""time""
""fullscreenenter"",""1"",""11659""
","
","","","-1","","","11","13392","5704","&#9826;","elianto","#f73b6a7A","-1","-1","1","0","[]","0","0","3","","","","","","","",""
"pit-trial","70","678413","0.0-2.0-14.2-1.2","battery-v0.2","","""event"",""trial"",""time""
""focus"",""1"",""11535""
""fullscreenenter"",""1"",""11659""
","
","""event"",""trial"",""time""
""focus"",""1"",""11535""
","""event"",""trial"",""time""
""fullscreenenter"",""1"",""11659""
","
","","","-1","","","11","13392","5704","&#9826;","elianto","#f73b6a7A","-1","-1","1","0","[]","0","0","3","","","","","","","",""
"pit-trial","71","683266","0.0-2.0-14.2-2.2","battery-v0.2","","""event"",""trial"",""time""
""focus"",""1"",""11535""
""fullscreenenter"",""1"",""11659""
","
","""event"",""trial"",""time""
""focus"",""1"",""11535""
","""event"",""trial"",""time""
""fullscreenenter"",""1"",""11659""
","
","","","-1","","","11","13392","5704","&#9826;","elianto","#f73b6a7A","-1","-1","1","0","[]","0","0","3","","","","","","","",""
"pit-trial","72","688120","0.0-2.0-14.2-3.2","battery-v0.2","","""event"",""trial"",""time""
""focus"",""1"",""11535""
""fullscreenenter"",""1"",""11659""
","
","""event"",""trial"",""time""
""focus"",""1"",""11535""
","""event"",""trial"",""time""
""fullscreenenter"",""1"",""11659""
","
","","","-1","","","11","13392","5704","&#9826;","elianto","#f73b6a7A","-1","-1","1","-10","[]","0","0","3","","","","","","","",""
"pit-trial","73","692974","0.0-2.0-14.2-4.2","battery-v0.2","","""event"",""trial"",""time""
""focus"",""1"",""11535""
""fullscreenenter"",""1"",""11659""
","
","""event"",""trial"",""time""
""focus"",""1"",""11535""
","""event"",""trial"",""time""
""fullscreenenter"",""1"",""11659""
","
","","","-1","","","11","13392","5704","&#9826;","elianto","#f73b6a7A","-1","-1","1","0","[]","0","0","3","","","","","","","",""
"pit-trial","74","697828","0.0-2.0-14.3-0.3","battery-v0.2","","""event"",""trial"",""time""
""focus"",""1"",""11535""
""fullscreenenter"",""1"",""11659""
","
","""event"",""trial"",""time""
""focus"",""1"",""11535""
","""event"",""trial"",""time""
""fullscreenenter"",""1"",""11659""
","
","","","-1","","","11","13392","5704","&#9826;","elianto","#f73b6a7A","-1","-1","1","0","[]","0","0","3","","","","","","","",""
"pit-trial","75","702681","0.0-2.0-14.3-1.3","battery-v0.2","","""event"",""trial"",""time""
""focus"",""1"",""11535""
""fullscreenenter"",""1"",""11659""
","
","""event"",""trial"",""time""
""focus"",""1"",""11535""
","""event"",""trial"",""time""
""fullscreenenter"",""1"",""11659""
","
","","","-1","","","11","13392","5704","&#9826;","elianto","#f73b6a7A","-1","-1","1","0","[]","0","0","3","","","","","","","",""
"pit-trial","76","707536","0.0-2.0-14.3-2.3","battery-v0.2","","""event"",""trial"",""time""
""focus"",""1"",""11535""
""fullscreenenter"",""1"",""11659""
","
","""event"",""trial"",""time""
""focus"",""1"",""11535""
","""event"",""trial"",""time""
""fullscreenenter"",""1"",""11659""
","
","","","-1","","","11","13392","5704","&#9826;","elianto","#f73b6a7A","-1","-1","1","0","[]","0","0","3","","","","","","","",""
"pit-trial","77","712389","0.0-2.0-14.3-3.3","battery-v0.2","","""event"",""trial"",""time""
""focus"",""1"",""11535""
""fullscreenenter"",""1"",""11659""
","
","""event"",""trial"",""time""
""focus"",""1"",""11535""
","""event"",""trial"",""time""
""fullscreenenter"",""1"",""11659""
","
","","","-1","","","11","13392","5704","&#9826;","elianto","#f73b6a7A","-1","-1","1","-10","[]","0","0","3","","","","","","","",""
"pit-trial","78","717242","0.0-2.0-14.3-4.3","battery-v0.2","","""event"",""trial"",""time""
""focus"",""1"",""11535""
""fullscreenenter"",""1"",""11659""
","
","""event"",""trial"",""time""
""focus"",""1"",""11535""
","""event"",""trial"",""time""
""fullscreenenter"",""1"",""11659""
","
","","","-1","","","11","13392","5704","&#9826;","elianto","#f73b6a7A","-1","-1","1","0","[]","0","0","3","","","","","","","",""
"call-function","79","717245","0.0-2.0-15.0","battery-v0.2","","""event"",""trial"",""time""
""focus"",""1"",""11535""
""fullscreenenter"",""1"",""11659""
","
","""event"",""trial"",""time""
""focus"",""1"",""11535""
","""event"",""trial"",""time""
""fullscreenenter"",""1"",""11659""
","
","","","","","","","","","","","","","","","","","","","","","","","","","","",""
"pit-instructions","80","748717","0.0-2.0-16.0","battery-v0.2","","""event"",""trial"",""time""
""focus"",""1"",""11535""
""fullscreenenter"",""1"",""11659""
","
","""event"",""trial"",""time""
""focus"",""1"",""11535""
","""event"",""trial"",""time""
""fullscreenenter"",""1"",""11659""
","
","","[{""page_index"":0,""viewing_time"":7745},{""page_index"":1,""viewing_time"":10206.699999928474},{""page_index"":2,""viewing_time"":5843},{""page_index"":3,""viewing_time"":7676.200000047684}]","31471.199999928474","","","","","","","","","","","","","","","","","","","","","","","",""
"pit-trial","81","753594","0.0-2.0-17.0-0.0","battery-v0.2","","""event"",""trial"",""time""
""focus"",""1"",""11535""
""fullscreenenter"",""1"",""11659""
","
","""event"",""trial"",""time""
""focus"",""1"",""11535""
","""event"",""trial"",""time""
""fullscreenenter"",""1"",""11659""
","
","","","-1","","","11","13392","5704","&#9789;","elianto","#f73b6a7A"," ","-1","0","-10","[]","0","0","4","","","","","","","",""
"pit-trial","82","758450","0.0-2.0-17.0-1.0","battery-v0.2","","""event"",""trial"",""time""
""focus"",""1"",""11535""
""fullscreenenter"",""1"",""11659""
","
","""event"",""trial"",""time""
""focus"",""1"",""11535""
","""event"",""trial"",""time""
""fullscreenenter"",""1"",""11659""
","
","","","-1","","","11","13392","5704","&#9789;","elianto","#f73b6a7A"," ","-1","0","-10","[]","0","0","4","","","","","","","",""
"pit-trial","83","763323","0.0-2.0-17.0-2.0","battery-v0.2","","""event"",""trial"",""time""
""focus"",""1"",""11535""
""fullscreenenter"",""1"",""11659""
","
","""event"",""trial"",""time""
""focus"",""1"",""11535""
","""event"",""trial"",""time""
""fullscreenenter"",""1"",""11659""
","
","","","-1","","","11","13392","5704","&#9789;","elianto","#f73b6a7A"," ","-1","0","-10","[]","0","0","4","","","","","","","",""
"pit-trial","84","766722","0.0-2.0-17.0-3.0","battery-v0.2","","""event"",""trial"",""time""
""focus"",""1"",""11535""
""fullscreenenter"",""1"",""11659""
","
","""event"",""trial"",""time""
""focus"",""1"",""11535""
","""event"",""trial"",""time""
""fullscreenenter"",""1"",""11659""
","
","","","538.9000000953674","","","11","13392","5704","&#9789;","elianto","#f73b6a7A"," "," ","1","-10","[1389.6000000238419]","1","0","4","","","","","","","",""
"pit-trial","85","771592","0.0-2.0-17.0-4.0","battery-v0.2","","""event"",""trial"",""time""
""focus"",""1"",""11535""
""fullscreenenter"",""1"",""11659""
","
","""event"",""trial"",""time""
""focus"",""1"",""11535""
","""event"",""trial"",""time""
""fullscreenenter"",""1"",""11659""
","
","","","-1","","","11","13392","5704","&#9789;","elianto","#f73b6a7A"," ","-1","0","-10","[]","0","0","4","","","","","","","",""
"pit-trial","86","776461","0.0-2.0-17.1-0.1","battery-v0.2","","""event"",""trial"",""time""
""focus"",""1"",""11535""
""fullscreenenter"",""1"",""11659""
","
","""event"",""trial"",""time""
""focus"",""1"",""11535""
","""event"",""trial"",""time""
""fullscreenenter"",""1"",""11659""
","
","","","-1","","","11","13392","5704","&#9789;","elianto","#f73b6a7A"," ","-1","0","-10","[]","0","0","4","","","","","","","",""
"pit-trial","87","781315","0.0-2.0-17.1-1.1","battery-v0.2","","""event"",""trial"",""time""
""focus"",""1"",""11535""
""fullscreenenter"",""1"",""11659""
","
","""event"",""trial"",""time""
""focus"",""1"",""11535""
","""event"",""trial"",""time""
""fullscreenenter"",""1"",""11659""
","
","","","-1","","","11","13392","5704","&#9789;","elianto","#f73b6a7A"," ","-1","0","-10","[]","0","0","4","","","","","","","",""
"pit-trial","88","786169","0.0-2.0-17.1-2.1","battery-v0.2","","""event"",""trial"",""time""
""focus"",""1"",""11535""
""fullscreenenter"",""1"",""11659""
","
","""event"",""trial"",""time""
""focus"",""1"",""11535""
","""event"",""trial"",""time""
""fullscreenenter"",""1"",""11659""
","
","","","-1","","","11","13392","5704","&#9789;","elianto","#f73b6a7A"," ","-1","0","-10","[]","0","0","4","","","","","","","",""
"pit-trial","89","791023","0.0-2.0-17.1-3.1","battery-v0.2","","""event"",""trial"",""time""
""focus"",""1"",""11535""
""fullscreenenter"",""1"",""11659""
","
","""event"",""trial"",""time""
""focus"",""1"",""11535""
","""event"",""trial"",""time""
""fullscreenenter"",""1"",""11659""
","
","","","-1","","","11","13392","5704","&#9789;","elianto","#f73b6a7A"," ","-1","0","0","[]","0","0","4","","","","","","","",""
"pit-trial","90","795877","0.0-2.0-17.1-4.1","battery-v0.2","","""event"",""trial"",""time""
""focus"",""1"",""11535""
""fullscreenenter"",""1"",""11659""
","
","""event"",""trial"",""time""
""focus"",""1"",""11535""
","""event"",""trial"",""time""
""fullscreenenter"",""1"",""11659""
","
","","","-1","","","11","13392","5704","&#9789;","elianto","#f73b6a7A"," ","-1","0","-10","[]","0","0","4","","","","","","","",""
"pit-trial","91","800733","0.0-2.0-17.2-0.2","battery-v0.2","","""event"",""trial"",""time""
""focus"",""1"",""11535""
""fullscreenenter"",""1"",""11659""
","
","""event"",""trial"",""time""
""focus"",""1"",""11535""
","""event"",""trial"",""time""
""fullscreenenter"",""1"",""11659""
","
","","","-1","","","11","13392","5704","&#9789;","elianto","#f73b6a7A"," ","-1","0","-10","[]","0","0","4","","","","","","","",""
"pit-trial","92","805587","0.0-2.0-17.2-1.2","battery-v0.2","","""event"",""trial"",""time""
""focus"",""1"",""11535""
""fullscreenenter"",""1"",""11659""
","
","""event"",""trial"",""time""
""focus"",""1"",""11535""
","""event"",""trial"",""time""
""fullscreenenter"",""1"",""11659""
","
","","","-1","","","11","13392","5704","&#9789;","elianto","#f73b6a7A"," ","-1","0","-10","[]","0","0","4","","","","","","","",""
"pit-trial","93","810441","0.0-2.0-17.2-2.2","battery-v0.2","","""event"",""trial"",""time""
""focus"",""1"",""11535""
""fullscreenenter"",""1"",""11659""
","
","""event"",""trial"",""time""
""focus"",""1"",""11535""
","""event"",""trial"",""time""
""fullscreenenter"",""1"",""11659""
","
","","","-1","","","11","13392","5704","&#9789;","elianto","#f73b6a7A"," ","-1","0","-10","[]","0","0","4","","","","","","","",""
"pit-trial","94","815294","0.0-2.0-17.2-3.2","battery-v0.2","","""event"",""trial"",""time""
""focus"",""1"",""11535""
""fullscreenenter"",""1"",""11659""
","
","""event"",""trial"",""time""
""focus"",""1"",""11535""
","""event"",""trial"",""time""
""fullscreenenter"",""1"",""11659""
","
","","","-1","","","11","13392","5704","&#9789;","elianto","#f73b6a7A"," ","-1","0","0","[]","0","0","4","","","","","","","",""
"pit-trial","95","820148","0.0-2.0-17.2-4.2","battery-v0.2","","""event"",""trial"",""time""
""focus"",""1"",""11535""
""fullscreenenter"",""1"",""11659""
","
","""event"",""trial"",""time""
""focus"",""1"",""11535""
","""event"",""trial"",""time""
""fullscreenenter"",""1"",""11659""
","
","","","-1","","","11","13392","5704","&#9789;","elianto","#f73b6a7A"," ","-1","0","-10","[]","0","0","4","","","","","","","",""
"pit-trial","96","825002","0.0-2.0-17.3-0.3","battery-v0.2","","""event"",""trial"",""time""
""focus"",""1"",""11535""
""fullscreenenter"",""1"",""11659""
","
","""event"",""trial"",""time""
""focus"",""1"",""11535""
","""event"",""trial"",""time""
""fullscreenenter"",""1"",""11659""
","
","","","-1","","","11","13392","5704","&#9789;","elianto","#f73b6a7A"," ","-1","0","-10","[]","0","0","4","","","","","","","",""
"pit-trial","97","829854","0.0-2.0-17.3-1.3","battery-v0.2","","""event"",""trial"",""time""
""focus"",""1"",""11535""
""fullscreenenter"",""1"",""11659""
","
","""event"",""trial"",""time""
""focus"",""1"",""11535""
","""event"",""trial"",""time""
""fullscreenenter"",""1"",""11659""
","
","","","-1","","","11","13392","5704","&#9789;","elianto","#f73b6a7A"," ","-1","0","-10","[]","0","0","4","","","","","","","",""
"pit-trial","98","834707","0.0-2.0-17.3-2.3","battery-v0.2","","""event"",""trial"",""time""
""focus"",""1"",""11535""
""fullscreenenter"",""1"",""11659""
","
","""event"",""trial"",""time""
""focus"",""1"",""11535""
","""event"",""trial"",""time""
""fullscreenenter"",""1"",""11659""
","
","","","-1","","","11","13392","5704","&#9789;","elianto","#f73b6a7A"," ","-1","0","-10","[]","0","0","4","","","","","","","",""
"pit-trial","99","839560","0.0-2.0-17.3-3.3","battery-v0.2","","""event"",""trial"",""time""
""focus"",""1"",""11535""
""fullscreenenter"",""1"",""11659""
","
","""event"",""trial"",""time""
""focus"",""1"",""11535""
","""event"",""trial"",""time""
""fullscreenenter"",""1"",""11659""
","
","","","-1","","","11","13392","5704","&#9789;","elianto","#f73b6a7A"," ","-1","0","0","[]","0","0","4","","","","","","","",""
"pit-trial","100","844414","0.0-2.0-17.3-4.3","battery-v0.2","","""event"",""trial"",""time""
""focus"",""1"",""11535""
""fullscreenenter"",""1"",""11659""
","
","""event"",""trial"",""time""
""focus"",""1"",""11535""
","""event"",""trial"",""time""
""fullscreenenter"",""1"",""11659""
","
","","","-1","","","11","13392","5704","&#9789;","elianto","#f73b6a7A"," ","-1","0","-10","[]","0","0","4","","","","","","","",""
"call-function","101","844416","0.0-2.0-18.0","battery-v0.2","","""event"",""trial"",""time""
""focus"",""1"",""11535""
""fullscreenenter"",""1"",""11659""
","
","""event"",""trial"",""time""
""focus"",""1"",""11535""
","""event"",""trial"",""time""
""fullscreenenter"",""1"",""11659""
","
","","","","","","","","","","","","","","","","","","","","","","","","","","",""
"pit-instructions","102","965917","0.0-2.0-19.0","battery-v0.2","","""event"",""trial"",""time""
""focus"",""1"",""11535""
""fullscreenenter"",""1"",""11659""
","
","""event"",""trial"",""time""
""focus"",""1"",""11535""
","""event"",""trial"",""time""
""fullscreenenter"",""1"",""11659""
","
","","[{""page_index"":0,""viewing_time"":17788.199999928474},{""page_index"":1,""viewing_time"":9390.100000023842},{""page_index"":2,""viewing_time"":33154.799999952316},{""page_index"":3,""viewing_time"":14687},{""page_index"":4,""viewing_time"":12683.800000071526},{""page_index"":5,""viewing_time"":8759.899999976158},{""page_index"":6,""viewing_time"":16465.200000047684},{""page_index"":7,""viewing_time"":5522.099999904633},{""page_index"":8,""viewing_time"":3049}]","121500.39999997616","","","","","","","","","","","","","","","","","","","","","","","",""
"pit-comprehension","103","970387","0.0-2.0-20.0-0.0","battery-v0.2","","""event"",""trial"",""time""
""focus"",""1"",""11535""
""fullscreenenter"",""1"",""11659""
","
","""event"",""trial"",""time""
""focus"",""1"",""11535""
","""event"",""trial"",""time""
""fullscreenenter"",""1"",""11659""
","
","","","4466.800000071526","[""SPACE""]","0","11","13392","5704","","","","","","","","","","","","","","","","","","",""
"pit-instructions","104","973565","0.0-2.0-20.0-1.0","battery-v0.2","","""event"",""trial"",""time""
""focus"",""1"",""11535""
""fullscreenenter"",""1"",""11659""
","
","""event"",""trial"",""time""
""focus"",""1"",""11535""
","""event"",""trial"",""time""
""fullscreenenter"",""1"",""11659""
","
","","[{""page_index"":0,""viewing_time"":3146.399999976158}]","3146.5","","","","","","","","","","","","","","","","","","","","","","","",""
"pit-comprehension","105","980566","0.0-2.0-21.0-0.0","battery-v0.2","","""event"",""trial"",""time""
""focus"",""1"",""11535""
""fullscreenenter"",""1"",""11659""
","
","""event"",""trial"",""time""
""focus"",""1"",""11535""
","""event"",""trial"",""time""
""fullscreenenter"",""1"",""11659""
","
","","","6998.200000047684","[""10""]","0","11","13392","5704","","","","","","","","","","","","","","","","","","",""
"pit-instructions","106","982941","0.0-2.0-21.0-1.0","battery-v0.2","","""event"",""trial"",""time""
""focus"",""1"",""11535""
""fullscreenenter"",""1"",""11659""
","
","""event"",""trial"",""time""
""focus"",""1"",""11535""
","""event"",""trial"",""time""
""fullscreenenter"",""1"",""11659""
","
","","[{""page_index"":0,""viewing_time"":2349.399999976158}]","2349.5","","","","","","","","","","","","","","","","","","","","","","","",""
"pit-comprehension","107","1003939","0.0-2.0-22.0-0.0","battery-v0.2","","""event"",""trial"",""time""
""focus"",""1"",""11535""
""fullscreenenter"",""1"",""11659""
","
","""event"",""trial"",""time""
""focus"",""1"",""11535""
","""event"",""trial"",""time""
""fullscreenenter"",""1"",""11659""
","
","","","20995.800000071526","[""0""]","0","11","13392","5704","","","","","","","","","","","","","","","","","","",""
"pit-instructions","108","1013850","0.0-2.0-22.0-1.0","battery-v0.2","","""event"",""trial"",""time""
""focus"",""1"",""11535""
""fullscreenenter"",""1"",""11659""
","
","""event"",""trial"",""time""
""focus"",""1"",""11535""
","""event"",""trial"",""time""
""fullscreenenter"",""1"",""11659""
","
","","[{""page_index"":0,""viewing_time"":9884.600000023842}]","9884.899999976158","","","","","","","","","","","","","","","","","","","","","","","",""
"pit-comprehension","109","1025033","0.0-2.0-23.0-0.0","battery-v0.2","","""event"",""trial"",""time""
""focus"",""1"",""11535""
""fullscreenenter"",""1"",""11659""
","
","""event"",""trial"",""time""
""focus"",""1"",""11535""
","""event"",""trial"",""time""
""fullscreenenter"",""1"",""11659""
","
","","","11180.600000023842","[""True""]","0","11","13392","5704","","","","","","","","","","","","","","","","","","",""
"pit-instructions","110","1032283","0.0-2.0-23.0-1.0","battery-v0.2","","""event"",""trial"",""time""
""focus"",""1"",""11535""
""fullscreenenter"",""1"",""11659""
","
","""event"",""trial"",""time""
""focus"",""1"",""11535""
","""event"",""trial"",""time""
""fullscreenenter"",""1"",""11659""
","
","","[{""page_index"":0,""viewing_time"":7224.100000023842}]","7224.299999952316","","","","","","","","","","","","","","","","","","","","","","","",""
"pit-comprehension","111","1043964","0.0-2.0-24.0-0.0","battery-v0.2","","""event"",""trial"",""time""
""focus"",""1"",""11535""
""fullscreenenter"",""1"",""11659""
","
","""event"",""trial"",""time""
""focus"",""1"",""11535""
","""event"",""trial"",""time""
""fullscreenenter"",""1"",""11659""
","
","","","11679.700000047684","[""True""]","0","11","13392","5704","","","","","","","","","","","","","","","","","","",""
"pit-instructions","112","1045760","0.0-2.0-24.0-1.0","battery-v0.2","","""event"",""trial"",""time""
""focus"",""1"",""11535""
""fullscreenenter"",""1"",""11659""
","
","""event"",""trial"",""time""
""focus"",""1"",""11535""
","""event"",""trial"",""time""
""fullscreenenter"",""1"",""11659""
","
","","[{""page_index"":0,""viewing_time"":1770.8000000715256}]","1771.1000000238419","","","","","","","","","","","","","","","","","","","","","","","",""
"pit-comprehension","113","1055816","0.0-2.0-25.0-0.0","battery-v0.2","","""event"",""trial"",""time""
""focus"",""1"",""11535""
""fullscreenenter"",""1"",""11659""
","
","""event"",""trial"",""time""
""focus"",""1"",""11535""
","""event"",""trial"",""time""
""fullscreenenter"",""1"",""11659""
","
","","","10054.299999952316","[""True""]","0","11","13392","5704","","","","","","","","","","","","","","","","","","",""
"pit-instructions","114","1064475","0.0-2.0-25.0-1.0","battery-v0.2","","""event"",""trial"",""time""
""focus"",""1"",""11535""
""fullscreenenter"",""1"",""11659""
","
","""event"",""trial"",""time""
""focus"",""1"",""11535""
","""event"",""trial"",""time""
""fullscreenenter"",""1"",""11659""
","
","","[{""page_index"":0,""viewing_time"":8630.600000023842}]","8630.799999952316","","","","","","","","","","","","","","","","","","","","","","","",""
"pit-comprehension","115","1072781","0.0-2.0-26.0-0.0","battery-v0.2","","""event"",""trial"",""time""
""focus"",""1"",""11535""
""fullscreenenter"",""1"",""11659""
","
","""event"",""trial"",""time""
""focus"",""1"",""11535""
","""event"",""trial"",""time""
""fullscreenenter"",""1"",""11659""
","
","","","8303.5","[""True""]","1","11","13392","5704","","","","","","","","","","","","","","","","","","",""
"pit-instructions","116","1088631","0.0-2.0-26.0-1.0","battery-v0.2","","""event"",""trial"",""time""
""focus"",""1"",""11535""
""fullscreenenter"",""1"",""11659""
","
","""event"",""trial"",""time""
""focus"",""1"",""11535""
","""event"",""trial"",""time""
""fullscreenenter"",""1"",""11659""
","
","","[{""page_index"":0,""viewing_time"":15821.100000023842}]","15821.399999976158","","","","","","","","","","","","","","","","","","","","","","","",""
"pit-instructions","117","1089578","0.0-2.0-26.0-2.0-0.0","battery-v0.2","","""event"",""trial"",""time""
""focus"",""1"",""11535""
""fullscreenenter"",""1"",""11659""
","
","""event"",""trial"",""time""
""focus"",""1"",""11535""
","""event"",""trial"",""time""
""fullscreenenter"",""1"",""11659""
","
","","[{""page_index"":0,""viewing_time"":945.5}]","945.7999999523163","","","","","","","","","","","","","","","","","","","","","","","",""
"pit-comprehension","118","1094270","0.0-2.0-26.1-0.1","battery-v0.2","","""event"",""trial"",""time""
""focus"",""1"",""11535""
""fullscreenenter"",""1"",""11659""
","
","""event"",""trial"",""time""
""focus"",""1"",""11535""
","""event"",""trial"",""time""
""fullscreenenter"",""1"",""11659""
","
","","","4690.5","[""False""]","0","11","13392","5704","","","","","","","","","","","","","","","","","","",""
"pit-instructions","119","1095861","0.0-2.0-26.1-1.1","battery-v0.2","","""event"",""trial"",""time""
""focus"",""1"",""11535""
""fullscreenenter"",""1"",""11659""
","
","""event"",""trial"",""time""
""focus"",""1"",""11535""
","""event"",""trial"",""time""
""fullscreenenter"",""1"",""11659""
","
","","[{""page_index"":0,""viewing_time"":1564.5}]","1564.7000000476837","","","","","","","","","","","","","","","","","","","","","","","",""
"pit-instructions","120","1114888","0.0-3.0","battery-v0.2","","""event"",""trial"",""time""
""focus"",""1"",""11535""
""fullscreenenter"",""1"",""11659""
","
","""event"",""trial"",""time""
""focus"",""1"",""11535""
","""event"",""trial"",""time""
""fullscreenenter"",""1"",""11659""
","
","","[{""page_index"":0,""viewing_time"":6047.900000095367},{""page_index"":1,""viewing_time"":6127.299999952316},{""page_index"":2,""viewing_time"":6850.399999976158}]","19025.900000095367","","","","","","","","","","","","","","","","","","","","","","","",""
"pit-trial","121","1119393","0.0-4.0","battery-v0.2","","""event"",""trial"",""time""
""focus"",""1"",""11535""
""fullscreenenter"",""1"",""11659""
","
","""event"",""trial"",""time""
""focus"",""1"",""11535""
","""event"",""trial"",""time""
""fullscreenenter"",""1"",""11659""
","
","","","1643.3999999761581","","","11","13392","5704","&#9752;","elianto","#f73b6a7A"," "," ","1","0","[2495.100000023842]","1","1","","","13392","1","3","3","lose","go","0"
"pit-trial","122","1123190","0.0-5.0","battery-v0.2","","""event"",""trial"",""time""
""focus"",""1"",""11535""
""fullscreenenter"",""1"",""11659""
","
","""event"",""trial"",""time""
""focus"",""1"",""11535""
","""event"",""trial"",""time""
""fullscreenenter"",""1"",""11659""
","
","","","939.5999999046326","","","11","13392","5704","&#9733;","elianto","#3366ff99","-1"," ","0","0","[1789.8999999761581]","1","1","","","13392","2","2","2","win","no-go","0"
"pit-trial","123","1126750","0.0-6.0","battery-v0.2","","""event"",""trial"",""time""
""focus"",""1"",""11535""
""fullscreenenter"",""1"",""11659""
","
","""event"",""trial"",""time""
""focus"",""1"",""11535""
","""event"",""trial"",""time""
""fullscreenenter"",""1"",""11659""
","
","","","691.7000000476837","","","11","13392","5704","&#9730;","elianto","#3366ff99"," "," ","1","+10","[1552.5]","1","1","","","13392","3","1","1","win","go","0"
"pit-trial","124","1130926","0.0-7.0","battery-v0.2","","""event"",""trial"",""time""
""focus"",""1"",""11535""
""fullscreenenter"",""1"",""11659""
","
","""event"",""trial"",""time""
""focus"",""1"",""11535""
","""event"",""trial"",""time""
""fullscreenenter"",""1"",""11659""
","
","","","1308.6999999284744","","","11","13392","5704","&#9728;","elianto","#f73b6a7A","-1"," ","0","-10","[2161]","1","1","","","13392","4","0","4","lose","no-go","0"
"pit-trial","125","1135790","0.0-8.0","battery-v0.2","","""event"",""trial"",""time""
""focus"",""1"",""11535""
""fullscreenenter"",""1"",""11659""
","
","""event"",""trial"",""time""
""focus"",""1"",""11535""
","""event"",""trial"",""time""
""fullscreenenter"",""1"",""11659""
","
","","","-1","","","11","13392","5704","&#9752;","elianto","#f73b6a7A"," ","-1","0","-10","[]","0","1","","","13392","5","3","3","lose","go","0"
"pit-trial","126","1140668","0.0-9.0","battery-v0.2","","""event"",""trial"",""time""
""focus"",""1"",""11535""
""fullscreenenter"",""1"",""11659""
","
","""event"",""trial"",""time""
""focus"",""1"",""11535""
","""event"",""trial"",""time""
""fullscreenenter"",""1"",""11659""
","
","","","-1","","","11","13392","5704","&#9728;","elianto","#f73b6a7A","-1","-1","1","-10","[]","0","1","","","13392","6","0","4","lose","no-go","1"
"pit-trial","127","1144261","0.0-10.0","battery-v0.2","","""event"",""trial"",""time""
""focus"",""1"",""11535""
""fullscreenenter"",""1"",""11659""
","
","""event"",""trial"",""time""
""focus"",""1"",""11535""
","""event"",""trial"",""time""
""fullscreenenter"",""1"",""11659""
","
","","","719","","","11","13392","5704","&#9730;","elianto","#3366ff99"," "," ","1","+10","[1578.3999999761581]","1","1","","","13392","7","1","1","win","go","0"
"pit-trial","128","1148057","0.0-11.0","battery-v0.2","","""event"",""trial"",""time""
""focus"",""1"",""11535""
""fullscreenenter"",""1"",""11659""
","
","""event"",""trial"",""time""
""focus"",""1"",""11535""
","""event"",""trial"",""time""
""fullscreenenter"",""1"",""11659""
","
","","","943.7000000476837","","","11","13392","5704","&#9733;","elianto","#3366ff99","-1"," ","0","0","[1793.8000000715256]","1","1","","","13392","8","2","2","win","no-go","0"
"pit-trial","129","1152510","0.0-12.0","battery-v0.2","","""event"",""trial"",""time""
""focus"",""1"",""11535""
""fullscreenenter"",""1"",""11659""
","
","""event"",""trial"",""time""
""focus"",""1"",""11535""
","""event"",""trial"",""time""
""fullscreenenter"",""1"",""11659""
","
","","","1599.6999999284744","","","11","13392","5704","&#9733;","elianto","#3366ff99","-1"," ","0","+10","[2450.5]","1","1","","","13392","9","2","2","win","no-go","1"
"pit-trial","130","1156312","0.0-13.0","battery-v0.2","","""event"",""trial"",""time""
""focus"",""1"",""11535""
""fullscreenenter"",""1"",""11659""
","
","""event"",""trial"",""time""
""focus"",""1"",""11535""
","""event"",""trial"",""time""
""fullscreenenter"",""1"",""11659""
","
","","","947.2999999523163","","","11","13392","5704","&#9730;","elianto","#3366ff99"," "," ","1","+10","[1798.6999999284744]","1","1","","","13392","10","1","1","win","go","0"
"pit-trial","131","1161164","0.0-14.0","battery-v0.2","","""event"",""trial"",""time""
""focus"",""1"",""11535""
""fullscreenenter"",""1"",""11659""
","
","""event"",""trial"",""time""
""focus"",""1"",""11535""
","""event"",""trial"",""time""
""fullscreenenter"",""1"",""11659""
","
","","","-1","","","11","13392","5704","&#9752;","elianto","#f73b6a7A"," ","-1","0","-10","[]","0","1","","","13392","11","3","3","lose","go","0"
"pit-trial","132","1166019","0.0-15.0","battery-v0.2","","""event"",""trial"",""time""
""focus"",""1"",""11535""
""fullscreenenter"",""1"",""11659""
","
","""event"",""trial"",""time""
""focus"",""1"",""11535""
","""event"",""trial"",""time""
""fullscreenenter"",""1"",""11659""
","
","","","-1","","","11","13392","5704","&#9728;","elianto","#f73b6a7A","-1","-1","1","0","[]","0","1","","","13392","12","0","4","lose","no-go","0"
"pit-trial","133","1169735","0.0-16.0","battery-v0.2","","""event"",""trial"",""time""
""focus"",""1"",""11535""
""fullscreenenter"",""1"",""11659""
","
","""event"",""trial"",""time""
""focus"",""1"",""11535""
","""event"",""trial"",""time""
""fullscreenenter"",""1"",""11659""
","
","","","862.1999999284744","","","11","13392","5704","&#9733;","elianto","#3366ff99","-1"," ","0","0","[1712.8999999761581]","1","1","","","13392","13","2","2","win","no-go","0"
"pit-trial","134","1173463","0.0-17.0","battery-v0.2","","""event"",""trial"",""time""
""focus"",""1"",""11535""
""fullscreenenter"",""1"",""11659""
","
","""event"",""trial"",""time""
""focus"",""1"",""11535""
","""event"",""trial"",""time""
""fullscreenenter"",""1"",""11659""
","
","","","873.8000000715256","","","11","13392","5704","&#9730;","elianto","#3366ff99"," "," ","1","+10","[1724.6000000238419]","1","1","","","13392","14","1","1","win","go","0"
"pit-trial","135","1178317","0.0-18.0","battery-v0.2","","""event"",""trial"",""time""
""focus"",""1"",""11535""
""fullscreenenter"",""1"",""11659""
","
","""event"",""trial"",""time""
""focus"",""1"",""11535""
","""event"",""trial"",""time""
""fullscreenenter"",""1"",""11659""
","
","","","-1","","","11","13392","5704","&#9752;","elianto","#f73b6a7A"," ","-1","0","-10","[]","0","1","","","13392","15","3","3","lose","go","0"
"pit-trial","136","1183169","0.0-19.0","battery-v0.2","","""event"",""trial"",""time""
""focus"",""1"",""11535""
""fullscreenenter"",""1"",""11659""
","
","""event"",""trial"",""time""
""focus"",""1"",""11535""
","""event"",""trial"",""time""
""fullscreenenter"",""1"",""11659""
","
","","","-1","","","11","13392","5704","&#9728;","elianto","#f73b6a7A","-1","-1","1","0","[]","0","1","","","13392","16","0","4","lose","no-go","0"
"pit-trial","137","1186838","0.0-20.0","battery-v0.2","","""event"",""trial"",""time""
""focus"",""1"",""11535""
""fullscreenenter"",""1"",""11659""
","
","""event"",""trial"",""time""
""focus"",""1"",""11535""
","""event"",""trial"",""time""
""fullscreenenter"",""1"",""11659""
","
","","","815.7000000476837","","","11","13392","5704","&#9730;","elianto","#3366ff99"," "," ","1","+10","[1665.8000000715256]","1","1","","","13392","17","1","1","win","go","0"
"pit-trial","138","1191691","0.0-21.0","battery-v0.2","","""event"",""trial"",""time""
""focus"",""1"",""11535""
""fullscreenenter"",""1"",""11659""
","
","""event"",""trial"",""time""
""focus"",""1"",""11535""
","""event"",""trial"",""time""
""fullscreenenter"",""1"",""11659""
","
","","","-1","","","11","13392","5704","&#9728;","elianto","#f73b6a7A","-1","-1","1","-10","[]","0","1","","","13392","18","0","4","lose","no-go","1"
"pit-trial","139","1196545","0.0-22.0","battery-v0.2","","""event"",""trial"",""time""
""focus"",""1"",""11535""
""fullscreenenter"",""1"",""11659""
","
","""event"",""trial"",""time""
""focus"",""1"",""11535""
","""event"",""trial"",""time""
""fullscreenenter"",""1"",""11659""
","
","","","-1","","","11","13392","5704","&#9752;","elianto","#f73b6a7A"," ","-1","0","-10","[]","0","1","","","13392","19","3","3","lose","go","0"
"pit-trial","140","1201399","0.0-23.0","battery-v0.2","","""event"",""trial"",""time""
""focus"",""1"",""11535""
""fullscreenenter"",""1"",""11659""
","
","""event"",""trial"",""time""
""focus"",""1"",""11535""
","""event"",""trial"",""time""
""fullscreenenter"",""1"",""11659""
","
","","","-1","","","11","13392","5704","&#9733;","elianto","#3366ff99","-1","-1","1","+10","[]","0","1","","","13392","20","2","2","win","no-go","0"
"pit-instructions","141","1228415","0.0-24.0","battery-v0.2","","""event"",""trial"",""time""
""focus"",""1"",""11535""
""fullscreenenter"",""1"",""11659""
","
","""event"",""trial"",""time""
""focus"",""1"",""11535""
","""event"",""trial"",""time""
""fullscreenenter"",""1"",""11659""
","
","","[{""page_index"":0,""viewing_time"":18739.100000023842},{""page_index"":1,""viewing_time"":8283.100000023842}]","27022.5","","","","","","","","","","","","","","","","","","","","","","","",""
"pit-trial","142","1232372","0.0-25.0","battery-v0.2","","""event"",""trial"",""time""
""focus"",""1"",""11535""
""fullscreenenter"",""1"",""11659""
","
","""event"",""trial"",""time""
""focus"",""1"",""11535""
","""event"",""trial"",""time""
""fullscreenenter"",""1"",""11659""
","
","","","1085.7000000476837","","","11","13392","5704","r","elianto","#3366ff99","-1"," ","0","0","[1938.6999999284744]","1","2","","","13392","21","1","2","win","no-go","0"
"pit-trial","143","1237238","0.0-26.0","battery-v0.2","","""event"",""trial"",""time""
""focus"",""1"",""11535""
""fullscreenenter"",""1"",""11659""
","
","""event"",""trial"",""time""
""focus"",""1"",""11535""
","""event"",""trial"",""time""
""fullscreenenter"",""1"",""11659""
","
","","","-1","","","11","13392","5704","y","elianto","#f73b6a7A"," ","-1","0","-10","[]","0","2","","","13392","22","2","3","lose","go","0"
"pit-trial","144","1242106","0.0-27.0","battery-v0.2","","""event"",""trial"",""time""
""focus"",""1"",""11535""
""fullscreenenter"",""1"",""11659""
","
","""event"",""trial"",""time""
""focus"",""1"",""11535""
","""event"",""trial"",""time""
""fullscreenenter"",""1"",""11659""
","
","","","-1","","","11","13392","5704","h","elianto","#f73b6a7A","-1","-1","1","0","[]","0","2","","","13392","23","3","4","lose","no-go","0"
"pit-trial","145","1246978","0.0-28.0","battery-v0.2","","""event"",""trial"",""time""
""focus"",""1"",""11535""
""fullscreenenter"",""1"",""11659""
","
","""event"",""trial"",""time""
""focus"",""1"",""11535""
","""event"",""trial"",""time""
""fullscreenenter"",""1"",""11659""
","
","","","-1","","","11","13392","5704","m","elianto","#f73b6a7A"," ","-1","0","-10","[]","0","2","","","13392","24","0","3","lose","go","0"
"pit-trial","146","1251852","0.0-29.0","battery-v0.2","","""event"",""trial"",""time""
""focus"",""1"",""11535""
""fullscreenenter"",""1"",""11659""
","
","""event"",""trial"",""time""
""focus"",""1"",""11535""
","""event"",""trial"",""time""
""fullscreenenter"",""1"",""11659""
","
","","","-1","","","11","13392","5704","h","elianto","#f73b6a7A","-1","-1","1","-10","[]","0","2","","","13392","25","3","4","lose","no-go","1"
"pit-trial","147","1256734","0.0-30.0","battery-v0.2","","""event"",""trial"",""time""
""focus"",""1"",""11535""
""fullscreenenter"",""1"",""11659""
","
","""event"",""trial"",""time""
""focus"",""1"",""11535""
","""event"",""trial"",""time""
""fullscreenenter"",""1"",""11659""
","
","","","-1","","","11","13392","5704","m","elianto","#f73b6a7A"," ","-1","0","0","[]","0","2","","","13392","26","0","3","lose","go","1"
"pit-trial","148","1260747","0.0-31.0","battery-v0.2","","""event"",""trial"",""time""
""focus"",""1"",""11535""
""fullscreenenter"",""1"",""11659""
","
","""event"",""trial"",""time""
""focus"",""1"",""11535""
","""event"",""trial"",""time""
""fullscreenenter"",""1"",""11659""
","
","","","1152","","","11","13392","5704","r","elianto","#3366ff99","-1"," ","0","0","[2011]","1","2","","","13392","27","1","2","win","no-go","0"
"pit-trial","149","1265601","0.0-32.0","battery-v0.2","","""event"",""trial"",""time""
""focus"",""1"",""11535""
""fullscreenenter"",""1"",""11659""
","
","""event"",""trial"",""time""
""focus"",""1"",""11535""
","""event"",""trial"",""time""
""fullscreenenter"",""1"",""11659""
","
","","","-1","","","11","13392","5704","y","elianto","#f73b6a7A"," ","-1","0","-10","[]","0","2","","","13392","28","2","3","lose","go","0"
"pit-trial","150","1270455","0.0-33.0","battery-v0.2","","""event"",""trial"",""time""
""focus"",""1"",""11535""
""fullscreenenter"",""1"",""11659""
","
","""event"",""trial"",""time""
""focus"",""1"",""11535""
","""event"",""trial"",""time""
""fullscreenenter"",""1"",""11659""
","
","","","-1","","","11","13392","5704","h","elianto","#f73b6a7A","-1","-1","1","0","[]","0","2","","","13392","29","3","4","lose","no-go","0"
"pit-trial","151","1275310","0.0-34.0","battery-v0.2","","""event"",""trial"",""time""
""focus"",""1"",""11535""
""fullscreenenter"",""1"",""11659""
","
","""event"",""trial"",""time""
""focus"",""1"",""11535""
","""event"",""trial"",""time""
""fullscreenenter"",""1"",""11659""
","
","","","-1","","","11","13392","5704","y","elianto","#f73b6a7A"," ","-1","0","-10","[]","0","2","","","13392","30","2","3","lose","go","0"
"pit-trial","152","1280164","0.0-35.0","battery-v0.2","","""event"",""trial"",""time""
""focus"",""1"",""11535""
""fullscreenenter"",""1"",""11659""
","
","""event"",""trial"",""time""
""focus"",""1"",""11535""
","""event"",""trial"",""time""
""fullscreenenter"",""1"",""11659""
","
","","","-1","","","11","13392","5704","m","elianto","#f73b6a7A"," ","-1","0","-10","[]","0","2","","","13392","31","0","3","lose","go","0"
"pit-trial","153","1285027","0.0-36.0","battery-v0.2","","""event"",""trial"",""time""
""focus"",""1"",""11535""
""fullscreenenter"",""1"",""11659""
","
","""event"",""trial"",""time""
""focus"",""1"",""11535""
","""event"",""trial"",""time""
""fullscreenenter"",""1"",""11659""
","
","","","-1","","","11","13392","5704","r","elianto","#3366ff99","-1","-1","1","+10","[]","0","2","","","13392","32","1","2","win","no-go","0"
"pit-trial","154","1289880","0.0-37.0","battery-v0.2","","""event"",""trial"",""time""
""focus"",""1"",""11535""
""fullscreenenter"",""1"",""11659""
","
","""event"",""trial"",""time""
""focus"",""1"",""11535""
","""event"",""trial"",""time""
""fullscreenenter"",""1"",""11659""
","
","","","-1","","","11","13392","5704","y","elianto","#f73b6a7A"," ","-1","0","-10","[]","0","2","","","13392","33","2","3","lose","go","0"
"pit-trial","155","1294734","0.0-38.0","battery-v0.2","","""event"",""trial"",""time""
""focus"",""1"",""11535""
""fullscreenenter"",""1"",""11659""
","
","""event"",""trial"",""time""
""focus"",""1"",""11535""
","""event"",""trial"",""time""
""fullscreenenter"",""1"",""11659""
","
","","","-1","","","11","13392","5704","m","elianto","#f73b6a7A"," ","-1","0","-10","[]","0","2","","","13392","34","0","3","lose","go","0"
"pit-trial","156","1299587","0.0-39.0","battery-v0.2","","""event"",""trial"",""time""
""focus"",""1"",""11535""
""fullscreenenter"",""1"",""11659""
","
","""event"",""trial"",""time""
""focus"",""1"",""11535""
","""event"",""trial"",""time""
""fullscreenenter"",""1"",""11659""
","
","","","-1","","","11","13392","5704","r","elianto","#3366ff99","-1","-1","1","+10","[]","0","2","","","13392","35","1","2","win","no-go","0"
"pit-trial","157","1304440","0.0-40.0","battery-v0.2","","""event"",""trial"",""time""
""focus"",""1"",""11535""
""fullscreenenter"",""1"",""11659""
","
","""event"",""trial"",""time""
""focus"",""1"",""11535""
","""event"",""trial"",""time""
""fullscreenenter"",""1"",""11659""
","
","","","-1","","","11","13392","5704","h","elianto","#f73b6a7A","-1","-1","1","0","[]","0","2","","","13392","36","3","4","lose","no-go","0"
"pit-trial","158","1309293","0.0-41.0","battery-v0.2","","""event"",""trial"",""time""
""focus"",""1"",""11535""
""fullscreenenter"",""1"",""11659""
","
","""event"",""trial"",""time""
""focus"",""1"",""11535""
","""event"",""trial"",""time""
""fullscreenenter"",""1"",""11659""
","
","","","-1","","","11","13392","5704","h","elianto","#f73b6a7A","-1","-1","1","-10","[]","0","2","","","13392","37","3","4","lose","no-go","1"
"pit-trial","159","1314146","0.0-42.0","battery-v0.2","","""event"",""trial"",""time""
""focus"",""1"",""11535""
""fullscreenenter"",""1"",""11659""
","
","""event"",""trial"",""time""
""focus"",""1"",""11535""
","""event"",""trial"",""time""
""fullscreenenter"",""1"",""11659""
","
","","","-1","","","11","13392","5704","r","elianto","#3366ff99","-1","-1","1","+10","[]","0","2","","","13392","38","1","2","win","no-go","0"
"pit-trial","160","1318999","0.0-43.0","battery-v0.2","","""event"",""trial"",""time""
""focus"",""1"",""11535""
""fullscreenenter"",""1"",""11659""
","
","""event"",""trial"",""time""
""focus"",""1"",""11535""
","""event"",""trial"",""time""
""fullscreenenter"",""1"",""11659""
","
","","","-1","","","11","13392","5704","m","elianto","#f73b6a7A"," ","-1","0","-10","[]","0","2","","","13392","39","0","3","lose","go","0"
"pit-trial","161","1323852","0.0-44.0","battery-v0.2","","""event"",""trial"",""time""
""focus"",""1"",""11535""
""fullscreenenter"",""1"",""11659""
","
","""event"",""trial"",""time""
""focus"",""1"",""11535""
","""event"",""trial"",""time""
""fullscreenenter"",""1"",""11659""
","
","","","-1","","","11","13392","5704","y","elianto","#f73b6a7A"," ","-1","0","-10","[]","0","2","","","13392","40","2","3","lose","go","0"
"pit-trial","162","1328706","0.0-45.0","battery-v0.2","","""event"",""trial"",""time""
""focus"",""1"",""11535""
""fullscreenenter"",""1"",""11659""
","
","""event"",""trial"",""time""
""focus"",""1"",""11535""
","""event"",""trial"",""time""
""fullscreenenter"",""1"",""11659""
","
","","","-1","","","11","13392","5704","h","elianto","#f73b6a7A","-1","-1","1","0","[]","0","2","","","13392","41","3","4","lose","no-go","0"
"pit-trial","163","1333559","0.0-46.0","battery-v0.2","","""event"",""trial"",""time""
""focus"",""1"",""11535""
""fullscreenenter"",""1"",""11659""
","
","""event"",""trial"",""time""
""focus"",""1"",""11535""
","""event"",""trial"",""time""
""fullscreenenter"",""1"",""11659""
","
","","","-1","","","11","13392","5704","y","elianto","#f73b6a7A"," ","-1","0","-10","[]","0","2","","","13392","42","2","3","lose","go","0"
"pit-trial","164","1337165","0.0-47.0","battery-v0.2","","""event"",""trial"",""time""
""focus"",""1"",""11535""
""fullscreenenter"",""1"",""11659""
","
","""event"",""trial"",""time""
""focus"",""1"",""11535""
","""event"",""trial"",""time""
""fullscreenenter"",""1"",""11659""
","
","","","753.0999999046326","","","11","13392","5704","r","elianto","#3366ff99","-1"," ","0","0","[1603.5]","1","2","","","13392","43","1","2","win","no-go","0"
"pit-trial","165","1342017","0.0-48.0","battery-v0.2","","""event"",""trial"",""time""
""focus"",""1"",""11535""
""fullscreenenter"",""1"",""11659""
","
","""event"",""trial"",""time""
""focus"",""1"",""11535""
","""event"",""trial"",""time""
""fullscreenenter"",""1"",""11659""
","
","","","-1","","","11","13392","5704","m","elianto","#f73b6a7A"," ","-1","0","-10","[]","0","2","","","13392","44","0","3","lose","go","0"
"pit-trial","166","1346871","0.0-49.0","battery-v0.2","","""event"",""trial"",""time""
""focus"",""1"",""11535""
""fullscreenenter"",""1"",""11659""
","
","""event"",""trial"",""time""
""focus"",""1"",""11535""
","""event"",""trial"",""time""
""fullscreenenter"",""1"",""11659""
","
","","","-1","","","11","13392","5704","m","elianto","#f73b6a7A"," ","-1","0","0","[]","0","2","","","13392","45","0","3","lose","go","1"
"pit-trial","167","1351724","0.0-50.0","battery-v0.2","","""event"",""trial"",""time""
""focus"",""1"",""11535""
""fullscreenenter"",""1"",""11659""
","
","""event"",""trial"",""time""
""focus"",""1"",""11535""
","""event"",""trial"",""time""
""fullscreenenter"",""1"",""11659""
","
","","","-1","","","11","13392","5704","h","elianto","#f73b6a7A","-1","-1","1","0","[]","0","2","","","13392","46","3","4","lose","no-go","0"
"pit-trial","168","1356578","0.0-51.0","battery-v0.2","","""event"",""trial"",""time""
""focus"",""1"",""11535""
""fullscreenenter"",""1"",""11659""
","
","""event"",""trial"",""time""
""focus"",""1"",""11535""
","""event"",""trial"",""time""
""fullscreenenter"",""1"",""11659""
","
","","","-1","","","11","13392","5704","r","elianto","#3366ff99","-1","-1","1","+10","[]","0","2","","","13392","47","1","2","win","no-go","0"
"pit-trial","169","1361431","0.0-52.0","battery-v0.2","","""event"",""trial"",""time""
""focus"",""1"",""11535""
""fullscreenenter"",""1"",""11659""
","
","""event"",""trial"",""time""
""focus"",""1"",""11535""
","""event"",""trial"",""time""
""fullscreenenter"",""1"",""11659""
","
","","","-1","","","11","13392","5704","y","elianto","#f73b6a7A"," ","-1","0","-10","[]","0","2","","","13392","48","2","3","lose","go","0"
"pit-trial","170","1366283","0.0-53.0","battery-v0.2","","""event"",""trial"",""time""
""focus"",""1"",""11535""
""fullscreenenter"",""1"",""11659""
","
","""event"",""trial"",""time""
""focus"",""1"",""11535""
","""event"",""trial"",""time""
""fullscreenenter"",""1"",""11659""
","
","","","-1","","","11","13392","5704","r","elianto","#3366ff99","-1","-1","1","+10","[]","0","2","","","13392","49","1","2","win","no-go","0"
"pit-trial","171","1371139","0.0-54.0","battery-v0.2","","""event"",""trial"",""time""
""focus"",""1"",""11535""
""fullscreenenter"",""1"",""11659""
","
","""event"",""trial"",""time""
""focus"",""1"",""11535""
","""event"",""trial"",""time""
""fullscreenenter"",""1"",""11659""
","
","","","-1","","","11","13392","5704","h","elianto","#f73b6a7A","-1","-1","1","0","[]","0","2","","","13392","50","3","4","lose","no-go","0"
"pit-trial","172","1375993","0.0-55.0","battery-v0.2","","""event"",""trial"",""time""
""focus"",""1"",""11535""
""fullscreenenter"",""1"",""11659""
","
","""event"",""trial"",""time""
""focus"",""1"",""11535""
","""event"",""trial"",""time""
""fullscreenenter"",""1"",""11659""
","
","","","-1","","","11","13392","5704","m","elianto","#f73b6a7A"," ","-1","0","-10","[]","0","2","","","13392","51","0","3","lose","go","0"
"pit-trial","173","1380847","0.0-56.0","battery-v0.2","","""event"",""trial"",""time""
""focus"",""1"",""11535""
""fullscreenenter"",""1"",""11659""
","
","""event"",""trial"",""time""
""focus"",""1"",""11535""
","""event"",""trial"",""time""
""fullscreenenter"",""1"",""11659""
","
","","","-1","","","11","13392","5704","y","elianto","#f73b6a7A"," ","-1","0","-10","[]","0","2","","","13392","52","2","3","lose","go","0"
"pit-trial","174","1385699","0.0-57.0","battery-v0.2","","""event"",""trial"",""time""
""focus"",""1"",""11535""
""fullscreenenter"",""1"",""11659""
","
","""event"",""trial"",""time""
""focus"",""1"",""11535""
","""event"",""trial"",""time""
""fullscreenenter"",""1"",""11659""
","
","","","-1","","","11","13392","5704","y","elianto","#f73b6a7A"," ","-1","0","-10","[]","0","2","","","13392","53","2","3","lose","go","0"
"pit-trial","175","1390553","0.0-58.0","battery-v0.2","","""event"",""trial"",""time""
""focus"",""1"",""11535""
""fullscreenenter"",""1"",""11659""
","
","""event"",""trial"",""time""
""focus"",""1"",""11535""
","""event"",""trial"",""time""
""fullscreenenter"",""1"",""11659""
","
","","","-1","","","11","13392","5704","h","elianto","#f73b6a7A","-1","-1","1","0","[]","0","2","","","13392","54","3","4","lose","no-go","0"
"pit-trial","176","1395407","0.0-59.0","battery-v0.2","","""event"",""trial"",""time""
""focus"",""1"",""11535""
""fullscreenenter"",""1"",""11659""
","
","""event"",""trial"",""time""
""focus"",""1"",""11535""
","""event"",""trial"",""time""
""fullscreenenter"",""1"",""11659""
","
","","","-1","","","11","13392","5704","m","elianto","#f73b6a7A"," ","-1","0","-10","[]","0","2","","","13392","55","0","3","lose","go","0"
"pit-trial","177","1400260","0.0-60.0","battery-v0.2","","""event"",""trial"",""time""
""focus"",""1"",""11535""
""fullscreenenter"",""1"",""11659""
","
","""event"",""trial"",""time""
""focus"",""1"",""11535""
","""event"",""trial"",""time""
""fullscreenenter"",""1"",""11659""
","
","","","-1","","","11","13392","5704","r","elianto","#3366ff99","-1","-1","1","+10","[]","0","2","","","13392","56","1","2","win","no-go","0"
"pit-trial","178","1405114","0.0-61.0","battery-v0.2","","""event"",""trial"",""time""
""focus"",""1"",""11535""
""fullscreenenter"",""1"",""11659""
","
","""event"",""trial"",""time""
""focus"",""1"",""11535""
","""event"",""trial"",""time""
""fullscreenenter"",""1"",""11659""
","
","","","-1","","","11","13392","5704","m","elianto","#f73b6a7A"," ","-1","0","0","[]","0","2","","","13392","57","0","3","lose","go","1"
"pit-trial","179","1409967","0.0-62.0","battery-v0.2","","""event"",""trial"",""time""
""focus"",""1"",""11535""
""fullscreenenter"",""1"",""11659""
","
","""event"",""trial"",""time""
""focus"",""1"",""11535""
","""event"",""trial"",""time""
""fullscreenenter"",""1"",""11659""
","
","","","-1","","","11","13392","5704","y","elianto","#f73b6a7A"," ","-1","0","-10","[]","0","2","","","13392","58","2","3","lose","go","0"
"pit-trial","180","1414820","0.0-63.0","battery-v0.2","","""event"",""trial"",""time""
""focus"",""1"",""11535""
""fullscreenenter"",""1"",""11659""
","
","""event"",""trial"",""time""
""focus"",""1"",""11535""
","""event"",""trial"",""time""
""fullscreenenter"",""1"",""11659""
","
","","","-1","","","11","13392","5704","z","elianto","#3366ff99"," ","-1","0","0","[]","0","2","","","13392","59","4","1","win","go","0"
"pit-trial","181","1419674","0.0-64.0","battery-v0.2","","""event"",""trial"",""time""
""focus"",""1"",""11535""
""fullscreenenter"",""1"",""11659""
","
","""event"",""trial"",""time""
""focus"",""1"",""11535""
","""event"",""trial"",""time""
""fullscreenenter"",""1"",""11659""
","
","","","-1","","","11","13392","5704","h","elianto","#f73b6a7A","-1","-1","1","0","[]","0","2","","","13392","60","3","4","lose","no-go","0"
"pit-trial","182","1424528","0.0-65.0","battery-v0.2","","""event"",""trial"",""time""
""focus"",""1"",""11535""
""fullscreenenter"",""1"",""11659""
","
","""event"",""trial"",""time""
""focus"",""1"",""11535""
","""event"",""trial"",""time""
""fullscreenenter"",""1"",""11659""
","
","","","-1","","","11","13392","5704","y","elianto","#f73b6a7A"," ","-1","0","0","[]","0","2","","","13392","61","2","3","lose","go","1"
"pit-trial","183","1429381","0.0-66.0","battery-v0.2","","""event"",""trial"",""time""
""focus"",""1"",""11535""
""fullscreenenter"",""1"",""11659""
","
","""event"",""trial"",""time""
""focus"",""1"",""11535""
","""event"",""trial"",""time""
""fullscreenenter"",""1"",""11659""
","
","","","-1","","","11","13392","5704","h","elianto","#f73b6a7A","-1","-1","1","0","[]","0","2","","","13392","62","3","4","lose","no-go","0"
"pit-trial","184","1434235","0.0-67.0","battery-v0.2","","""event"",""trial"",""time""
""focus"",""1"",""11535""
""fullscreenenter"",""1"",""11659""
","
","""event"",""trial"",""time""
""focus"",""1"",""11535""
","""event"",""trial"",""time""
""fullscreenenter"",""1"",""11659""
","
","","","-1","","","11","13392","5704","r","elianto","#3366ff99","-1","-1","1","+10","[]","0","2","","","13392","63","1","2","win","no-go","0"
"pit-trial","185","1439088","0.0-68.0","battery-v0.2","","""event"",""trial"",""time""
""focus"",""1"",""11535""
""fullscreenenter"",""1"",""11659""
","
","""event"",""trial"",""time""
""focus"",""1"",""11535""
","""event"",""trial"",""time""
""fullscreenenter"",""1"",""11659""
","
","","","-1","","","11","13392","5704","z","elianto","#3366ff99"," ","-1","0","0","[]","0","2","","","13392","64","4","1","win","go","0"
"pit-trial","186","1443941","0.0-69.0","battery-v0.2","","""event"",""trial"",""time""
""focus"",""1"",""11535""
""fullscreenenter"",""1"",""11659""
","
","""event"",""trial"",""time""
""focus"",""1"",""11535""
","""event"",""trial"",""time""
""fullscreenenter"",""1"",""11659""
","
","","","-1","","","11","13392","5704","h","elianto","#f73b6a7A","-1","-1","1","0","[]","0","2","","","13392","65","3","4","lose","no-go","0"
"pit-trial","187","1448796","0.0-70.0","battery-v0.2","","""event"",""trial"",""time""
""focus"",""1"",""11535""
""fullscreenenter"",""1"",""11659""
","
","""event"",""trial"",""time""
""focus"",""1"",""11535""
","""event"",""trial"",""time""
""fullscreenenter"",""1"",""11659""
","
","","","-1","","","11","13392","5704","z","elianto","#3366ff99"," ","-1","0","0","[]","0","2","","","13392","66","4","1","win","go","0"
"pit-trial","188","1453649","0.0-71.0","battery-v0.2","","""event"",""trial"",""time""
""focus"",""1"",""11535""
""fullscreenenter"",""1"",""11659""
","
","""event"",""trial"",""time""
""focus"",""1"",""11535""
","""event"",""trial"",""time""
""fullscreenenter"",""1"",""11659""
","
","","","-1","","","11","13392","5704","c","elianto","#3366ff99","-1","-1","1","+10","[]","0","2","","","13392","67","5","2","win","no-go","0"
"pit-trial","189","1458502","0.0-72.0","battery-v0.2","","""event"",""trial"",""time""
""focus"",""1"",""11535""
""fullscreenenter"",""1"",""11659""
","
","""event"",""trial"",""time""
""focus"",""1"",""11535""
","""event"",""trial"",""time""
""fullscreenenter"",""1"",""11659""
","
","","","-1","","","11","13392","5704","r","elianto","#3366ff99","-1","-1","1","+10","[]","0","2","","","13392","68","1","2","win","no-go","0"
"pit-trial","190","1463355","0.0-73.0","battery-v0.2","","""event"",""trial"",""time""
""focus"",""1"",""11535""
""fullscreenenter"",""1"",""11659""
","
","""event"",""trial"",""time""
""focus"",""1"",""11535""
","""event"",""trial"",""time""
""fullscreenenter"",""1"",""11659""
","
","","","-1","","","11","13392","5704","z","elianto","#3366ff99"," ","-1","0","0","[]","0","2","","","13392","69","4","1","win","go","0"
"pit-trial","191","1468209","0.0-74.0","battery-v0.2","","""event"",""trial"",""time""
""focus"",""1"",""11535""
""fullscreenenter"",""1"",""11659""
","
","""event"",""trial"",""time""
""focus"",""1"",""11535""
","""event"",""trial"",""time""
""fullscreenenter"",""1"",""11659""
","
","","","-1","","","11","13392","5704","y","elianto","#f73b6a7A"," ","-1","0","-10","[]","0","2","","","13392","70","2","3","lose","go","0"
"pit-trial","192","1473068","0.0-75.0","battery-v0.2","","""event"",""trial"",""time""
""focus"",""1"",""11535""
""fullscreenenter"",""1"",""11659""
","
","""event"",""trial"",""time""
""focus"",""1"",""11535""
","""event"",""trial"",""time""
""fullscreenenter"",""1"",""11659""
","
","","","-1","","","11","13392","5704","c","elianto","#3366ff99","-1","-1","1","+10","[4568.100000023842]","1","2","","","13392","71","5","2","win","no-go","0"
"pit-trial","193","1477921","0.0-76.0","battery-v0.2","","""event"",""trial"",""time""
""focus"",""1"",""11535""
""fullscreenenter"",""1"",""11659""
","
","""event"",""trial"",""time""
""focus"",""1"",""11535""
","""event"",""trial"",""time""
""fullscreenenter"",""1"",""11659""
","
","","","-1","","","11","13392","5704","r","elianto","#3366ff99","-1","-1","1","0","[]","0","2","","","13392","72","1","2","win","no-go","1"
"pit-trial","194","1482775","0.0-77.0","battery-v0.2","","""event"",""trial"",""time""
""focus"",""1"",""11535""
""fullscreenenter"",""1"",""11659""
","
","""event"",""trial"",""time""
""focus"",""1"",""11535""
","""event"",""trial"",""time""
""fullscreenenter"",""1"",""11659""
","
","","","-1","","","11","13392","5704","h","elianto","#f73b6a7A","-1","-1","1","0","[]","0","2","","","13392","73","3","4","lose","no-go","0"
"pit-trial","195","1487629","0.0-78.0","battery-v0.2","","""event"",""trial"",""time""
""focus"",""1"",""11535""
""fullscreenenter"",""1"",""11659""
","
","""event"",""trial"",""time""
""focus"",""1"",""11535""
","""event"",""trial"",""time""
""fullscreenenter"",""1"",""11659""
","
","","","-1","","","11","13392","5704","z","elianto","#3366ff99"," ","-1","0","0","[]","0","2","","","13392","74","4","1","win","go","0"
"pit-trial","196","1492482","0.0-79.0","battery-v0.2","","""event"",""trial"",""time""
""focus"",""1"",""11535""
""fullscreenenter"",""1"",""11659""
","
","""event"",""trial"",""time""
""focus"",""1"",""11535""
","""event"",""trial"",""time""
""fullscreenenter"",""1"",""11659""
","
","","","-1","","","11","13392","5704","c","elianto","#3366ff99","-1","-1","1","+10","[3206.1999999284744]","1","2","","","13392","75","5","2","win","no-go","0"
"pit-trial","197","1497336","0.0-80.0","battery-v0.2","","""event"",""trial"",""time""
""focus"",""1"",""11535""
""fullscreenenter"",""1"",""11659""
","
","""event"",""trial"",""time""
""focus"",""1"",""11535""
","""event"",""trial"",""time""
""fullscreenenter"",""1"",""11659""
","
","","","-1","","","11","13392","5704","r","elianto","#3366ff99","-1","-1","1","+10","[3149.5]","1","2","","","13392","76","1","2","win","no-go","0"
"pit-trial","198","1502189","0.0-81.0","battery-v0.2","","""event"",""trial"",""time""
""focus"",""1"",""11535""
""fullscreenenter"",""1"",""11659""
","
","""event"",""trial"",""time""
""focus"",""1"",""11535""
","""event"",""trial"",""time""
""fullscreenenter"",""1"",""11659""
","
","","","-1","","","11","13392","5704","h","elianto","#f73b6a7A","-1","-1","1","0","[]","0","2","","","13392","77","3","4","lose","no-go","0"
"pit-trial","199","1507042","0.0-82.0","battery-v0.2","","""event"",""trial"",""time""
""focus"",""1"",""11535""
""fullscreenenter"",""1"",""11659""
","
","""event"",""trial"",""time""
""focus"",""1"",""11535""
","""event"",""trial"",""time""
""fullscreenenter"",""1"",""11659""
","
","","","-1","","","11","13392","5704","z","elianto","#3366ff99"," ","-1","0","0","[]","0","2","","","13392","78","4","1","win","go","0"
"pit-trial","200","1511896","0.0-83.0","battery-v0.2","","""event"",""trial"",""time""
""focus"",""1"",""11535""
""fullscreenenter"",""1"",""11659""
","
","""event"",""trial"",""time""
""focus"",""1"",""11535""
","""event"",""trial"",""time""
""fullscreenenter"",""1"",""11659""
","
","","","-1","","","11","13392","5704","c","elianto","#3366ff99","-1","-1","1","0","[]","0","2","","","13392","79","5","2","win","no-go","1"
"pit-trial","201","1516750","0.0-84.0","battery-v0.2","","""event"",""trial"",""time""
""focus"",""1"",""11535""
""fullscreenenter"",""1"",""11659""
","
","""event"",""trial"",""time""
""focus"",""1"",""11535""
","""event"",""trial"",""time""
""fullscreenenter"",""1"",""11659""
","
","","","-1","","","11","13392","5704","z","elianto","#3366ff99"," ","-1","0","+10","[3374.2999999523163]","1","2","","","13392","80","4","1","win","go","1"
"pit-trial","202","1521604","0.0-85.0","battery-v0.2","","""event"",""trial"",""time""
""focus"",""1"",""11535""
""fullscreenenter"",""1"",""11659""
","
","""event"",""trial"",""time""
""focus"",""1"",""11535""
","""event"",""trial"",""time""
""fullscreenenter"",""1"",""11659""
","
","","","-1","","","11","13392","5704","c","elianto","#3366ff99","-1","-1","1","0","[]","0","2","","","13392","81","5","2","win","no-go","1"
"pit-trial","203","1526458","0.0-86.0","battery-v0.2","","""event"",""trial"",""time""
""focus"",""1"",""11535""
""fullscreenenter"",""1"",""11659""
","
","""event"",""trial"",""time""
""focus"",""1"",""11535""
","""event"",""trial"",""time""
""fullscreenenter"",""1"",""11659""
","
","","","-1","","","11","13392","5704","t","elianto","#f73b6a7A","-1","-1","1","0","[]","0","2","","","13392","82","7","4","lose","no-go","0"
"pit-trial","204","1531312","0.0-87.0","battery-v0.2","","""event"",""trial"",""time""
""focus"",""1"",""11535""
""fullscreenenter"",""1"",""11659""
","
","""event"",""trial"",""time""
""focus"",""1"",""11535""
","""event"",""trial"",""time""
""fullscreenenter"",""1"",""11659""
","
","","","-1","","","11","13392","5704","h","elianto","#f73b6a7A","-1","-1","1","-10","[]","0","2","","","13392","83","3","4","lose","no-go","1"
"pit-trial","205","1535530","0.0-88.0","battery-v0.2","","""event"",""trial"",""time""
""focus"",""1"",""11535""
""fullscreenenter"",""1"",""11659""
","
","""event"",""trial"",""time""
""focus"",""1"",""11535""
","""event"",""trial"",""time""
""fullscreenenter"",""1"",""11659""
","
","","","1365","","","11","13392","5704","z","elianto","#3366ff99"," "," ","1","+10","[2215]","1","2","","","13392","84","4","1","win","go","0"
"pit-trial","206","1540383","0.0-89.0","battery-v0.2","","""event"",""trial"",""time""
""focus"",""1"",""11535""
""fullscreenenter"",""1"",""11659""
","
","""event"",""trial"",""time""
""focus"",""1"",""11535""
","""event"",""trial"",""time""
""fullscreenenter"",""1"",""11659""
","
","","","-1","","","11","13392","5704","c","elianto","#3366ff99","-1","-1","1","+10","[3293.899999976158]","1","2","","","13392","85","5","2","win","no-go","0"
"pit-trial","207","1545235","0.0-90.0","battery-v0.2","","""event"",""trial"",""time""
""focus"",""1"",""11535""
""fullscreenenter"",""1"",""11659""
","
","""event"",""trial"",""time""
""focus"",""1"",""11535""
","""event"",""trial"",""time""
""fullscreenenter"",""1"",""11659""
","
","","","-1","","","11","13392","5704","z","elianto","#3366ff99"," ","-1","0","0","[]","0","2","","","13392","86","4","1","win","go","0"
"pit-trial","208","1550090","0.0-91.0","battery-v0.2","","""event"",""trial"",""time""
""focus"",""1"",""11535""
""fullscreenenter"",""1"",""11659""
","
","""event"",""trial"",""time""
""focus"",""1"",""11535""
","""event"",""trial"",""time""
""fullscreenenter"",""1"",""11659""
","
","","","-1","","","11","13392","5704","b","elianto","#f73b6a7A"," ","-1","0","-10","[]","0","2","","","13392","87","6","3","lose","go","0"
"pit-trial","209","1554943","0.0-92.0","battery-v0.2","","""event"",""trial"",""time""
""focus"",""1"",""11535""
""fullscreenenter"",""1"",""11659""
","
","""event"",""trial"",""time""
""focus"",""1"",""11535""
","""event"",""trial"",""time""
""fullscreenenter"",""1"",""11659""
","
","","","-1","","","11","13392","5704","t","elianto","#f73b6a7A","-1","-1","1","-10","[]","0","2","","","13392","88","7","4","lose","no-go","1"
"pit-trial","210","1559797","0.0-93.0","battery-v0.2","","""event"",""trial"",""time""
""focus"",""1"",""11535""
""fullscreenenter"",""1"",""11659""
","
","""event"",""trial"",""time""
""focus"",""1"",""11535""
","""event"",""trial"",""time""
""fullscreenenter"",""1"",""11659""
","
","","","-1","","","11","13392","5704","c","elianto","#3366ff99","-1","-1","1","+10","[3269.899999976158]","1","2","","","13392","89","5","2","win","no-go","0"
"pit-trial","211","1564652","0.0-94.0","battery-v0.2","","""event"",""trial"",""time""
""focus"",""1"",""11535""
""fullscreenenter"",""1"",""11659""
","
","""event"",""trial"",""time""
""focus"",""1"",""11535""
","""event"",""trial"",""time""
""fullscreenenter"",""1"",""11659""
","
","","","-1","","","11","13392","5704","z","elianto","#3366ff99"," ","-1","0","0","[]","0","2","","","13392","90","4","1","win","go","0"
"pit-trial","212","1569506","0.0-95.0","battery-v0.2","","""event"",""trial"",""time""
""focus"",""1"",""11535""
""fullscreenenter"",""1"",""11659""
","
","""event"",""trial"",""time""
""focus"",""1"",""11535""
","""event"",""trial"",""time""
""fullscreenenter"",""1"",""11659""
","
","","","-1","","","11","13392","5704","t","elianto","#f73b6a7A","-1","-1","1","-10","[]","0","2","","","13392","91","7","4","lose","no-go","1"
"pit-trial","213","1574360","0.0-96.0","battery-v0.2","","""event"",""trial"",""time""
""focus"",""1"",""11535""
""fullscreenenter"",""1"",""11659""
","
","""event"",""trial"",""time""
""focus"",""1"",""11535""
","""event"",""trial"",""time""
""fullscreenenter"",""1"",""11659""
","
","","","-1","","","11","13392","5704","b","elianto","#f73b6a7A"," ","-1","0","0","[]","0","2","","","13392","92","6","3","lose","go","1"
"pit-trial","214","1579212","0.0-97.0","battery-v0.2","","""event"",""trial"",""time""
""focus"",""1"",""11535""
""fullscreenenter"",""1"",""11659""
","
","""event"",""trial"",""time""
""focus"",""1"",""11535""
","""event"",""trial"",""time""
""fullscreenenter"",""1"",""11659""
","
","","","-1","","","11","13392","5704","c","elianto","#3366ff99","-1","-1","1","+10","[3344.7999999523163]","1","2","","","13392","93","5","2","win","no-go","0"
"pit-trial","215","1584066","0.0-98.0","battery-v0.2","","""event"",""trial"",""time""
""focus"",""1"",""11535""
""fullscreenenter"",""1"",""11659""
","
","""event"",""trial"",""time""
""focus"",""1"",""11535""
","""event"",""trial"",""time""
""fullscreenenter"",""1"",""11659""
","
","","","-1","","","11","13392","5704","t","elianto","#f73b6a7A","-1","-1","1","0","[]","0","2","","","13392","94","7","4","lose","no-go","0"
"pit-trial","216","1588920","0.0-99.0","battery-v0.2","","""event"",""trial"",""time""
""focus"",""1"",""11535""
""fullscreenenter"",""1"",""11659""
","
","""event"",""trial"",""time""
""focus"",""1"",""11535""
","""event"",""trial"",""time""
""fullscreenenter"",""1"",""11659""
","
","","","-1","","","11","13392","5704","f","elianto","#3366ff99"," ","-1","0","0","[]","0","2","","","13392","95","8","1","win","go","0"
"pit-trial","217","1593772","0.0-100.0","battery-v0.2","","""event"",""trial"",""time""
""focus"",""1"",""11535""
""fullscreenenter"",""1"",""11659""
","
","""event"",""trial"",""time""
""focus"",""1"",""11535""
","""event"",""trial"",""time""
""fullscreenenter"",""1"",""11659""
","
","","","-1","","","11","13392","5704","b","elianto","#f73b6a7A"," ","-1","0","0","[]","0","2","","","13392","96","6","3","lose","go","1"
"pit-trial","218","1598626","0.0-101.0","battery-v0.2","","""event"",""trial"",""time""
""focus"",""1"",""11535""
""fullscreenenter"",""1"",""11659""
","
","""event"",""trial"",""time""
""focus"",""1"",""11535""
","""event"",""trial"",""time""
""fullscreenenter"",""1"",""11659""
","
","","","-1","","","11","13392","5704","t","elianto","#f73b6a7A","-1","-1","1","0","[]","0","2","","","13392","97","7","4","lose","no-go","0"
"pit-trial","219","1603479","0.0-102.0","battery-v0.2","","""event"",""trial"",""time""
""focus"",""1"",""11535""
""fullscreenenter"",""1"",""11659""
","
","""event"",""trial"",""time""
""focus"",""1"",""11535""
","""event"",""trial"",""time""
""fullscreenenter"",""1"",""11659""
","
","","","-1","","","11","13392","5704","c","elianto","#3366ff99","-1","-1","1","+10","[3568.8000000715256]","1","2","","","13392","98","5","2","win","no-go","0"
"pit-trial","220","1608333","0.0-103.0","battery-v0.2","","""event"",""trial"",""time""
""focus"",""1"",""11535""
""fullscreenenter"",""1"",""11659""
","
