"trial_type","trial_index","time_elapsed","internal_node_id","task_version","subject_id","interactions","blur_events","focus_events","fullscreenenter_events","fullscreenexit_events","success","view_history","rt","responses","num_errors","age","subject","participantId","rune","rune_set","hex","correct","choice","accuracy","outcome","keys","total_keys","block","practice","value","sub","trial","stimulus","robot","valence","action","sham"
"pavlovia","0","16","0.0-0.0","battery-v0.2","","""event"",""trial"",""time""
""fullscreenenter"",""1"",""1942""
","
","
","""event"",""trial"",""time""
""fullscreenenter"",""1"",""1942""
","
","","","","","","","","","","","","","","","","","","","","","","","","","","",""
"fullscreen","1","2894","0.0-1.0","battery-v0.2","","""event"",""trial"",""time""
""fullscreenenter"",""1"",""1942""
","
","
","""event"",""trial"",""time""
""fullscreenenter"",""1"",""1942""
","
","true","","","","","","","","","","","","","","","","","","","","","","","","","",""
"pit-instructions","2","10073","0.0-2.0-0.0","battery-v0.2","","""event"",""trial"",""time""
""fullscreenenter"",""1"",""1942""
","
","
","""event"",""trial"",""time""
""fullscreenenter"",""1"",""1942""
","
","","[{""page_index"":0,""viewing_time"":7171.100000023842}]","7172.399999976158","","","","","","","","","","","","","","","","","","","","","","","",""
"pit-comprehension","3","14279","0.0-2.0-1.0-0.0","battery-v0.2","","""event"",""trial"",""time""
""fullscreenenter"",""1"",""1942""
","
","
","""event"",""trial"",""time""
""fullscreenenter"",""1"",""1942""
","
","","","4197.399999976158","[""shark""]","0","21","13480","5594","","","","","","","","","","","","","","","","","","",""
"pit-instructions","4","17625","0.0-2.0-1.0-1.0","battery-v0.2","","""event"",""trial"",""time""
""fullscreenenter"",""1"",""1942""
","
","
","""event"",""trial"",""time""
""fullscreenenter"",""1"",""1942""
","
","","[{""page_index"":0,""viewing_time"":3264.100000023842}]","3264.800000011921","","","","","","","","","","","","","","","","","","","","","","","",""
"pit-comprehension","5","22671","0.0-2.0-2.0-0.0","battery-v0.2","","""event"",""trial"",""time""
""fullscreenenter"",""1"",""1942""
","
","
","""event"",""trial"",""time""
""fullscreenenter"",""1"",""1942""
","
","","","5036.599999964237","[""tiger""]","0","21","13480","5594","","","","","","","","","","","","","","","","","","",""
"pit-instructions","6","25466","0.0-2.0-2.0-1.0","battery-v0.2","","""event"",""trial"",""time""
""fullscreenenter"",""1"",""1942""
""fullscreenexit"",""7"",""104978""
""blur"",""7"",""107150""
""focus"",""7"",""109737""
","""event"",""trial"",""time""
""blur"",""7"",""107150""
","""event"",""trial"",""time""
""focus"",""7"",""109737""
","""event"",""trial"",""time""
""fullscreenenter"",""1"",""1942""
","""event"",""trial"",""time""
""fullscreenexit"",""7"",""104978""
","","[{""page_index"":0,""viewing_time"":2784}]","2784.699999988079","","","","","","","","","","","","","","","","","","","","","","","",""
"pit-instructions","7","128304","0.0-2.0-3.0","battery-v0.2","","""event"",""trial"",""time""
""fullscreenenter"",""1"",""1942""
""fullscreenexit"",""7"",""104978""
""blur"",""7"",""107150""
""focus"",""7"",""109737""
","""event"",""trial"",""time""
""blur"",""7"",""107150""
","""event"",""trial"",""time""
""focus"",""7"",""109737""
","""event"",""trial"",""time""
""fullscreenenter"",""1"",""1942""
","""event"",""trial"",""time""
""fullscreenexit"",""7"",""104978""
","","[{""page_index"":0,""viewing_time"":8289.300000011921},{""page_index"":1,""viewing_time"":5940},{""page_index"":2,""viewing_time"":7554.199999988079},{""page_index"":3,""viewing_time"":5815.600000023842},{""page_index"":4,""viewing_time"":6330.099999964237},{""page_index"":5,""viewing_time"":5610.100000023842},{""page_index"":6,""viewing_time"":7015},{""page_index"":7,""viewing_time"":6395.199999988079},{""page_index"":8,""viewing_time"":7658.5},{""page_index"":9,""viewing_time"":9052.800000011921},{""page_index"":10,""viewing_time"":7046.899999976158},{""page_index"":11,""viewing_time"":13874.5},{""page_index"":12,""viewing_time"":6643},{""page_index"":13,""viewing_time"":5604.300000011921}]","102830.30000001192","","","","","","","","","","","","","","","","","","","","","","","",""
"pit-trial","8","131602","0.0-2.0-4.0-0.0","battery-v0.2","","""event"",""trial"",""time""
""fullscreenenter"",""1"",""1942""
""fullscreenexit"",""7"",""104978""
""blur"",""7"",""107150""
""focus"",""7"",""109737""
","""event"",""trial"",""time""
""blur"",""7"",""107150""
","""event"",""trial"",""time""
""focus"",""7"",""109737""
","""event"",""trial"",""time""
""fullscreenenter"",""1"",""1942""
","""event"",""trial"",""time""
""fullscreenexit"",""7"",""104978""
","","","435.5","","","21","13480","5594","&#9784;","elianto","#FFFFF080"," "," ","1","&#10004","[1287.699999988079]","1","0","0","","","","","","","",""
"pit-trial","9","135181","0.0-2.0-4.1-0.1","battery-v0.2","","""event"",""trial"",""time""
""fullscreenenter"",""1"",""1942""
""fullscreenexit"",""7"",""104978""
""blur"",""7"",""107150""
""focus"",""7"",""109737""
","""event"",""trial"",""time""
""blur"",""7"",""107150""
","""event"",""trial"",""time""
""focus"",""7"",""109737""
","""event"",""trial"",""time""
""fullscreenenter"",""1"",""1942""
","""event"",""trial"",""time""
""fullscreenexit"",""7"",""104978""
","","","707.9000000357628","","","21","13480","5594","&#9784;","elianto","#FFFFF080"," "," ","1","&#10004","[1558.5999999642372]","1","0","0","","","","","","","",""
"pit-trial","10","138921","0.0-2.0-4.2-0.2","battery-v0.2","","""event"",""trial"",""time""
""fullscreenenter"",""1"",""1942""
""fullscreenexit"",""7"",""104978""
""blur"",""7"",""107150""
""focus"",""7"",""109737""
","""event"",""trial"",""time""
""blur"",""7"",""107150""
","""event"",""trial"",""time""
""focus"",""7"",""109737""
","""event"",""trial"",""time""
""fullscreenenter"",""1"",""1942""
","""event"",""trial"",""time""
""fullscreenexit"",""7"",""104978""
","","","876.3000000119209","","","21","13480","5594","&#9784;","elianto","#FFFFF080"," "," ","1","&#10004","[1728.800000011921]","1","0","0","","","","","","","",""
"pit-trial","11","142311","0.0-2.0-4.3-0.3","battery-v0.2","","""event"",""trial"",""time""
""fullscreenenter"",""1"",""1942""
""fullscreenexit"",""7"",""104978""
""blur"",""7"",""107150""
""focus"",""7"",""109737""
","""event"",""trial"",""time""
""blur"",""7"",""107150""
","""event"",""trial"",""time""
""focus"",""7"",""109737""
","""event"",""trial"",""time""
""fullscreenenter"",""1"",""1942""
","""event"",""trial"",""time""
""fullscreenexit"",""7"",""104978""
","","","527.8999999761581","","","21","13480","5594","&#9784;","elianto","#FFFFF080"," "," ","1","&#10004","[1379.300000011921]","1","0","0","","","","","","","",""
"pit-trial","12","145881","0.0-2.0-4.4-0.4","battery-v0.2","","""event"",""trial"",""time""
""fullscreenenter"",""1"",""1942""
""fullscreenexit"",""7"",""104978""
""blur"",""7"",""107150""
""focus"",""7"",""109737""
","""event"",""trial"",""time""
""blur"",""7"",""107150""
","""event"",""trial"",""time""
""focus"",""7"",""109737""
","""event"",""trial"",""time""
""fullscreenenter"",""1"",""1942""
","""event"",""trial"",""time""
""fullscreenexit"",""7"",""104978""
","","","706.0999999642372","","","21","13480","5594","&#9784;","elianto","#FFFFF080"," "," ","1","&#10004","[1558]","1","0","0","","","","","","","",""
"pit-instructions","13","166384","0.0-2.0-5.0","battery-v0.2","","""event"",""trial"",""time""
""fullscreenenter"",""1"",""1942""
""fullscreenexit"",""7"",""104978""
""blur"",""7"",""107150""
""focus"",""7"",""109737""
","""event"",""trial"",""time""
""blur"",""7"",""107150""
","""event"",""trial"",""time""
""focus"",""7"",""109737""
","""event"",""trial"",""time""
""fullscreenenter"",""1"",""1942""
","""event"",""trial"",""time""
""fullscreenexit"",""7"",""104978""
","","[{""page_index"":0,""viewing_time"":5146.099999964237},{""page_index"":1,""viewing_time"":5290},{""page_index"":2,""viewing_time"":4989.600000023842},{""page_index"":3,""viewing_time"":5070.300000011921}]","20496.599999964237","","","","","","","","","","","","","","","","","","","","","","","",""
"pit-trial","14","171261","0.0-2.0-6.0-0.0","battery-v0.2","","""event"",""trial"",""time""
""fullscreenenter"",""1"",""1942""
""fullscreenexit"",""7"",""104978""
""blur"",""7"",""107150""
""focus"",""7"",""109737""
","""event"",""trial"",""time""
""blur"",""7"",""107150""
","""event"",""trial"",""time""
""focus"",""7"",""109737""
","""event"",""trial"",""time""
""fullscreenenter"",""1"",""1942""
","""event"",""trial"",""time""
""fullscreenexit"",""7"",""104978""
","","","-1","","","21","13480","5594","&#9854;","elianto","#FFFFF080","-1","-1","1","&#10004","[]","0","0","1","","","","","","","",""
"pit-trial","15","176127","0.0-2.0-6.1-0.1","battery-v0.2","","""event"",""trial"",""time""
""fullscreenenter"",""1"",""1942""
""fullscreenexit"",""7"",""104978""
""blur"",""7"",""107150""
""focus"",""7"",""109737""
","""event"",""trial"",""time""
""blur"",""7"",""107150""
","""event"",""trial"",""time""
""focus"",""7"",""109737""
","""event"",""trial"",""time""
""fullscreenenter"",""1"",""1942""
","""event"",""trial"",""time""
""fullscreenexit"",""7"",""104978""
","","","-1","","","21","13480","5594","&#9854;","elianto","#FFFFF080","-1","-1","1","&#10004","[]","0","0","1","","","","","","","",""
"pit-trial","16","181000","0.0-2.0-6.2-0.2","battery-v0.2","","""event"",""trial"",""time""
""fullscreenenter"",""1"",""1942""
""fullscreenexit"",""7"",""104978""
""blur"",""7"",""107150""
""focus"",""7"",""109737""
","""event"",""trial"",""time""
""blur"",""7"",""107150""
","""event"",""trial"",""time""
""focus"",""7"",""109737""
","""event"",""trial"",""time""
""fullscreenenter"",""1"",""1942""
","""event"",""trial"",""time""
""fullscreenexit"",""7"",""104978""
","","","-1","","","21","13480","5594","&#9854;","elianto","#FFFFF080","-1","-1","1","&#10004","[]","0","0","1","","","","","","","",""
"pit-trial","17","185861","0.0-2.0-6.3-0.3","battery-v0.2","","""event"",""trial"",""time""
""fullscreenenter"",""1"",""1942""
""fullscreenexit"",""7"",""104978""
""blur"",""7"",""107150""
""focus"",""7"",""109737""
","""event"",""trial"",""time""
""blur"",""7"",""107150""
","""event"",""trial"",""time""
""focus"",""7"",""109737""
","""event"",""trial"",""time""
""fullscreenenter"",""1"",""1942""
","""event"",""trial"",""time""
""fullscreenexit"",""7"",""104978""
","","","-1","","","21","13480","5594","&#9854;","elianto","#FFFFF080","-1","-1","1","&#10004","[]","0","0","1","","","","","","","",""
"pit-trial","18","190730","0.0-2.0-6.4-0.4","battery-v0.2","","""event"",""trial"",""time""
""fullscreenenter"",""1"",""1942""
""fullscreenexit"",""7"",""104978""
""blur"",""7"",""107150""
""focus"",""7"",""109737""
","""event"",""trial"",""time""
""blur"",""7"",""107150""
","""event"",""trial"",""time""
""focus"",""7"",""109737""
","""event"",""trial"",""time""
""fullscreenenter"",""1"",""1942""
","""event"",""trial"",""time""
""fullscreenexit"",""7"",""104978""
","","","-1","","","21","13480","5594","&#9854;","elianto","#FFFFF080","-1","-1","1","&#10004","[]","0","0","1","","","","","","","",""
"pit-instructions","19","298104","0.0-2.0-7.0","battery-v0.2","","""event"",""trial"",""time""
""fullscreenenter"",""1"",""1942""
""fullscreenexit"",""7"",""104978""
""blur"",""7"",""107150""
""focus"",""7"",""109737""
","""event"",""trial"",""time""
""blur"",""7"",""107150""
","""event"",""trial"",""time""
""focus"",""7"",""109737""
","""event"",""trial"",""time""
""fullscreenenter"",""1"",""1942""
","""event"",""trial"",""time""
""fullscreenexit"",""7"",""104978""
","","[{""page_index"":0,""viewing_time"":5627.400000035763},{""page_index"":1,""viewing_time"":6535.299999952316},{""page_index"":2,""viewing_time"":5393.600000023842},{""page_index"":3,""viewing_time"":6360},{""page_index"":4,""viewing_time"":5028.100000023842},{""page_index"":5,""viewing_time"":5062},{""page_index"":6,""viewing_time"":4389.199999988079},{""page_index"":7,""viewing_time"":7320.5},{""page_index"":8,""viewing_time"":6740.899999976158},{""page_index"":9,""viewing_time"":5568.699999988079},{""page_index"":10,""viewing_time"":6130},{""page_index"":11,""viewing_time"":4050.600000023842},{""page_index"":12,""viewing_time"":6530},{""page_index"":13,""viewing_time"":6889.899999976158},{""page_index"":14,""viewing_time"":6840.700000047684},{""page_index"":15,""viewing_time"":6060.399999976158},{""page_index"":16,""viewing_time"":6049.199999988079},{""page_index"":17,""viewing_time"":6789.5}]","107366.80000001192","","","","","","","","","","","","","","","","","","","","","","","",""
"pit-trial","20","301571","0.0-2.0-8.0-0.0","battery-v0.2","","""event"",""trial"",""time""
""fullscreenenter"",""1"",""1942""
""fullscreenexit"",""7"",""104978""
""blur"",""7"",""107150""
""focus"",""7"",""109737""
","""event"",""trial"",""time""
""blur"",""7"",""107150""
","""event"",""trial"",""time""
""focus"",""7"",""109737""
","""event"",""trial"",""time""
""fullscreenenter"",""1"",""1942""
","""event"",""trial"",""time""
""fullscreenexit"",""7"",""104978""
","","","605.3999999761581","","","21","13480","5594","&#9776;","elianto","#3366ff99"," "," ","1","+10","[1455.800000011921]","1","0","1","","","","","","","",""
"pit-trial","21","305011","0.0-2.0-8.0-1.0","battery-v0.2","","""event"",""trial"",""time""
""fullscreenenter"",""1"",""1942""
""fullscreenexit"",""7"",""104978""
""blur"",""7"",""107150""
""focus"",""7"",""109737""
","""event"",""trial"",""time""
""blur"",""7"",""107150""
","""event"",""trial"",""time""
""focus"",""7"",""109737""
","""event"",""trial"",""time""
""fullscreenenter"",""1"",""1942""
","""event"",""trial"",""time""
""fullscreenexit"",""7"",""104978""
","","","577.6000000238419","","","21","13480","5594","&#9776;","elianto","#3366ff99"," "," ","1","+10","[1431]","1","0","1","","","","","","","",""
"pit-trial","22","308401","0.0-2.0-8.0-2.0","battery-v0.2","","""event"",""trial"",""time""
""fullscreenenter"",""1"",""1942""
""fullscreenexit"",""7"",""104978""
""blur"",""7"",""107150""
""focus"",""7"",""109737""
","""event"",""trial"",""time""
""blur"",""7"",""107150""
","""event"",""trial"",""time""
""focus"",""7"",""109737""
","""event"",""trial"",""time""
""fullscreenenter"",""1"",""1942""
","""event"",""trial"",""time""
""fullscreenexit"",""7"",""104978""
","","","531.1999999880791","","","21","13480","5594","&#9776;","elianto","#3366ff99"," "," ","1","+10","[1384.199999988079]","1","0","1","","","","","","","",""
"pit-trial","23","311780","0.0-2.0-8.0-3.0","battery-v0.2","","""event"",""trial"",""time""
""fullscreenenter"",""1"",""1942""
""fullscreenexit"",""7"",""104978""
""blur"",""7"",""107150""
""focus"",""7"",""109737""
","""event"",""trial"",""time""
""blur"",""7"",""107150""
","""event"",""trial"",""time""
""focus"",""7"",""109737""
","""event"",""trial"",""time""
""fullscreenenter"",""1"",""1942""
","""event"",""trial"",""time""
""fullscreenexit"",""7"",""104978""
","","","519.6000000238419","","","21","13480","5594","&#9776;","elianto","#3366ff99"," "," ","1","0","[1372.3999999761581]","1","0","1","","","","","","","",""
"pit-trial","24","315231","0.0-2.0-8.0-4.0","battery-v0.2","","""event"",""trial"",""time""
""fullscreenenter"",""1"",""1942""
""fullscreenexit"",""7"",""104978""
""blur"",""7"",""107150""
""focus"",""7"",""109737""
","""event"",""trial"",""time""
""blur"",""7"",""107150""
","""event"",""trial"",""time""
""focus"",""7"",""109737""
","""event"",""trial"",""time""
""fullscreenenter"",""1"",""1942""
","""event"",""trial"",""time""
""fullscreenexit"",""7"",""104978""
","","","585.5","","","21","13480","5594","&#9776;","elianto","#3366ff99"," "," ","1","+10","[1439.3999999761581]","1","0","1","","","","","","","",""
"pit-trial","25","318620","0.0-2.0-8.1-0.1","battery-v0.2","","""event"",""trial"",""time""
""fullscreenenter"",""1"",""1942""
""fullscreenexit"",""7"",""104978""
""blur"",""7"",""107150""
""focus"",""7"",""109737""
","""event"",""trial"",""time""
""blur"",""7"",""107150""
","""event"",""trial"",""time""
""focus"",""7"",""109737""
","""event"",""trial"",""time""
""fullscreenenter"",""1"",""1942""
","""event"",""trial"",""time""
""fullscreenexit"",""7"",""104978""
","","","521.3999999761581","","","21","13480","5594","&#9776;","elianto","#3366ff99"," "," ","1","+10","[1373.5]","1","0","1","","","","","","","",""
"pit-trial","26","322050","0.0-2.0-8.1-1.1","battery-v0.2","","""event"",""trial"",""time""
""fullscreenenter"",""1"",""1942""
""fullscreenexit"",""7"",""104978""
""blur"",""7"",""107150""
""focus"",""7"",""109737""
","""event"",""trial"",""time""
""blur"",""7"",""107150""
","""event"",""trial"",""time""
""focus"",""7"",""109737""
","""event"",""trial"",""time""
""fullscreenenter"",""1"",""1942""
","""event"",""trial"",""time""
""fullscreenexit"",""7"",""104978""
","","","562.3999999761581","","","21","13480","5594","&#9776;","elianto","#3366ff99"," "," ","1","+10","[1416.5]","1","0","1","","","","","","","",""
"pit-trial","27","325681","0.0-2.0-8.1-2.1","battery-v0.2","","""event"",""trial"",""time""
""fullscreenenter"",""1"",""1942""
""fullscreenexit"",""7"",""104978""
""blur"",""7"",""107150""
""focus"",""7"",""109737""
","""event"",""trial"",""time""
""blur"",""7"",""107150""
","""event"",""trial"",""time""
""focus"",""7"",""109737""
","""event"",""trial"",""time""
""fullscreenenter"",""1"",""1942""
","""event"",""trial"",""time""
""fullscreenexit"",""7"",""104978""
","","","764.7999999523163","","","21","13480","5594","&#9776;","elianto","#3366ff99"," "," ","1","+10","[1618.4000000357628]","1","0","1","","","","","","","",""
"pit-trial","28","329060","0.0-2.0-8.1-3.1","battery-v0.2","","""event"",""trial"",""time""
""fullscreenenter"",""1"",""1942""
""fullscreenexit"",""7"",""104978""
""blur"",""7"",""107150""
""focus"",""7"",""109737""
","""event"",""trial"",""time""
""blur"",""7"",""107150""
","""event"",""trial"",""time""
""focus"",""7"",""109737""
","""event"",""trial"",""time""
""fullscreenenter"",""1"",""1942""
","""event"",""trial"",""time""
""fullscreenexit"",""7"",""104978""
","","","516.8000000119209","","","21","13480","5594","&#9776;","elianto","#3366ff99"," "," ","1","0","[1369.5]","1","0","1","","","","","","","",""
"pit-trial","29","332453","0.0-2.0-8.1-4.1","battery-v0.2","","""event"",""trial"",""time""
""fullscreenenter"",""1"",""1942""
""fullscreenexit"",""7"",""104978""
""blur"",""7"",""107150""
""focus"",""7"",""109737""
","""event"",""trial"",""time""
""blur"",""7"",""107150""
","""event"",""trial"",""time""
""focus"",""7"",""109737""
","""event"",""trial"",""time""
""fullscreenenter"",""1"",""1942""
","""event"",""trial"",""time""
""fullscreenexit"",""7"",""104978""
","","","529.6999999880791","","","21","13480","5594","&#9776;","elianto","#3366ff99"," "," ","1","+10","[1383.5]","1","0","1","","","","","","","",""
"pit-trial","30","335808","0.0-2.0-8.2-0.2","battery-v0.2","","""event"",""trial"",""time""
""fullscreenenter"",""1"",""1942""
""fullscreenexit"",""7"",""104978""
""blur"",""7"",""107150""
""focus"",""7"",""109737""
","""event"",""trial"",""time""
""blur"",""7"",""107150""
","""event"",""trial"",""time""
""focus"",""7"",""109737""
","""event"",""trial"",""time""
""fullscreenenter"",""1"",""1942""
","""event"",""trial"",""time""
""fullscreenexit"",""7"",""104978""
","","","495.4000000357628","","","21","13480","5594","&#9776;","elianto","#3366ff99"," "," ","1","+10","[1347.699999988079]","1","0","1","","","","","","","",""
"pit-trial","31","339201","0.0-2.0-8.2-1.2","battery-v0.2","","""event"",""trial"",""time""
""fullscreenenter"",""1"",""1942""
""fullscreenexit"",""7"",""104978""
""blur"",""7"",""107150""
""focus"",""7"",""109737""
","""event"",""trial"",""time""
""blur"",""7"",""107150""
","""event"",""trial"",""time""
""focus"",""7"",""109737""
","""event"",""trial"",""time""
""fullscreenenter"",""1"",""1942""
","""event"",""trial"",""time""
""fullscreenexit"",""7"",""104978""
","","","534.2999999523163","","","21","13480","5594","&#9776;","elianto","#3366ff99"," "," ","1","+10","[1384.9000000357628]","1","0","1","","","","","","","",""
"pit-trial","32","342686","0.0-2.0-8.2-2.2","battery-v0.2","","""event"",""trial"",""time""
""fullscreenenter"",""1"",""1942""
""fullscreenexit"",""7"",""104978""
""blur"",""7"",""107150""
""focus"",""7"",""109737""
","""event"",""trial"",""time""
""blur"",""7"",""107150""
","""event"",""trial"",""time""
""focus"",""7"",""109737""
","""event"",""trial"",""time""
""fullscreenenter"",""1"",""1942""
","""event"",""trial"",""time""
""fullscreenexit"",""7"",""104978""
","","","615.1999999880791","","","21","13480","5594","&#9776;","elianto","#3366ff99"," "," ","1","+10","[1467.8999999761581]","1","0","1","","","","","","","",""
"pit-trial","33","346102","0.0-2.0-8.2-3.2","battery-v0.2","","""event"",""trial"",""time""
""fullscreenenter"",""1"",""1942""
""fullscreenexit"",""7"",""104978""
""blur"",""7"",""107150""
""focus"",""7"",""109737""
","""event"",""trial"",""time""
""blur"",""7"",""107150""
","""event"",""trial"",""time""
""focus"",""7"",""109737""
","""event"",""trial"",""time""
""fullscreenenter"",""1"",""1942""
","""event"",""trial"",""time""
""fullscreenexit"",""7"",""104978""
","","","558.4000000357628","","","21","13480","5594","&#9776;","elianto","#3366ff99"," "," ","1","0","[1409.800000011921]","1","0","1","","","","","","","",""
"pit-trial","34","349466","0.0-2.0-8.2-4.2","battery-v0.2","","""event"",""trial"",""time""
""fullscreenenter"",""1"",""1942""
""fullscreenexit"",""7"",""104978""
""blur"",""7"",""107150""
""focus"",""7"",""109737""
","""event"",""trial"",""time""
""blur"",""7"",""107150""
","""event"",""trial"",""time""
""focus"",""7"",""109737""
","""event"",""trial"",""time""
""fullscreenenter"",""1"",""1942""
","""event"",""trial"",""time""
""fullscreenexit"",""7"",""104978""
","","","505.4000000357628","","","21","13480","5594","&#9776;","elianto","#3366ff99"," "," ","1","+10","[1356.6000000238419]","1","0","1","","","","","","","",""
"call-function","35","349471","0.0-2.0-9.0","battery-v0.2","","""event"",""trial"",""time""
""fullscreenenter"",""1"",""1942""
""fullscreenexit"",""7"",""104978""
""blur"",""7"",""107150""
""focus"",""7"",""109737""
","""event"",""trial"",""time""
""blur"",""7"",""107150""
","""event"",""trial"",""time""
""focus"",""7"",""109737""
","""event"",""trial"",""time""
""fullscreenenter"",""1"",""1942""
","""event"",""trial"",""time""
""fullscreenexit"",""7"",""104978""
","","","","","","","","","","","","","","","","","","","","","","","","","","",""
"pit-instructions","36","457580","0.0-2.0-10.0","battery-v0.2","","""event"",""trial"",""time""
""fullscreenenter"",""1"",""1942""
""fullscreenexit"",""7"",""104978""
""blur"",""7"",""107150""
""focus"",""7"",""109737""
","""event"",""trial"",""time""
""blur"",""7"",""107150""
","""event"",""trial"",""time""
""focus"",""7"",""109737""
","""event"",""trial"",""time""
""fullscreenenter"",""1"",""1942""
","""event"",""trial"",""time""
""fullscreenexit"",""7"",""104978""
","","[{""page_index"":0,""viewing_time"":6432.100000023842},{""page_index"":1,""viewing_time"":6580.399999976158},{""page_index"":2,""viewing_time"":9120.199999988079},{""page_index"":3,""viewing_time"":77866.30000001192},{""page_index"":4,""viewing_time"":8108.5}]","108108.10000002384","","","","","","","","","","","","","","","","","","","","","","","",""
"pit-trial","37","461206","0.0-2.0-11.0-0.0","battery-v0.2","","""event"",""trial"",""time""
""fullscreenenter"",""1"",""1942""
""fullscreenexit"",""7"",""104978""
""blur"",""7"",""107150""
""focus"",""7"",""109737""
","""event"",""trial"",""time""
""blur"",""7"",""107150""
","""event"",""trial"",""time""
""focus"",""7"",""109737""
","""event"",""trial"",""time""
""fullscreenenter"",""1"",""1942""
","""event"",""trial"",""time""
""fullscreenexit"",""7"",""104978""
","","","750.3000000119209","","","21","13480","5594","&#9761;","elianto","#3366ff99","-1"," ","0","0","[1603.8999999761581]","1","0","2","","","","","","","",""
"pit-trial","38","464545","0.0-2.0-11.0-1.0","battery-v0.2","","""event"",""trial"",""time""
""fullscreenenter"",""1"",""1942""
""fullscreenexit"",""7"",""104978""
""blur"",""7"",""107150""
""focus"",""7"",""109737""
","""event"",""trial"",""time""
""blur"",""7"",""107150""
","""event"",""trial"",""time""
""focus"",""7"",""109737""
","""event"",""trial"",""time""
""fullscreenenter"",""1"",""1942""
","""event"",""trial"",""time""
""fullscreenexit"",""7"",""104978""
","","","482.60000002384186","","","21","13480","5594","&#9761;","elianto","#3366ff99","-1"," ","0","0","[1334.199999988079]","1","0","2","","","","","","","",""
"pit-trial","39","467835","0.0-2.0-11.0-2.0","battery-v0.2","","""event"",""trial"",""time""
""fullscreenenter"",""1"",""1942""
""fullscreenexit"",""7"",""104978""
""blur"",""7"",""107150""
""focus"",""7"",""109737""
","""event"",""trial"",""time""
""blur"",""7"",""107150""
","""event"",""trial"",""time""
""focus"",""7"",""109737""
","""event"",""trial"",""time""
""fullscreenenter"",""1"",""1942""
","""event"",""trial"",""time""
""fullscreenexit"",""7"",""104978""
","","","430.7000000476837","","","21","13480","5594","&#9761;","elianto","#3366ff99","-1"," ","0","0","[1284.4000000357628]","1","0","2","","","","","","","",""
"pit-trial","40","472703","0.0-2.0-11.0-3.0","battery-v0.2","","""event"",""trial"",""time""
""fullscreenenter"",""1"",""1942""
""fullscreenexit"",""7"",""104978""
""blur"",""7"",""107150""
""focus"",""7"",""109737""
","""event"",""trial"",""time""
""blur"",""7"",""107150""
","""event"",""trial"",""time""
""focus"",""7"",""109737""
","""event"",""trial"",""time""
""fullscreenenter"",""1"",""1942""
","""event"",""trial"",""time""
""fullscreenexit"",""7"",""104978""
","","","-1","","","21","13480","5594","&#9761;","elianto","#3366ff99","-1","-1","1","0","[]","0","0","2","","","","","","","",""
"pit-trial","41","477575","0.0-2.0-11.0-4.0","battery-v0.2","","""event"",""trial"",""time""
""fullscreenenter"",""1"",""1942""
""fullscreenexit"",""7"",""104978""
""blur"",""7"",""107150""
""focus"",""7"",""109737""
","""event"",""trial"",""time""
""blur"",""7"",""107150""
","""event"",""trial"",""time""
""focus"",""7"",""109737""
","""event"",""trial"",""time""
""fullscreenenter"",""1"",""1942""
","""event"",""trial"",""time""
""fullscreenexit"",""7"",""104978""
","","","-1","","","21","13480","5594","&#9761;","elianto","#3366ff99","-1","-1","1","+10","[]","0","0","2","","","","","","","",""
"pit-trial","42","481465","0.0-2.0-11.1-0.1","battery-v0.2","","""event"",""trial"",""time""
""fullscreenenter"",""1"",""1942""
""fullscreenexit"",""7"",""104978""
""blur"",""7"",""107150""
""focus"",""7"",""109737""
","""event"",""trial"",""time""
""blur"",""7"",""107150""
","""event"",""trial"",""time""
""focus"",""7"",""109737""
","""event"",""trial"",""time""
""fullscreenenter"",""1"",""1942""
","""event"",""trial"",""time""
""fullscreenexit"",""7"",""104978""
","","","1024","","","21","13480","5594","&#9761;","elianto","#3366ff99","-1"," ","0","0","[1875.6000000238419]","1","0","2","","","","","","","",""
"pit-trial","43","486345","0.0-2.0-11.1-1.1","battery-v0.2","","""event"",""trial"",""time""
""fullscreenenter"",""1"",""1942""
""fullscreenexit"",""7"",""104978""
""blur"",""7"",""107150""
""focus"",""7"",""109737""
","""event"",""trial"",""time""
""blur"",""7"",""107150""
","""event"",""trial"",""time""
""focus"",""7"",""109737""
","""event"",""trial"",""time""
""fullscreenenter"",""1"",""1942""
","""event"",""trial"",""time""
""fullscreenexit"",""7"",""104978""
","","","-1","","","21","13480","5594","&#9761;","elianto","#3366ff99","-1","-1","1","+10","[]","0","0","2","","","","","","","",""
"pit-trial","44","491214","0.0-2.0-11.1-2.1","battery-v0.2","","""event"",""trial"",""time""
""fullscreenenter"",""1"",""1942""
""fullscreenexit"",""7"",""104978""
""blur"",""7"",""107150""
""focus"",""7"",""109737""
","""event"",""trial"",""time""
""blur"",""7"",""107150""
","""event"",""trial"",""time""
""focus"",""7"",""109737""
","""event"",""trial"",""time""
""fullscreenenter"",""1"",""1942""
","""event"",""trial"",""time""
""fullscreenexit"",""7"",""104978""
","","","-1","","","21","13480","5594","&#9761;","elianto","#3366ff99","-1","-1","1","+10","[]","0","0","2","","","","","","","",""
"pit-trial","45","496083","0.0-2.0-11.1-3.1","battery-v0.2","","""event"",""trial"",""time""
""fullscreenenter"",""1"",""1942""
""fullscreenexit"",""7"",""104978""
""blur"",""7"",""107150""
""focus"",""7"",""109737""
","""event"",""trial"",""time""
""blur"",""7"",""107150""
","""event"",""trial"",""time""
""focus"",""7"",""109737""
","""event"",""trial"",""time""
""fullscreenenter"",""1"",""1942""
","""event"",""trial"",""time""
""fullscreenexit"",""7"",""104978""
","","","-1","","","21","13480","5594","&#9761;","elianto","#3366ff99","-1","-1","1","0","[]","0","0","2","","","","","","","",""
"pit-trial","46","500944","0.0-2.0-11.1-4.1","battery-v0.2","","""event"",""trial"",""time""
""fullscreenenter"",""1"",""1942""
""fullscreenexit"",""7"",""104978""
""blur"",""7"",""107150""
""focus"",""7"",""109737""
","""event"",""trial"",""time""
""blur"",""7"",""107150""
","""event"",""trial"",""time""
""focus"",""7"",""109737""
","""event"",""trial"",""time""
""fullscreenenter"",""1"",""1942""
","""event"",""trial"",""time""
""fullscreenexit"",""7"",""104978""
","","","-1","","","21","13480","5594","&#9761;","elianto","#3366ff99","-1","-1","1","+10","[]","0","0","2","","","","","","","",""
"pit-trial","47","505811","0.0-2.0-11.2-0.2","battery-v0.2","","""event"",""trial"",""time""
""fullscreenenter"",""1"",""1942""
""fullscreenexit"",""7"",""104978""
""blur"",""7"",""107150""
""focus"",""7"",""109737""
","""event"",""trial"",""time""
""blur"",""7"",""107150""
","""event"",""trial"",""time""
""focus"",""7"",""109737""
","""event"",""trial"",""time""
""fullscreenenter"",""1"",""1942""
","""event"",""trial"",""time""
""fullscreenexit"",""7"",""104978""
","","","-1","","","21","13480","5594","&#9761;","elianto","#3366ff99","-1","-1","1","+10","[]","0","0","2","","","","","","","",""
"pit-trial","48","510682","0.0-2.0-11.2-1.2","battery-v0.2","","""event"",""trial"",""time""
""fullscreenenter"",""1"",""1942""
""fullscreenexit"",""7"",""104978""
""blur"",""7"",""107150""
""focus"",""7"",""109737""
","""event"",""trial"",""time""
""blur"",""7"",""107150""
","""event"",""trial"",""time""
""focus"",""7"",""109737""
","""event"",""trial"",""time""
""fullscreenenter"",""1"",""1942""
","""event"",""trial"",""time""
""fullscreenexit"",""7"",""104978""
","","","-1","","","21","13480","5594","&#9761;","elianto","#3366ff99","-1","-1","1","+10","[]","0","0","2","","","","","","","",""
"pit-trial","49","515548","0.0-2.0-11.2-2.2","battery-v0.2","","""event"",""trial"",""time""
""fullscreenenter"",""1"",""1942""
""fullscreenexit"",""7"",""104978""
""blur"",""7"",""107150""
""focus"",""7"",""109737""
","""event"",""trial"",""time""
""blur"",""7"",""107150""
","""event"",""trial"",""time""
""focus"",""7"",""109737""
","""event"",""trial"",""time""
""fullscreenenter"",""1"",""1942""
","""event"",""trial"",""time""
""fullscreenexit"",""7"",""104978""
","","","-1","","","21","13480","5594","&#9761;","elianto","#3366ff99","-1","-1","1","+10","[]","0","0","2","","","","","","","",""
"pit-trial","50","520415","0.0-2.0-11.2-3.2","battery-v0.2","","""event"",""trial"",""time""
""fullscreenenter"",""1"",""1942""
""fullscreenexit"",""7"",""104978""
""blur"",""7"",""107150""
""focus"",""7"",""109737""
","""event"",""trial"",""time""
""blur"",""7"",""107150""
","""event"",""trial"",""time""
""focus"",""7"",""109737""
","""event"",""trial"",""time""
""fullscreenenter"",""1"",""1942""
","""event"",""trial"",""time""
""fullscreenexit"",""7"",""104978""
","","","-1","","","21","13480","5594","&#9761;","elianto","#3366ff99","-1","-1","1","0","[]","0","0","2","","","","","","","",""
"pit-trial","51","525280","0.0-2.0-11.2-4.2","battery-v0.2","","""event"",""trial"",""time""
""fullscreenenter"",""1"",""1942""
""fullscreenexit"",""7"",""104978""
""blur"",""7"",""107150""
""focus"",""7"",""109737""
","""event"",""trial"",""time""
""blur"",""7"",""107150""
","""event"",""trial"",""time""
""focus"",""7"",""109737""
","""event"",""trial"",""time""
""fullscreenenter"",""1"",""1942""
","""event"",""trial"",""time""
""fullscreenexit"",""7"",""104978""
","","","-1","","","21","13480","5594","&#9761;","elianto","#3366ff99","-1","-1","1","+10","[]","0","0","2","","","","","","","",""
"pit-trial","52","530159","0.0-2.0-11.3-0.3","battery-v0.2","","""event"",""trial"",""time""
""fullscreenenter"",""1"",""1942""
""fullscreenexit"",""7"",""104978""
""blur"",""7"",""107150""
""focus"",""7"",""109737""
","""event"",""trial"",""time""
""blur"",""7"",""107150""
","""event"",""trial"",""time""
""focus"",""7"",""109737""
","""event"",""trial"",""time""
""fullscreenenter"",""1"",""1942""
","""event"",""trial"",""time""
""fullscreenexit"",""7"",""104978""
","","","-1","","","21","13480","5594","&#9761;","elianto","#3366ff99","-1","-1","1","+10","[]","0","0","2","","","","","","","",""
"pit-trial","53","535035","0.0-2.0-11.3-1.3","battery-v0.2","","""event"",""trial"",""time""
""fullscreenenter"",""1"",""1942""
""fullscreenexit"",""7"",""104978""
""blur"",""7"",""107150""
""focus"",""7"",""109737""
","""event"",""trial"",""time""
""blur"",""7"",""107150""
","""event"",""trial"",""time""
""focus"",""7"",""109737""
","""event"",""trial"",""time""
""fullscreenenter"",""1"",""1942""
","""event"",""trial"",""time""
""fullscreenexit"",""7"",""104978""
","","","-1","","","21","13480","5594","&#9761;","elianto","#3366ff99","-1","-1","1","+10","[]","0","0","2","","","","","","","",""
"pit-trial","54","539912","0.0-2.0-11.3-2.3","battery-v0.2","","""event"",""trial"",""time""
""fullscreenenter"",""1"",""1942""
""fullscreenexit"",""7"",""104978""
""blur"",""7"",""107150""
""focus"",""7"",""109737""
","""event"",""trial"",""time""
""blur"",""7"",""107150""
","""event"",""trial"",""time""
""focus"",""7"",""109737""
","""event"",""trial"",""time""
""fullscreenenter"",""1"",""1942""
","""event"",""trial"",""time""
""fullscreenexit"",""7"",""104978""
","","","-1","","","21","13480","5594","&#9761;","elianto","#3366ff99","-1","-1","1","+10","[]","0","0","2","","","","","","","",""
"pit-trial","55","544773","0.0-2.0-11.3-3.3","battery-v0.2","","""event"",""trial"",""time""
""fullscreenenter"",""1"",""1942""
""fullscreenexit"",""7"",""104978""
""blur"",""7"",""107150""
""focus"",""7"",""109737""
","""event"",""trial"",""time""
""blur"",""7"",""107150""
","""event"",""trial"",""time""
""focus"",""7"",""109737""
","""event"",""trial"",""time""
""fullscreenenter"",""1"",""1942""
","""event"",""trial"",""time""
""fullscreenexit"",""7"",""104978""
","","","-1","","","21","13480","5594","&#9761;","elianto","#3366ff99","-1","-1","1","0","[]","0","0","2","","","","","","","",""
"pit-trial","56","549640","0.0-2.0-11.3-4.3","battery-v0.2","","""event"",""trial"",""time""
""fullscreenenter"",""1"",""1942""
""fullscreenexit"",""7"",""104978""
""blur"",""7"",""107150""
""focus"",""7"",""109737""
","""event"",""trial"",""time""
""blur"",""7"",""107150""
","""event"",""trial"",""time""
""focus"",""7"",""109737""
","""event"",""trial"",""time""
""fullscreenenter"",""1"",""1942""
","""event"",""trial"",""time""
""fullscreenexit"",""7"",""104978""
","","","-1","","","21","13480","5594","&#9761;","elianto","#3366ff99","-1","-1","1","+10","[]","0","0","2","","","","","","","",""
"call-function","57","549643","0.0-2.0-12.0","battery-v0.2","","""event"",""trial"",""time""
""fullscreenenter"",""1"",""1942""
""fullscreenexit"",""7"",""104978""
""blur"",""7"",""107150""
""focus"",""7"",""109737""
","""event"",""trial"",""time""
""blur"",""7"",""107150""
","""event"",""trial"",""time""
""focus"",""7"",""109737""
","""event"",""trial"",""time""
""fullscreenenter"",""1"",""1942""
","""event"",""trial"",""time""
""fullscreenexit"",""7"",""104978""
","","","","","","","","","","","","","","","","","","","","","","","","","","",""
"pit-instructions","58","582028","0.0-2.0-13.0","battery-v0.2","","""event"",""trial"",""time""
""fullscreenenter"",""1"",""1942""
""fullscreenexit"",""7"",""104978""
""blur"",""7"",""107150""
""focus"",""7"",""109737""
","""event"",""trial"",""time""
""blur"",""7"",""107150""
","""event"",""trial"",""time""
""focus"",""7"",""109737""
","""event"",""trial"",""time""
""fullscreenenter"",""1"",""1942""
","""event"",""trial"",""time""
""fullscreenexit"",""7"",""104978""
","","[{""page_index"":0,""viewing_time"":5583.699999988079},{""page_index"":1,""viewing_time"":7040.600000023842},{""page_index"":2,""viewing_time"":3349.699999988079},{""page_index"":3,""viewing_time"":10860.699999988079},{""page_index"":4,""viewing_time"":5548.800000011921}]","32384.100000023842","","","","","","","","","","","","","","","","","","","","","","","",""
"pit-trial","59","586896","0.0-2.0-14.0-0.0","battery-v0.2","","""event"",""trial"",""time""
""fullscreenenter"",""1"",""1942""
""fullscreenexit"",""7"",""104978""
""blur"",""7"",""107150""
""focus"",""7"",""109737""
","""event"",""trial"",""time""
""blur"",""7"",""107150""
","""event"",""trial"",""time""
""focus"",""7"",""109737""
","""event"",""trial"",""time""
""fullscreenenter"",""1"",""1942""
","""event"",""trial"",""time""
""fullscreenexit"",""7"",""104978""
","","","-1","","","21","13480","5594","&#9826;","elianto","#f73b6a7A","-1","-1","1","0","[]","0","0","3","","","","","","","",""
"pit-trial","60","590316","0.0-2.0-14.0-1.0","battery-v0.2","","""event"",""trial"",""time""
""fullscreenenter"",""1"",""1942""
""fullscreenexit"",""7"",""104978""
""blur"",""7"",""107150""
""focus"",""7"",""109737""
","""event"",""trial"",""time""
""blur"",""7"",""107150""
","""event"",""trial"",""time""
""focus"",""7"",""109737""
","""event"",""trial"",""time""
""fullscreenenter"",""1"",""1942""
","""event"",""trial"",""time""
""fullscreenexit"",""7"",""104978""
","","","547.5","","","21","13480","5594","&#9826;","elianto","#f73b6a7A","-1"," ","0","-10","[1401.1000000238419]","1","0","3","","","","","","","",""
"pit-trial","61","595186","0.0-2.0-14.0-2.0","battery-v0.2","","""event"",""trial"",""time""
""fullscreenenter"",""1"",""1942""
""fullscreenexit"",""7"",""104978""
""blur"",""7"",""107150""
""focus"",""7"",""109737""
","""event"",""trial"",""time""
""blur"",""7"",""107150""
","""event"",""trial"",""time""
""focus"",""7"",""109737""
","""event"",""trial"",""time""
""fullscreenenter"",""1"",""1942""
","""event"",""trial"",""time""
""fullscreenexit"",""7"",""104978""
","","","-1","","","21","13480","5594","&#9826;","elianto","#f73b6a7A","-1","-1","1","0","[]","0","0","3","","","","","","","",""
"pit-trial","62","600056","0.0-2.0-14.0-3.0","battery-v0.2","","""event"",""trial"",""time""
""fullscreenenter"",""1"",""1942""
""fullscreenexit"",""7"",""104978""
""blur"",""7"",""107150""
""focus"",""7"",""109737""
","""event"",""trial"",""time""
""blur"",""7"",""107150""
","""event"",""trial"",""time""
""focus"",""7"",""109737""
","""event"",""trial"",""time""
""fullscreenenter"",""1"",""1942""
","""event"",""trial"",""time""
""fullscreenexit"",""7"",""104978""
","","","-1","","","21","13480","5594","&#9826;","elianto","#f73b6a7A","-1","-1","1","-10","[]","0","0","3","","","","","","","",""
"pit-trial","63","604926","0.0-2.0-14.0-4.0","battery-v0.2","","""event"",""trial"",""time""
""fullscreenenter"",""1"",""1942""
""fullscreenexit"",""7"",""104978""
""blur"",""7"",""107150""
""focus"",""7"",""109737""
","""event"",""trial"",""time""
""blur"",""7"",""107150""
","""event"",""trial"",""time""
""focus"",""7"",""109737""
","""event"",""trial"",""time""
""fullscreenenter"",""1"",""1942""
","""event"",""trial"",""time""
""fullscreenexit"",""7"",""104978""
","","","-1","","","21","13480","5594","&#9826;","elianto","#f73b6a7A","-1","-1","1","0","[]","0","0","3","","","","","","","",""
"pit-trial","64","609806","0.0-2.0-14.1-0.1","battery-v0.2","","""event"",""trial"",""time""
""fullscreenenter"",""1"",""1942""
""fullscreenexit"",""7"",""104978""
""blur"",""7"",""107150""
""focus"",""7"",""109737""
","""event"",""trial"",""time""
""blur"",""7"",""107150""
","""event"",""trial"",""time""
""focus"",""7"",""109737""
","""event"",""trial"",""time""
""fullscreenenter"",""1"",""1942""
","""event"",""trial"",""time""
""fullscreenexit"",""7"",""104978""
","","","-1","","","21","13480","5594","&#9826;","elianto","#f73b6a7A","-1","-1","1","0","[]","0","0","3","","","","","","","",""
"pit-trial","65","614675","0.0-2.0-14.1-1.1","battery-v0.2","","""event"",""trial"",""time""
""fullscreenenter"",""1"",""1942""
""fullscreenexit"",""7"",""104978""
""blur"",""7"",""107150""
""focus"",""7"",""109737""
","""event"",""trial"",""time""
""blur"",""7"",""107150""
","""event"",""trial"",""time""
""focus"",""7"",""109737""
","""event"",""trial"",""time""
""fullscreenenter"",""1"",""1942""
","""event"",""trial"",""time""
""fullscreenexit"",""7"",""104978""
","","","-1","","","21","13480","5594","&#9826;","elianto","#f73b6a7A","-1","-1","1","0","[]","0","0","3","","","","","","","",""
"pit-trial","66","619534","0.0-2.0-14.1-2.1","battery-v0.2","","""event"",""trial"",""time""
""fullscreenenter"",""1"",""1942""
""fullscreenexit"",""7"",""104978""
""blur"",""7"",""107150""
""focus"",""7"",""109737""
","""event"",""trial"",""time""
""blur"",""7"",""107150""
","""event"",""trial"",""time""
""focus"",""7"",""109737""
","""event"",""trial"",""time""
""fullscreenenter"",""1"",""1942""
","""event"",""trial"",""time""
""fullscreenexit"",""7"",""104978""
","","","-1","","","21","13480","5594","&#9826;","elianto","#f73b6a7A","-1","-1","1","0","[]","0","0","3","","","","","","","",""
"pit-trial","67","624412","0.0-2.0-14.1-3.1","battery-v0.2","","""event"",""trial"",""time""
""fullscreenenter"",""1"",""1942""
""fullscreenexit"",""7"",""104978""
""blur"",""7"",""107150""
""focus"",""7"",""109737""
","""event"",""trial"",""time""
""blur"",""7"",""107150""
","""event"",""trial"",""time""
""focus"",""7"",""109737""
","""event"",""trial"",""time""
""fullscreenenter"",""1"",""1942""
","""event"",""trial"",""time""
""fullscreenexit"",""7"",""104978""
","","","-1","","","21","13480","5594","&#9826;","elianto","#f73b6a7A","-1","-1","1","-10","[]","0","0","3","","","","","","","",""
"pit-trial","68","629287","0.0-2.0-14.1-4.1","battery-v0.2","","""event"",""trial"",""time""
""fullscreenenter"",""1"",""1942""
""fullscreenexit"",""7"",""104978""
""blur"",""7"",""107150""
""focus"",""7"",""109737""
","""event"",""trial"",""time""
""blur"",""7"",""107150""
","""event"",""trial"",""time""
""focus"",""7"",""109737""
","""event"",""trial"",""time""
""fullscreenenter"",""1"",""1942""
","""event"",""trial"",""time""
""fullscreenexit"",""7"",""104978""
","","","-1","","","21","13480","5594","&#9826;","elianto","#f73b6a7A","-1","-1","1","0","[]","0","0","3","","","","","","","",""
"pit-trial","69","634146","0.0-2.0-14.2-0.2","battery-v0.2","","""event"",""trial"",""time""
""fullscreenenter"",""1"",""1942""
""fullscreenexit"",""7"",""104978""
""blur"",""7"",""107150""
""focus"",""7"",""109737""
","""event"",""trial"",""time""
""blur"",""7"",""107150""
","""event"",""trial"",""time""
""focus"",""7"",""109737""
","""event"",""trial"",""time""
""fullscreenenter"",""1"",""1942""
","""event"",""trial"",""time""
""fullscreenexit"",""7"",""104978""
","","","-1","","","21","13480","5594","&#9826;","elianto","#f73b6a7A","-1","-1","1","0","[]","0","0","3","","","","","","","",""
"pit-trial","70","639008","0.0-2.0-14.2-1.2","battery-v0.2","","""event"",""trial"",""time""
""fullscreenenter"",""1"",""1942""
""fullscreenexit"",""7"",""104978""
""blur"",""7"",""107150""
""focus"",""7"",""109737""
""blur"",""71"",""642381""
""focus"",""71"",""643886""
","""event"",""trial"",""time""
""blur"",""7"",""107150""
""blur"",""71"",""642381""
","""event"",""trial"",""time""
""focus"",""7"",""109737""
""focus"",""71"",""643886""
","""event"",""trial"",""time""
""fullscreenenter"",""1"",""1942""
","""event"",""trial"",""time""
""fullscreenexit"",""7"",""104978""
","","","-1","","","21","13480","5594","&#9826;","elianto","#f73b6a7A","-1","-1","1","0","[]","0","0","3","","","","","","","",""
"pit-trial","71","643893","0.0-2.0-14.2-2.2","battery-v0.2","","""event"",""trial"",""time""
""fullscreenenter"",""1"",""1942""
""fullscreenexit"",""7"",""104978""
""blur"",""7"",""107150""
""focus"",""7"",""109737""
""blur"",""71"",""642381""
""focus"",""71"",""643886""
","""event"",""trial"",""time""
""blur"",""7"",""107150""
""blur"",""71"",""642381""
","""event"",""trial"",""time""
""focus"",""7"",""109737""
""focus"",""71"",""643886""
","""event"",""trial"",""time""
""fullscreenenter"",""1"",""1942""
","""event"",""trial"",""time""
""fullscreenexit"",""7"",""104978""
","","","-1","","","21","13480","5594","&#9826;","elianto","#f73b6a7A","-1","-1","1","0","[]","0","0","3","","","","","","","",""
"pit-trial","72","648751","0.0-2.0-14.2-3.2","battery-v0.2","","""event"",""trial"",""time""
""fullscreenenter"",""1"",""1942""
""fullscreenexit"",""7"",""104978""
""blur"",""7"",""107150""
""focus"",""7"",""109737""
""blur"",""71"",""642381""
""focus"",""71"",""643886""
""blur"",""73"",""649452""
""focus"",""73"",""651262""
","""event"",""trial"",""time""
""blur"",""7"",""107150""
""blur"",""71"",""642381""
""blur"",""73"",""649452""
","""event"",""trial"",""time""
""focus"",""7"",""109737""
""focus"",""71"",""643886""
""focus"",""73"",""651262""
","""event"",""trial"",""time""
""fullscreenenter"",""1"",""1942""
","""event"",""trial"",""time""
""fullscreenexit"",""7"",""104978""
","","","-1","","","21","13480","5594","&#9826;","elianto","#f73b6a7A","-1","-1","1","-10","[]","0","0","3","","","","","","","",""
"pit-trial","73","653615","0.0-2.0-14.2-4.2","battery-v0.2","","""event"",""trial"",""time""
""fullscreenenter"",""1"",""1942""
""fullscreenexit"",""7"",""104978""
""blur"",""7"",""107150""
""focus"",""7"",""109737""
""blur"",""71"",""642381""
""focus"",""71"",""643886""
""blur"",""73"",""649452""
""focus"",""73"",""651262""
","""event"",""trial"",""time""
""blur"",""7"",""107150""
""blur"",""71"",""642381""
""blur"",""73"",""649452""
","""event"",""trial"",""time""
""focus"",""7"",""109737""
""focus"",""71"",""643886""
""focus"",""73"",""651262""
","""event"",""trial"",""time""
""fullscreenenter"",""1"",""1942""
","""event"",""trial"",""time""
""fullscreenexit"",""7"",""104978""
","","","-1","","","21","13480","5594","&#9826;","elianto","#f73b6a7A","-1","-1","1","0","[]","0","0","3","","","","","","","",""
"pit-trial","74","658488","0.0-2.0-14.3-0.3","battery-v0.2","","""event"",""trial"",""time""
""fullscreenenter"",""1"",""1942""
""fullscreenexit"",""7"",""104978""
""blur"",""7"",""107150""
""focus"",""7"",""109737""
""blur"",""71"",""642381""
""focus"",""71"",""643886""
""blur"",""73"",""649452""
""focus"",""73"",""651262""
","""event"",""trial"",""time""
""blur"",""7"",""107150""
""blur"",""71"",""642381""
""blur"",""73"",""649452""
","""event"",""trial"",""time""
""focus"",""7"",""109737""
""focus"",""71"",""643886""
""focus"",""73"",""651262""
","""event"",""trial"",""time""
""fullscreenenter"",""1"",""1942""
","""event"",""trial"",""time""
""fullscreenexit"",""7"",""104978""
","","","-1","","","21","13480","5594","&#9826;","elianto","#f73b6a7A","-1","-1","1","0","[]","0","0","3","","","","","","","",""
"pit-trial","75","663352","0.0-2.0-14.3-1.3","battery-v0.2","","""event"",""trial"",""time""
""fullscreenenter"",""1"",""1942""
""fullscreenexit"",""7"",""104978""
""blur"",""7"",""107150""
""focus"",""7"",""109737""
""blur"",""71"",""642381""
""focus"",""71"",""643886""
""blur"",""73"",""649452""
""focus"",""73"",""651262""
","""event"",""trial"",""time""
""blur"",""7"",""107150""
""blur"",""71"",""642381""
""blur"",""73"",""649452""
","""event"",""trial"",""time""
""focus"",""7"",""109737""
""focus"",""71"",""643886""
""focus"",""73"",""651262""
","""event"",""trial"",""time""
""fullscreenenter"",""1"",""1942""
","""event"",""trial"",""time""
""fullscreenexit"",""7"",""104978""
","","","-1","","","21","13480","5594","&#9826;","elianto","#f73b6a7A","-1","-1","1","0","[]","0","0","3","","","","","","","",""
"pit-trial","76","668215","0.0-2.0-14.3-2.3","battery-v0.2","","""event"",""trial"",""time""
""fullscreenenter"",""1"",""1942""
""fullscreenexit"",""7"",""104978""
""blur"",""7"",""107150""
""focus"",""7"",""109737""
""blur"",""71"",""642381""
""focus"",""71"",""643886""
""blur"",""73"",""649452""
""focus"",""73"",""651262""
","""event"",""trial"",""time""
""blur"",""7"",""107150""
""blur"",""71"",""642381""
""blur"",""73"",""649452""
","""event"",""trial"",""time""
""focus"",""7"",""109737""
""focus"",""71"",""643886""
""focus"",""73"",""651262""
","""event"",""trial"",""time""
""fullscreenenter"",""1"",""1942""
","""event"",""trial"",""time""
""fullscreenexit"",""7"",""104978""
","","","-1","","","21","13480","5594","&#9826;","elianto","#f73b6a7A","-1","-1","1","0","[]","0","0","3","","","","","","","",""
"pit-trial","77","673075","0.0-2.0-14.3-3.3","battery-v0.2","","""event"",""trial"",""time""
""fullscreenenter"",""1"",""1942""
""fullscreenexit"",""7"",""104978""
""blur"",""7"",""107150""
""focus"",""7"",""109737""
""blur"",""71"",""642381""
""focus"",""71"",""643886""
""blur"",""73"",""649452""
""focus"",""73"",""651262""
""blur"",""78"",""676821""
","""event"",""trial"",""time""
""blur"",""7"",""107150""
""blur"",""71"",""642381""
""blur"",""73"",""649452""
""blur"",""78"",""676821""
","""event"",""trial"",""time""
""focus"",""7"",""109737""
""focus"",""71"",""643886""
""focus"",""73"",""651262""
","""event"",""trial"",""time""
""fullscreenenter"",""1"",""1942""
","""event"",""trial"",""time""
""fullscreenexit"",""7"",""104978""
","","","-1","","","21","13480","5594","&#9826;","elianto","#f73b6a7A","-1","-1","1","-10","[]","0","0","3","","","","","","","",""
"pit-trial","78","678741","0.0-2.0-14.3-4.3","battery-v0.2","","""event"",""trial"",""time""
""fullscreenenter"",""1"",""1942""
""fullscreenexit"",""7"",""104978""
""blur"",""7"",""107150""
""focus"",""7"",""109737""
""blur"",""71"",""642381""
""focus"",""71"",""643886""
""blur"",""73"",""649452""
""focus"",""73"",""651262""
""blur"",""78"",""676821""
","""event"",""trial"",""time""
""blur"",""7"",""107150""
""blur"",""71"",""642381""
""blur"",""73"",""649452""
""blur"",""78"",""676821""
","""event"",""trial"",""time""
""focus"",""7"",""109737""
""focus"",""71"",""643886""
""focus"",""73"",""651262""
","""event"",""trial"",""time""
""fullscreenenter"",""1"",""1942""
","""event"",""trial"",""time""
""fullscreenexit"",""7"",""104978""
","","","-1","","","21","13480","5594","&#9826;","elianto","#f73b6a7A","-1","-1","1","0","[]","0","0","3","","","","","","","",""
"call-function","79","678746","0.0-2.0-15.0","battery-v0.2","","""event"",""trial"",""time""
""fullscreenenter"",""1"",""1942""
""fullscreenexit"",""7"",""104978""
""blur"",""7"",""107150""
""focus"",""7"",""109737""
""blur"",""71"",""642381""
""focus"",""71"",""643886""
""blur"",""73"",""649452""
""focus"",""73"",""651262""
""blur"",""78"",""676821""
""focus"",""80"",""700226""
","""event"",""trial"",""time""
""blur"",""7"",""107150""
""blur"",""71"",""642381""
""blur"",""73"",""649452""
""blur"",""78"",""676821""
","""event"",""trial"",""time""
""focus"",""7"",""109737""
""focus"",""71"",""643886""
""focus"",""73"",""651262""
""focus"",""80"",""700226""
","""event"",""trial"",""time""
""fullscreenenter"",""1"",""1942""
","""event"",""trial"",""time""
""fullscreenexit"",""7"",""104978""
","","","","","","","","","","","","","","","","","","","","","","","","","","",""
"pit-instructions","80","723434","0.0-2.0-16.0","battery-v0.2","","""event"",""trial"",""time""
""fullscreenenter"",""1"",""1942""
""fullscreenexit"",""7"",""104978""
""blur"",""7"",""107150""
""focus"",""7"",""109737""
""blur"",""71"",""642381""
""focus"",""71"",""643886""
""blur"",""73"",""649452""
""focus"",""73"",""651262""
""blur"",""78"",""676821""
""focus"",""80"",""700226""
","""event"",""trial"",""time""
""blur"",""7"",""107150""
""blur"",""71"",""642381""
""blur"",""73"",""649452""
""blur"",""78"",""676821""
","""event"",""trial"",""time""
""focus"",""7"",""109737""
""focus"",""71"",""643886""
""focus"",""73"",""651262""
""focus"",""80"",""700226""
","""event"",""trial"",""time""
""fullscreenenter"",""1"",""1942""
","""event"",""trial"",""time""
""fullscreenexit"",""7"",""104978""
","","[{""page_index"":0,""viewing_time"":23560.700000047684},{""page_index"":1,""viewing_time"":11865.299999952316},{""page_index"":2,""viewing_time"":4230.300000011921},{""page_index"":3,""viewing_time"":5029.800000011921}]","44686.90000003576","","","","","","","","","","","","","","","","","","","","","","","",""
"pit-trial","81","726732","0.0-2.0-17.0-0.0","battery-v0.2","","""event"",""trial"",""time""
""fullscreenenter"",""1"",""1942""
""fullscreenexit"",""7"",""104978""
""blur"",""7"",""107150""
""focus"",""7"",""109737""
""blur"",""71"",""642381""
""focus"",""71"",""643886""
""blur"",""73"",""649452""
""focus"",""73"",""651262""
""blur"",""78"",""676821""
""focus"",""80"",""700226""
","""event"",""trial"",""time""
""blur"",""7"",""107150""
""blur"",""71"",""642381""
""blur"",""73"",""649452""
""blur"",""78"",""676821""
","""event"",""trial"",""time""
""focus"",""7"",""109737""
""focus"",""71"",""643886""
""focus"",""73"",""651262""
""focus"",""80"",""700226""
","""event"",""trial"",""time""
""fullscreenenter"",""1"",""1942""
","""event"",""trial"",""time""
""fullscreenexit"",""7"",""104978""
","","","432.30000001192093","","","21","13480","5594","&#9789;","elianto","#f73b6a7A"," "," ","1","0","[1283.2999999523163]","1","0","4","","","","","","","",""
"pit-trial","82","731601","0.0-2.0-17.0-1.0","battery-v0.2","","""event"",""trial"",""time""
""fullscreenenter"",""1"",""1942""
""fullscreenexit"",""7"",""104978""
""blur"",""7"",""107150""
""focus"",""7"",""109737""
""blur"",""71"",""642381""
""focus"",""71"",""643886""
""blur"",""73"",""649452""
""focus"",""73"",""651262""
""blur"",""78"",""676821""
""focus"",""80"",""700226""
","""event"",""trial"",""time""
""blur"",""7"",""107150""
""blur"",""71"",""642381""
""blur"",""73"",""649452""
""blur"",""78"",""676821""
","""event"",""trial"",""time""
""focus"",""7"",""109737""
""focus"",""71"",""643886""
""focus"",""73"",""651262""
""focus"",""80"",""700226""
","""event"",""trial"",""time""
""fullscreenenter"",""1"",""1942""
","""event"",""trial"",""time""
""fullscreenexit"",""7"",""104978""
","","","-1","","","21","13480","5594","&#9789;","elianto","#f73b6a7A"," ","-1","0","-10","[]","0","0","4","","","","","","","",""
"pit-trial","83","735062","0.0-2.0-17.0-2.0","battery-v0.2","","""event"",""trial"",""time""
""fullscreenenter"",""1"",""1942""
""fullscreenexit"",""7"",""104978""
""blur"",""7"",""107150""
""focus"",""7"",""109737""
""blur"",""71"",""642381""
""focus"",""71"",""643886""
""blur"",""73"",""649452""
""focus"",""73"",""651262""
""blur"",""78"",""676821""
""focus"",""80"",""700226""
","""event"",""trial"",""time""
""blur"",""7"",""107150""
""blur"",""71"",""642381""
""blur"",""73"",""649452""
""blur"",""78"",""676821""
","""event"",""trial"",""time""
""focus"",""7"",""109737""
""focus"",""71"",""643886""
""focus"",""73"",""651262""
""focus"",""80"",""700226""
","""event"",""trial"",""time""
""fullscreenenter"",""1"",""1942""
","""event"",""trial"",""time""
""fullscreenexit"",""7"",""104978""
","","","595.3000000119209","","","21","13480","5594","&#9789;","elianto","#f73b6a7A"," "," ","1","0","[1448.6000000238419]","1","0","4","","","","","","","",""
"pit-trial","84","738231","0.0-2.0-17.0-3.0","battery-v0.2","","""event"",""trial"",""time""
""fullscreenenter"",""1"",""1942""
""fullscreenexit"",""7"",""104978""
""blur"",""7"",""107150""
""focus"",""7"",""109737""
""blur"",""71"",""642381""
""focus"",""71"",""643886""
""blur"",""73"",""649452""
""focus"",""73"",""651262""
""blur"",""78"",""676821""
""focus"",""80"",""700226""
","""event"",""trial"",""time""
""blur"",""7"",""107150""
""blur"",""71"",""642381""
""blur"",""73"",""649452""
""blur"",""78"",""676821""
","""event"",""trial"",""time""
""focus"",""7"",""109737""
""focus"",""71"",""643886""
""focus"",""73"",""651262""
""focus"",""80"",""700226""
","""event"",""trial"",""time""
""fullscreenenter"",""1"",""1942""
","""event"",""trial"",""time""
""fullscreenexit"",""7"",""104978""
","","","305.89999997615814","","","21","13480","5594","&#9789;","elianto","#f73b6a7A"," "," ","1","-10","[1157.1000000238419]","1","0","4","","","","","","","",""
"pit-trial","85","741521","0.0-2.0-17.0-4.0","battery-v0.2","","""event"",""trial"",""time""
""fullscreenenter"",""1"",""1942""
""fullscreenexit"",""7"",""104978""
""blur"",""7"",""107150""
""focus"",""7"",""109737""
""blur"",""71"",""642381""
""focus"",""71"",""643886""
""blur"",""73"",""649452""
""focus"",""73"",""651262""
""blur"",""78"",""676821""
""focus"",""80"",""700226""
","""event"",""trial"",""time""
""blur"",""7"",""107150""
""blur"",""71"",""642381""
""blur"",""73"",""649452""
""blur"",""78"",""676821""
","""event"",""trial"",""time""
""focus"",""7"",""109737""
""focus"",""71"",""643886""
""focus"",""73"",""651262""
""focus"",""80"",""700226""
","""event"",""trial"",""time""
""fullscreenenter"",""1"",""1942""
","""event"",""trial"",""time""
""fullscreenexit"",""7"",""104978""
","","","421.30000001192093","","","21","13480","5594","&#9789;","elianto","#f73b6a7A"," "," ","1","0","[1274.800000011921]","1","0","4","","","","","","","",""
"pit-trial","86","744812","0.0-2.0-17.1-0.1","battery-v0.2","","""event"",""trial"",""time""
""fullscreenenter"",""1"",""1942""
""fullscreenexit"",""7"",""104978""
""blur"",""7"",""107150""
""focus"",""7"",""109737""
""blur"",""71"",""642381""
""focus"",""71"",""643886""
""blur"",""73"",""649452""
""focus"",""73"",""651262""
""blur"",""78"",""676821""
""focus"",""80"",""700226""
","""event"",""trial"",""time""
""blur"",""7"",""107150""
""blur"",""71"",""642381""
""blur"",""73"",""649452""
""blur"",""78"",""676821""
","""event"",""trial"",""time""
""focus"",""7"",""109737""
""focus"",""71"",""643886""
""focus"",""73"",""651262""
""focus"",""80"",""700226""
","""event"",""trial"",""time""
""fullscreenenter"",""1"",""1942""
","""event"",""trial"",""time""
""fullscreenexit"",""7"",""104978""
","","","433.10000002384186","","","21","13480","5594","&#9789;","elianto","#f73b6a7A"," "," ","1","0","[1283.199999988079]","1","0","4","","","","","","","",""
"pit-trial","87","748071","0.0-2.0-17.1-1.1","battery-v0.2","","""event"",""trial"",""time""
""fullscreenenter"",""1"",""1942""
""fullscreenexit"",""7"",""104978""
""blur"",""7"",""107150""
""focus"",""7"",""109737""
""blur"",""71"",""642381""
""focus"",""71"",""643886""
""blur"",""73"",""649452""
""focus"",""73"",""651262""
""blur"",""78"",""676821""
""focus"",""80"",""700226""
","""event"",""trial"",""time""
""blur"",""7"",""107150""
""blur"",""71"",""642381""
""blur"",""73"",""649452""
""blur"",""78"",""676821""
","""event"",""trial"",""time""
""focus"",""7"",""109737""
""focus"",""71"",""643886""
""focus"",""73"",""651262""
""focus"",""80"",""700226""
","""event"",""trial"",""time""
""fullscreenenter"",""1"",""1942""
","""event"",""trial"",""time""
""fullscreenexit"",""7"",""104978""
","","","399.19999998807907","","","21","13480","5594","&#9789;","elianto","#f73b6a7A"," "," ","1","0","[1252.4000000357628]","1","0","4","","","","","","","",""
"pit-trial","88","751361","0.0-2.0-17.1-2.1","battery-v0.2","","""event"",""trial"",""time""
""fullscreenenter"",""1"",""1942""
""fullscreenexit"",""7"",""104978""
""blur"",""7"",""107150""
""focus"",""7"",""109737""
""blur"",""71"",""642381""
""focus"",""71"",""643886""
""blur"",""73"",""649452""
""focus"",""73"",""651262""
""blur"",""78"",""676821""
""focus"",""80"",""700226""
","""event"",""trial"",""time""
""blur"",""7"",""107150""
""blur"",""71"",""642381""
""blur"",""73"",""649452""
""blur"",""78"",""676821""
","""event"",""trial"",""time""
""focus"",""7"",""109737""
""focus"",""71"",""643886""
""focus"",""73"",""651262""
""focus"",""80"",""700226""
","""event"",""trial"",""time""
""fullscreenenter"",""1"",""1942""
","""event"",""trial"",""time""
""fullscreenexit"",""7"",""104978""
","","","428.5","","","21","13480","5594","&#9789;","elianto","#f73b6a7A"," "," ","1","0","[1282.8999999761581]","1","0","4","","","","","","","",""
"pit-trial","89","754567","0.0-2.0-17.1-3.1","battery-v0.2","","""event"",""trial"",""time""
""fullscreenenter"",""1"",""1942""
""fullscreenexit"",""7"",""104978""
""blur"",""7"",""107150""
""focus"",""7"",""109737""
""blur"",""71"",""642381""
""focus"",""71"",""643886""
""blur"",""73"",""649452""
""focus"",""73"",""651262""
""blur"",""78"",""676821""
""focus"",""80"",""700226""
","""event"",""trial"",""time""
""blur"",""7"",""107150""
""blur"",""71"",""642381""
""blur"",""73"",""649452""
""blur"",""78"",""676821""
","""event"",""trial"",""time""
""focus"",""7"",""109737""
""focus"",""71"",""643886""
""focus"",""73"",""651262""
""focus"",""80"",""700226""
","""event"",""trial"",""time""
""fullscreenenter"",""1"",""1942""
","""event"",""trial"",""time""
""fullscreenexit"",""7"",""104978""
","","","345.80000001192093","","","21","13480","5594","&#9789;","elianto","#f73b6a7A"," "," ","1","-10","[1199]","1","0","4","","","","","","","",""
"pit-trial","90","757816","0.0-2.0-17.1-4.1","battery-v0.2","","""event"",""trial"",""time""
""fullscreenenter"",""1"",""1942""
""fullscreenexit"",""7"",""104978""
""blur"",""7"",""107150""
""focus"",""7"",""109737""
""blur"",""71"",""642381""
""focus"",""71"",""643886""
""blur"",""73"",""649452""
""focus"",""73"",""651262""
""blur"",""78"",""676821""
""focus"",""80"",""700226""
","""event"",""trial"",""time""
""blur"",""7"",""107150""
""blur"",""71"",""642381""
""blur"",""73"",""649452""
""blur"",""78"",""676821""
","""event"",""trial"",""time""
""focus"",""7"",""109737""
""focus"",""71"",""643886""
""focus"",""73"",""651262""
""focus"",""80"",""700226""
","""event"",""trial"",""time""
""fullscreenenter"",""1"",""1942""
","""event"",""trial"",""time""
""fullscreenexit"",""7"",""104978""
","","","391","","","21","13480","5594","&#9789;","elianto","#f73b6a7A"," "," ","1","0","[1242.8999999761581]","1","0","4","","","","","","","",""
"pit-trial","91","761080","0.0-2.0-17.2-0.2","battery-v0.2","","""event"",""trial"",""time""
""fullscreenenter"",""1"",""1942""
""fullscreenexit"",""7"",""104978""
""blur"",""7"",""107150""
""focus"",""7"",""109737""
""blur"",""71"",""642381""
""focus"",""71"",""643886""
""blur"",""73"",""649452""
""focus"",""73"",""651262""
""blur"",""78"",""676821""
""focus"",""80"",""700226""
","""event"",""trial"",""time""
""blur"",""7"",""107150""
""blur"",""71"",""642381""
""blur"",""73"",""649452""
""blur"",""78"",""676821""
","""event"",""trial"",""time""
""focus"",""7"",""109737""
""focus"",""71"",""643886""
""focus"",""73"",""651262""
""focus"",""80"",""700226""
","""event"",""trial"",""time""
""fullscreenenter"",""1"",""1942""
","""event"",""trial"",""time""
""fullscreenexit"",""7"",""104978""
","","","403.5","","","21","13480","5594","&#9789;","elianto","#f73b6a7A"," "," ","1","0","[1256]","1","0","4","","","","","","","",""
"pit-trial","92","765949","0.0-2.0-17.2-1.2","battery-v0.2","","""event"",""trial"",""time""
""fullscreenenter"",""1"",""1942""
""fullscreenexit"",""7"",""104978""
""blur"",""7"",""107150""
""focus"",""7"",""109737""
""blur"",""71"",""642381""
""focus"",""71"",""643886""
""blur"",""73"",""649452""
""focus"",""73"",""651262""
""blur"",""78"",""676821""
""focus"",""80"",""700226""
","""event"",""trial"",""time""
""blur"",""7"",""107150""
""blur"",""71"",""642381""
""blur"",""73"",""649452""
""blur"",""78"",""676821""
","""event"",""trial"",""time""
""focus"",""7"",""109737""
""focus"",""71"",""643886""
""focus"",""73"",""651262""
""focus"",""80"",""700226""
","""event"",""trial"",""time""
""fullscreenenter"",""1"",""1942""
","""event"",""trial"",""time""
""fullscreenexit"",""7"",""104978""
","","","-1","","","21","13480","5594","&#9789;","elianto","#f73b6a7A"," ","-1","0","-10","[]","0","0","4","","","","","","","",""
"pit-trial","93","769256","0.0-2.0-17.2-2.2","battery-v0.2","","""event"",""trial"",""time""
""fullscreenenter"",""1"",""1942""
""fullscreenexit"",""7"",""104978""
""blur"",""7"",""107150""
""focus"",""7"",""109737""
""blur"",""71"",""642381""
""focus"",""71"",""643886""
""blur"",""73"",""649452""
""focus"",""73"",""651262""
""blur"",""78"",""676821""
""focus"",""80"",""700226""
","""event"",""trial"",""time""
""blur"",""7"",""107150""
""blur"",""71"",""642381""
""blur"",""73"",""649452""
""blur"",""78"",""676821""
","""event"",""trial"",""time""
""focus"",""7"",""109737""
""focus"",""71"",""643886""
""focus"",""73"",""651262""
""focus"",""80"",""700226""
","""event"",""trial"",""time""
""fullscreenenter"",""1"",""1942""
","""event"",""trial"",""time""
""fullscreenexit"",""7"",""104978""
","","","440.5","","","21","13480","5594","&#9789;","elianto","#f73b6a7A"," "," ","1","0","[1293.5]","1","0","4","","","","","","","",""
"pit-trial","94","772586","0.0-2.0-17.2-3.2","battery-v0.2","","""event"",""trial"",""time""
""fullscreenenter"",""1"",""1942""
""fullscreenexit"",""7"",""104978""
""blur"",""7"",""107150""
""focus"",""7"",""109737""
""blur"",""71"",""642381""
""focus"",""71"",""643886""
""blur"",""73"",""649452""
""focus"",""73"",""651262""
""blur"",""78"",""676821""
""focus"",""80"",""700226""
","""event"",""trial"",""time""
""blur"",""7"",""107150""
""blur"",""71"",""642381""
""blur"",""73"",""649452""
""blur"",""78"",""676821""
","""event"",""trial"",""time""
""focus"",""7"",""109737""
""focus"",""71"",""643886""
""focus"",""73"",""651262""
""focus"",""80"",""700226""
","""event"",""trial"",""time""
""fullscreenenter"",""1"",""1942""
","""event"",""trial"",""time""
""fullscreenexit"",""7"",""104978""
","","","466.4000000357628","","","21","13480","5594","&#9789;","elianto","#f73b6a7A"," "," ","1","-10","[1316.6000000238419]","1","0","4","","","","","","","",""
"pit-trial","95","775845","0.0-2.0-17.2-4.2","battery-v0.2","","""event"",""trial"",""time""
""fullscreenenter"",""1"",""1942""
""fullscreenexit"",""7"",""104978""
""blur"",""7"",""107150""
""focus"",""7"",""109737""
""blur"",""71"",""642381""
""focus"",""71"",""643886""
""blur"",""73"",""649452""
""focus"",""73"",""651262""
""blur"",""78"",""676821""
""focus"",""80"",""700226""
","""event"",""trial"",""time""
""blur"",""7"",""107150""
""blur"",""71"",""642381""
""blur"",""73"",""649452""
""blur"",""78"",""676821""
","""event"",""trial"",""time""
""focus"",""7"",""109737""
""focus"",""71"",""643886""
""focus"",""73"",""651262""
""focus"",""80"",""700226""
","""event"",""trial"",""time""
""fullscreenenter"",""1"",""1942""
","""event"",""trial"",""time""
""fullscreenexit"",""7"",""104978""
","","","403.39999997615814","","","21","13480","5594","&#9789;","elianto","#f73b6a7A"," "," ","1","0","[1253.800000011921]","1","0","4","","","","","","","",""
"pit-trial","96","779108","0.0-2.0-17.3-0.3","battery-v0.2","","""event"",""trial"",""time""
""fullscreenenter"",""1"",""1942""
""fullscreenexit"",""7"",""104978""
""blur"",""7"",""107150""
""focus"",""7"",""109737""
""blur"",""71"",""642381""
""focus"",""71"",""643886""
""blur"",""73"",""649452""
""focus"",""73"",""651262""
""blur"",""78"",""676821""
""focus"",""80"",""700226""
","""event"",""trial"",""time""
""blur"",""7"",""107150""
""blur"",""71"",""642381""
""blur"",""73"",""649452""
""blur"",""78"",""676821""
","""event"",""trial"",""time""
""focus"",""7"",""109737""
""focus"",""71"",""643886""
""focus"",""73"",""651262""
""focus"",""80"",""700226""
","""event"",""trial"",""time""
""fullscreenenter"",""1"",""1942""
","""event"",""trial"",""time""
""fullscreenexit"",""7"",""104978""
","","","395.80000001192093","","","21","13480","5594","&#9789;","elianto","#f73b6a7A"," "," ","1","0","[1248.699999988079]","1","0","4","","","","","","","",""
"pit-trial","97","782371","0.0-2.0-17.3-1.3","battery-v0.2","","""event"",""trial"",""time""
""fullscreenenter"",""1"",""1942""
""fullscreenexit"",""7"",""104978""
""blur"",""7"",""107150""
""focus"",""7"",""109737""
""blur"",""71"",""642381""
""focus"",""71"",""643886""
""blur"",""73"",""649452""
""focus"",""73"",""651262""
""blur"",""78"",""676821""
""focus"",""80"",""700226""
","""event"",""trial"",""time""
""blur"",""7"",""107150""
""blur"",""71"",""642381""
""blur"",""73"",""649452""
""blur"",""78"",""676821""
","""event"",""trial"",""time""
""focus"",""7"",""109737""
""focus"",""71"",""643886""
""focus"",""73"",""651262""
""focus"",""80"",""700226""
","""event"",""trial"",""time""
""fullscreenenter"",""1"",""1942""
","""event"",""trial"",""time""
""fullscreenexit"",""7"",""104978""
","","","398.80000001192093","","","21","13480","5594","&#9789;","elianto","#f73b6a7A"," "," ","1","0","[1250.5999999642372]","1","0","4","","","","","","","",""
"pit-trial","98","785660","0.0-2.0-17.3-2.3","battery-v0.2","","""event"",""trial"",""time""
""fullscreenenter"",""1"",""1942""
""fullscreenexit"",""7"",""104978""
""blur"",""7"",""107150""
""focus"",""7"",""109737""
""blur"",""71"",""642381""
""focus"",""71"",""643886""
""blur"",""73"",""649452""
""focus"",""73"",""651262""
""blur"",""78"",""676821""
""focus"",""80"",""700226""
","""event"",""trial"",""time""
""blur"",""7"",""107150""
""blur"",""71"",""642381""
""blur"",""73"",""649452""
""blur"",""78"",""676821""
","""event"",""trial"",""time""
""focus"",""7"",""109737""
""focus"",""71"",""643886""
""focus"",""73"",""651262""
""focus"",""80"",""700226""
","""event"",""trial"",""time""
""fullscreenenter"",""1"",""1942""
","""event"",""trial"",""time""
""fullscreenexit"",""7"",""104978""
","","","427","","","21","13480","5594","&#9789;","elianto","#f73b6a7A"," "," ","1","0","[1278.4000000357628]","1","0","4","","","","","","","",""
"pit-trial","99","788997","0.0-2.0-17.3-3.3","battery-v0.2","","""event"",""trial"",""time""
""fullscreenenter"",""1"",""1942""
""fullscreenexit"",""7"",""104978""
""blur"",""7"",""107150""
""focus"",""7"",""109737""
""blur"",""71"",""642381""
""focus"",""71"",""643886""
""blur"",""73"",""649452""
""focus"",""73"",""651262""
""blur"",""78"",""676821""
""focus"",""80"",""700226""
","""event"",""trial"",""time""
""blur"",""7"",""107150""
""blur"",""71"",""642381""
""blur"",""73"",""649452""
""blur"",""78"",""676821""
","""event"",""trial"",""time""
""focus"",""7"",""109737""
""focus"",""71"",""643886""
""focus"",""73"",""651262""
""focus"",""80"",""700226""
","""event"",""trial"",""time""
""fullscreenenter"",""1"",""1942""
","""event"",""trial"",""time""
""fullscreenexit"",""7"",""104978""
","","","478.5","","","21","13480","5594","&#9789;","elianto","#f73b6a7A"," "," ","1","-10","[1329.5]","1","0","4","","","","","","","",""
"pit-trial","100","792292","0.0-2.0-17.3-4.3","battery-v0.2","","""event"",""trial"",""time""
""fullscreenenter"",""1"",""1942""
""fullscreenexit"",""7"",""104978""
""blur"",""7"",""107150""
""focus"",""7"",""109737""
""blur"",""71"",""642381""
""focus"",""71"",""643886""
""blur"",""73"",""649452""
""focus"",""73"",""651262""
""blur"",""78"",""676821""
""focus"",""80"",""700226""
","""event"",""trial"",""time""
""blur"",""7"",""107150""
""blur"",""71"",""642381""
""blur"",""73"",""649452""
""blur"",""78"",""676821""
","""event"",""trial"",""time""
""focus"",""7"",""109737""
""focus"",""71"",""643886""
""focus"",""73"",""651262""
""focus"",""80"",""700226""
","""event"",""trial"",""time""
""fullscreenenter"",""1"",""1942""
","""event"",""trial"",""time""
""fullscreenexit"",""7"",""104978""
","","","433.30000001192093","","","21","13480","5594","&#9789;","elianto","#f73b6a7A"," "," ","1","0","[1286.800000011921]","1","0","4","","","","","","","",""
"call-function","101","792295","0.0-2.0-18.0","battery-v0.2","","""event"",""trial"",""time""
""fullscreenenter"",""1"",""1942""
""fullscreenexit"",""7"",""104978""
""blur"",""7"",""107150""
""focus"",""7"",""109737""
""blur"",""71"",""642381""
""focus"",""71"",""643886""
""blur"",""73"",""649452""
""focus"",""73"",""651262""
""blur"",""78"",""676821""
""focus"",""80"",""700226""
""blur"",""102"",""891137""
""focus"",""102"",""894424""
""blur"",""102"",""896919""
""focus"",""102"",""897962""
","""event"",""trial"",""time""
""blur"",""7"",""107150""
""blur"",""71"",""642381""
""blur"",""73"",""649452""
""blur"",""78"",""676821""
""blur"",""102"",""891137""
""blur"",""102"",""896919""
","""event"",""trial"",""time""
""focus"",""7"",""109737""
""focus"",""71"",""643886""
""focus"",""73"",""651262""
""focus"",""80"",""700226""
""focus"",""102"",""894424""
""focus"",""102"",""897962""
","""event"",""trial"",""time""
""fullscreenenter"",""1"",""1942""
","""event"",""trial"",""time""
""fullscreenexit"",""7"",""104978""
","","","","","","","","","","","","","","","","","","","","","","","","","","",""
"pit-instructions","102","957666","0.0-2.0-19.0","battery-v0.2","","""event"",""trial"",""time""
""fullscreenenter"",""1"",""1942""
""fullscreenexit"",""7"",""104978""
""blur"",""7"",""107150""
""focus"",""7"",""109737""
""blur"",""71"",""642381""
""focus"",""71"",""643886""
""blur"",""73"",""649452""
""focus"",""73"",""651262""
""blur"",""78"",""676821""
""focus"",""80"",""700226""
""blur"",""102"",""891137""
""focus"",""102"",""894424""
""blur"",""102"",""896919""
""focus"",""102"",""897962""
","""event"",""trial"",""time""
""blur"",""7"",""107150""
""blur"",""71"",""642381""
""blur"",""73"",""649452""
""blur"",""78"",""676821""
""blur"",""102"",""891137""
""blur"",""102"",""896919""
","""event"",""trial"",""time""
""focus"",""7"",""109737""
""focus"",""71"",""643886""
""focus"",""73"",""651262""
""focus"",""80"",""700226""
""focus"",""102"",""894424""
""focus"",""102"",""897962""
","""event"",""trial"",""time""
""fullscreenenter"",""1"",""1942""
","""event"",""trial"",""time""
""fullscreenexit"",""7"",""104978""
","","[{""page_index"":0,""viewing_time"":59844.5},{""page_index"":1,""viewing_time"":6556.899999976158},{""page_index"":2,""viewing_time"":54130.10000002384},{""page_index"":3,""viewing_time"":9137.399999976158},{""page_index"":4,""viewing_time"":8029.800000011921},{""page_index"":5,""viewing_time"":9998},{""page_index"":6,""viewing_time"":8051.699999988079},{""page_index"":7,""viewing_time"":5819.300000011921},{""page_index"":8,""viewing_time"":3800.699999988079}]","165369.19999998808","","","","","","","","","","","","","","","","","","","","","","","",""
"pit-comprehension","103","963188","0.0-2.0-20.0-0.0","battery-v0.2","","""event"",""trial"",""time""
""fullscreenenter"",""1"",""1942""
""fullscreenexit"",""7"",""104978""
""blur"",""7"",""107150""
""focus"",""7"",""109737""
""blur"",""71"",""642381""
""focus"",""71"",""643886""
""blur"",""73"",""649452""
""focus"",""73"",""651262""
""blur"",""78"",""676821""
""focus"",""80"",""700226""
""blur"",""102"",""891137""
""focus"",""102"",""894424""
""blur"",""102"",""896919""
""focus"",""102"",""897962""
","""event"",""trial"",""time""
""blur"",""7"",""107150""
""blur"",""71"",""642381""
""blur"",""73"",""649452""
""blur"",""78"",""676821""
""blur"",""102"",""891137""
""blur"",""102"",""896919""
","""event"",""trial"",""time""
""focus"",""7"",""109737""
""focus"",""71"",""643886""
""focus"",""73"",""651262""
""focus"",""80"",""700226""
""focus"",""102"",""894424""
""focus"",""102"",""897962""
","""event"",""trial"",""time""
""fullscreenenter"",""1"",""1942""
","""event"",""trial"",""time""
""fullscreenexit"",""7"",""104978""
","","","5511.800000011921","[""SPACE""]","0","21","13480","5594","","","","","","","","","","","","","","","","","","",""
"pit-instructions","104","966672","0.0-2.0-20.0-1.0","battery-v0.2","","""event"",""trial"",""time""
""fullscreenenter"",""1"",""1942""
""fullscreenexit"",""7"",""104978""
""blur"",""7"",""107150""
""focus"",""7"",""109737""
""blur"",""71"",""642381""
""focus"",""71"",""643886""
""blur"",""73"",""649452""
""focus"",""73"",""651262""
""blur"",""78"",""676821""
""focus"",""80"",""700226""
""blur"",""102"",""891137""
""focus"",""102"",""894424""
""blur"",""102"",""896919""
""focus"",""102"",""897962""
","""event"",""trial"",""time""
""blur"",""7"",""107150""
""blur"",""71"",""642381""
""blur"",""73"",""649452""
""blur"",""78"",""676821""
""blur"",""102"",""891137""
""blur"",""102"",""896919""
","""event"",""trial"",""time""
""focus"",""7"",""109737""
""focus"",""71"",""643886""
""focus"",""73"",""651262""
""focus"",""80"",""700226""
""focus"",""102"",""894424""
""focus"",""102"",""897962""
","""event"",""trial"",""time""
""fullscreenenter"",""1"",""1942""
","""event"",""trial"",""time""
""fullscreenexit"",""7"",""104978""
","","[{""page_index"":0,""viewing_time"":3351.899999976158}]","3352.5","","","","","","","","","","","","","","","","","","","","","","","",""
"pit-comprehension","105","1023306","0.0-2.0-21.0-0.0","battery-v0.2","","""event"",""trial"",""time""
""fullscreenenter"",""1"",""1942""
""fullscreenexit"",""7"",""104978""
""blur"",""7"",""107150""
""focus"",""7"",""109737""
""blur"",""71"",""642381""
""focus"",""71"",""643886""
""blur"",""73"",""649452""
""focus"",""73"",""651262""
""blur"",""78"",""676821""
""focus"",""80"",""700226""
""blur"",""102"",""891137""
""focus"",""102"",""894424""
""blur"",""102"",""896919""
""focus"",""102"",""897962""
","""event"",""trial"",""time""
""blur"",""7"",""107150""
""blur"",""71"",""642381""
""blur"",""73"",""649452""
""blur"",""78"",""676821""
""blur"",""102"",""891137""
""blur"",""102"",""896919""
","""event"",""trial"",""time""
""focus"",""7"",""109737""
""focus"",""71"",""643886""
""focus"",""73"",""651262""
""focus"",""80"",""700226""
""focus"",""102"",""894424""
""focus"",""102"",""897962""
","""event"",""trial"",""time""
""fullscreenenter"",""1"",""1942""
","""event"",""trial"",""time""
""fullscreenexit"",""7"",""104978""
","","","56627.60000002384","[""10""]","0","21","13480","5594","","","","","","","","","","","","","","","","","","",""
"pit-instructions","106","1025764","0.0-2.0-21.0-1.0","battery-v0.2","","""event"",""trial"",""time""
""fullscreenenter"",""1"",""1942""
""fullscreenexit"",""7"",""104978""
""blur"",""7"",""107150""
""focus"",""7"",""109737""
""blur"",""71"",""642381""
""focus"",""71"",""643886""
""blur"",""73"",""649452""
""focus"",""73"",""651262""
""blur"",""78"",""676821""
""focus"",""80"",""700226""
""blur"",""102"",""891137""
""focus"",""102"",""894424""
""blur"",""102"",""896919""
""focus"",""102"",""897962""
""blur"",""107"",""1056780""
""focus"",""107"",""1059991""
""blur"",""107"",""1062729""
""focus"",""107"",""1068323""
","""event"",""trial"",""time""
""blur"",""7"",""107150""
""blur"",""71"",""642381""
""blur"",""73"",""649452""
""blur"",""78"",""676821""
""blur"",""102"",""891137""
""blur"",""102"",""896919""
""blur"",""107"",""1056780""
""blur"",""107"",""1062729""
","""event"",""trial"",""time""
""focus"",""7"",""109737""
""focus"",""71"",""643886""
""focus"",""73"",""651262""
""focus"",""80"",""700226""
""focus"",""102"",""894424""
""focus"",""102"",""897962""
""focus"",""107"",""1059991""
""focus"",""107"",""1068323""
","""event"",""trial"",""time""
""fullscreenenter"",""1"",""1942""
","""event"",""trial"",""time""
""fullscreenexit"",""7"",""104978""
","","[{""page_index"":0,""viewing_time"":2332.600000023842}]","2333.400000035763","","","","","","","","","","","","","","","","","","","","","","","",""
"pit-comprehension","107","1096323","0.0-2.0-22.0-0.0","battery-v0.2","","""event"",""trial"",""time""
""fullscreenenter"",""1"",""1942""
""fullscreenexit"",""7"",""104978""
""blur"",""7"",""107150""
""focus"",""7"",""109737""
""blur"",""71"",""642381""
""focus"",""71"",""643886""
""blur"",""73"",""649452""
""focus"",""73"",""651262""
""blur"",""78"",""676821""
""focus"",""80"",""700226""
""blur"",""102"",""891137""
""focus"",""102"",""894424""
""blur"",""102"",""896919""
""focus"",""102"",""897962""
""blur"",""107"",""1056780""
""focus"",""107"",""1059991""
""blur"",""107"",""1062729""
""focus"",""107"",""1068323""
","""event"",""trial"",""time""
""blur"",""7"",""107150""
""blur"",""71"",""642381""
""blur"",""73"",""649452""
""blur"",""78"",""676821""
""blur"",""102"",""891137""
""blur"",""102"",""896919""
""blur"",""107"",""1056780""
""blur"",""107"",""1062729""
","""event"",""trial"",""time""
""focus"",""7"",""109737""
""focus"",""71"",""643886""
""focus"",""73"",""651262""
""focus"",""80"",""700226""
""focus"",""102"",""894424""
""focus"",""102"",""897962""
""focus"",""107"",""1059991""
""focus"",""107"",""1068323""
","""event"",""trial"",""time""
""fullscreenenter"",""1"",""1942""
","""event"",""trial"",""time""
""fullscreenexit"",""7"",""104978""
","","","70551.19999998808","[""0""]","0","21","13480","5594","","","","","","","","","","","","","","","","","","",""
"pit-instructions","108","1098713","0.0-2.0-22.0-1.0","battery-v0.2","","""event"",""trial"",""time""
""fullscreenenter"",""1"",""1942""
""fullscreenexit"",""7"",""104978""
""blur"",""7"",""107150""
""focus"",""7"",""109737""
""blur"",""71"",""642381""
""focus"",""71"",""643886""
""blur"",""73"",""649452""
""focus"",""73"",""651262""
""blur"",""78"",""676821""
""focus"",""80"",""700226""
""blur"",""102"",""891137""
""focus"",""102"",""894424""
""blur"",""102"",""896919""
""focus"",""102"",""897962""
""blur"",""107"",""1056780""
""focus"",""107"",""1059991""
""blur"",""107"",""1062729""
""focus"",""107"",""1068323""
","""event"",""trial"",""time""
""blur"",""7"",""107150""
""blur"",""71"",""642381""
""blur"",""73"",""649452""
""blur"",""78"",""676821""
""blur"",""102"",""891137""
""blur"",""102"",""896919""
""blur"",""107"",""1056780""
""blur"",""107"",""1062729""
","""event"",""trial"",""time""
""focus"",""7"",""109737""
""focus"",""71"",""643886""
""focus"",""73"",""651262""
""focus"",""80"",""700226""
""focus"",""102"",""894424""
""focus"",""102"",""897962""
""focus"",""107"",""1059991""
""focus"",""107"",""1068323""
","""event"",""trial"",""time""
""fullscreenenter"",""1"",""1942""
","""event"",""trial"",""time""
""fullscreenexit"",""7"",""104978""
","","[{""page_index"":0,""viewing_time"":2259.5}]","2260.100000023842","","","","","","","","","","","","","","","","","","","","","","","",""
"pit-comprehension","109","1107715","0.0-2.0-23.0-0.0","battery-v0.2","","""event"",""trial"",""time""
""fullscreenenter"",""1"",""1942""
""fullscreenexit"",""7"",""104978""
""blur"",""7"",""107150""
""focus"",""7"",""109737""
""blur"",""71"",""642381""
""focus"",""71"",""643886""
""blur"",""73"",""649452""
""focus"",""73"",""651262""
""blur"",""78"",""676821""
""focus"",""80"",""700226""
""blur"",""102"",""891137""
""focus"",""102"",""894424""
""blur"",""102"",""896919""
""focus"",""102"",""897962""
""blur"",""107"",""1056780""
""focus"",""107"",""1059991""
""blur"",""107"",""1062729""
""focus"",""107"",""1068323""
","""event"",""trial"",""time""
""blur"",""7"",""107150""
""blur"",""71"",""642381""
""blur"",""73"",""649452""
""blur"",""78"",""676821""
""blur"",""102"",""891137""
""blur"",""102"",""896919""
""blur"",""107"",""1056780""
""blur"",""107"",""1062729""
","""event"",""trial"",""time""
""focus"",""7"",""109737""
""focus"",""71"",""643886""
""focus"",""73"",""651262""
""focus"",""80"",""700226""
""focus"",""102"",""894424""
""focus"",""102"",""897962""
""focus"",""107"",""1059991""
""focus"",""107"",""1068323""
","""event"",""trial"",""time""
""fullscreenenter"",""1"",""1942""
","""event"",""trial"",""time""
""fullscreenexit"",""7"",""104978""
","","","8994.399999976158","[""True""]","0","21","13480","5594","","","","","","","","","","","","","","","","","","",""
"pit-instructions","110","1109993","0.0-2.0-23.0-1.0","battery-v0.2","","""event"",""trial"",""time""
""fullscreenenter"",""1"",""1942""
""fullscreenexit"",""7"",""104978""
""blur"",""7"",""107150""
""focus"",""7"",""109737""
""blur"",""71"",""642381""
""focus"",""71"",""643886""
""blur"",""73"",""649452""
""focus"",""73"",""651262""
""blur"",""78"",""676821""
""focus"",""80"",""700226""
""blur"",""102"",""891137""
""focus"",""102"",""894424""
""blur"",""102"",""896919""
""focus"",""102"",""897962""
""blur"",""107"",""1056780""
""focus"",""107"",""1059991""
""blur"",""107"",""1062729""
""focus"",""107"",""1068323""
","""event"",""trial"",""time""
""blur"",""7"",""107150""
""blur"",""71"",""642381""
""blur"",""73"",""649452""
""blur"",""78"",""676821""
""blur"",""102"",""891137""
""blur"",""102"",""896919""
""blur"",""107"",""1056780""
""blur"",""107"",""1062729""
","""event"",""trial"",""time""
""focus"",""7"",""109737""
""focus"",""71"",""643886""
""focus"",""73"",""651262""
""focus"",""80"",""700226""
""focus"",""102"",""894424""
""focus"",""102"",""897962""
""focus"",""107"",""1059991""
""focus"",""107"",""1068323""
","""event"",""trial"",""time""
""fullscreenenter"",""1"",""1942""
","""event"",""trial"",""time""
""fullscreenexit"",""7"",""104978""
","","[{""page_index"":0,""viewing_time"":2066}]","2066.5","","","","","","","","","","","","","","","","","","","","","","","",""
"pit-comprehension","111","1118224","0.0-2.0-24.0-0.0","battery-v0.2","","""event"",""trial"",""time""
""fullscreenenter"",""1"",""1942""
""fullscreenexit"",""7"",""104978""
""blur"",""7"",""107150""
""focus"",""7"",""109737""
""blur"",""71"",""642381""
""focus"",""71"",""643886""
""blur"",""73"",""649452""
""focus"",""73"",""651262""
""blur"",""78"",""676821""
""focus"",""80"",""700226""
""blur"",""102"",""891137""
""focus"",""102"",""894424""
""blur"",""102"",""896919""
""focus"",""102"",""897962""
""blur"",""107"",""1056780""
""focus"",""107"",""1059991""
""blur"",""107"",""1062729""
""focus"",""107"",""1068323""
","""event"",""trial"",""time""
""blur"",""7"",""107150""
""blur"",""71"",""642381""
""blur"",""73"",""649452""
""blur"",""78"",""676821""
""blur"",""102"",""891137""
""blur"",""102"",""896919""
""blur"",""107"",""1056780""
""blur"",""107"",""1062729""
","""event"",""trial"",""time""
""focus"",""7"",""109737""
""focus"",""71"",""643886""
""focus"",""73"",""651262""
""focus"",""80"",""700226""
""focus"",""102"",""894424""
""focus"",""102"",""897962""
""focus"",""107"",""1059991""
""focus"",""107"",""1068323""
","""event"",""trial"",""time""
""fullscreenenter"",""1"",""1942""
","""event"",""trial"",""time""
""fullscreenexit"",""7"",""104978""
","","","8225.300000011921","[""True""]","0","21","13480","5594","","","","","","","","","","","","","","","","","","",""
"pit-instructions","112","1120763","0.0-2.0-24.0-1.0","battery-v0.2","","""event"",""trial"",""time""
""fullscreenenter"",""1"",""1942""
""fullscreenexit"",""7"",""104978""
""blur"",""7"",""107150""
""focus"",""7"",""109737""
""blur"",""71"",""642381""
""focus"",""71"",""643886""
""blur"",""73"",""649452""
""focus"",""73"",""651262""
""blur"",""78"",""676821""
""focus"",""80"",""700226""
""blur"",""102"",""891137""
""focus"",""102"",""894424""
""blur"",""102"",""896919""
""focus"",""102"",""897962""
""blur"",""107"",""1056780""
""focus"",""107"",""1059991""
""blur"",""107"",""1062729""
""focus"",""107"",""1068323""
","""event"",""trial"",""time""
""blur"",""7"",""107150""
""blur"",""71"",""642381""
""blur"",""73"",""649452""
""blur"",""78"",""676821""
""blur"",""102"",""891137""
""blur"",""102"",""896919""
""blur"",""107"",""1056780""
""blur"",""107"",""1062729""
","""event"",""trial"",""time""
""focus"",""7"",""109737""
""focus"",""71"",""643886""
""focus"",""73"",""651262""
""focus"",""80"",""700226""
""focus"",""102"",""894424""
""focus"",""102"",""897962""
""focus"",""107"",""1059991""
""focus"",""107"",""1068323""
","""event"",""trial"",""time""
""fullscreenenter"",""1"",""1942""
","""event"",""trial"",""time""
""fullscreenexit"",""7"",""104978""
","","[{""page_index"":0,""viewing_time"":2380}]","2380.600000023842","","","","","","","","","","","","","","","","","","","","","","","",""
"pit-comprehension","113","1127917","0.0-2.0-25.0-0.0","battery-v0.2","","""event"",""trial"",""time""
""fullscreenenter"",""1"",""1942""
""fullscreenexit"",""7"",""104978""
""blur"",""7"",""107150""
""focus"",""7"",""109737""
""blur"",""71"",""642381""
""focus"",""71"",""643886""
""blur"",""73"",""649452""
""focus"",""73"",""651262""
""blur"",""78"",""676821""
""focus"",""80"",""700226""
""blur"",""102"",""891137""
""focus"",""102"",""894424""
""blur"",""102"",""896919""
""focus"",""102"",""897962""
""blur"",""107"",""1056780""
""focus"",""107"",""1059991""
""blur"",""107"",""1062729""
""focus"",""107"",""1068323""
","""event"",""trial"",""time""
""blur"",""7"",""107150""
""blur"",""71"",""642381""
""blur"",""73"",""649452""
""blur"",""78"",""676821""
""blur"",""102"",""891137""
""blur"",""102"",""896919""
""blur"",""107"",""1056780""
""blur"",""107"",""1062729""
","""event"",""trial"",""time""
""focus"",""7"",""109737""
""focus"",""71"",""643886""
""focus"",""73"",""651262""
""focus"",""80"",""700226""
""focus"",""102"",""894424""
""focus"",""102"",""897962""
""focus"",""107"",""1059991""
""focus"",""107"",""1068323""
","""event"",""trial"",""time""
""fullscreenenter"",""1"",""1942""
","""event"",""trial"",""time""
""fullscreenexit"",""7"",""104978""
","","","7146.5","[""True""]","0","21","13480","5594","","","","","","","","","","","","","","","","","","",""
"pit-instructions","114","1130023","0.0-2.0-25.0-1.0","battery-v0.2","","""event"",""trial"",""time""
""fullscreenenter"",""1"",""1942""
""fullscreenexit"",""7"",""104978""
""blur"",""7"",""107150""
""focus"",""7"",""109737""
""blur"",""71"",""642381""
""focus"",""71"",""643886""
""blur"",""73"",""649452""
""focus"",""73"",""651262""
""blur"",""78"",""676821""
""focus"",""80"",""700226""
""blur"",""102"",""891137""
""focus"",""102"",""894424""
""blur"",""102"",""896919""
""focus"",""102"",""897962""
""blur"",""107"",""1056780""
""focus"",""107"",""1059991""
""blur"",""107"",""1062729""
""focus"",""107"",""1068323""
","""event"",""trial"",""time""
""blur"",""7"",""107150""
""blur"",""71"",""642381""
""blur"",""73"",""649452""
""blur"",""78"",""676821""
""blur"",""102"",""891137""
""blur"",""102"",""896919""
""blur"",""107"",""1056780""
""blur"",""107"",""1062729""
","""event"",""trial"",""time""
""focus"",""7"",""109737""
""focus"",""71"",""643886""
""focus"",""73"",""651262""
""focus"",""80"",""700226""
""focus"",""102"",""894424""
""focus"",""102"",""897962""
""focus"",""107"",""1059991""
""focus"",""107"",""1068323""
","""event"",""trial"",""time""
""fullscreenenter"",""1"",""1942""
","""event"",""trial"",""time""
""fullscreenexit"",""7"",""104978""
","","[{""page_index"":0,""viewing_time"":1982}]","1982.7999999523163","","","","","","","","","","","","","","","","","","","","","","","",""
"pit-comprehension","115","1139026","0.0-2.0-26.0-0.0","battery-v0.2","","""event"",""trial"",""time""
""fullscreenenter"",""1"",""1942""
""fullscreenexit"",""7"",""104978""
""blur"",""7"",""107150""
""focus"",""7"",""109737""
""blur"",""71"",""642381""
""focus"",""71"",""643886""
""blur"",""73"",""649452""
""focus"",""73"",""651262""
""blur"",""78"",""676821""
""focus"",""80"",""700226""
""blur"",""102"",""891137""
""focus"",""102"",""894424""
""blur"",""102"",""896919""
""focus"",""102"",""897962""
""blur"",""107"",""1056780""
""focus"",""107"",""1059991""
""blur"",""107"",""1062729""
""focus"",""107"",""1068323""
","""event"",""trial"",""time""
""blur"",""7"",""107150""
""blur"",""71"",""642381""
""blur"",""73"",""649452""
""blur"",""78"",""676821""
""blur"",""102"",""891137""
""blur"",""102"",""896919""
""blur"",""107"",""1056780""
""blur"",""107"",""1062729""
","""event"",""trial"",""time""
""focus"",""7"",""109737""
""focus"",""71"",""643886""
""focus"",""73"",""651262""
""focus"",""80"",""700226""
""focus"",""102"",""894424""
""focus"",""102"",""897962""
""focus"",""107"",""1059991""
""focus"",""107"",""1068323""
","""event"",""trial"",""time""
""fullscreenenter"",""1"",""1942""
","""event"",""trial"",""time""
""fullscreenexit"",""7"",""104978""
","","","8995.199999988079","[""False""]","0","21","13480","5594","","","","","","","","","","","","","","","","","","",""
"pit-instructions","116","1141034","0.0-2.0-26.0-1.0","battery-v0.2","","""event"",""trial"",""time""
""fullscreenenter"",""1"",""1942""
""fullscreenexit"",""7"",""104978""
""blur"",""7"",""107150""
""focus"",""7"",""109737""
""blur"",""71"",""642381""
""focus"",""71"",""643886""
""blur"",""73"",""649452""
""focus"",""73"",""651262""
""blur"",""78"",""676821""
""focus"",""80"",""700226""
""blur"",""102"",""891137""
""focus"",""102"",""894424""
""blur"",""102"",""896919""
""focus"",""102"",""897962""
""blur"",""107"",""1056780""
""focus"",""107"",""1059991""
""blur"",""107"",""1062729""
""focus"",""107"",""1068323""
","""event"",""trial"",""time""
""blur"",""7"",""107150""
""blur"",""71"",""642381""
""blur"",""73"",""649452""
""blur"",""78"",""676821""
""blur"",""102"",""891137""
""blur"",""102"",""896919""
""blur"",""107"",""1056780""
""blur"",""107"",""1062729""
","""event"",""trial"",""time""
""focus"",""7"",""109737""
""focus"",""71"",""643886""
""focus"",""73"",""651262""
""focus"",""80"",""700226""
""focus"",""102"",""894424""
""focus"",""102"",""897962""
""focus"",""107"",""1059991""
""focus"",""107"",""1068323""
","""event"",""trial"",""time""
""fullscreenenter"",""1"",""1942""
","""event"",""trial"",""time""
""fullscreenexit"",""7"",""104978""
","","[{""page_index"":0,""viewing_time"":1819.5}]","1820.2999999523163","","","","","","","","","","","","","","","","","","","","","","","",""
"pit-instructions","117","1314122","0.0-3.0","battery-v0.2","","""event"",""trial"",""time""
""fullscreenenter"",""1"",""1942""
""fullscreenexit"",""7"",""104978""
""blur"",""7"",""107150""
""focus"",""7"",""109737""
""blur"",""71"",""642381""
""focus"",""71"",""643886""
""blur"",""73"",""649452""
""focus"",""73"",""651262""
""blur"",""78"",""676821""
""focus"",""80"",""700226""
""blur"",""102"",""891137""
""focus"",""102"",""894424""
""blur"",""102"",""896919""
""focus"",""102"",""897962""
""blur"",""107"",""1056780""
""focus"",""107"",""1059991""
""blur"",""107"",""1062729""
""focus"",""107"",""1068323""
","""event"",""trial"",""time""
""blur"",""7"",""107150""
""blur"",""71"",""642381""
""blur"",""73"",""649452""
""blur"",""78"",""676821""
""blur"",""102"",""891137""
""blur"",""102"",""896919""
""blur"",""107"",""1056780""
""blur"",""107"",""1062729""
","""event"",""trial"",""time""
""focus"",""7"",""109737""
""focus"",""71"",""643886""
""focus"",""73"",""651262""
""focus"",""80"",""700226""
""focus"",""102"",""894424""
""focus"",""102"",""897962""
""focus"",""107"",""1059991""
""focus"",""107"",""1068323""
","""event"",""trial"",""time""
""fullscreenenter"",""1"",""1942""
","""event"",""trial"",""time""
""fullscreenexit"",""7"",""104978""
","","[{""page_index"":0,""viewing_time"":71778.40000003576},{""page_index"":1,""viewing_time"":21685.099999964237},{""page_index"":2,""viewing_time"":79618.80000001192}]","173082.90000003576","","","","","","","","","","","","","","","","","","","","","","","",""
"pit-trial","118","1318248","0.0-4.0","battery-v0.2","","""event"",""trial"",""time""
""fullscreenenter"",""1"",""1942""
""fullscreenexit"",""7"",""104978""
""blur"",""7"",""107150""
""focus"",""7"",""109737""
""blur"",""71"",""642381""
""focus"",""71"",""643886""
""blur"",""73"",""649452""
""focus"",""73"",""651262""
""blur"",""78"",""676821""
""focus"",""80"",""700226""
""blur"",""102"",""891137""
""focus"",""102"",""894424""
""blur"",""102"",""896919""
""focus"",""102"",""897962""
""blur"",""107"",""1056780""
""focus"",""107"",""1059991""
""blur"",""107"",""1062729""
""focus"",""107"",""1068323""
","""event"",""trial"",""time""
""blur"",""7"",""107150""
""blur"",""71"",""642381""
""blur"",""73"",""649452""
""blur"",""78"",""676821""
""blur"",""102"",""891137""
""blur"",""102"",""896919""
""blur"",""107"",""1056780""
""blur"",""107"",""1062729""
","""event"",""trial"",""time""
""focus"",""7"",""109737""
""focus"",""71"",""643886""
""focus"",""73"",""651262""
""focus"",""80"",""700226""
""focus"",""102"",""894424""
""focus"",""102"",""897962""
""focus"",""107"",""1059991""
""focus"",""107"",""1068323""
","""event"",""trial"",""time""
""fullscreenenter"",""1"",""1942""
","""event"",""trial"",""time""
""fullscreenexit"",""7"",""104978""
","","","1259","","","21","13480","5594","&#9752;","elianto","#f73b6a7A"," "," ","1","-10","[2115.5]","1","1","","","13480","1","3","3","lose","go","1"
"pit-trial","119","1322239","0.0-5.0","battery-v0.2","","""event"",""trial"",""time""
""fullscreenenter"",""1"",""1942""
""fullscreenexit"",""7"",""104978""
""blur"",""7"",""107150""
""focus"",""7"",""109737""
""blur"",""71"",""642381""
""focus"",""71"",""643886""
""blur"",""73"",""649452""
""focus"",""73"",""651262""
""blur"",""78"",""676821""
""focus"",""80"",""700226""
""blur"",""102"",""891137""
""focus"",""102"",""894424""
""blur"",""102"",""896919""
""focus"",""102"",""897962""
""blur"",""107"",""1056780""
""focus"",""107"",""1059991""
""blur"",""107"",""1062729""
""focus"",""107"",""1068323""
","""event"",""trial"",""time""
""blur"",""7"",""107150""
""blur"",""71"",""642381""
""blur"",""73"",""649452""
""blur"",""78"",""676821""
""blur"",""102"",""891137""
""blur"",""102"",""896919""
""blur"",""107"",""1056780""
""blur"",""107"",""1062729""
","""event"",""trial"",""time""
""focus"",""7"",""109737""
""focus"",""71"",""643886""
""focus"",""73"",""651262""
""focus"",""80"",""700226""
""focus"",""102"",""894424""
