"trial_type","trial_index","time_elapsed","internal_node_id","task_version","subject_id","interactions","blur_events","focus_events","fullscreenenter_events","fullscreenexit_events","success","view_history","rt","responses","num_errors","age","subject","participantId","rune","rune_set","hex","correct","choice","accuracy","outcome","keys","total_keys","block","practice","value","sub","trial","stimulus","robot","valence","action","sham"
"pavlovia","0","23","0.0-0.0","battery-v0.2","","""event"",""trial"",""time""
""focus"",""0"",""1""
","
","""event"",""trial"",""time""
""focus"",""0"",""1""
","
","
","","","","","","","","","","","","","","","","","","","","","","","","","","",""
"fullscreen","1","38887","0.0-1.0","battery-v0.2","","""event"",""trial"",""time""
""focus"",""0"",""1""
""fullscreenenter"",""2"",""39793""
","
","""event"",""trial"",""time""
""focus"",""0"",""1""
","""event"",""trial"",""time""
""fullscreenenter"",""2"",""39793""
","
","true","","","","","","","","","","","","","","","","","","","","","","","","","",""
"pit-instructions","2","46460","0.0-2.0-0.0","battery-v0.2","","""event"",""trial"",""time""
""focus"",""0"",""1""
""fullscreenenter"",""2"",""39793""
","
","""event"",""trial"",""time""
""focus"",""0"",""1""
","""event"",""trial"",""time""
""fullscreenenter"",""2"",""39793""
","
","","[{""page_index"":0,""viewing_time"":7560}]","7561","","","","","","","","","","","","","","","","","","","","","","","",""
"pit-comprehension","3","51655","0.0-2.0-1.0-0.0","battery-v0.2","","""event"",""trial"",""time""
""focus"",""0"",""1""
""fullscreenenter"",""2"",""39793""
","
","""event"",""trial"",""time""
""focus"",""0"",""1""
","""event"",""trial"",""time""
""fullscreenenter"",""2"",""39793""
","
","","","5190","[""shark""]","0","16","3501","1143","","","","","","","","","","","","","","","","","","",""
"pit-instructions","4","53352","0.0-2.0-1.0-1.0","battery-v0.2","","""event"",""trial"",""time""
""focus"",""0"",""1""
""fullscreenenter"",""2"",""39793""
","
","""event"",""trial"",""time""
""focus"",""0"",""1""
","""event"",""trial"",""time""
""fullscreenenter"",""2"",""39793""
","
","","[{""page_index"":0,""viewing_time"":1689}]","1689","","","","","","","","","","","","","","","","","","","","","","","",""
"pit-comprehension","5","57325","0.0-2.0-2.0-0.0","battery-v0.2","","""event"",""trial"",""time""
""focus"",""0"",""1""
""fullscreenenter"",""2"",""39793""
","
","""event"",""trial"",""time""
""focus"",""0"",""1""
","""event"",""trial"",""time""
""fullscreenenter"",""2"",""39793""
","
","","","3969","[""tiger""]","0","16","3501","1143","","","","","","","","","","","","","","","","","","",""
"pit-instructions","6","59044","0.0-2.0-2.0-1.0","battery-v0.2","","""event"",""trial"",""time""
""focus"",""0"",""1""
""fullscreenenter"",""2"",""39793""
","
","""event"",""trial"",""time""
""focus"",""0"",""1""
","""event"",""trial"",""time""
""fullscreenenter"",""2"",""39793""
","
","","[{""page_index"":0,""viewing_time"":1714}]","1714","","","","","","","","","","","","","","","","","","","","","","","",""
"pit-instructions","7","165929","0.0-2.0-3.0","battery-v0.2","","""event"",""trial"",""time""
""focus"",""0"",""1""
""fullscreenenter"",""2"",""39793""
","
","""event"",""trial"",""time""
""focus"",""0"",""1""
","""event"",""trial"",""time""
""fullscreenenter"",""2"",""39793""
","
","","[{""page_index"":0,""viewing_time"":10503},{""page_index"":1,""viewing_time"":7235},{""page_index"":2,""viewing_time"":12292},{""page_index"":3,""viewing_time"":6274},{""page_index"":4,""viewing_time"":6646},{""page_index"":5,""viewing_time"":6208},{""page_index"":6,""viewing_time"":7660},{""page_index"":7,""viewing_time"":7305},{""page_index"":8,""viewing_time"":6163},{""page_index"":9,""viewing_time"":8395},{""page_index"":10,""viewing_time"":7186},{""page_index"":11,""viewing_time"":8027},{""page_index"":12,""viewing_time"":7370},{""page_index"":13,""viewing_time"":5617}]","106881","","","","","","","","","","","","","","","","","","","","","","","",""
"pit-trial","8","169840","0.0-2.0-4.0-0.0","battery-v0.2","","""event"",""trial"",""time""
""focus"",""0"",""1""
""fullscreenenter"",""2"",""39793""
","
","""event"",""trial"",""time""
""focus"",""0"",""1""
","""event"",""trial"",""time""
""fullscreenenter"",""2"",""39793""
","
","","","1047","","","16","3501","1143","&#9784;","elianto","#FFFFF080"," "," ","1","&#10004","[1903]","1","0","0","","","","","","","",""
"pit-trial","9","173793","0.0-2.0-4.1-0.1","battery-v0.2","","""event"",""trial"",""time""
""focus"",""0"",""1""
""fullscreenenter"",""2"",""39793""
","
","""event"",""trial"",""time""
""focus"",""0"",""1""
","""event"",""trial"",""time""
""fullscreenenter"",""2"",""39793""
","
","","","1078","","","16","3501","1143","&#9784;","elianto","#FFFFF080"," "," ","1","&#10004","[1932]","1","0","0","","","","","","","",""
"pit-trial","10","177669","0.0-2.0-4.2-0.2","battery-v0.2","","""event"",""trial"",""time""
""focus"",""0"",""1""
""fullscreenenter"",""2"",""39793""
","
","""event"",""trial"",""time""
""focus"",""0"",""1""
","""event"",""trial"",""time""
""fullscreenenter"",""2"",""39793""
","
","","","1006","","","16","3501","1143","&#9784;","elianto","#FFFFF080"," "," ","1","&#10004","[1861]","1","0","0","","","","","","","",""
"pit-trial","11","181463","0.0-2.0-4.3-0.3","battery-v0.2","","""event"",""trial"",""time""
""focus"",""0"",""1""
""fullscreenenter"",""2"",""39793""
","
","""event"",""trial"",""time""
""focus"",""0"",""1""
","""event"",""trial"",""time""
""fullscreenenter"",""2"",""39793""
","
","","","922","","","16","3501","1143","&#9784;","elianto","#FFFFF080"," "," ","1","&#10004","[1785]","1","0","0","","","","","","","",""
"pit-trial","12","185772","0.0-2.0-4.4-0.4","battery-v0.2","","""event"",""trial"",""time""
""focus"",""0"",""1""
""fullscreenenter"",""2"",""39793""
","
","""event"",""trial"",""time""
""focus"",""0"",""1""
","""event"",""trial"",""time""
""fullscreenenter"",""2"",""39793""
","
","","","1427","","","16","3501","1143","&#9784;","elianto","#FFFFF080"," "," ","1","&#10004","[2288]","1","0","0","","","","","","","",""
"pit-instructions","13","213548","0.0-2.0-5.0","battery-v0.2","","""event"",""trial"",""time""
""focus"",""0"",""1""
""fullscreenenter"",""2"",""39793""
","
","""event"",""trial"",""time""
""focus"",""0"",""1""
","""event"",""trial"",""time""
""fullscreenenter"",""2"",""39793""
","
","","[{""page_index"":0,""viewing_time"":11237},{""page_index"":1,""viewing_time"":5662},{""page_index"":2,""viewing_time"":5393},{""page_index"":3,""viewing_time"":5473}]","27765","","","","","","","","","","","","","","","","","","","","","","","",""
"pit-trial","14","218410","0.0-2.0-6.0-0.0","battery-v0.2","","""event"",""trial"",""time""
""focus"",""0"",""1""
""fullscreenenter"",""2"",""39793""
","
","""event"",""trial"",""time""
""focus"",""0"",""1""
","""event"",""trial"",""time""
""fullscreenenter"",""2"",""39793""
","
","","","-1","","","16","3501","1143","&#9854;","elianto","#FFFFF080","-1","-1","1","&#10004","[]","0","0","1","","","","","","","",""
"pit-trial","15","223281","0.0-2.0-6.1-0.1","battery-v0.2","","""event"",""trial"",""time""
""focus"",""0"",""1""
""fullscreenenter"",""2"",""39793""
","
","""event"",""trial"",""time""
""focus"",""0"",""1""
","""event"",""trial"",""time""
""fullscreenenter"",""2"",""39793""
","
","","","-1","","","16","3501","1143","&#9854;","elianto","#FFFFF080","-1","-1","1","&#10004","[]","0","0","1","","","","","","","",""
"pit-trial","16","228163","0.0-2.0-6.2-0.2","battery-v0.2","","""event"",""trial"",""time""
""focus"",""0"",""1""
""fullscreenenter"",""2"",""39793""
","
","""event"",""trial"",""time""
""focus"",""0"",""1""
","""event"",""trial"",""time""
""fullscreenenter"",""2"",""39793""
","
","","","-1","","","16","3501","1143","&#9854;","elianto","#FFFFF080","-1","-1","1","&#10004","[]","0","0","1","","","","","","","",""
"pit-trial","17","233028","0.0-2.0-6.3-0.3","battery-v0.2","","""event"",""trial"",""time""
""focus"",""0"",""1""
""fullscreenenter"",""2"",""39793""
","
","""event"",""trial"",""time""
""focus"",""0"",""1""
","""event"",""trial"",""time""
""fullscreenenter"",""2"",""39793""
","
","","","-1","","","16","3501","1143","&#9854;","elianto","#FFFFF080","-1","-1","1","&#10004","[]","0","0","1","","","","","","","",""
"pit-trial","18","237894","0.0-2.0-6.4-0.4","battery-v0.2","","""event"",""trial"",""time""
""focus"",""0"",""1""
""fullscreenenter"",""2"",""39793""
","
","""event"",""trial"",""time""
""focus"",""0"",""1""
","""event"",""trial"",""time""
""fullscreenenter"",""2"",""39793""
","
","","","-1","","","16","3501","1143","&#9854;","elianto","#FFFFF080","-1","-1","1","&#10004","[]","0","0","1","","","","","","","",""
"pit-instructions","19","557687","0.0-2.0-7.0","battery-v0.2","","""event"",""trial"",""time""
""focus"",""0"",""1""
""fullscreenenter"",""2"",""39793""
","
","""event"",""trial"",""time""
""focus"",""0"",""1""
","""event"",""trial"",""time""
""fullscreenenter"",""2"",""39793""
","
","","[{""page_index"":0,""viewing_time"":5999},{""page_index"":1,""viewing_time"":16595},{""page_index"":2,""viewing_time"":7214},{""page_index"":3,""viewing_time"":7208},{""page_index"":4,""viewing_time"":6288},{""page_index"":5,""viewing_time"":8860},{""page_index"":6,""viewing_time"":4595},{""page_index"":7,""viewing_time"":8553},{""page_index"":8,""viewing_time"":8468},{""page_index"":9,""viewing_time"":183704},{""page_index"":10,""viewing_time"":7385},{""page_index"":11,""viewing_time"":4092},{""page_index"":12,""viewing_time"":9615},{""page_index"":13,""viewing_time"":7659},{""page_index"":14,""viewing_time"":8559},{""page_index"":15,""viewing_time"":8728},{""page_index"":16,""viewing_time"":8465},{""page_index"":17,""viewing_time"":7796}]","319783","","","","","","","","","","","","","","","","","","","","","","","",""
"pit-trial","20","562552","0.0-2.0-8.0-0.0","battery-v0.2","","""event"",""trial"",""time""
""focus"",""0"",""1""
""fullscreenenter"",""2"",""39793""
","
","""event"",""trial"",""time""
""focus"",""0"",""1""
","""event"",""trial"",""time""
""fullscreenenter"",""2"",""39793""
","
","","","-1","","","16","3501","1143","&#9776;","elianto","#3366ff99"," ","-1","0","0","[]","0","0","1","","","","","","","",""
"pit-trial","21","567422","0.0-2.0-8.0-1.0","battery-v0.2","","""event"",""trial"",""time""
""focus"",""0"",""1""
""fullscreenenter"",""2"",""39793""
","
","""event"",""trial"",""time""
""focus"",""0"",""1""
","""event"",""trial"",""time""
""fullscreenenter"",""2"",""39793""
","
","","","-1","","","16","3501","1143","&#9776;","elianto","#3366ff99"," ","-1","0","0","[3195]","1","0","1","","","","","","","",""
"pit-trial","22","572303","0.0-2.0-8.0-2.0","battery-v0.2","","""event"",""trial"",""time""
""focus"",""0"",""1""
""fullscreenenter"",""2"",""39793""
","
","""event"",""trial"",""time""
""focus"",""0"",""1""
","""event"",""trial"",""time""
""fullscreenenter"",""2"",""39793""
","
","","","-1","","","16","3501","1143","&#9776;","elianto","#3366ff99"," ","-1","0","0","[3317]","1","0","1","","","","","","","",""
"pit-trial","23","577167","0.0-2.0-8.0-3.0","battery-v0.2","","""event"",""trial"",""time""
""focus"",""0"",""1""
""fullscreenenter"",""2"",""39793""
","
","""event"",""trial"",""time""
""focus"",""0"",""1""
","""event"",""trial"",""time""
""fullscreenenter"",""2"",""39793""
","
","","","-1","","","16","3501","1143","&#9776;","elianto","#3366ff99"," ","-1","0","+10","[3036]","1","0","1","","","","","","","",""
"pit-trial","24","581603","0.0-2.0-8.0-4.0","battery-v0.2","","""event"",""trial"",""time""
""focus"",""0"",""1""
""fullscreenenter"",""2"",""39793""
","
","""event"",""trial"",""time""
""focus"",""0"",""1""
","""event"",""trial"",""time""
""fullscreenenter"",""2"",""39793""
","
","","","1563","","","16","3501","1143","&#9776;","elianto","#3366ff99"," "," ","1","+10","[321,2421,3016]","3","0","1","","","","","","","",""
"pit-trial","25","585147","0.0-2.0-8.1-0.1","battery-v0.2","","""event"",""trial"",""time""
""focus"",""0"",""1""
""fullscreenenter"",""2"",""39793""
","
","""event"",""trial"",""time""
""focus"",""0"",""1""
","""event"",""trial"",""time""
""fullscreenenter"",""2"",""39793""
","
","","","677","","","16","3501","1143","&#9776;","elianto","#3366ff99"," "," ","1","+10","[1530]","1","0","1","","","","","","","",""
"pit-trial","26","588785","0.0-2.0-8.1-1.1","battery-v0.2","","""event"",""trial"",""time""
""focus"",""0"",""1""
""fullscreenenter"",""2"",""39793""
","
","""event"",""trial"",""time""
""focus"",""0"",""1""
","""event"",""trial"",""time""
""fullscreenenter"",""2"",""39793""
","
","","","772","","","16","3501","1143","&#9776;","elianto","#3366ff99"," "," ","1","+10","[1632]","1","0","1","","","","","","","",""
"pit-trial","27","592559","0.0-2.0-8.1-2.1","battery-v0.2","","""event"",""trial"",""time""
""focus"",""0"",""1""
""fullscreenenter"",""2"",""39793""
","
","""event"",""trial"",""time""
""focus"",""0"",""1""
","""event"",""trial"",""time""
""fullscreenenter"",""2"",""39793""
","
","","","909","","","16","3501","1143","&#9776;","elianto","#3366ff99"," "," ","1","+10","[1763]","1","0","1","","","","","","","",""
"pit-trial","28","596207","0.0-2.0-8.1-3.1","battery-v0.2","","""event"",""trial"",""time""
""focus"",""0"",""1""
""fullscreenenter"",""2"",""39793""
","
","""event"",""trial"",""time""
""focus"",""0"",""1""
","""event"",""trial"",""time""
""fullscreenenter"",""2"",""39793""
","
","","","780","","","16","3501","1143","&#9776;","elianto","#3366ff99"," "," ","1","0","[1636]","1","0","1","","","","","","","",""
"pit-trial","29","599595","0.0-2.0-8.1-4.1","battery-v0.2","","""event"",""trial"",""time""
""focus"",""0"",""1""
""fullscreenenter"",""2"",""39793""
","
","""event"",""trial"",""time""
""focus"",""0"",""1""
","""event"",""trial"",""time""
""fullscreenenter"",""2"",""39793""
","
","","","510","","","16","3501","1143","&#9776;","elianto","#3366ff99"," "," ","1","+10","[1372]","1","0","1","","","","","","","",""
"call-function","30","599599","0.0-2.0-9.0","battery-v0.2","","""event"",""trial"",""time""
""focus"",""0"",""1""
""fullscreenenter"",""2"",""39793""
","
","""event"",""trial"",""time""
""focus"",""0"",""1""
","""event"",""trial"",""time""
""fullscreenenter"",""2"",""39793""
","
","","","","","","","","","","","","","","","","","","","","","","","","","","",""
"pit-instructions","31","645973","0.0-2.0-10.0","battery-v0.2","","""event"",""trial"",""time""
""focus"",""0"",""1""
""fullscreenenter"",""2"",""39793""
","
","""event"",""trial"",""time""
""focus"",""0"",""1""
","""event"",""trial"",""time""
""fullscreenenter"",""2"",""39793""
","
","","[{""page_index"":0,""viewing_time"":6678},{""page_index"":1,""viewing_time"":12576},{""page_index"":2,""viewing_time"":9476},{""page_index"":3,""viewing_time"":9893},{""page_index"":4,""viewing_time"":7748}]","46371","","","","","","","","","","","","","","","","","","","","","","","",""
"pit-trial","32","649810","0.0-2.0-11.0-0.0","battery-v0.2","","""event"",""trial"",""time""
""focus"",""0"",""1""
""fullscreenenter"",""2"",""39793""
","
","""event"",""trial"",""time""
""focus"",""0"",""1""
","""event"",""trial"",""time""
""fullscreenenter"",""2"",""39793""
","
","","","963","","","16","3501","1143","&#9761;","elianto","#3366ff99","-1"," ","0","0","[1822]","1","0","2","","","","","","","",""
"pit-trial","33","653178","0.0-2.0-11.0-1.0","battery-v0.2","","""event"",""trial"",""time""
""focus"",""0"",""1""
""fullscreenenter"",""2"",""39793""
","
","""event"",""trial"",""time""
""focus"",""0"",""1""
","""event"",""trial"",""time""
""fullscreenenter"",""2"",""39793""
","
","","","501","","","16","3501","1143","&#9761;","elianto","#3366ff99","-1"," ","0","0","[1361]","1","0","2","","","","","","","",""
"pit-trial","34","658043","0.0-2.0-11.0-2.0","battery-v0.2","","""event"",""trial"",""time""
""focus"",""0"",""1""
""fullscreenenter"",""2"",""39793""
","
","""event"",""trial"",""time""
""focus"",""0"",""1""
","""event"",""trial"",""time""
""fullscreenenter"",""2"",""39793""
","
","","","-1","","","16","3501","1143","&#9761;","elianto","#3366ff99","-1","-1","1","+10","[]","0","0","2","","","","","","","",""
"pit-trial","35","662911","0.0-2.0-11.0-3.0","battery-v0.2","","""event"",""trial"",""time""
""focus"",""0"",""1""
""fullscreenenter"",""2"",""39793""
","
","""event"",""trial"",""time""
""focus"",""0"",""1""
","""event"",""trial"",""time""
""fullscreenenter"",""2"",""39793""
","
","","","-1","","","16","3501","1143","&#9761;","elianto","#3366ff99","-1","-1","1","0","[]","0","0","2","","","","","","","",""
"pit-trial","36","667778","0.0-2.0-11.0-4.0","battery-v0.2","","""event"",""trial"",""time""
""focus"",""0"",""1""
""fullscreenenter"",""2"",""39793""
","
","""event"",""trial"",""time""
""focus"",""0"",""1""
","""event"",""trial"",""time""
""fullscreenenter"",""2"",""39793""
","
","","","-1","","","16","3501","1143","&#9761;","elianto","#3366ff99","-1","-1","1","+10","[]","0","0","2","","","","","","","",""
"pit-trial","37","672637","0.0-2.0-11.1-0.1","battery-v0.2","","""event"",""trial"",""time""
""focus"",""0"",""1""
""fullscreenenter"",""2"",""39793""
","
","""event"",""trial"",""time""
""focus"",""0"",""1""
","""event"",""trial"",""time""
""fullscreenenter"",""2"",""39793""
","
","","","-1","","","16","3501","1143","&#9761;","elianto","#3366ff99","-1","-1","1","+10","[]","0","0","2","","","","","","","",""
"pit-trial","38","677506","0.0-2.0-11.1-1.1","battery-v0.2","","""event"",""trial"",""time""
""focus"",""0"",""1""
""fullscreenenter"",""2"",""39793""
","
","""event"",""trial"",""time""
""focus"",""0"",""1""
","""event"",""trial"",""time""
""fullscreenenter"",""2"",""39793""
","
","","","-1","","","16","3501","1143","&#9761;","elianto","#3366ff99","-1","-1","1","+10","[]","0","0","2","","","","","","","",""
"pit-trial","39","682387","0.0-2.0-11.1-2.1","battery-v0.2","","""event"",""trial"",""time""
""focus"",""0"",""1""
""fullscreenenter"",""2"",""39793""
","
","""event"",""trial"",""time""
""focus"",""0"",""1""
","""event"",""trial"",""time""
""fullscreenenter"",""2"",""39793""
","
","","","-1","","","16","3501","1143","&#9761;","elianto","#3366ff99","-1","-1","1","+10","[]","0","0","2","","","","","","","",""
"pit-trial","40","687261","0.0-2.0-11.1-3.1","battery-v0.2","","""event"",""trial"",""time""
""focus"",""0"",""1""
""fullscreenenter"",""2"",""39793""
","
","""event"",""trial"",""time""
""focus"",""0"",""1""
","""event"",""trial"",""time""
""fullscreenenter"",""2"",""39793""
","
","","","-1","","","16","3501","1143","&#9761;","elianto","#3366ff99","-1","-1","1","0","[]","0","0","2","","","","","","","",""
"pit-trial","41","692137","0.0-2.0-11.1-4.1","battery-v0.2","","""event"",""trial"",""time""
""focus"",""0"",""1""
""fullscreenenter"",""2"",""39793""
","
","""event"",""trial"",""time""
""focus"",""0"",""1""
","""event"",""trial"",""time""
""fullscreenenter"",""2"",""39793""
","
","","","-1","","","16","3501","1143","&#9761;","elianto","#3366ff99","-1","-1","1","+10","[]","0","0","2","","","","","","","",""
"call-function","42","692140","0.0-2.0-12.0","battery-v0.2","","""event"",""trial"",""time""
""focus"",""0"",""1""
""fullscreenenter"",""2"",""39793""
","
","""event"",""trial"",""time""
""focus"",""0"",""1""
","""event"",""trial"",""time""
""fullscreenenter"",""2"",""39793""
","
","","","","","","","","","","","","","","","","","","","","","","","","","","",""
"pit-instructions","43","728028","0.0-2.0-13.0","battery-v0.2","","""event"",""trial"",""time""
""focus"",""0"",""1""
""fullscreenenter"",""2"",""39793""
","
","""event"",""trial"",""time""
""focus"",""0"",""1""
","""event"",""trial"",""time""
""fullscreenenter"",""2"",""39793""
","
","","[{""page_index"":0,""viewing_time"":8606},{""page_index"":1,""viewing_time"":6759},{""page_index"":2,""viewing_time"":3589},{""page_index"":3,""viewing_time"":10984},{""page_index"":4,""viewing_time"":5949}]","35887","","","","","","","","","","","","","","","","","","","","","","","",""
"pit-trial","44","732896","0.0-2.0-14.0-0.0","battery-v0.2","","""event"",""trial"",""time""
""focus"",""0"",""1""
""fullscreenenter"",""2"",""39793""
","
","""event"",""trial"",""time""
""focus"",""0"",""1""
","""event"",""trial"",""time""
""fullscreenenter"",""2"",""39793""
","
","","","-1","","","16","3501","1143","&#9826;","elianto","#f73b6a7A","-1","-1","1","0","[]","0","0","3","","","","","","","",""
"pit-trial","45","737773","0.0-2.0-14.0-1.0","battery-v0.2","","""event"",""trial"",""time""
""focus"",""0"",""1""
""fullscreenenter"",""2"",""39793""
","
","""event"",""trial"",""time""
""focus"",""0"",""1""
","""event"",""trial"",""time""
""fullscreenenter"",""2"",""39793""
","
","","","-1","","","16","3501","1143","&#9826;","elianto","#f73b6a7A","-1","-1","1","0","[]","0","0","3","","","","","","","",""
"pit-trial","46","742635","0.0-2.0-14.0-2.0","battery-v0.2","","""event"",""trial"",""time""
""focus"",""0"",""1""
""fullscreenenter"",""2"",""39793""
","
","""event"",""trial"",""time""
""focus"",""0"",""1""
","""event"",""trial"",""time""
""fullscreenenter"",""2"",""39793""
","
","","","-1","","","16","3501","1143","&#9826;","elianto","#f73b6a7A","-1","-1","1","0","[]","0","0","3","","","","","","","",""
"pit-trial","47","747501","0.0-2.0-14.0-3.0","battery-v0.2","","""event"",""trial"",""time""
""focus"",""0"",""1""
""fullscreenenter"",""2"",""39793""
","
","""event"",""trial"",""time""
""focus"",""0"",""1""
","""event"",""trial"",""time""
""fullscreenenter"",""2"",""39793""
","
","","","-1","","","16","3501","1143","&#9826;","elianto","#f73b6a7A","-1","-1","1","-10","[]","0","0","3","","","","","","","",""
"pit-trial","48","752365","0.0-2.0-14.0-4.0","battery-v0.2","","""event"",""trial"",""time""
""focus"",""0"",""1""
""fullscreenenter"",""2"",""39793""
","
","""event"",""trial"",""time""
""focus"",""0"",""1""
","""event"",""trial"",""time""
""fullscreenenter"",""2"",""39793""
","
","","","-1","","","16","3501","1143","&#9826;","elianto","#f73b6a7A","-1","-1","1","0","[]","0","0","3","","","","","","","",""
"call-function","49","752368","0.0-2.0-15.0","battery-v0.2","","""event"",""trial"",""time""
""focus"",""0"",""1""
""fullscreenenter"",""2"",""39793""
","
","""event"",""trial"",""time""
""focus"",""0"",""1""
","""event"",""trial"",""time""
""fullscreenenter"",""2"",""39793""
","
","","","","","","","","","","","","","","","","","","","","","","","","","","",""
"pit-instructions","50","781178","0.0-2.0-16.0","battery-v0.2","","""event"",""trial"",""time""
""focus"",""0"",""1""
""fullscreenenter"",""2"",""39793""
","
","""event"",""trial"",""time""
""focus"",""0"",""1""
","""event"",""trial"",""time""
""fullscreenenter"",""2"",""39793""
","
","","[{""page_index"":0,""viewing_time"":9659},{""page_index"":1,""viewing_time"":8834},{""page_index"":2,""viewing_time"":4950},{""page_index"":3,""viewing_time"":5365}]","28808","","","","","","","","","","","","","","","","","","","","","","","",""
"pit-trial","51","785783","0.0-2.0-17.0-0.0","battery-v0.2","","""event"",""trial"",""time""
""focus"",""0"",""1""
""fullscreenenter"",""2"",""39793""
","
","""event"",""trial"",""time""
""focus"",""0"",""1""
","""event"",""trial"",""time""
""fullscreenenter"",""2"",""39793""
","
","","","1734","","","16","3501","1143","&#9789;","elianto","#f73b6a7A"," "," ","1","0","[2592]","1","0","4","","","","","","","",""
"pit-trial","52","788951","0.0-2.0-17.0-1.0","battery-v0.2","","""event"",""trial"",""time""
""focus"",""0"",""1""
""fullscreenenter"",""2"",""39793""
","
","""event"",""trial"",""time""
""focus"",""0"",""1""
","""event"",""trial"",""time""
""fullscreenenter"",""2"",""39793""
","
","","","296","","","16","3501","1143","&#9789;","elianto","#f73b6a7A"," "," ","1","0","[1156]","1","0","4","","","","","","","",""
"pit-trial","53","793818","0.0-2.0-17.0-2.0","battery-v0.2","","""event"",""trial"",""time""
""focus"",""0"",""1""
""fullscreenenter"",""2"",""39793""
","
","""event"",""trial"",""time""
""focus"",""0"",""1""
","""event"",""trial"",""time""
""fullscreenenter"",""2"",""39793""
","
","","","-1","","","16","3501","1143","&#9789;","elianto","#f73b6a7A"," ","-1","0","-10","[]","0","0","4","","","","","","","",""
"pit-trial","54","798684","0.0-2.0-17.0-3.0","battery-v0.2","","""event"",""trial"",""time""
""focus"",""0"",""1""
""fullscreenenter"",""2"",""39793""
","
","""event"",""trial"",""time""
""focus"",""0"",""1""
","""event"",""trial"",""time""
""fullscreenenter"",""2"",""39793""
","
","","","-1","","","16","3501","1143","&#9789;","elianto","#f73b6a7A"," ","-1","0","0","[]","0","0","4","","","","","","","",""
"pit-trial","55","803548","0.0-2.0-17.0-4.0","battery-v0.2","","""event"",""trial"",""time""
""focus"",""0"",""1""
""fullscreenenter"",""2"",""39793""
","
","""event"",""trial"",""time""
""focus"",""0"",""1""
","""event"",""trial"",""time""
""fullscreenenter"",""2"",""39793""
","
","","","-1","","","16","3501","1143","&#9789;","elianto","#f73b6a7A"," ","-1","0","-10","[]","0","0","4","","","","","","","",""
"pit-trial","56","808417","0.0-2.0-17.1-0.1","battery-v0.2","","""event"",""trial"",""time""
""focus"",""0"",""1""
""fullscreenenter"",""2"",""39793""
","
","""event"",""trial"",""time""
""focus"",""0"",""1""
","""event"",""trial"",""time""
""fullscreenenter"",""2"",""39793""
","
","","","-1","","","16","3501","1143","&#9789;","elianto","#f73b6a7A"," ","-1","0","-10","[3291]","1","0","4","","","","","","","",""
"pit-trial","57","811828","0.0-2.0-17.1-1.1","battery-v0.2","","""event"",""trial"",""time""
""focus"",""0"",""1""
""fullscreenenter"",""2"",""39793""
","
","""event"",""trial"",""time""
""focus"",""0"",""1""
","""event"",""trial"",""time""
""fullscreenenter"",""2"",""39793""
","
","","","542","","","16","3501","1143","&#9789;","elianto","#f73b6a7A"," "," ","1","0","[1398]","1","0","4","","","","","","","",""
"pit-trial","58","815159","0.0-2.0-17.1-2.1","battery-v0.2","","""event"",""trial"",""time""
""focus"",""0"",""1""
""fullscreenenter"",""2"",""39793""
","
","""event"",""trial"",""time""
""focus"",""0"",""1""
","""event"",""trial"",""time""
""fullscreenenter"",""2"",""39793""
","
","","","464","","","16","3501","1143","&#9789;","elianto","#f73b6a7A"," "," ","1","0","[1322]","1","0","4","","","","","","","",""
"pit-trial","59","818530","0.0-2.0-17.1-3.1","battery-v0.2","","""event"",""trial"",""time""
""focus"",""0"",""1""
""fullscreenenter"",""2"",""39793""
","
","""event"",""trial"",""time""
""focus"",""0"",""1""
","""event"",""trial"",""time""
""fullscreenenter"",""2"",""39793""
","
","","","498","","","16","3501","1143","&#9789;","elianto","#f73b6a7A"," "," ","1","-10","[1360]","1","0","4","","","","","","","",""
"pit-trial","60","821906","0.0-2.0-17.1-4.1","battery-v0.2","","""event"",""trial"",""time""
""focus"",""0"",""1""
""fullscreenenter"",""2"",""39793""
","
","""event"",""trial"",""time""
""focus"",""0"",""1""
","""event"",""trial"",""time""
""fullscreenenter"",""2"",""39793""
","
","","","499","","","16","3501","1143","&#9789;","elianto","#f73b6a7A"," "," ","1","0","[1357]","1","0","4","","","","","","","",""
"call-function","61","821908","0.0-2.0-18.0","battery-v0.2","","""event"",""trial"",""time""
""focus"",""0"",""1""
""fullscreenenter"",""2"",""39793""
","
","""event"",""trial"",""time""
""focus"",""0"",""1""
","""event"",""trial"",""time""
""fullscreenenter"",""2"",""39793""
","
","","","","","","","","","","","","","","","","","","","","","","","","","","",""
"pit-instructions","62","886927","0.0-2.0-19.0","battery-v0.2","","""event"",""trial"",""time""
""focus"",""0"",""1""
""fullscreenenter"",""2"",""39793""
","
","""event"",""trial"",""time""
""focus"",""0"",""1""
","""event"",""trial"",""time""
""fullscreenenter"",""2"",""39793""
","
","","[{""page_index"":0,""viewing_time"":6910},{""page_index"":1,""viewing_time"":5466},{""page_index"":2,""viewing_time"":10159},{""page_index"":3,""viewing_time"":6302},{""page_index"":4,""viewing_time"":6578},{""page_index"":5,""viewing_time"":14209},{""page_index"":6,""viewing_time"":6378},{""page_index"":7,""viewing_time"":5978},{""page_index"":8,""viewing_time"":3036}]","65017","","","","","","","","","","","","","","","","","","","","","","","",""
"pit-comprehension","63","892184","0.0-2.0-20.0-0.0","battery-v0.2","","""event"",""trial"",""time""
""focus"",""0"",""1""
""fullscreenenter"",""2"",""39793""
","
","""event"",""trial"",""time""
""focus"",""0"",""1""
","""event"",""trial"",""time""
""fullscreenenter"",""2"",""39793""
","
","","","5253","[""SPACE""]","0","16","3501","1143","","","","","","","","","","","","","","","","","","",""
"pit-instructions","64","895218","0.0-2.0-20.0-1.0","battery-v0.2","","""event"",""trial"",""time""
""focus"",""0"",""1""
""fullscreenenter"",""2"",""39793""
","
","""event"",""trial"",""time""
""focus"",""0"",""1""
","""event"",""trial"",""time""
""fullscreenenter"",""2"",""39793""
","
","","[{""page_index"":0,""viewing_time"":2992}]","2993","","","","","","","","","","","","","","","","","","","","","","","",""
"pit-comprehension","65","901789","0.0-2.0-21.0-0.0","battery-v0.2","","""event"",""trial"",""time""
""focus"",""0"",""1""
""fullscreenenter"",""2"",""39793""
","
","""event"",""trial"",""time""
""focus"",""0"",""1""
","""event"",""trial"",""time""
""fullscreenenter"",""2"",""39793""
","
","","","6565","[""10""]","0","16","3501","1143","","","","","","","","","","","","","","","","","","",""
"pit-instructions","66","903716","0.0-2.0-21.0-1.0","battery-v0.2","","""event"",""trial"",""time""
""focus"",""0"",""1""
""fullscreenenter"",""2"",""39793""
","
","""event"",""trial"",""time""
""focus"",""0"",""1""
","""event"",""trial"",""time""
""fullscreenenter"",""2"",""39793""
","
","","[{""page_index"":0,""viewing_time"":1883}]","1883","","","","","","","","","","","","","","","","","","","","","","","",""
"pit-comprehension","67","912077","0.0-2.0-22.0-0.0","battery-v0.2","","""event"",""trial"",""time""
""focus"",""0"",""1""
""fullscreenenter"",""2"",""39793""
","
","""event"",""trial"",""time""
""focus"",""0"",""1""
","""event"",""trial"",""time""
""fullscreenenter"",""2"",""39793""
","
","","","8357","[""0""]","0","16","3501","1143","","","","","","","","","","","","","","","","","","",""
"pit-instructions","68","913957","0.0-2.0-22.0-1.0","battery-v0.2","","""event"",""trial"",""time""
""focus"",""0"",""1""
""fullscreenenter"",""2"",""39793""
","
","""event"",""trial"",""time""
""focus"",""0"",""1""
","""event"",""trial"",""time""
""fullscreenenter"",""2"",""39793""
","
","","[{""page_index"":0,""viewing_time"":1837}]","1837","","","","","","","","","","","","","","","","","","","","","","","",""
"pit-comprehension","69","928979","0.0-2.0-23.0-0.0","battery-v0.2","","""event"",""trial"",""time""
""focus"",""0"",""1""
""fullscreenenter"",""2"",""39793""
","
","""event"",""trial"",""time""
""focus"",""0"",""1""
","""event"",""trial"",""time""
""fullscreenenter"",""2"",""39793""
","
","","","15018","[""False""]","1","16","3501","1143","","","","","","","","","","","","","","","","","","",""
"pit-instructions","70","933787","0.0-2.0-23.0-1.0","battery-v0.2","","""event"",""trial"",""time""
""focus"",""0"",""1""
""fullscreenenter"",""2"",""39793""
","
","""event"",""trial"",""time""
""focus"",""0"",""1""
","""event"",""trial"",""time""
""fullscreenenter"",""2"",""39793""
","
","","[{""page_index"":0,""viewing_time"":4763}]","4764","","","","","","","","","","","","","","","","","","","","","","","",""
"pit-instructions","71","936191","0.0-2.0-23.0-2.0-0.0","battery-v0.2","","""event"",""trial"",""time""
""focus"",""0"",""1""
""fullscreenenter"",""2"",""39793""
","
","""event"",""trial"",""time""
""focus"",""0"",""1""
","""event"",""trial"",""time""
""fullscreenenter"",""2"",""39793""
","
","","[{""page_index"":0,""viewing_time"":2401}]","2402","","","","","","","","","","","","","","","","","","","","","","","",""
"pit-comprehension","72","944789","0.0-2.0-23.1-0.1","battery-v0.2","","""event"",""trial"",""time""
""focus"",""0"",""1""
""fullscreenenter"",""2"",""39793""
","
","""event"",""trial"",""time""
""focus"",""0"",""1""
","""event"",""trial"",""time""
""fullscreenenter"",""2"",""39793""
","
","","","8593","[""True""]","0","16","3501","1143","","","","","","","","","","","","","","","","","","",""
"pit-instructions","73","949457","0.0-2.0-23.1-1.1","battery-v0.2","","""event"",""trial"",""time""
""focus"",""0"",""1""
""fullscreenenter"",""2"",""39793""
","
","""event"",""trial"",""time""
""focus"",""0"",""1""
","""event"",""trial"",""time""
""fullscreenenter"",""2"",""39793""
","
","","[{""page_index"":0,""viewing_time"":4624}]","4624","","","","","","","","","","","","","","","","","","","","","","","",""
"pit-comprehension","74","957233","0.0-2.0-24.0-0.0","battery-v0.2","","""event"",""trial"",""time""
""focus"",""0"",""1""
""fullscreenenter"",""2"",""39793""
","
","""event"",""trial"",""time""
""focus"",""0"",""1""
","""event"",""trial"",""time""
""fullscreenenter"",""2"",""39793""
","
","","","7770","[""True""]","0","16","3501","1143","","","","","","","","","","","","","","","","","","",""
"pit-instructions","75","959620","0.0-2.0-24.0-1.0","battery-v0.2","","""event"",""trial"",""time""
""focus"",""0"",""1""
""fullscreenenter"",""2"",""39793""
","
","""event"",""trial"",""time""
""focus"",""0"",""1""
","""event"",""trial"",""time""
""fullscreenenter"",""2"",""39793""
","
","","[{""page_index"":0,""viewing_time"":2342}]","2342","","","","","","","","","","","","","","","","","","","","","","","",""
"pit-comprehension","76","966612","0.0-2.0-25.0-0.0","battery-v0.2","","""event"",""trial"",""time""
""focus"",""0"",""1""
""fullscreenenter"",""2"",""39793""
","
","""event"",""trial"",""time""
""focus"",""0"",""1""
","""event"",""trial"",""time""
""fullscreenenter"",""2"",""39793""
","
","","","6987","[""True""]","0","16","3501","1143","","","","","","","","","","","","","","","","","","",""
"pit-instructions","77","974523","0.0-2.0-25.0-1.0","battery-v0.2","","""event"",""trial"",""time""
""focus"",""0"",""1""
""fullscreenenter"",""2"",""39793""
","
","""event"",""trial"",""time""
""focus"",""0"",""1""
","""event"",""trial"",""time""
""fullscreenenter"",""2"",""39793""
","
","","[{""page_index"":0,""viewing_time"":7864}]","7864","","","","","","","","","","","","","","","","","","","","","","","",""
"pit-comprehension","78","982119","0.0-2.0-26.0-0.0","battery-v0.2","","""event"",""trial"",""time""
""focus"",""0"",""1""
""fullscreenenter"",""2"",""39793""
","
","""event"",""trial"",""time""
""focus"",""0"",""1""
","""event"",""trial"",""time""
""fullscreenenter"",""2"",""39793""
","
","","","7592","[""False""]","0","16","3501","1143","","","","","","","","","","","","","","","","","","",""
"pit-instructions","79","984477","0.0-2.0-26.0-1.0","battery-v0.2","","""event"",""trial"",""time""
""focus"",""0"",""1""
""fullscreenenter"",""2"",""39793""
","
","""event"",""trial"",""time""
""focus"",""0"",""1""
","""event"",""trial"",""time""
""fullscreenenter"",""2"",""39793""
","
","","[{""page_index"":0,""viewing_time"":2310}]","2311","","","","","","","","","","","","","","","","","","","","","","","",""
"pit-instructions","80","1001814","0.0-3.0","battery-v0.2","","""event"",""trial"",""time""
""focus"",""0"",""1""
""fullscreenenter"",""2"",""39793""
","
","""event"",""trial"",""time""
""focus"",""0"",""1""
","""event"",""trial"",""time""
""fullscreenenter"",""2"",""39793""
","
","","[{""page_index"":0,""viewing_time"":4121},{""page_index"":1,""viewing_time"":6497},{""page_index"":2,""viewing_time"":6715}]","17333","","","","","","","","","","","","","","","","","","","","","","","",""
"pit-trial","81","1006679","0.0-4.0","battery-v0.2","","""event"",""trial"",""time""
""focus"",""0"",""1""
""fullscreenenter"",""2"",""39793""
","
","""event"",""trial"",""time""
""focus"",""0"",""1""
","""event"",""trial"",""time""
""fullscreenenter"",""2"",""39793""
","
","","","-1","","","16","3501","1143","&#9728;","elianto","#f73b6a7A","-1","-1","1","-10","[]","0","1","","","3501","1","0","4","lose","no-go","1"
"pit-trial","82","1010790","0.0-5.0","battery-v0.2","","""event"",""trial"",""time""
""focus"",""0"",""1""
""fullscreenenter"",""2"",""39793""
","
","""event"",""trial"",""time""
""focus"",""0"",""1""
","""event"",""trial"",""time""
""fullscreenenter"",""2"",""39793""
","
","","","1239","","","16","3501","1143","&#9730;","elianto","#3366ff99"," "," ","1","+10","[2097]","1","1","","","3501","2","1","1","win","go","0"
"pit-trial","83","1015654","0.0-6.0","battery-v0.2","","""event"",""trial"",""time""
""focus"",""0"",""1""
""fullscreenenter"",""2"",""39793""
","
","""event"",""trial"",""time""
""focus"",""0"",""1""
","""event"",""trial"",""time""
""fullscreenenter"",""2"",""39793""
","
","","","-1","","","16","3501","1143","&#9733;","elianto","#3366ff99","-1","-1","1","+10","[]","0","1","","","3501","3","2","2","win","no-go","0"
"pit-trial","84","1019955","0.0-7.0","battery-v0.2","","""event"",""trial"",""time""
""focus"",""0"",""1""
""fullscreenenter"",""2"",""39793""
","
","""event"",""trial"",""time""
""focus"",""0"",""1""
","""event"",""trial"",""time""
""fullscreenenter"",""2"",""39793""
","
","","","1427","","","16","3501","1143","&#9752;","elianto","#f73b6a7A"," "," ","1","-10","[2287]","1","1","","","3501","4","3","3","lose","go","1"
"pit-trial","85","1024319","0.0-8.0","battery-v0.2","","""event"",""trial"",""time""
""focus"",""0"",""1""
""fullscreenenter"",""2"",""39793""
","
","""event"",""trial"",""time""
""focus"",""0"",""1""
","""event"",""trial"",""time""
""fullscreenenter"",""2"",""39793""
","
","","","1493","","","16","3501","1143","&#9730;","elianto","#3366ff99"," "," ","1","+10","[2353]","1","1","","","3501","5","1","1","win","go","0"
"pit-trial","86","1028971","0.0-9.0","battery-v0.2","","""event"",""trial"",""time""
""focus"",""0"",""1""
""fullscreenenter"",""2"",""39793""
","
","""event"",""trial"",""time""
""focus"",""0"",""1""
","""event"",""trial"",""time""
""fullscreenenter"",""2"",""39793""
","
","","","1788","","","16","3501","1143","&#9728;","elianto","#f73b6a7A","-1"," ","0","-10","[2646]","1","1","","","3501","6","0","4","lose","no-go","0"
"pit-trial","87","1033350","0.0-10.0","battery-v0.2","","""event"",""trial"",""time""
""focus"",""0"",""1""
""fullscreenenter"",""2"",""39793""
","
","""event"",""trial"",""time""
""focus"",""0"",""1""
","""event"",""trial"",""time""
""fullscreenenter"",""2"",""39793""
","
","","","1507","","","16","3501","1143","&#9733;","elianto","#3366ff99","-1"," ","0","0","[2365]","1","1","","","3501","7","2","2","win","no-go","0"
"pit-trial","88","1037575","0.0-11.0","battery-v0.2","","""event"",""trial"",""time""
""focus"",""0"",""1""
""fullscreenenter"",""2"",""39793""
","
","""event"",""trial"",""time""
""focus"",""0"",""1""
","""event"",""trial"",""time""
""fullscreenenter"",""2"",""39793""
","
","","","1362","","","16","3501","1143","&#9752;","elianto","#f73b6a7A"," "," ","1","-10","[2216]","1","1","","","3501","8","3","3","lose","go","1"
"pit-trial","89","1042436","0.0-12.0","battery-v0.2","","""event"",""trial"",""time""
""focus"",""0"",""1""
""fullscreenenter"",""2"",""39793""
","
","""event"",""trial"",""time""
""focus"",""0"",""1""
","""event"",""trial"",""time""
""fullscreenenter"",""2"",""39793""
","
","","","-1","","","16","3501","1143","&#9752;","elianto","#f73b6a7A"," ","-1","0","-10","[]","0","1","","","3501","9","3","3","lose","go","0"
"pit-trial","90","1046366","0.0-13.0","battery-v0.2","","""event"",""trial"",""time""
""focus"",""0"",""1""
""fullscreenenter"",""2"",""39793""
","
","""event"",""trial"",""time""
""focus"",""0"",""1""
","""event"",""trial"",""time""
""fullscreenenter"",""2"",""39793""
","
","","","1060","","","16","3501","1143","&#9728;","elianto","#f73b6a7A","-1"," ","0","-10","[1924]","1","1","","","3501","10","0","4","lose","no-go","0"
"pit-trial","91","1050333","0.0-14.0","battery-v0.2","","""event"",""trial"",""time""
""focus"",""0"",""1""
""fullscreenenter"",""2"",""39793""
","
","""event"",""trial"",""time""
""focus"",""0"",""1""
","""event"",""trial"",""time""
""fullscreenenter"",""2"",""39793""
","
","","","1092","","","16","3501","1143","&#9733;","elianto","#3366ff99","-1"," ","0","0","[1947]","1","1","","","3501","11","2","2","win","no-go","0"
"pit-trial","92","1054799","0.0-15.0","battery-v0.2","","""event"",""trial"",""time""
""focus"",""0"",""1""
""fullscreenenter"",""2"",""39793""
","
","""event"",""trial"",""time""
""focus"",""0"",""1""
","""event"",""trial"",""time""
""fullscreenenter"",""2"",""39793""
","
","","","1599","","","16","3501","1143","&#9730;","elianto","#3366ff99"," "," ","1","+10","[2460]","1","1","","","3501","12","1","1","win","go","0"
"pit-trial","93","1059663","0.0-16.0","battery-v0.2","","""event"",""trial"",""time""
""focus"",""0"",""1""
""fullscreenenter"",""2"",""39793""
","
","""event"",""trial"",""time""
""focus"",""0"",""1""
","""event"",""trial"",""time""
""fullscreenenter"",""2"",""39793""
","
","","","-1","","","16","3501","1143","&#9752;","elianto","#f73b6a7A"," ","-1","0","0","[]","0","1","","","3501","13","3","3","lose","go","1"
"pit-trial","94","1064159","0.0-17.0","battery-v0.2","","""event"",""trial"",""time""
""focus"",""0"",""1""
""fullscreenenter"",""2"",""39793""
","
","""event"",""trial"",""time""
""focus"",""0"",""1""
","""event"",""trial"",""time""
""fullscreenenter"",""2"",""39793""
","
","","","1620","","","16","3501","1143","&#9728;","elianto","#f73b6a7A","-1"," ","0","-10","[2480]","1","1","","","3501","14","0","4","lose","no-go","0"
"pit-trial","95","1067863","0.0-18.0","battery-v0.2","","""event"",""trial"",""time""
""focus"",""0"",""1""
""fullscreenenter"",""2"",""39793""
","
","""event"",""trial"",""time""
""focus"",""0"",""1""
","""event"",""trial"",""time""
""fullscreenenter"",""2"",""39793""
","
","","","836","","","16","3501","1143","&#9730;","elianto","#3366ff99"," "," ","1","0","[1698]","1","1","","","3501","15","1","1","win","go","1"
"pit-trial","96","1071537","0.0-19.0","battery-v0.2","","""event"",""trial"",""time""
""focus"",""0"",""1""
""fullscreenenter"",""2"",""39793""
","
","""event"",""trial"",""time""
""focus"",""0"",""1""
","""event"",""trial"",""time""
""fullscreenenter"",""2"",""39793""
","
","","","796","","","16","3501","1143","&#9733;","elianto","#3366ff99","-1"," ","0","0","[1654]","1","1","","","3501","16","2","2","win","no-go","0"
"pit-trial","97","1075406","0.0-20.0","battery-v0.2","","""event"",""trial"",""time""
""focus"",""0"",""1""
""fullscreenenter"",""2"",""39793""
","
","""event"",""trial"",""time""
""focus"",""0"",""1""
","""event"",""trial"",""time""
""fullscreenenter"",""2"",""39793""
","
","","","1002","","","16","3501","1143","&#9733;","elianto","#3366ff99","-1"," ","0","+10","[1859]","1","1","","","3501","17","2","2","win","no-go","1"
"pit-trial","98","1080277","0.0-21.0","battery-v0.2","","""event"",""trial"",""time""
""focus"",""0"",""1""
""fullscreenenter"",""2"",""39793""
","
","""event"",""trial"",""time""
""focus"",""0"",""1""
","""event"",""trial"",""time""
""fullscreenenter"",""2"",""39793""
","
","","","-1","","","16","3501","1143","&#9728;","elianto","#f73b6a7A","-1","-1","1","0","[]","0","1","","","3501","18","0","4","lose","no-go","0"
"pit-trial","99","1085141","0.0-22.0","battery-v0.2","","""event"",""trial"",""time""
""focus"",""0"",""1""
""fullscreenenter"",""2"",""39793""
","
","""event"",""trial"",""time""
""focus"",""0"",""1""
","""event"",""trial"",""time""
""fullscreenenter"",""2"",""39793""
","
","","","-1","","","16","3501","1143","&#9752;","elianto","#f73b6a7A"," ","-1","0","-10","[]","0","1","","","3501","19","3","3","lose","go","0"
"pit-trial","100","1088948","0.0-23.0","battery-v0.2","","""event"",""trial"",""time""
""focus"",""0"",""1""
""fullscreenenter"",""2"",""39793""
","
","""event"",""trial"",""time""
""focus"",""0"",""1""
","""event"",""trial"",""time""
""fullscreenenter"",""2"",""39793""
","
","","","940","","","16","3501","1143","&#9730;","elianto","#3366ff99"," "," ","1","+10","[1794]","1","1","","","3501","20","1","1","win","go","0"
"pit-instructions","101","1102454","0.0-24.0","battery-v0.2","","""event"",""trial"",""time""
""focus"",""0"",""1""
""fullscreenenter"",""2"",""39793""
","
","""event"",""trial"",""time""
""focus"",""0"",""1""
","""event"",""trial"",""time""
""fullscreenenter"",""2"",""39793""
","
","","[{""page_index"":0,""viewing_time"":7398},{""page_index"":1,""viewing_time"":6104}]","13503","","","","","","","","","","","","","","","","","","","","","","","",""
"pit-trial","102","1107312","0.0-25.0","battery-v0.2","","""event"",""trial"",""time""
""focus"",""0"",""1""
""fullscreenenter"",""2"",""39793""
","
","""event"",""trial"",""time""
""focus"",""0"",""1""
","""event"",""trial"",""time""
""fullscreenenter"",""2"",""39793""
","
","","","-1","","","16","3501","1143","y","elianto","#f73b6a7A"," ","-1","0","-10","[]","0","2","","","3501","21","2","3","lose","go","0"
"pit-trial","103","1111996","0.0-26.0","battery-v0.2","","""event"",""trial"",""time""
""focus"",""0"",""1""
""fullscreenenter"",""2"",""39793""
","
","""event"",""trial"",""time""
""focus"",""0"",""1""
","""event"",""trial"",""time""
""fullscreenenter"",""2"",""39793""
","
","","","1815","","","16","3501","1143","m","elianto","#f73b6a7A"," "," ","1","0","[2672]","1","2","","","3501","22","0","3","lose","go","0"
"pit-trial","104","1116781","0.0-27.0","battery-v0.2","","""event"",""trial"",""time""
""focus"",""0"",""1""
""fullscreenenter"",""2"",""39793""
","
","""event"",""trial"",""time""
""focus"",""0"",""1""
","""event"",""trial"",""time""
""fullscreenenter"",""2"",""39793""
","
","","","1923","","","16","3501","1143","h","elianto","#f73b6a7A","-1"," ","0","0","[2782]","1","2","","","3501","23","3","4","lose","no-go","1"
"pit-trial","105","1120716","0.0-28.0","battery-v0.2","","""event"",""trial"",""time""
""focus"",""0"",""1""
""fullscreenenter"",""2"",""39793""
","
","""event"",""trial"",""time""
""focus"",""0"",""1""
","""event"",""trial"",""time""
""fullscreenenter"",""2"",""39793""
","
","","","1065","","","16","3501","1143","r","elianto","#3366ff99","-1"," ","0","0","[1921]","1","2","","","3501","24","1","2","win","no-go","0"
"pit-trial","106","1124647","0.0-29.0","battery-v0.2","","""event"",""trial"",""time""
""focus"",""0"",""1""
""fullscreenenter"",""2"",""39793""
","
","""event"",""trial"",""time""
""focus"",""0"",""1""
","""event"",""trial"",""time""
""fullscreenenter"",""2"",""39793""
","
","","","1069","","","16","3501","1143","r","elianto","#3366ff99","-1"," ","0","0","[1925]","1","2","","","3501","25","1","2","win","no-go","0"
"pit-trial","107","1129021","0.0-30.0","battery-v0.2","","""event"",""trial"",""time""
""focus"",""0"",""1""
""fullscreenenter"",""2"",""39793""
","
","""event"",""trial"",""time""
""focus"",""0"",""1""
","""event"",""trial"",""time""
""fullscreenenter"",""2"",""39793""
","
","","","1501","","","16","3501","1143","y","elianto","#f73b6a7A"," "," ","1","0","[2358]","1","2","","","3501","26","2","3","lose","go","0"
"pit-trial","108","1133888","0.0-31.0","battery-v0.2","","""event"",""trial"",""time""
""focus"",""0"",""1""
""fullscreenenter"",""2"",""39793""
","
","""event"",""trial"",""time""
""focus"",""0"",""1""
","""event"",""trial"",""time""
""fullscreenenter"",""2"",""39793""
","
","","","-1","","","16","3501","1143","m","elianto","#f73b6a7A"," ","-1","0","-10","[]","0","2","","","3501","27","0","3","lose","go","0"
"pit-trial","109","1137732","0.0-32.0","battery-v0.2","","""event"",""trial"",""time""
""focus"",""0"",""1""
""fullscreenenter"",""2"",""39793""
","
","""event"",""trial"",""time""
""focus"",""0"",""1""
","""event"",""trial"",""time""
""fullscreenenter"",""2"",""39793""
","
","","","976","","","16","3501","1143","h","elianto","#f73b6a7A","-1"," ","0","0","[1835]","1","2","","","3501","28","3","4","lose","no-go","1"
"pit-trial","110","1141723","0.0-33.0","battery-v0.2","","""event"",""trial"",""time""
""focus"",""0"",""1""
""fullscreenenter"",""2"",""39793""
","
","""event"",""trial"",""time""
""focus"",""0"",""1""
","""event"",""trial"",""time""
""fullscreenenter"",""2"",""39793""
","
","","","1129","","","16","3501","1143","y","elianto","#f73b6a7A"," "," ","1","-10","[1985]","1","2","","","3501","29","2","3","lose","go","1"
"pit-trial","111","1145580","0.0-34.0","battery-v0.2","","""event"",""trial"",""time""
""focus"",""0"",""1""
""fullscreenenter"",""2"",""39793""
","
","""event"",""trial"",""time""
""focus"",""0"",""1""
","""event"",""trial"",""time""
""fullscreenenter"",""2"",""39793""
","
","","","989","","","16","3501","1143","h","elianto","#f73b6a7A","-1"," ","0","-10","[1848]","1","2","","","3501","30","3","4","lose","no-go","0"
"pit-trial","112","1149443","0.0-35.0","battery-v0.2","","""event"",""trial"",""time""
""focus"",""0"",""1""
""fullscreenenter"",""2"",""39793""
","
","""event"",""trial"",""time""
""focus"",""0"",""1""
","""event"",""trial"",""time""
""fullscreenenter"",""2"",""39793""
","
","","","994","","","16","3501","1143","r","elianto","#3366ff99","-1"," ","0","0","[1853]","1","2","","","3501","31","1","2","win","no-go","0"
"pit-trial","113","1154144","0.0-36.0","battery-v0.2","","""event"",""trial"",""time""
""focus"",""0"",""1""
""fullscreenenter"",""2"",""39793""
","
","""event"",""trial"",""time""
""focus"",""0"",""1""
","""event"",""trial"",""time""
""fullscreenenter"",""2"",""39793""
","
","","","1832","","","16","3501","1143","m","elianto","#f73b6a7A"," "," ","1","-10","[2693]","1","2","","","3501","32","0","3","lose","go","1"
"pit-trial","114","1158999","0.0-37.0","battery-v0.2","","""event"",""trial"",""time""
""focus"",""0"",""1""
""fullscreenenter"",""2"",""39793""
","
","""event"",""trial"",""time""
""focus"",""0"",""1""
","""event"",""trial"",""time""
""fullscreenenter"",""2"",""39793""
","
","","","-1","","","16","3501","1143","h","elianto","#f73b6a7A","-1","-1","1","0","[]","0","2","","","3501","33","3","4","lose","no-go","0"
"pit-trial","115","1163340","0.0-38.0","battery-v0.2","","""event"",""trial"",""time""
""focus"",""0"",""1""
""fullscreenenter"",""2"",""39793""
","
","""event"",""trial"",""time""
""focus"",""0"",""1""
","""event"",""trial"",""time""
""fullscreenenter"",""2"",""39793""
","
","","","1469","","","16","3501","1143","r","elianto","#3366ff99","-1"," ","0","0","[2332]","1","2","","","3501","34","1","2","win","no-go","0"
"pit-trial","116","1168208","0.0-39.0","battery-v0.2","","""event"",""trial"",""time""
""focus"",""0"",""1""
""fullscreenenter"",""2"",""39793""
","
","""event"",""trial"",""time""
""focus"",""0"",""1""
","""event"",""trial"",""time""
""fullscreenenter"",""2"",""39793""
","
","","","-1","","","16","3501","1143","y","elianto","#f73b6a7A"," ","-1","0","-10","[3014]","1","2","","","3501","35","2","3","lose","go","0"
"pit-trial","117","1173085","0.0-40.0","battery-v0.2","","""event"",""trial"",""time""
""focus"",""0"",""1""
""fullscreenenter"",""2"",""39793""
","
","""event"",""trial"",""time""
""focus"",""0"",""1""
","""event"",""trial"",""time""
""fullscreenenter"",""2"",""39793""
","
","","","-1","","","16","3501","1143","m","elianto","#f73b6a7A"," ","-1","0","0","[]","0","2","","","3501","36","0","3","lose","go","1"
"pit-trial","118","1177957","0.0-41.0","battery-v0.2","","""event"",""trial"",""time""
""focus"",""0"",""1""
""fullscreenenter"",""2"",""39793""
","
","""event"",""trial"",""time""
""focus"",""0"",""1""
","""event"",""trial"",""time""
""fullscreenenter"",""2"",""39793""
","
","","","-1","","","16","3501","1143","r","elianto","#3366ff99","-1","-1","1","+10","[]","0","2","","","3501","37","1","2","win","no-go","0"
"pit-trial","119","1181761","0.0-42.0","battery-v0.2","","""event"",""trial"",""time""
""focus"",""0"",""1""
""fullscreenenter"",""2"",""39793""
","
","""event"",""trial"",""time""
""focus"",""0"",""1""
","""event"",""trial"",""time""
""fullscreenenter"",""2"",""39793""
","
","","","936","","","16","3501","1143","y","elianto","#f73b6a7A"," "," ","1","0","[1793]","1","2","","","3501","38","2","3","lose","go","0"
"pit-trial","120","1186633","0.0-43.0","battery-v0.2","","""event"",""trial"",""time""
""focus"",""0"",""1""
""fullscreenenter"",""2"",""39793""
","
","""event"",""trial"",""time""
""focus"",""0"",""1""
","""event"",""trial"",""time""
""fullscreenenter"",""2"",""39793""
","
","","","-1","","","16","3501","1143","m","elianto","#f73b6a7A"," ","-1","0","-10","[]","0","2","","","3501","39","0","3","lose","go","0"
"pit-trial","121","1191496","0.0-44.0","battery-v0.2","","""event"",""trial"",""time""
""focus"",""0"",""1""
""fullscreenenter"",""2"",""39793""
","
","""event"",""trial"",""time""
""focus"",""0"",""1""
","""event"",""trial"",""time""
""fullscreenenter"",""2"",""39793""
","
","","","-1","","","16","3501","1143","h","elianto","#f73b6a7A","-1","-1","1","0","[]","0","2","","","3501","40","3","4","lose","no-go","0"
"pit-trial","122","1196376","0.0-45.0","battery-v0.2","","""event"",""trial"",""time""
""focus"",""0"",""1""
""fullscreenenter"",""2"",""39793""
","
","""event"",""trial"",""time""
""focus"",""0"",""1""
","""event"",""trial"",""time""
""fullscreenenter"",""2"",""39793""
","
","","","-1","","","16","3501","1143","h","elianto","#f73b6a7A","-1","-1","1","0","[]","0","2","","","3501","41","3","4","lose","no-go","0"
"pit-trial","123","1200164","0.0-46.0","battery-v0.2","","""event"",""trial"",""time""
""focus"",""0"",""1""
""fullscreenenter"",""2"",""39793""
","
","""event"",""trial"",""time""
""focus"",""0"",""1""
","""event"",""trial"",""time""
""fullscreenenter"",""2"",""39793""
","
","","","909","","","16","3501","1143","m","elianto","#f73b6a7A"," "," ","1","0","[1771]","1","2","","","3501","42","0","3","lose","go","0"
"pit-trial","124","1203773","0.0-47.0","battery-v0.2","","""event"",""trial"",""time""
""focus"",""0"",""1""
""fullscreenenter"",""2"",""39793""
","
","""event"",""trial"",""time""
""focus"",""0"",""1""
","""event"",""trial"",""time""
""fullscreenenter"",""2"",""39793""
","
","","","736","","","16","3501","1143","y","elianto","#f73b6a7A"," "," ","1","0","[1592]","1","2","","","3501","43","2","3","lose","go","0"
"pit-trial","125","1207352","0.0-48.0","battery-v0.2","","""event"",""trial"",""time""
""focus"",""0"",""1""
""fullscreenenter"",""2"",""39793""
","
","""event"",""trial"",""time""
""focus"",""0"",""1""
","""event"",""trial"",""time""
""fullscreenenter"",""2"",""39793""
","
","","","704","","","16","3501","1143","r","elianto","#3366ff99","-1"," ","0","0","[1561]","1","2","","","3501","44","1","2","win","no-go","0"
"pit-trial","126","1212222","0.0-49.0","battery-v0.2","","""event"",""trial"",""time""
""focus"",""0"",""1""
""fullscreenenter"",""2"",""39793""
","
","""event"",""trial"",""time""
""focus"",""0"",""1""
","""event"",""trial"",""time""
""fullscreenenter"",""2"",""39793""
","
","","","-1","","","16","3501","1143","r","elianto","#3366ff99","-1","-1","1","+10","[]","0","2","","","3501","45","1","2","win","no-go","0"
"pit-trial","127","1216214","0.0-50.0","battery-v0.2","","""event"",""trial"",""time""
""focus"",""0"",""1""
""fullscreenenter"",""2"",""39793""
","
","""event"",""trial"",""time""
""focus"",""0"",""1""
","""event"",""trial"",""time""
""fullscreenenter"",""2"",""39793""
","
","","","1129","","","16","3501","1143","m","elianto","#f73b6a7A"," "," ","1","0","[1979]","1","2","","","3501","46","0","3","lose","go","0"
"pit-trial","128","1219985","0.0-51.0","battery-v0.2","","""event"",""trial"",""time""
""focus"",""0"",""1""
""fullscreenenter"",""2"",""39793""
","
","""event"",""trial"",""time""
""focus"",""0"",""1""
","""event"",""trial"",""time""
""fullscreenenter"",""2"",""39793""
","
","","","907","","","16","3501","1143","y","elianto","#f73b6a7A"," "," ","1","0","[1764]","1","2","","","3501","47","2","3","lose","go","0"
"pit-trial","129","1224845","0.0-52.0","battery-v0.2","","""event"",""trial"",""time""
""focus"",""0"",""1""
""fullscreenenter"",""2"",""39793""
","
","""event"",""trial"",""time""
""focus"",""0"",""1""
","""event"",""trial"",""time""
""fullscreenenter"",""2"",""39793""
","
","","","-1","","","16","3501","1143","h","elianto","#f73b6a7A","-1","-1","1","-10","[]","0","2","","","3501","48","3","4","lose","no-go","1"
"pit-trial","130","1229721","0.0-53.0","battery-v0.2","","""event"",""trial"",""time""
""focus"",""0"",""1""
""fullscreenenter"",""2"",""39793""
","
","""event"",""trial"",""time""
""focus"",""0"",""1""
","""event"",""trial"",""time""
""fullscreenenter"",""2"",""39793""
","
","","","-1","","","16","3501","1143","r","elianto","#3366ff99","-1","-1","1","0","[]","0","2","","","3501","49","1","2","win","no-go","1"
"pit-trial","131","1234590","0.0-54.0","battery-v0.2","","""event"",""trial"",""time""
""focus"",""0"",""1""
""fullscreenenter"",""2"",""39793""
","
","""event"",""trial"",""time""
""focus"",""0"",""1""
","""event"",""trial"",""time""
""fullscreenenter"",""2"",""39793""
","
","","","-1","","","16","3501","1143","y","elianto","#f73b6a7A"," ","-1","0","-10","[3681]","1","2","","","3501","50","2","3","lose","go","0"
"pit-trial","132","1238483","0.0-55.0","battery-v0.2","","""event"",""trial"",""time""
""focus"",""0"",""1""
""fullscreenenter"",""2"",""39793""
","
","""event"",""trial"",""time""
""focus"",""0"",""1""
","""event"",""trial"",""time""
""fullscreenenter"",""2"",""39793""
","
","","","1016","","","16","3501","1143","m","elianto","#f73b6a7A"," "," ","1","0","[1876]","1","2","","","3501","51","0","3","lose","go","0"
"pit-trial","133","1243349","0.0-56.0","battery-v0.2","","""event"",""trial"",""time""
""focus"",""0"",""1""
""fullscreenenter"",""2"",""39793""
","
","""event"",""trial"",""time""
""focus"",""0"",""1""
","""event"",""trial"",""time""
""fullscreenenter"",""2"",""39793""
","
","","","-1","","","16","3501","1143","h","elianto","#f73b6a7A","-1","-1","1","0","[]","0","2","","","3501","52","3","4","lose","no-go","0"
"pit-trial","134","1248206","0.0-57.0","battery-v0.2","","""event"",""trial"",""time""
""focus"",""0"",""1""
""fullscreenenter"",""2"",""39793""
","
","""event"",""trial"",""time""
""focus"",""0"",""1""
","""event"",""trial"",""time""
""fullscreenenter"",""2"",""39793""
","
","","","-1","","","16","3501","1143","y","elianto","#f73b6a7A"," ","-1","0","-10","[]","0","2","","","3501","53","2","3","lose","go","0"
"pit-trial","135","1251937","0.0-58.0","battery-v0.2","","""event"",""trial"",""time""
""focus"",""0"",""1""
""fullscreenenter"",""2"",""39793""
","
","""event"",""trial"",""time""
""focus"",""0"",""1""
","""event"",""trial"",""time""
""fullscreenenter"",""2"",""39793""
","
","","","862","","","16","3501","1143","r","elianto","#3366ff99","-1"," ","0","0","[1720]","1","2","","","3501","54","1","2","win","no-go","0"
"pit-trial","136","1256812","0.0-59.0","battery-v0.2","","""event"",""trial"",""time""
""focus"",""0"",""1""
""fullscreenenter"",""2"",""39793""
","
","""event"",""trial"",""time""
""focus"",""0"",""1""
","""event"",""trial"",""time""
""fullscreenenter"",""2"",""39793""
","
","","","-1","","","16","3501","1143","h","elianto","#f73b6a7A","-1","-1","1","0","[]","0","2","","","3501","55","3","4","lose","no-go","0"
"pit-trial","137","1261675","0.0-60.0","battery-v0.2","","""event"",""trial"",""time""
""focus"",""0"",""1""
""fullscreenenter"",""2"",""39793""
","
","""event"",""trial"",""time""
""focus"",""0"",""1""
","""event"",""trial"",""time""
""fullscreenenter"",""2"",""39793""
","
","","","-1","","","16","3501","1143","m","elianto","#f73b6a7A"," ","-1","0","-10","[]","0","2","","","3501","56","0","3","lose","go","0"
"pit-trial","138","1266538","0.0-61.0","battery-v0.2","","""event"",""trial"",""time""
""focus"",""0"",""1""
""fullscreenenter"",""2"",""39793""
","
","""event"",""trial"",""time""
""focus"",""0"",""1""
","""event"",""trial"",""time""
""fullscreenenter"",""2"",""39793""
","
","","","-1","","","16","3501","1143","y","elianto","#f73b6a7A"," ","-1","0","-10","[]","0","2","","","3501","57","2","3","lose","go","0"
"pit-trial","139","1271408","0.0-62.0","battery-v0.2","","""event"",""trial"",""time""
""focus"",""0"",""1""
""fullscreenenter"",""2"",""39793""
","
","""event"",""trial"",""time""
""focus"",""0"",""1""
","""event"",""trial"",""time""
""fullscreenenter"",""2"",""39793""
","
","","","-1","","","16","3501","1143","h","elianto","#f73b6a7A","-1","-1","1","0","[]","0","2","","","3501","58","3","4","lose","no-go","0"
"pit-trial","140","1275576","0.0-63.0","battery-v0.2","","""event"",""trial"",""time""
""focus"",""0"",""1""
""fullscreenenter"",""2"",""39793""
","
","""event"",""trial"",""time""
""focus"",""0"",""1""
","""event"",""trial"",""time""
""fullscreenenter"",""2"",""39793""
","
","","","1303","","","16","3501","1143","z","elianto","#3366ff99"," "," ","1","+10","[2160]","1","2","","","3501","59","4","1","win","go","0"
"pit-trial","141","1280440","0.0-64.0","battery-v0.2","","""event"",""trial"",""time""
""focus"",""0"",""1""
""fullscreenenter"",""2"",""39793""
","
","""event"",""trial"",""time""
""focus"",""0"",""1""
","""event"",""trial"",""time""
""fullscreenenter"",""2"",""39793""
","
","","","-1","","","16","3501","1143","m","elianto","#f73b6a7A"," ","-1","0","-10","[]","0","2","","","3501","60","0","3","lose","go","0"
"pit-trial","142","1284516","0.0-65.0","battery-v0.2","","""event"",""trial"",""time""
""focus"",""0"",""1""
""fullscreenenter"",""2"",""39793""
","
","""event"",""trial"",""time""
""focus"",""0"",""1""
","""event"",""trial"",""time""
""fullscreenenter"",""2"",""39793""
","
","","","1205","","","16","3501","1143","r","elianto","#3366ff99","-1"," ","0","+10","[2064]","1","2","","","3501","61","1","2","win","no-go","1"
"pit-trial","143","1289381","0.0-66.0","battery-v0.2","","""event"",""trial"",""time""
""focus"",""0"",""1""
""fullscreenenter"",""2"",""39793""
","
","""event"",""trial"",""time""
""focus"",""0"",""1""
","""event"",""trial"",""time""
""fullscreenenter"",""2"",""39793""
","
","","","-1","","","16","3501","1143","y","elianto","#f73b6a7A"," ","-1","0","-10","[]","0","2","","","3501","62","2","3","lose","go","0"
"pit-trial","144","1294238","0.0-67.0","battery-v0.2","","""event"",""trial"",""time""
""focus"",""0"",""1""
""fullscreenenter"",""2"",""39793""
","
","""event"",""trial"",""time""
""focus"",""0"",""1""
","""event"",""trial"",""time""
""fullscreenenter"",""2"",""39793""
","
","","","-1","","","16","3501","1143","h","elianto","#f73b6a7A","-1","-1","1","0","[]","0","2","","","3501","63","3","4","lose","no-go","0"
"pit-trial","145","1298490","0.0-68.0","battery-v0.2","","""event"",""trial"",""time""
""focus"",""0"",""1""
""fullscreenenter"",""2"",""39793""
","
","""event"",""trial"",""time""
""focus"",""0"",""1""
","""event"",""trial"",""time""
""fullscreenenter"",""2"",""39793""
","
","","","1380","","","16","3501","1143","z","elianto","#3366ff99"," "," ","1","+10","[2237]","1","2","","","3501","64","4","1","win","go","0"
"pit-trial","146","1302519","0.0-69.0","battery-v0.2","","""event"",""trial"",""time""
""focus"",""0"",""1""
""fullscreenenter"",""2"",""39793""
","
","""event"",""trial"",""time""
""focus"",""0"",""1""
","""event"",""trial"",""time""
""fullscreenenter"",""2"",""39793""
","
","","","1157","","","16","3501","1143","c","elianto","#3366ff99","-1"," ","0","0","[2014]","1","2","","","3501","65","5","2","win","no-go","0"
"pit-trial","147","1306458","0.0-70.0","battery-v0.2","","""event"",""trial"",""time""
""focus"",""0"",""1""
""fullscreenenter"",""2"",""39793""
","
","""event"",""trial"",""time""
""focus"",""0"",""1""
","""event"",""trial"",""time""
""fullscreenenter"",""2"",""39793""
","
","","","1082","","","16","3501","1143","z","elianto","#3366ff99"," "," ","1","0","[1935]","1","2","","","3501","66","4","1","win","go","1"
"pit-trial","148","1311322","0.0-71.0","battery-v0.2","","""event"",""trial"",""time""
""focus"",""0"",""1""
""fullscreenenter"",""2"",""39793""
","
","""event"",""trial"",""time""
""focus"",""0"",""1""
","""event"",""trial"",""time""
""fullscreenenter"",""2"",""39793""
","
","","","-1","","","16","3501","1143","h","elianto","#f73b6a7A","-1","-1","1","0","[]","0","2","","","3501","67","3","4","lose","no-go","0"
"pit-trial","149","1316186","0.0-72.0","battery-v0.2","","""event"",""trial"",""time""
""focus"",""0"",""1""
""fullscreenenter"",""2"",""39793""
","
","""event"",""trial"",""time""
""focus"",""0"",""1""
","""event"",""trial"",""time""
""fullscreenenter"",""2"",""39793""
","
","","","-1","","","16","3501","1143","r","elianto","#3366ff99","-1","-1","1","+10","[]","0","2","","","3501","68","1","2","win","no-go","0"
"pit-trial","150","1320672","0.0-73.0","battery-v0.2","","""event"",""trial"",""time""
""focus"",""0"",""1""
""fullscreenenter"",""2"",""39793""
","
","""event"",""trial"",""time""
""focus"",""0"",""1""
","""event"",""trial"",""time""
""fullscreenenter"",""2"",""39793""
","
","","","1621","","","16","3501","1143","c","elianto","#3366ff99","-1"," ","0","0","[2478]","1","2","","","3501","69","5","2","win","no-go","0"
"pit-trial","151","1325548","0.0-74.0","battery-v0.2","","""event"",""trial"",""time""
""focus"",""0"",""1""
""fullscreenenter"",""2"",""39793""
","
","""event"",""trial"",""time""
""focus"",""0"",""1""
","""event"",""trial"",""time""
""fullscreenenter"",""2"",""39793""
","
","","","-1","","","16","3501","1143","y","elianto","#f73b6a7A"," ","-1","0","-10","[]","0","2","","","3501","70","2","3","lose","go","0"
"pit-trial","152","1329675","0.0-75.0","battery-v0.2","","""event"",""trial"",""time""
""focus"",""0"",""1""
""fullscreenenter"",""2"",""39793""
","
","""event"",""trial"",""time""
""focus"",""0"",""1""
","""event"",""trial"",""time""
""fullscreenenter"",""2"",""39793""
","
","","","1250","","","16","3501","1143","r","elianto","#3366ff99","-1"," ","0","+10","[2109]","1","2","","","3501","71","1","2","win","no-go","1"
"pit-trial","153","1334538","0.0-76.0","battery-v0.2","","""event"",""trial"",""time""
""focus"",""0"",""1""
""fullscreenenter"",""2"",""39793""
","
","""event"",""trial"",""time""
""focus"",""0"",""1""
","""event"",""trial"",""time""
""fullscreenenter"",""2"",""39793""
","
","","","-1","","","16","3501","1143","z","elianto","#3366ff99"," ","-1","0","+10","[]","0","2","","","3501","72","4","1","win","go","1"
"pit-trial","154","1338628","0.0-77.0","battery-v0.2","","""event"",""trial"",""time""
""focus"",""0"",""1""
""fullscreenenter"",""2"",""39793""
","
","""event"",""trial"",""time""
""focus"",""0"",""1""
","""event"",""trial"",""time""
""fullscreenenter"",""2"",""39793""
","
","","","1227","","","16","3501","1143","c","elianto","#3366ff99","-1"," ","0","0","[2083]","1","2","","","3501","73","5","2","win","no-go","0"
"pit-trial","155","1342869","0.0-78.0","battery-v0.2","","""event"",""trial"",""time""
""focus"",""0"",""1""
""fullscreenenter"",""2"",""39793""
","
","""event"",""trial"",""time""
""focus"",""0"",""1""
","""event"",""trial"",""time""
""fullscreenenter"",""2"",""39793""
","
","","","1385","","","16","3501","1143","r","elianto","#3366ff99","-1"," ","0","+10","[2238]","1","2","","","3501","74","1","2","win","no-go","1"
"pit-trial","156","1347730","0.0-79.0","battery-v0.2","","""event"",""trial"",""time""
""focus"",""0"",""1""
""fullscreenenter"",""2"",""39793""
","
","""event"",""trial"",""time""
""focus"",""0"",""1""
","""event"",""trial"",""time""
""fullscreenenter"",""2"",""39793""
","
","","","-1","","","16","3501","1143","z","elianto","#3366ff99"," ","-1","0","0","[]","0","2","","","3501","75","4","1","win","go","0"
"pit-trial","157","1352599","0.0-80.0","battery-v0.2","","""event"",""trial"",""time""
""focus"",""0"",""1""
""fullscreenenter"",""2"",""39793""
","
","""event"",""trial"",""time""
""focus"",""0"",""1""
","""event"",""trial"",""time""
""fullscreenenter"",""2"",""39793""
","
","","","-1","","","16","3501","1143","h","elianto","#f73b6a7A","-1","-1","1","0","[]","0","2","","","3501","76","3","4","lose","no-go","0"
"pit-trial","158","1357465","0.0-81.0","battery-v0.2","","""event"",""trial"",""time""
""focus"",""0"",""1""
""fullscreenenter"",""2"",""39793""
","
","""event"",""trial"",""time""
""focus"",""0"",""1""
","""event"",""trial"",""time""
""fullscreenenter"",""2"",""39793""
","
","","","-1","","","16","3501","1143","h","elianto","#f73b6a7A","-1","-1","1","-10","[]","0","2","","","3501","77","3","4","lose","no-go","1"
"pit-trial","159","1362330","0.0-82.0","battery-v0.2","","""event"",""trial"",""time""
""focus"",""0"",""1""
""fullscreenenter"",""2"",""39793""
","
","""event"",""trial"",""time""
""focus"",""0"",""1""
","""event"",""trial"",""time""
""fullscreenenter"",""2"",""39793""
","
","","","-1","","","16","3501","1143","z","elianto","#3366ff99"," ","-1","0","+10","[]","0","2","","","3501","78","4","1","win","go","1"
"pit-trial","160","1367202","0.0-83.0","battery-v0.2","","""event"",""trial"",""time""
""focus"",""0"",""1""
""fullscreenenter"",""2"",""39793""
","
","""event"",""trial"",""time""
""focus"",""0"",""1""
","""event"",""trial"",""time""
""fullscreenenter"",""2"",""39793""
","
","","","-1","","","16","3501","1143","c","elianto","#3366ff99","-1","-1","1","+10","[]","0","2","","","3501","79","5","2","win","no-go","0"
"pit-trial","161","1372066","0.0-84.0","battery-v0.2","","""event"",""trial"",""time""
""focus"",""0"",""1""
""fullscreenenter"",""2"",""39793""
","
","""event"",""trial"",""time""
""focus"",""0"",""1""
","""event"",""trial"",""time""
""fullscreenenter"",""2"",""39793""
","
","","","-1","","","16","3501","1143","z","elianto","#3366ff99"," ","-1","0","0","[]","0","2","","","3501","80","4","1","win","go","0"
"pit-trial","162","1376580","0.0-85.0","battery-v0.2","","""event"",""trial"",""time""
""focus"",""0"",""1""
""fullscreenenter"",""2"",""39793""
","
","""event"",""trial"",""time""
""focus"",""0"",""1""
","""event"",""trial"",""time""
""fullscreenenter"",""2"",""39793""
","
","","","1638","","","16","3501","1143","h","elianto","#f73b6a7A","-1"," ","0","-10","[2497]","1","2","","","3501","81","3","4","lose","no-go","0"
"pit-trial","163","1381441","0.0-86.0","battery-v0.2","","""event"",""trial"",""time""
""focus"",""0"",""1""
""fullscreenenter"",""2"",""39793""
","
","""event"",""trial"",""time""
""focus"",""0"",""1""
","""event"",""trial"",""time""
""fullscreenenter"",""2"",""39793""
","
","","","-1","","","16","3501","1143","z","elianto","#3366ff99"," ","-1","0","0","[]","0","2","","","3501","82","4","1","win","go","0"
"pit-trial","164","1386307","0.0-87.0","battery-v0.2","","""event"",""trial"",""time""
""focus"",""0"",""1""
""fullscreenenter"",""2"",""39793""
","
","""event"",""trial"",""time""
""focus"",""0"",""1""
","""event"",""trial"",""time""
""fullscreenenter"",""2"",""39793""
","
","","","-1","","","16","3501","1143","c","elianto","#3366ff99","-1","-1","1","+10","[]","0","2","","","3501","83","5","2","win","no-go","0"
"pit-trial","165","1391184","0.0-88.0","battery-v0.2","","""event"",""trial"",""time""
""focus"",""0"",""1""
""fullscreenenter"",""2"",""39793""
","
","""event"",""trial"",""time""
""focus"",""0"",""1""
","""event"",""trial"",""time""
""fullscreenenter"",""2"",""39793""
","
","","","-1","","","16","3501","1143","t","elianto","#f73b6a7A","-1","-1","1","-10","[2940]","1","2","","","3501","84","7","4","lose","no-go","1"
"pit-trial","166","1396057","0.0-89.0","battery-v0.2","","""event"",""trial"",""time""
""focus"",""0"",""1""
""fullscreenenter"",""2"",""39793""
","
","""event"",""trial"",""time""
""focus"",""0"",""1""
","""event"",""trial"",""time""
""fullscreenenter"",""2"",""39793""
","
","","","-1","","","16","3501","1143","z","elianto","#3366ff99"," ","-1","0","0","[]","0","2","","","3501","85","4","1","win","go","0"
"pit-trial","167","1400120","0.0-90.0","battery-v0.2","","""event"",""trial"",""time""
""focus"",""0"",""1""
""fullscreenenter"",""2"",""39793""
","
","""event"",""trial"",""time""
""focus"",""0"",""1""
","""event"",""trial"",""time""
""fullscreenenter"",""2"",""39793""
","
","","","1185","","","16","3501","1143","b","elianto","#f73b6a7A"," "," ","1","0","[2050]","1","2","","","3501","86","6","3","lose","go","0"
"pit-trial","168","1404986","0.0-91.0","battery-v0.2","","""event"",""trial"",""time""
""focus"",""0"",""1""
""fullscreenenter"",""2"",""39793""
","
","""event"",""trial"",""time""
""focus"",""0"",""1""
","""event"",""trial"",""time""
""fullscreenenter"",""2"",""39793""
","
","","","-1","","","16","3501","1143","t","elianto","#f73b6a7A","-1","-1","1","0","[]","0","2","","","3501","87","7","4","lose","no-go","0"
"pit-trial","169","1409395","0.0-92.0","battery-v0.2","","""event"",""trial"",""time""
""focus"",""0"",""1""
""fullscreenenter"",""2"",""39793""
","
","""event"",""trial"",""time""
""focus"",""0"",""1""
","""event"",""trial"",""time""
""fullscreenenter"",""2"",""39793""
","
","","","1532","","","16","3501","1143","c","elianto","#3366ff99","-1"," ","0","+10","[2394]","1","2","","","3501","88","5","2","win","no-go","1"
"pit-trial","170","1414265","0.0-93.0","battery-v0.2","","""event"",""trial"",""time""
""focus"",""0"",""1""
""fullscreenenter"",""2"",""39793""
","
","""event"",""trial"",""time""
""focus"",""0"",""1""
","""event"",""trial"",""time""
""fullscreenenter"",""2"",""39793""
","
","","","-1","","","16","3501","1143","t","elianto","#f73b6a7A","-1","-1","1","0","[]","0","2","","","3501","89","7","4","lose","no-go","0"
"pit-trial","171","1419147","0.0-94.0","battery-v0.2","","""event"",""trial"",""time""
""focus"",""0"",""1""
""fullscreenenter"",""2"",""39793""
","
","""event"",""trial"",""time""
""focus"",""0"",""1""
","""event"",""trial"",""time""
""fullscreenenter"",""2"",""39793""
","
","","","-1","","","16","3501","1143","b","elianto","#f73b6a7A"," ","-1","0","-10","[]","0","2","","","3501","90","6","3","lose","go","0"
"pit-trial","172","1422971","0.0-95.0","battery-v0.2","","""event"",""trial"",""time""
""focus"",""0"",""1""
""fullscreenenter"",""2"",""39793""
","
","""event"",""trial"",""time""
""focus"",""0"",""1""
","""event"",""trial"",""time""
""fullscreenenter"",""2"",""39793""
","
","","","955","","","16","3501","1143","z","elianto","#3366ff99"," "," ","1","+10","[1815]","1","2","","","3501","91","4","1","win","go","0"
"pit-trial","173","1427016","0.0-96.0","battery-v0.2","","""event"",""trial"",""time""
""focus"",""0"",""1""
""fullscreenenter"",""2"",""39793""
","
","""event"",""trial"",""time""
""focus"",""0"",""1""
","""event"",""trial"",""time""
""fullscreenenter"",""2"",""39793""
","
","","","1184","","","16","3501","1143","c","elianto","#3366ff99","-1"," ","0","0","[2042]","1","2","","","3501","92","5","2","win","no-go","0"
"pit-trial","174","1431881","0.0-97.0","battery-v0.2","","""event"",""trial"",""time""
""focus"",""0"",""1""
""fullscreenenter"",""2"",""39793""
","
","""event"",""trial"",""time""
""focus"",""0"",""1""
","""event"",""trial"",""time""
""fullscreenenter"",""2"",""39793""
","
","","","-1","","","16","3501","1143","c","elianto","#3366ff99","-1","-1","1","0","[]","0","2","","","3501","93","5","2","win","no-go","1"
"pit-trial","175","1436058","0.0-98.0","battery-v0.2","","""event"",""trial"",""time""
""focus"",""0"",""1""
""fullscreenenter"",""2"",""39793""
","
","""event"",""trial"",""time""
""focus"",""0"",""1""
","""event"",""trial"",""time""
""fullscreenenter"",""2"",""39793""
","
","","","1305","","","16","3501","1143","f","elianto","#3366ff99"," "," ","1","+10","[2163]","1","2","","","3501","94","8","1","win","go","0"
"pit-trial","176","1440093","0.0-99.0","battery-v0.2","","""event"",""trial"",""time""
""focus"",""0"",""1""
""fullscreenenter"",""2"",""39793""
","
","""event"",""trial"",""time""
""focus"",""0"",""1""
","""event"",""trial"",""time""
""fullscreenenter"",""2"",""39793""
","
","","","1164","","","16","3501","1143","b","elianto","#f73b6a7A"," "," ","1","0","[2022]","1","2","","","3501","95","6","3","lose","go","0"
"pit-trial","177","1444964","0.0-100.0","battery-v0.2","","""event"",""trial"",""time""
""focus"",""0"",""1""
""fullscreenenter"",""2"",""39793""
","
","""event"",""trial"",""time""
""focus"",""0"",""1""
","""event"",""trial"",""time""
""fullscreenenter"",""2"",""39793""
","
","","","-1","","","16","3501","1143","t","elianto","#f73b6a7A","-1","-1","1","0","[]","0","2","","","3501","96","7","4","lose","no-go","0"
"pit-trial","178","1449192","0.0-101.0","battery-v0.2","","""event"",""trial"",""time""
""focus"",""0"",""1""
""fullscreenenter"",""2"",""39793""
","
","""event"",""trial"",""time""
""focus"",""0"",""1""
","""event"",""trial"",""time""
""fullscreenenter"",""2"",""39793""
","
","","","1357","","","16","3501","1143","f","elianto","#3366ff99"," "," ","1","+10","[2216]","1","2","","","3501","97","8","1","win","go","0"
"pit-trial","179","1454055","0.0-102.0","battery-v0.2","","""event"",""trial"",""time""
""focus"",""0"",""1""
""fullscreenenter"",""2"",""39793""
","
","""event"",""trial"",""time""
""focus"",""0"",""1""
","""event"",""trial"",""time""
""fullscreenenter"",""2"",""39793""
","
","","","-1","","","16","3501","1143","t","elianto","#f73b6a7A","-1","-1","1","0","[]","0","2","","","3501","98","7","4","lose","no-go","0"
"pit-trial","180","1458636","0.0-103.0","battery-v0.2","","""event"",""trial"",""time""
""focus"",""0"",""1""
""fullscreenenter"",""2"",""39793""
","
","""event"",""trial"",""time""
""focus"",""0"",""1""
","""event"",""trial"",""time""
""fullscreenenter"",""2"",""39793""
","
","","","1706","","","16","3501","1143","c","elianto","#3366ff99","-1"," ","0","+10","[2561]","1","2","","","3501","99","5","2","win","no-go","1"
"pit-trial","181","1463511","0.0-104.0","battery-v0.2","","""event"",""trial"",""time""
""focus"",""0"",""1""
""fullscreenenter"",""2"",""39793""
","
","""event"",""trial"",""time""
""focus"",""0"",""1""
","""event"",""trial"",""time""
""fullscreenenter"",""2"",""39793""
","
","","","-1","","","16","3501","1143","b","elianto","#f73b6a7A"," ","-1","0","-10","[]","0","2","","","3501","100","6","3","lose","go","0"
"pit-trial","182","1467500","0.0-105.0","battery-v0.2","","""event"",""trial"",""time""
""focus"",""0"",""1""
""fullscreenenter"",""2"",""39793""
","
","""event"",""trial"",""time""
""focus"",""0"",""1""
","""event"",""trial"",""time""
""fullscreenenter"",""2"",""39793""
","
","","","1128","","","16","3501","1143","f","elianto","#3366ff99"," "," ","1","+10","[1986]","1","2","","","3501","101","8","1","win","go","0"
"pit-trial","183","1471733","0.0-106.0","battery-v0.2","","""event"",""trial"",""time""
""focus"",""0"",""1""
""fullscreenenter"",""2"",""39793""
","
","""event"",""trial"",""time""
""focus"",""0"",""1""
","""event"",""trial"",""time""
""fullscreenenter"",""2"",""39793""
","
","","","1362","","","16","3501","1143","n","elianto","#3366ff99"," "," ","1","0","[2221]","1","2","","","3501","102","9","1","win","go","1"
"pit-trial","184","1476599","0.0-107.0","battery-v0.2","","""event"",""trial"",""time""
""focus"",""0"",""1""
""fullscreenenter"",""2"",""39793""
","
","""event"",""trial"",""time""
""focus"",""0"",""1""
","""event"",""trial"",""time""
""fullscreenenter"",""2"",""39793""
","
","","","-1","","","16","3501","1143","t","elianto","#f73b6a7A","-1","-1","1","0","[]","0","2","","","3501","103","7","4","lose","no-go","0"
"pit-trial","185","1481462","0.0-108.0","battery-v0.2","","""event"",""trial"",""time""
""focus"",""0"",""1""
""fullscreenenter"",""2"",""39793""
","
","""event"",""trial"",""time""
""focus"",""0"",""1""
","""event"",""trial"",""time""
""fullscreenenter"",""2"",""39793""
","
","","","-1","","","16","3501","1143","c","elianto","#3366ff99","-1","-1","1","+10","[]","0","2","","","3501","104","5","2","win","no-go","0"
"pit-trial","186","1485435","0.0-109.0","battery-v0.2","","""event"",""trial"",""time""
""focus"",""0"",""1""
""fullscreenenter"",""2"",""39793""
","
","""event"",""trial"",""time""
""focus"",""0"",""1""
","""event"",""trial"",""time""
""fullscreenenter"",""2"",""39793""
","
","","","1097","","","16","3501","1143","n","elianto","#3366ff99"," "," ","1","+10","[1952]","1","2","","","3501","105","9","1","win","go","0"
"pit-trial","187","1490297","0.0-110.0","battery-v0.2","","""event"",""trial"",""time""
""focus"",""0"",""1""
""fullscreenenter"",""2"",""39793""
","
","""event"",""trial"",""time""
""focus"",""0"",""1""
","""event"",""trial"",""time""
""fullscreenenter"",""2"",""39793""
","
","","","-1","","","16","3501","1143","b","elianto","#f73b6a7A"," ","-1","0","-10","[]","0","2","","","3501","106","6","3","lose","go","0"
"pit-trial","188","1493797","0.0-111.0","battery-v0.2","","""event"",""trial"",""time""
""focus"",""0"",""1""
""fullscreenenter"",""2"",""39793""
","
","""event"",""trial"",""time""
""focus"",""0"",""1""
","""event"",""trial"",""time""
""fullscreenenter"",""2"",""39793""
","
","","","630","","","16","3501","1143","f","elianto","#3366ff99"," "," ","1","+10","[1490]","1","2","","","3501","107","8","1","win","go","0"
"pit-trial","189","1498663","0.0-112.0","battery-v0.2","","""event"",""trial"",""time""
""focus"",""0"",""1""
""fullscreenenter"",""2"",""39793""
","
","""event"",""trial"",""time""
""focus"",""0"",""1""
","""event"",""trial"",""time""
""fullscreenenter"",""2"",""39793""
","
","","","-1","","","16","3501","1143","z","elianto","#3366ff99"," ","-1","0","0","[]","0","2","","","3501","108","4","1","win","go","0"
"pit-trial","190","1502932","0.0-113.0","battery-v0.2","","""event"",""trial"",""time""
""focus"",""0"",""1""
""fullscreenenter"",""2"",""39793""
","
","""event"",""trial"",""time""
""focus"",""0"",""1""
","""event"",""trial"",""time""
""fullscreenenter"",""2"",""39793""
","
","","","1396","","","16","3501","1143","c","elianto","#3366ff99","-1"," ","0","+10","[2254]","1","2","","","3501","109","5","2","win","no-go","1"
"pit-trial","191","1506547","0.0-114.0","battery-v0.2","","""event"",""trial"",""time""
""focus"",""0"",""1""
""fullscreenenter"",""2"",""39793""
","
","""event"",""trial"",""time""
""focus"",""0"",""1""
","""event"",""trial"",""time""
""fullscreenenter"",""2"",""39793""
","
","","","736","","","16","3501","1143","f","elianto","#3366ff99"," "," ","1","+10","[1595]","1","2","","","3501","110","8","1","win","go","0"
"pit-trial","192","1510821","0.0-115.0","battery-v0.2","","""event"",""trial"",""time""
""focus"",""0"",""1""
""fullscreenenter"",""2"",""39793""
","
","""event"",""trial"",""time""
""focus"",""0"",""1""
","""event"",""trial"",""time""
""fullscreenenter"",""2"",""39793""
","
","","","1396","","","16","3501","1143","n","elianto","#3366ff99"," "," ","1","0","[2256]","1","2","","","3501","111","9","1","win","go","1"
"pit-trial","193","1515691","0.0-116.0","battery-v0.2","","""event"",""trial"",""time""
""focus"",""0"",""1""
""fullscreenenter"",""2"",""39793""
","
","""event"",""trial"",""time""
""focus"",""0"",""1""
","""event"",""trial"",""time""
""fullscreenenter"",""2"",""39793""
","
","","","-1","","","16","3501","1143","b","elianto","#f73b6a7A"," ","-1","0","-10","[]","0","2","","","3501","112","6","3","lose","go","0"
"pit-trial","194","1519623","0.0-117.0","battery-v0.2","","""event"",""trial"",""time""
""focus"",""0"",""1""
""fullscreenenter"",""2"",""39793""
","
","""event"",""trial"",""time""
""focus"",""0"",""1""
","""event"",""trial"",""time""
""fullscreenenter"",""2"",""39793""
","
","","","1065","","","16","3501","1143","n","elianto","#3366ff99"," "," ","1","+10","[1923]","1","2","","","3501","113","9","1","win","go","0"
"pit-trial","195","1524496","0.0-118.0","battery-v0.2","","""event"",""trial"",""time""
""focus"",""0"",""1""
""fullscreenenter"",""2"",""39793""
","
","""event"",""trial"",""time""
""focus"",""0"",""1""
","""event"",""trial"",""time""
""fullscreenenter"",""2"",""39793""
","
","","","-1","","","16","3501","1143","c","elianto","#3366ff99","-1","-1","1","+10","[]","0","2","","","3501","114","5","2","win","no-go","0"
"pit-trial","196","1528010","0.0-119.0","battery-v0.2","","""event"",""trial"",""time""
""focus"",""0"",""1""
""fullscreenenter"",""2"",""39793""
","
","""event"",""trial"",""time""
""focus"",""0"",""1""
","""event"",""trial"",""time""
""fullscreenenter"",""2"",""39793""
","
","","","639","","","16","3501","1143","f","elianto","#3366ff99"," "," ","1","+10","[1502]","1","2","","","3501","115","8","1","win","go","0"
"pit-trial","197","1532066","0.0-120.0","battery-v0.2","","""event"",""trial"",""time""
""focus"",""0"",""1""
""fullscreenenter"",""2"",""39793""
","
","""event"",""trial"",""time""
""focus"",""0"",""1""
","""event"",""trial"",""time""
""fullscreenenter"",""2"",""39793""
","
","","","1180","","","16","3501","1143","b","elianto","#f73b6a7A"," "," ","1","0","[2039]","1","2","","","3501","116","6","3","lose","go","0"
"pit-trial","198","1535787","0.0-121.0","battery-v0.2","","""event"",""trial"",""time""
""focus"",""0"",""1""
""fullscreenenter"",""2"",""39793""
","
","""event"",""trial"",""time""
""focus"",""0"",""1""
","""event"",""trial"",""time""
""fullscreenenter"",""2"",""39793""
","
","","","852","","","16","3501","1143","b","elianto","#f73b6a7A"," "," ","1","-10","[1715]","1","2","","","3501","117","6","3","lose","go","1"
"pit-trial","199","1540660","0.0-122.0","battery-v0.2","","""event"",""trial"",""time""
""focus"",""0"",""1""
""fullscreenenter"",""2"",""39793""
","
","""event"",""trial"",""time""
""focus"",""0"",""1""
","""event"",""trial"",""time""
""fullscreenenter"",""2"",""39793""
","
","","","-1","","","16","3501","1143","n","elianto","#3366ff99"," ","-1","0","0","[]","0","2","","","3501","118","9","1","win","go","0"
"pit-trial","200","1545122","0.0-123.0","battery-v0.2","","""event"",""trial"",""time""
""focus"",""0"",""1""
""fullscreenenter"",""2"",""39793""
","
","""event"",""trial"",""time""
""focus"",""0"",""1""
","""event"",""trial"",""time""
""fullscreenenter"",""2"",""39793""
","
","","","1591","","","16","3501","1143","c","elianto","#3366ff99","-1"," ","0","0","[2455]","1","2","","","3501","119","5","2","win","no-go","0"
"pit-trial","201","1548655","0.0-124.0","battery-v0.2","","""event"",""trial"",""time""
""focus"",""0"",""1""
""fullscreenenter"",""2"",""39793""
","
","""event"",""trial"",""time""
""focus"",""0"",""1""
","""event"",""trial"",""time""
""fullscreenenter"",""2"",""39793""
","
","","","673","","","16","3501","1143","f","elianto","#3366ff99"," "," ","1","+10","[1525]","1","2","","","3501","120","8","1","win","go","0"
"pit-trial","202","1552074","0.0-125.0","battery-v0.2","","""event"",""trial"",""time""
""focus"",""0"",""1""
""fullscreenenter"",""2"",""39793""
","
","""event"",""trial"",""time""
""focus"",""0"",""1""
","""event"",""trial"",""time""
""fullscreenenter"",""2"",""39793""
","
","","","553","","","16","3501","1143","f","elianto","#3366ff99"," "," ","1","+10","[1409]","1","2","","","3501","121","8","1","win","go","0"
"pit-trial","203","1556953","0.0-126.0","battery-v0.2","","""event"",""trial"",""time""
""focus"",""0"",""1""
""fullscreenenter"",""2"",""39793""
","
","""event"",""trial"",""time""
""focus"",""0"",""1""
","""event"",""trial"",""time""
""fullscreenenter"",""2"",""39793""
","
","","","-1","","","16","3501","1143","t","elianto","#f73b6a7A","-1","-1","1","0","[]","0","2","","","3501","122","7","4","lose","no-go","0"
"pit-trial","204","1561827","0.0-127.0","battery-v0.2","","""event"",""trial"",""time""
""focus"",""0"",""1""
""fullscreenenter"",""2"",""39793""
","
","""event"",""trial"",""time""
""focus"",""0"",""1""
","""event"",""trial"",""time""
""fullscreenenter"",""2"",""39793""
","
","","","-1","","","16","3501","1143","b","elianto","#f73b6a7A"," ","-1","0","-10","[]","0","2","","","3501","123","6","3","lose","go","0"
"pit-trial","205","1566700","0.0-128.0","battery-v0.2","","""event"",""trial"",""time""
""focus"",""0"",""1""
""fullscreenenter"",""2"",""39793""
","
","""event"",""trial"",""time""
""focus"",""0"",""1""
","""event"",""trial"",""time""
""fullscreenenter"",""2"",""39793""
","
","","","-1","","","16","3501","1143","n","elianto","#3366ff99"," ","-1","0","0","[]","0","2","","","3501","124","9","1","win","go","0"
"pit-trial","206","1570312","0.0-129.0","battery-v0.2","","""event"",""trial"",""time""
""focus"",""0"",""1""
""fullscreenenter"",""2"",""39793""
","
","""event"",""trial"",""time""
""focus"",""0"",""1""
","""event"",""trial"",""time""
""fullscreenenter"",""2"",""39793""
","
","","","741","","","16","3501","1143","f","elianto","#3366ff99"," "," ","1","+10","[1603]","1","2","","","3501","125","8","1","win","go","0"
"pit-trial","207","1574292","0.0-130.0","battery-v0.2","","""event"",""trial"",""time""
""focus"",""0"",""1""
""fullscreenenter"",""2"",""39793""
","
","""event"",""trial"",""time""
""focus"",""0"",""1""
","""event"",""trial"",""time""
""fullscreenenter"",""2"",""39793""
","
","","","1112","","","16","3501","1143","b","elianto","#f73b6a7A"," "," ","1","0","[1968]","1","2","","","3501","126","6","3","lose","go","0"
"pit-trial","208","1579078","0.0-131.0","battery-v0.2","","""event"",""trial"",""time""
""focus"",""0"",""1""
""fullscreenenter"",""2"",""39793""
","
","""event"",""trial"",""time""
""focus"",""0"",""1""
","""event"",""trial"",""time""
""fullscreenenter"",""2"",""39793""
","
","","","1923","","","16","3501","1143","t","elianto","#f73b6a7A","-1"," ","0","-10","[2773]","1","2","","","3501","127","7","4","lose","no-go","0"
"pit-trial","209","1583144","0.0-132.0","battery-v0.2","","""event"",""trial"",""time""
""focus"",""0"",""1""
""fullscreenenter"",""2"",""39793""
","
","""event"",""trial"",""time""
""focus"",""0"",""1""
","""event"",""trial"",""time""
""fullscreenenter"",""2"",""39793""
","
","","","1187","","","16","3501","1143","n","elianto","#3366ff99"," "," ","1","+10","[2048]","1","2","","","3501","128","9","1","win","go","0"
"pit-trial","210","1587348","0.0-133.0","battery-v0.2","","""event"",""trial"",""time""
""focus"",""0"",""1""
""fullscreenenter"",""2"",""39793""
","
","""event"",""trial"",""time""
""focus"",""0"",""1""
","""event"",""trial"",""time""
""fullscreenenter"",""2"",""39793""
","
","","","1345","","","16","3501","1143","b","elianto","#f73b6a7A"," "," ","1","-10","[2199]","1","2","","","3501","129","6","3","lose","go","1"
"pit-trial","211","1591683","0.0-134.0","battery-v0.2","","""event"",""trial"",""time""
""focus"",""0"",""1""
""fullscreenenter"",""2"",""39793""
","
","""event"",""trial"",""time""
""focus"",""0"",""1""
","""event"",""trial"",""time""
""fullscreenenter"",""2"",""39793""
","
","","","1472","","","16","3501","1143","t","elianto","#f73b6a7A","-1"," ","0","0","[2331]","1","2","","","3501","130","7","4","lose","no-go","1"
"pit-trial","212","1595178","0.0-135.0","battery-v0.2","","""event"",""trial"",""time""
""focus"",""0"",""1""
""fullscreenenter"",""2"",""39793""
","
","""event"",""trial"",""time""
""focus"",""0"",""1""
","""event"",""trial"",""time""
""fullscreenenter"",""2"",""39793""
","
","","","633","","","16","3501","1143","f","elianto","#3366ff99"," "," ","1","+10","[1491]","1","2","","","3501","131","8","1","win","go","0"
"pit-trial","213","1600049","0.0-136.0","battery-v0.2","","""event"",""trial"",""time""
""focus"",""0"",""1""
""fullscreenenter"",""2"",""39793""
","
","""event"",""trial"",""time""
""focus"",""0"",""1""
","""event"",""trial"",""time""
""fullscreenenter"",""2"",""39793""
","
","","","-1","","","16","3501","1143","n","elianto","#3366ff99"," ","-1","0","0","[]","0","2","","","3501","132","9","1","win","go","0"
"pit-trial","214","1603646","0.0-137.0","battery-v0.2","","""event"",""trial"",""time""
""focus"",""0"",""1""
""fullscreenenter"",""2"",""39793""
","
","""event"",""trial"",""time""
""focus"",""0"",""1""
","""event"",""trial"",""time""
""fullscreenenter"",""2"",""39793""
","
","","","733","","","16","3501","1143","f","elianto","#3366ff99"," "," ","1","+10","[1592]","1","2","","","3501","133","8","1","win","go","0"
"pit-trial","215","1608058","0.0-138.0","battery-v0.2","","""event"",""trial"",""time""
""focus"",""0"",""1""
""fullscreenenter"",""2"",""39793""
","
","""event"",""trial"",""time""
""focus"",""0"",""1""
","""event"",""trial"",""time""
""fullscreenenter"",""2"",""39793""
","
","","","1544","","","16","3501","1143","b","elianto","#f73b6a7A"," "," ","1","-10","[2404]","1","2","","","3501","134","6","3","lose","go","1"
"pit-trial","216","1612313","0.0-139.0","battery-v0.2","","""event"",""trial"",""time""
""focus"",""0"",""1""
""fullscreenenter"",""2"",""39793""
","
","""event"",""trial"",""time""
""focus"",""0"",""1""
","""event"",""trial"",""time""
""fullscreenenter"",""2"",""39793""
","
","","","1380","","","16","3501","1143","t","elianto","#f73b6a7A","-1"," ","0","-10","[2237]","1","2","","","3501","135","7","4","lose","no-go","0"
"pit-trial","217","1617181","0.0-140.0","battery-v0.2","","""event"",""trial"",""time""
""focus"",""0"",""1""
""fullscreenenter"",""2"",""39793""
","
","""event"",""trial"",""time""
""focus"",""0"",""1""
","""event"",""trial"",""time""
""fullscreenenter"",""2"",""39793""
","
","","","-1","","","16","3501","1143","n","elianto","#3366ff99"," ","-1","0","0","[]","0","2","","","3501","136","9","1","win","go","0"
"pit-trial","218","1622050","0.0-141.0","battery-v0.2","","""event"",""trial"",""time""
""focus"",""0"",""1""
""fullscreenenter"",""2"",""39793""
","
","""event"",""trial"",""time""
""focus"",""0"",""1""
","""event"",""trial"",""time""
""fullscreenenter"",""2"",""39793""
","
","","","-1","","","16","3501","1143","t","elianto","#f73b6a7A","-1","-1","1","0","[]","0","2","","","3501","137","7","4","lose","no-go","0"
"pit-trial","219","1626919","0.0-142.0","battery-v0.2","","""event"",""trial"",""time""
""focus"",""0"",""1""
""fullscreenenter"",""2"",""39793""
","
","""event"",""trial"",""time""
""focus"",""0"",""1""
","""event"",""trial"",""time""
""fullscreenenter"",""2"",""39793""
","
","","","-1","","","16","3501","1143","n","elianto","#3366ff99"," ","-1","0","0","[]","0","2","","","3501","138","9","1","win","go","0"
"pit-trial","220","1631788","0.0-143.0","battery-v0.2","","""event"",""trial"",""time""
""focus"",""0"",""1""
""fullscreenenter"",""2"",""39793""
","
","""event"",""trial"",""time""
""focus"",""0"",""1""
","""event"",""trial"",""time""
""fullscreenenter"",""2"",""39793""
","
","","","-1","","","16","3501","1143","b","elianto","#f73b6a7A"," ","-1","0","0","[]","0","2","","","3501","139","6","3","lose","go","1"
"pit-trial","221","1635336","0.0-144.0","battery-v0.2","","""event"",""trial"",""time""
""focus"",""0"",""1""
""fullscreenenter"",""2"",""39793""
","
","""event"",""trial"",""time""
""focus"",""0"",""1""
","""event"",""trial"",""time""
""fullscreenenter"",""2"",""39793""
","
","","","670","","","16","3501","1143","f","elianto","#3366ff99"," "," ","1","+10","[1528]","1","2","","","3501","140","8","1","win","go","0"
"pit-instructions","222","1924513","0.0-145.0","battery-v0.2","","""event"",""trial"",""time""
""focus"",""0"",""1""
""fullscreenenter"",""2"",""39793""
","
","""event"",""trial"",""time""
""focus"",""0"",""1""
","""event"",""trial"",""time""
""fullscreenenter"",""2"",""39793""
","
","","[{""page_index"":0,""viewing_time"":74536},{""page_index"":1,""viewing_time"":214639}]","289175","","","","","","","","","","","","","","","","","","","","","","","",""
"pit-trial","223","1929379","0.0-146.0","battery-v0.2","","""event"",""trial"",""time""
""focus"",""0"",""1""
""fullscreenenter"",""2"",""39793""
","
","""event"",""trial"",""time""
""focus"",""0"",""1""
","""event"",""trial"",""time""
""fullscreenenter"",""2"",""39793""
","
","","","-1","","","16","3501","1143","g","elianto","#f73b6a7A"," ","-1","0","-10","[]","0","3","","","3501","141","3","3","lose","go","0"
"pit-trial","224","1933266","0.0-147.0","battery-v0.2","","""event"",""trial"",""time""
""focus"",""0"",""1""
""fullscreenenter"",""2"",""39793""
","
","""event"",""trial"",""time""
""focus"",""0"",""1""
","""event"",""trial"",""time""
""fullscreenenter"",""2"",""39793""
","
","","","1017","","","16","3501","1143","a","elianto","#f73b6a7A","-1"," ","0","0","[1880]","1","3","","","3501","142","2","4","lose","no-go","1"
"pit-trial","225","1937440","0.0-148.0","battery-v0.2","","""event"",""trial"",""time""
""focus"",""0"",""1""
""fullscreenenter"",""2"",""39793""
","
","""event"",""trial"",""time""
""focus"",""0"",""1""
","""event"",""trial"",""time""
""fullscreenenter"",""2"",""39793""
","
","","","1304","","","16","3501","1143","l","elianto","#3366ff99"," "," ","1","+10","[2164]","1","3","","","3501","143","1","1","win","go","0"
"pit-trial","226","1941728","0.0-149.0","battery-v0.2","","""event"",""trial"",""time""
""focus"",""0"",""1""
""fullscreenenter"",""2"",""39793""
","
","""event"",""trial"",""time""
""focus"",""0"",""1""
","""event"",""trial"",""time""
""fullscreenenter"",""2"",""39793""
","
","","","1420","","","16","3501","1143","u","elianto","#f73b6a7A","-1"," ","0","-10","[2274]","1","3","","","3501","144","0","4","lose","no-go","0"
"pit-trial","227","1946597","0.0-150.0","battery-v0.2","","""event"",""trial"",""time""
""focus"",""0"",""1""
""fullscreenenter"",""2"",""39793""
","
","""event"",""trial"",""time""
""focus"",""0"",""1""
","""event"",""trial"",""time""
""fullscreenenter"",""2"",""39793""
","
","","","-1","","","16","3501","1143","u","elianto","#f73b6a7A","-1","-1","1","-10","[]","0","3","","","3501","145","0","4","lose","no-go","1"
"pit-trial","228","1950361","0.0-151.0","battery-v0.2","","""event"",""trial"",""time""
""focus"",""0"",""1""
""fullscreenenter"",""2"",""39793""
","
","""event"",""trial"",""time""
""focus"",""0"",""1""
","""event"",""trial"",""time""
""fullscreenenter"",""2"",""39793""
","
","","","888","","","16","3501","1143","g","elianto","#f73b6a7A"," "," ","1","0","[1750]","1","3","","","3501","146","3","3","lose","go","0"
"pit-trial","229","1954108","0.0-152.0","battery-v0.2","","""event"",""trial"",""time""
""focus"",""0"",""1""
""fullscreenenter"",""2"",""39793""
","
","""event"",""trial"",""time""
""focus"",""0"",""1""
","""event"",""trial"",""time""
