"trial_type","trial_index","time_elapsed","internal_node_id","task_version","subject_id","interactions","blur_events","focus_events","fullscreenenter_events","fullscreenexit_events","success","view_history","rt","responses","num_errors","age","subject","participantId","rune","rune_set","hex","correct","choice","accuracy","outcome","keys","total_keys","block","practice","value","sub","trial","stimulus","robot","valence","action","sham"
"pavlovia","0","15","0.0-0.0","battery-v0.2","","""event"",""trial"",""time""
""fullscreenenter"",""1"",""12246""
","
","
","""event"",""trial"",""time""
""fullscreenenter"",""1"",""12246""
","
","","","","","","","","","","","","","","","","","","","","","","","","","","",""
"fullscreen","1","13238","0.0-1.0","battery-v0.2","","""event"",""trial"",""time""
""fullscreenenter"",""1"",""12246""
","
","
","""event"",""trial"",""time""
""fullscreenenter"",""1"",""12246""
","
","true","","","","","","","","","","","","","","","","","","","","","","","","","",""
"pit-instructions","2","19153","0.0-2.0-0.0","battery-v0.2","","""event"",""trial"",""time""
""fullscreenenter"",""1"",""12246""
","
","
","""event"",""trial"",""time""
""fullscreenenter"",""1"",""12246""
","
","","[{""page_index"":0,""viewing_time"":5910.899999976158}]","5911.100000023842","","","","","","","","","","","","","","","","","","","","","","","",""
"pit-comprehension","3","24934","0.0-2.0-1.0-0.0","battery-v0.2","","""event"",""trial"",""time""
""fullscreenenter"",""1"",""12246""
","
","
","""event"",""trial"",""time""
""fullscreenenter"",""1"",""12246""
","
","","","5777.799999952316","[""shark""]","0","11","6356","299","","","","","","","","","","","","","","","","","","",""
"pit-instructions","4","26222","0.0-2.0-1.0-1.0","battery-v0.2","","""event"",""trial"",""time""
""fullscreenenter"",""1"",""12246""
","
","
","""event"",""trial"",""time""
""fullscreenenter"",""1"",""12246""
","
","","[{""page_index"":0,""viewing_time"":1275.1000000238419}]","1275.2999999523163","","","","","","","","","","","","","","","","","","","","","","","",""
"pit-comprehension","5","31283","0.0-2.0-2.0-0.0","battery-v0.2","","""event"",""trial"",""time""
""fullscreenenter"",""1"",""12246""
","
","
","""event"",""trial"",""time""
""fullscreenenter"",""1"",""12246""
","
","","","5058","[""tiger""]","0","11","6356","299","","","","","","","","","","","","","","","","","","",""
"pit-instructions","6","33528","0.0-2.0-2.0-1.0","battery-v0.2","","""event"",""trial"",""time""
""fullscreenenter"",""1"",""12246""
","
","
","""event"",""trial"",""time""
""fullscreenenter"",""1"",""12246""
","
","","[{""page_index"":0,""viewing_time"":2242}]","2242.2999999523163","","","","","","","","","","","","","","","","","","","","","","","",""
"pit-instructions","7","151753","0.0-2.0-3.0","battery-v0.2","","""event"",""trial"",""time""
""fullscreenenter"",""1"",""12246""
","
","
","""event"",""trial"",""time""
""fullscreenenter"",""1"",""12246""
","
","","[{""page_index"":0,""viewing_time"":13179.299999952316},{""page_index"":1,""viewing_time"":6910.399999976158},{""page_index"":2,""viewing_time"":9459.700000047684},{""page_index"":3,""viewing_time"":8249.699999928474},{""page_index"":4,""viewing_time"":8349.700000047684},{""page_index"":5,""viewing_time"":8540},{""page_index"":6,""viewing_time"":8750.399999976158},{""page_index"":7,""viewing_time"":6059.399999976158},{""page_index"":8,""viewing_time"":8458.100000023842},{""page_index"":9,""viewing_time"":12311.100000023842},{""page_index"":10,""viewing_time"":7602.600000023842},{""page_index"":11,""viewing_time"":4347.799999952316},{""page_index"":12,""viewing_time"":8969.899999976158},{""page_index"":13,""viewing_time"":7039.800000071526}]","118228.19999992847","","","","","","","","","","","","","","","","","","","","","","","",""
"pit-trial","8","155912","0.0-2.0-4.0-0.0","battery-v0.2","","""event"",""trial"",""time""
""fullscreenenter"",""1"",""12246""
","
","
","""event"",""trial"",""time""
""fullscreenenter"",""1"",""12246""
","
","","","1282.8999999761581","","","11","6356","299","&#9784;","elianto","#FFFFF080"," "," ","1","&#10004","[2142]","1","0","0","","","","","","","",""
"pit-trial","9","159471","0.0-2.0-4.1-0.1","battery-v0.2","","""event"",""trial"",""time""
""fullscreenenter"",""1"",""12246""
","
","
","""event"",""trial"",""time""
""fullscreenenter"",""1"",""12246""
","
","","","687.5","","","11","6356","299","&#9784;","elianto","#FFFFF080"," "," ","1","&#10004","[1550]","1","0","0","","","","","","","",""
"pit-trial","10","162861","0.0-2.0-4.2-0.2","battery-v0.2","","""event"",""trial"",""time""
""fullscreenenter"",""1"",""12246""
","
","
","""event"",""trial"",""time""
""fullscreenenter"",""1"",""12246""
","
","","","521.8999999761581","","","11","6356","299","&#9784;","elianto","#FFFFF080"," "," ","1","&#10004","[1375.7000000476837]","1","0","0","","","","","","","",""
"pit-trial","11","166651","0.0-2.0-4.3-0.3","battery-v0.2","","""event"",""trial"",""time""
""fullscreenenter"",""1"",""12246""
","
","
","""event"",""trial"",""time""
""fullscreenenter"",""1"",""12246""
","
","","","910.3999999761581","","","11","6356","299","&#9784;","elianto","#FFFFF080"," "," ","1","&#10004","[1767.3999999761581]","1","0","0","","","","","","","",""
"pit-trial","12","170381","0.0-2.0-4.4-0.4","battery-v0.2","","""event"",""trial"",""time""
""fullscreenenter"",""1"",""12246""
","
","
","""event"",""trial"",""time""
""fullscreenenter"",""1"",""12246""
","
","","","858.6999999284744","","","11","6356","299","&#9784;","elianto","#FFFFF080"," "," ","1","&#10004","[1711.8999999761581]","1","0","0","","","","","","","",""
"pit-instructions","13","198266","0.0-2.0-5.0","battery-v0.2","","""event"",""trial"",""time""
""fullscreenenter"",""1"",""12246""
","
","
","""event"",""trial"",""time""
""fullscreenenter"",""1"",""12246""
","
","","[{""page_index"":0,""viewing_time"":5954.100000023842},{""page_index"":1,""viewing_time"":9184.800000071526},{""page_index"":2,""viewing_time"":5510.199999928474},{""page_index"":3,""viewing_time"":7231.700000047684}]","27881.100000023842","","","","","","","","","","","","","","","","","","","","","","","",""
"pit-trial","14","203143","0.0-2.0-6.0-0.0","battery-v0.2","","""event"",""trial"",""time""
""fullscreenenter"",""1"",""12246""
","
","
","""event"",""trial"",""time""
""fullscreenenter"",""1"",""12246""
","
","","","-1","","","11","6356","299","&#9854;","elianto","#FFFFF080","-1","-1","1","&#10004","[]","0","0","1","","","","","","","",""
"pit-trial","15","208023","0.0-2.0-6.1-0.1","battery-v0.2","","""event"",""trial"",""time""
""fullscreenenter"",""1"",""12246""
","
","
","""event"",""trial"",""time""
""fullscreenenter"",""1"",""12246""
","
","","","-1","","","11","6356","299","&#9854;","elianto","#FFFFF080","-1","-1","1","&#10004","[]","0","0","1","","","","","","","",""
"pit-trial","16","212893","0.0-2.0-6.2-0.2","battery-v0.2","","""event"",""trial"",""time""
""fullscreenenter"",""1"",""12246""
","
","
","""event"",""trial"",""time""
""fullscreenenter"",""1"",""12246""
","
","","","-1","","","11","6356","299","&#9854;","elianto","#FFFFF080","-1","-1","1","&#10004","[]","0","0","1","","","","","","","",""
"pit-trial","17","217773","0.0-2.0-6.3-0.3","battery-v0.2","","""event"",""trial"",""time""
""fullscreenenter"",""1"",""12246""
","
","
","""event"",""trial"",""time""
""fullscreenenter"",""1"",""12246""
","
","","","-1","","","11","6356","299","&#9854;","elianto","#FFFFF080","-1","-1","1","&#10004","[]","0","0","1","","","","","","","",""
"pit-trial","18","222652","0.0-2.0-6.4-0.4","battery-v0.2","","""event"",""trial"",""time""
""fullscreenenter"",""1"",""12246""
","
","
","""event"",""trial"",""time""
""fullscreenenter"",""1"",""12246""
","
","","","-1","","","11","6356","299","&#9854;","elianto","#FFFFF080","-1","-1","1","&#10004","[]","0","0","1","","","","","","","",""
"pit-instructions","19","369236","0.0-2.0-7.0","battery-v0.2","","""event"",""trial"",""time""
""fullscreenenter"",""1"",""12246""
","
","
","""event"",""trial"",""time""
""fullscreenenter"",""1"",""12246""
","
","","[{""page_index"":0,""viewing_time"":7236},{""page_index"":1,""viewing_time"":10130.5},{""page_index"":2,""viewing_time"":6051.100000023842},{""page_index"":3,""viewing_time"":9063.399999976158},{""page_index"":4,""viewing_time"":6436.700000047684},{""page_index"":5,""viewing_time"":7030.099999904633},{""page_index"":6,""viewing_time"":7339.5},{""page_index"":7,""viewing_time"":7930.600000023842},{""page_index"":8,""viewing_time"":9124.800000071526},{""page_index"":9,""viewing_time"":9494.899999976158},{""page_index"":10,""viewing_time"":7529.699999928474},{""page_index"":11,""viewing_time"":5279.800000071526},{""page_index"":12,""viewing_time"":8229.799999952316},{""page_index"":13,""viewing_time"":8480.399999976158},{""page_index"":14,""viewing_time"":15059.600000023842},{""page_index"":15,""viewing_time"":8109.800000071526},{""page_index"":16,""viewing_time"":8039.699999928474},{""page_index"":17,""viewing_time"":6009.800000071526}]","146576.70000004768","","","","","","","","","","","","","","","","","","","","","","","",""
"pit-trial","20","372992","0.0-2.0-8.0-0.0","battery-v0.2","","""event"",""trial"",""time""
""fullscreenenter"",""1"",""12246""
","
","
","""event"",""trial"",""time""
""fullscreenenter"",""1"",""12246""
","
","","","884.2000000476837","","","11","6356","299","&#9776;","elianto","#3366ff99"," "," ","1","+10","[1735.7000000476837]","1","0","1","","","","","","","",""
"pit-trial","21","376685","0.0-2.0-8.0-1.0","battery-v0.2","","""event"",""trial"",""time""
""fullscreenenter"",""1"",""12246""
","
","
","""event"",""trial"",""time""
""fullscreenenter"",""1"",""12246""
","
","","","807.5","","","11","6356","299","&#9776;","elianto","#3366ff99"," "," ","1","+10","[1671.7000000476837]","1","0","1","","","","","","","",""
"pit-trial","22","380435","0.0-2.0-8.0-2.0","battery-v0.2","","""event"",""trial"",""time""
""fullscreenenter"",""1"",""12246""
","
","
","""event"",""trial"",""time""
""fullscreenenter"",""1"",""12246""
","
","","","873.2000000476837","","","11","6356","299","&#9776;","elianto","#3366ff99"," "," ","1","+10","[1725.9000000953674]","1","0","1","","","","","","","",""
"pit-trial","23","383955","0.0-2.0-8.0-3.0","battery-v0.2","","""event"",""trial"",""time""
""fullscreenenter"",""1"",""12246""
","
","
","""event"",""trial"",""time""
""fullscreenenter"",""1"",""12246""
","
","","","634","","","11","6356","299","&#9776;","elianto","#3366ff99"," "," ","1","0","[1498.3000000715256]","1","0","1","","","","","","","",""
"pit-trial","24","387455","0.0-2.0-8.0-4.0","battery-v0.2","","""event"",""trial"",""time""
""fullscreenenter"",""1"",""12246""
","
","
","""event"",""trial"",""time""
""fullscreenenter"",""1"",""12246""
","
","","","626.0999999046326","","","11","6356","299","&#9776;","elianto","#3366ff99"," "," ","1","+10","[1489.4000000953674]","1","0","1","","","","","","","",""
"pit-trial","25","391175","0.0-2.0-8.1-0.1","battery-v0.2","","""event"",""trial"",""time""
""fullscreenenter"",""1"",""12246""
","
","
","""event"",""trial"",""time""
""fullscreenenter"",""1"",""12246""
","
","","","843.6000000238419","","","11","6356","299","&#9776;","elianto","#3366ff99"," "," ","1","+10","[1700.3999999761581]","1","0","1","","","","","","","",""
"pit-trial","26","394565","0.0-2.0-8.1-1.1","battery-v0.2","","""event"",""trial"",""time""
""fullscreenenter"",""1"",""12246""
","
","
","""event"",""trial"",""time""
""fullscreenenter"",""1"",""12246""
","
","","","526.5","","","11","6356","299","&#9776;","elianto","#3366ff99"," "," ","1","+10","[1384.1000000238419]","1","0","1","","","","","","","",""
"pit-trial","27","397925","0.0-2.0-8.1-2.1","battery-v0.2","","""event"",""trial"",""time""
""fullscreenenter"",""1"",""12246""
","
","
","""event"",""trial"",""time""
""fullscreenenter"",""1"",""12246""
","
","","","500.1999999284744","","","11","6356","299","&#9776;","elianto","#3366ff99"," "," ","1","+10","[1354.5999999046326]","1","0","1","","","","","","","",""
"pit-trial","28","401385","0.0-2.0-8.1-3.1","battery-v0.2","","""event"",""trial"",""time""
""fullscreenenter"",""1"",""12246""
","
","
","""event"",""trial"",""time""
""fullscreenenter"",""1"",""12246""
","
","","","606","","","11","6356","299","&#9776;","elianto","#3366ff99"," "," ","1","0","[1458.2000000476837]","1","0","1","","","","","","","",""
"pit-trial","29","404690","0.0-2.0-8.1-4.1","battery-v0.2","","""event"",""trial"",""time""
""fullscreenenter"",""1"",""12246""
","
","
","""event"",""trial"",""time""
""fullscreenenter"",""1"",""12246""
","
","","","443.09999990463257","","","11","6356","299","&#9776;","elianto","#3366ff99"," "," ","1","+10","[1297.5]","1","0","1","","","","","","","",""
"pit-trial","30","408033","0.0-2.0-8.2-0.2","battery-v0.2","","""event"",""trial"",""time""
""fullscreenenter"",""1"",""12246""
","
","
","""event"",""trial"",""time""
""fullscreenenter"",""1"",""12246""
","
","","","482.10000002384186","","","11","6356","299","&#9776;","elianto","#3366ff99"," "," ","1","+10","[1336.5]","1","0","1","","","","","","","",""
"pit-trial","31","411370","0.0-2.0-8.2-1.2","battery-v0.2","","""event"",""trial"",""time""
""fullscreenenter"",""1"",""12246""
","
","
","""event"",""trial"",""time""
""fullscreenenter"",""1"",""12246""
","
","","","474.1999999284744","","","11","6356","299","&#9776;","elianto","#3366ff99"," "," ","1","+10","[1329.5]","1","0","1","","","","","","","",""
"pit-trial","32","414705","0.0-2.0-8.2-2.2","battery-v0.2","","""event"",""trial"",""time""
""fullscreenenter"",""1"",""12246""
","
","
","""event"",""trial"",""time""
""fullscreenenter"",""1"",""12246""
","
","","","475.8000000715256","","","11","6356","299","&#9776;","elianto","#3366ff99"," "," ","1","+10","[1329.8000000715256]","1","0","1","","","","","","","",""
"pit-trial","33","418097","0.0-2.0-8.2-3.2","battery-v0.2","","""event"",""trial"",""time""
""fullscreenenter"",""1"",""12246""
","
","
","""event"",""trial"",""time""
""fullscreenenter"",""1"",""12246""
","
","","","529.1000000238419","","","11","6356","299","&#9776;","elianto","#3366ff99"," "," ","1","0","[1384.1999999284744]","1","0","1","","","","","","","",""
"pit-trial","34","421713","0.0-2.0-8.2-4.2","battery-v0.2","","""event"",""trial"",""time""
""fullscreenenter"",""1"",""12246""
","
","
","""event"",""trial"",""time""
""fullscreenenter"",""1"",""12246""
","
","","","756.8999999761581","","","11","6356","299","&#9776;","elianto","#3366ff99"," "," ","1","+10","[1611.2000000476837]","1","0","1","","","","","","","",""
"call-function","35","421715","0.0-2.0-9.0","battery-v0.2","","""event"",""trial"",""time""
""fullscreenenter"",""1"",""12246""
","
","
","""event"",""trial"",""time""
""fullscreenenter"",""1"",""12246""
","
","","","","","","","","","","","","","","","","","","","","","","","","","","",""
"pit-instructions","36","471612","0.0-2.0-10.0","battery-v0.2","","""event"",""trial"",""time""
""fullscreenenter"",""1"",""12246""
","
","
","""event"",""trial"",""time""
""fullscreenenter"",""1"",""12246""
","
","","[{""page_index"":0,""viewing_time"":7406.899999976158},{""page_index"":1,""viewing_time"":12880.199999928474},{""page_index"":2,""viewing_time"":12929.600000023842},{""page_index"":3,""viewing_time"":8239.700000047684},{""page_index"":4,""viewing_time"":8440.600000023842}]","49897.39999997616","","","","","","","","","","","","","","","","","","","","","","","",""
"pit-trial","37","475730","0.0-2.0-11.0-0.0","battery-v0.2","","""event"",""trial"",""time""
""fullscreenenter"",""1"",""12246""
","
","
","""event"",""trial"",""time""
""fullscreenenter"",""1"",""12246""
","
","","","1242.3000000715256","","","11","6356","299","&#9761;","elianto","#3366ff99","-1"," ","0","0","[2103.899999976158,2491.100000023842,2634.899999976158]","3","0","2","","","","","","","",""
"pit-trial","38","480600","0.0-2.0-11.0-1.0","battery-v0.2","","""event"",""trial"",""time""
""fullscreenenter"",""1"",""12246""
","
","
","""event"",""trial"",""time""
""fullscreenenter"",""1"",""12246""
","
","","","-1","","","11","6356","299","&#9761;","elianto","#3366ff99","-1","-1","1","+10","[]","0","0","2","","","","","","","",""
"pit-trial","39","484480","0.0-2.0-11.0-2.0","battery-v0.2","","""event"",""trial"",""time""
""fullscreenenter"",""1"",""12246""
","
","
","""event"",""trial"",""time""
""fullscreenenter"",""1"",""12246""
","
","","","1002","","","11","6356","299","&#9761;","elianto","#3366ff99","-1"," ","0","0","[1863.6000000238419]","1","0","2","","","","","","","",""
"pit-trial","40","487715","0.0-2.0-11.0-3.0","battery-v0.2","","""event"",""trial"",""time""
""fullscreenenter"",""1"",""12246""
","
","
","""event"",""trial"",""time""
""fullscreenenter"",""1"",""12246""
","
","","","363.7999999523163","","","11","6356","299","&#9761;","elianto","#3366ff99","-1"," ","0","+10","[1215.6000000238419]","1","0","2","","","","","","","",""
"pit-trial","41","491050","0.0-2.0-11.0-4.0","battery-v0.2","","""event"",""trial"",""time""
""fullscreenenter"",""1"",""12246""
","
","
","""event"",""trial"",""time""
""fullscreenenter"",""1"",""12246""
","
","","","464","","","11","6356","299","&#9761;","elianto","#3366ff99","-1"," ","0","0","[1324.1000000238419]","1","0","2","","","","","","","",""
"pit-trial","42","494480","0.0-2.0-11.1-0.1","battery-v0.2","","""event"",""trial"",""time""
""fullscreenenter"",""1"",""12246""
","
","
","""event"",""trial"",""time""
""fullscreenenter"",""1"",""12246""
","
","","","546.5999999046326","","","11","6356","299","&#9761;","elianto","#3366ff99","-1"," ","0","0","[1410]","1","0","2","","","","","","","",""
"pit-trial","43","498720","0.0-2.0-11.1-1.1","battery-v0.2","","""event"",""trial"",""time""
""fullscreenenter"",""1"",""12246""
","
","
","""event"",""trial"",""time""
""fullscreenenter"",""1"",""12246""
","
","","","1365.5","","","11","6356","299","&#9761;","elianto","#3366ff99","-1"," ","0","0","[2224.899999976158]","1","0","2","","","","","","","",""
"pit-trial","44","503584","0.0-2.0-11.1-2.1","battery-v0.2","","""event"",""trial"",""time""
""fullscreenenter"",""1"",""12246""
","
","
","""event"",""trial"",""time""
""fullscreenenter"",""1"",""12246""
","
","","","-1","","","11","6356","299","&#9761;","elianto","#3366ff99","-1","-1","1","+10","[]","0","0","2","","","","","","","",""
"pit-trial","45","508449","0.0-2.0-11.1-3.1","battery-v0.2","","""event"",""trial"",""time""
""fullscreenenter"",""1"",""12246""
","
","
","""event"",""trial"",""time""
""fullscreenenter"",""1"",""12246""
","
","","","-1","","","11","6356","299","&#9761;","elianto","#3366ff99","-1","-1","1","0","[]","0","0","2","","","","","","","",""
"pit-trial","46","513313","0.0-2.0-11.1-4.1","battery-v0.2","","""event"",""trial"",""time""
""fullscreenenter"",""1"",""12246""
","
","
","""event"",""trial"",""time""
""fullscreenenter"",""1"",""12246""
","
","","","-1","","","11","6356","299","&#9761;","elianto","#3366ff99","-1","-1","1","+10","[]","0","0","2","","","","","","","",""
"pit-trial","47","518176","0.0-2.0-11.2-0.2","battery-v0.2","","""event"",""trial"",""time""
""fullscreenenter"",""1"",""12246""
","
","
","""event"",""trial"",""time""
""fullscreenenter"",""1"",""12246""
","
","","","-1","","","11","6356","299","&#9761;","elianto","#3366ff99","-1","-1","1","+10","[]","0","0","2","","","","","","","",""
"pit-trial","48","521961","0.0-2.0-11.2-1.2","battery-v0.2","","""event"",""trial"",""time""
""fullscreenenter"",""1"",""12246""
","
","
","""event"",""trial"",""time""
""fullscreenenter"",""1"",""12246""
","
","","","930.3000000715256","","","11","6356","299","&#9761;","elianto","#3366ff99","-1"," ","0","0","[1781.8999999761581]","1","0","2","","","","","","","",""
"pit-trial","49","526097","0.0-2.0-11.2-2.2","battery-v0.2","","""event"",""trial"",""time""
""fullscreenenter"",""1"",""12246""
","
","
","""event"",""trial"",""time""
""fullscreenenter"",""1"",""12246""
","
","","","1273.2999999523163","","","11","6356","299","&#9761;","elianto","#3366ff99","-1"," ","0","0","[2127.600000023842]","1","0","2","","","","","","","",""
"pit-trial","50","529977","0.0-2.0-11.2-3.2","battery-v0.2","","""event"",""trial"",""time""
""fullscreenenter"",""1"",""12246""
","
","
","""event"",""trial"",""time""
""fullscreenenter"",""1"",""12246""
","
","","","1021.5999999046326","","","11","6356","299","&#9761;","elianto","#3366ff99","-1"," ","0","+10","[1876.5999999046326]","1","0","2","","","","","","","",""
"pit-trial","51","534273","0.0-2.0-11.2-4.2","battery-v0.2","","""event"",""trial"",""time""
""fullscreenenter"",""1"",""12246""
","
","
","""event"",""trial"",""time""
""fullscreenenter"",""1"",""12246""
","
","","","1434.8999999761581","","","11","6356","299","&#9761;","elianto","#3366ff99","-1"," ","0","0","[2289.8000000715256]","1","0","2","","","","","","","",""
"pit-trial","52","538753","0.0-2.0-11.3-0.3","battery-v0.2","","""event"",""trial"",""time""
""fullscreenenter"",""1"",""12246""
","
","
","""event"",""trial"",""time""
""fullscreenenter"",""1"",""12246""
","
","","","1619.1000000238419","","","11","6356","299","&#9761;","elianto","#3366ff99","-1"," ","0","0","[2470.3000000715256]","1","0","2","","","","","","","",""
"pit-trial","53","543617","0.0-2.0-11.3-1.3","battery-v0.2","","""event"",""trial"",""time""
""fullscreenenter"",""1"",""12246""
","
","
","""event"",""trial"",""time""
""fullscreenenter"",""1"",""12246""
","
","","","-1","","","11","6356","299","&#9761;","elianto","#3366ff99","-1","-1","1","+10","[]","0","0","2","","","","","","","",""
"pit-trial","54","548481","0.0-2.0-11.3-2.3","battery-v0.2","","""event"",""trial"",""time""
""fullscreenenter"",""1"",""12246""
","
","
","""event"",""trial"",""time""
""fullscreenenter"",""1"",""12246""
","
","","","-1","","","11","6356","299","&#9761;","elianto","#3366ff99","-1","-1","1","+10","[]","0","0","2","","","","","","","",""
"pit-trial","55","551945","0.0-2.0-11.3-3.3","battery-v0.2","","""event"",""trial"",""time""
""fullscreenenter"",""1"",""12246""
","
","
","""event"",""trial"",""time""
""fullscreenenter"",""1"",""12246""
","
","","","603.6000000238419","","","11","6356","299","&#9761;","elianto","#3366ff99","-1"," ","0","+10","[1458.6000000238419]","1","0","2","","","","","","","",""
"pit-trial","56","555185","0.0-2.0-11.3-4.3","battery-v0.2","","""event"",""trial"",""time""
""fullscreenenter"",""1"",""12246""
","
","
","""event"",""trial"",""time""
""fullscreenenter"",""1"",""12246""
","
","","","379.89999997615814","","","11","6356","299","&#9761;","elianto","#3366ff99","-1"," ","0","0","[1231.2999999523163,1430.6999999284744]","2","0","2","","","","","","","",""
"call-function","57","555186","0.0-2.0-12.0","battery-v0.2","","""event"",""trial"",""time""
""fullscreenenter"",""1"",""12246""
","
","
","""event"",""trial"",""time""
""fullscreenenter"",""1"",""12246""
","
","","","","","","","","","","","","","","","","","","","","","","","","","","",""
"pit-instructions","58","607354","0.0-2.0-13.0","battery-v0.2","","""event"",""trial"",""time""
""fullscreenenter"",""1"",""12246""
","
","
","""event"",""trial"",""time""
""fullscreenenter"",""1"",""12246""
","
","","[{""page_index"":0,""viewing_time"":12991.700000047684},{""page_index"":1,""viewing_time"":12284.899999976158},{""page_index"":2,""viewing_time"":9740.699999928474},{""page_index"":3,""viewing_time"":10449.400000095367},{""page_index"":4,""viewing_time"":6700}]","52167.10000002384","","","","","","","","","","","","","","","","","","","","","","","",""
"pit-trial","59","612222","0.0-2.0-14.0-0.0","battery-v0.2","","""event"",""trial"",""time""
""fullscreenenter"",""1"",""12246""
","
","
","""event"",""trial"",""time""
""fullscreenenter"",""1"",""12246""
","
","","","-1","","","11","6356","299","&#9826;","elianto","#f73b6a7A","-1","-1","1","0","[]","0","0","3","","","","","","","",""
"pit-trial","60","617108","0.0-2.0-14.0-1.0","battery-v0.2","","""event"",""trial"",""time""
""fullscreenenter"",""1"",""12246""
","
","
","""event"",""trial"",""time""
""fullscreenenter"",""1"",""12246""
","
","","","-1","","","11","6356","299","&#9826;","elianto","#f73b6a7A","-1","-1","1","0","[]","0","0","3","","","","","","","",""
"pit-trial","61","621982","0.0-2.0-14.0-2.0","battery-v0.2","","""event"",""trial"",""time""
""fullscreenenter"",""1"",""12246""
","
","
","""event"",""trial"",""time""
""fullscreenenter"",""1"",""12246""
","
","","","-1","","","11","6356","299","&#9826;","elianto","#f73b6a7A","-1","-1","1","0","[]","0","0","3","","","","","","","",""
"pit-trial","62","626852","0.0-2.0-14.0-3.0","battery-v0.2","","""event"",""trial"",""time""
""fullscreenenter"",""1"",""12246""
","
","
","""event"",""trial"",""time""
""fullscreenenter"",""1"",""12246""
","
","","","-1","","","11","6356","299","&#9826;","elianto","#f73b6a7A","-1","-1","1","-10","[]","0","0","3","","","","","","","",""
"pit-trial","63","631721","0.0-2.0-14.0-4.0","battery-v0.2","","""event"",""trial"",""time""
""fullscreenenter"",""1"",""12246""
","
","
","""event"",""trial"",""time""
""fullscreenenter"",""1"",""12246""
","
","","","-1","","","11","6356","299","&#9826;","elianto","#f73b6a7A","-1","-1","1","0","[]","0","0","3","","","","","","","",""
"pit-trial","64","636585","0.0-2.0-14.1-0.1","battery-v0.2","","""event"",""trial"",""time""
""fullscreenenter"",""1"",""12246""
","
","
","""event"",""trial"",""time""
""fullscreenenter"",""1"",""12246""
","
","","","-1","","","11","6356","299","&#9826;","elianto","#f73b6a7A","-1","-1","1","0","[]","0","0","3","","","","","","","",""
"pit-trial","65","641449","0.0-2.0-14.1-1.1","battery-v0.2","","""event"",""trial"",""time""
""fullscreenenter"",""1"",""12246""
","
","
","""event"",""trial"",""time""
""fullscreenenter"",""1"",""12246""
","
","","","-1","","","11","6356","299","&#9826;","elianto","#f73b6a7A","-1","-1","1","0","[]","0","0","3","","","","","","","",""
"pit-trial","66","646313","0.0-2.0-14.1-2.1","battery-v0.2","","""event"",""trial"",""time""
""fullscreenenter"",""1"",""12246""
","
","
","""event"",""trial"",""time""
""fullscreenenter"",""1"",""12246""
","
","","","-1","","","11","6356","299","&#9826;","elianto","#f73b6a7A","-1","-1","1","0","[]","0","0","3","","","","","","","",""
"pit-trial","67","651177","0.0-2.0-14.1-3.1","battery-v0.2","","""event"",""trial"",""time""
""fullscreenenter"",""1"",""12246""
","
","
","""event"",""trial"",""time""
""fullscreenenter"",""1"",""12246""
","
","","","-1","","","11","6356","299","&#9826;","elianto","#f73b6a7A","-1","-1","1","-10","[]","0","0","3","","","","","","","",""
"pit-trial","68","656041","0.0-2.0-14.1-4.1","battery-v0.2","","""event"",""trial"",""time""
""fullscreenenter"",""1"",""12246""
","
","
","""event"",""trial"",""time""
""fullscreenenter"",""1"",""12246""
","
","","","-1","","","11","6356","299","&#9826;","elianto","#f73b6a7A","-1","-1","1","0","[]","0","0","3","","","","","","","",""
"pit-trial","69","660905","0.0-2.0-14.2-0.2","battery-v0.2","","""event"",""trial"",""time""
""fullscreenenter"",""1"",""12246""
","
","
","""event"",""trial"",""time""
""fullscreenenter"",""1"",""12246""
","
","","","-1","","","11","6356","299","&#9826;","elianto","#f73b6a7A","-1","-1","1","0","[]","0","0","3","","","","","","","",""
"pit-trial","70","665769","0.0-2.0-14.2-1.2","battery-v0.2","","""event"",""trial"",""time""
""fullscreenenter"",""1"",""12246""
","
","
","""event"",""trial"",""time""
""fullscreenenter"",""1"",""12246""
","
","","","-1","","","11","6356","299","&#9826;","elianto","#f73b6a7A","-1","-1","1","0","[]","0","0","3","","","","","","","",""
"pit-trial","71","670632","0.0-2.0-14.2-2.2","battery-v0.2","","""event"",""trial"",""time""
""fullscreenenter"",""1"",""12246""
","
","
","""event"",""trial"",""time""
""fullscreenenter"",""1"",""12246""
","
","","","-1","","","11","6356","299","&#9826;","elianto","#f73b6a7A","-1","-1","1","0","[]","0","0","3","","","","","","","",""
"pit-trial","72","675497","0.0-2.0-14.2-3.2","battery-v0.2","","""event"",""trial"",""time""
""fullscreenenter"",""1"",""12246""
","
","
","""event"",""trial"",""time""
""fullscreenenter"",""1"",""12246""
","
","","","-1","","","11","6356","299","&#9826;","elianto","#f73b6a7A","-1","-1","1","-10","[]","0","0","3","","","","","","","",""
"pit-trial","73","680361","0.0-2.0-14.2-4.2","battery-v0.2","","""event"",""trial"",""time""
""fullscreenenter"",""1"",""12246""
","
","
","""event"",""trial"",""time""
""fullscreenenter"",""1"",""12246""
","
","","","-1","","","11","6356","299","&#9826;","elianto","#f73b6a7A","-1","-1","1","0","[]","0","0","3","","","","","","","",""
"pit-trial","74","685225","0.0-2.0-14.3-0.3","battery-v0.2","","""event"",""trial"",""time""
""fullscreenenter"",""1"",""12246""
","
","
","""event"",""trial"",""time""
""fullscreenenter"",""1"",""12246""
","
","","","-1","","","11","6356","299","&#9826;","elianto","#f73b6a7A","-1","-1","1","0","[]","0","0","3","","","","","","","",""
"pit-trial","75","690089","0.0-2.0-14.3-1.3","battery-v0.2","","""event"",""trial"",""time""
""fullscreenenter"",""1"",""12246""
","
","
","""event"",""trial"",""time""
""fullscreenenter"",""1"",""12246""
","
","","","-1","","","11","6356","299","&#9826;","elianto","#f73b6a7A","-1","-1","1","0","[]","0","0","3","","","","","","","",""
"pit-trial","76","694953","0.0-2.0-14.3-2.3","battery-v0.2","","""event"",""trial"",""time""
""fullscreenenter"",""1"",""12246""
","
","
","""event"",""trial"",""time""
""fullscreenenter"",""1"",""12246""
","
","","","-1","","","11","6356","299","&#9826;","elianto","#f73b6a7A","-1","-1","1","0","[]","0","0","3","","","","","","","",""
"pit-trial","77","699817","0.0-2.0-14.3-3.3","battery-v0.2","","""event"",""trial"",""time""
""fullscreenenter"",""1"",""12246""
","
","
","""event"",""trial"",""time""
""fullscreenenter"",""1"",""12246""
","
","","","-1","","","11","6356","299","&#9826;","elianto","#f73b6a7A","-1","-1","1","-10","[]","0","0","3","","","","","","","",""
"pit-trial","78","704681","0.0-2.0-14.3-4.3","battery-v0.2","","""event"",""trial"",""time""
""fullscreenenter"",""1"",""12246""
","
","
","""event"",""trial"",""time""
""fullscreenenter"",""1"",""12246""
","
","","","-1","","","11","6356","299","&#9826;","elianto","#f73b6a7A","-1","-1","1","0","[]","0","0","3","","","","","","","",""
"call-function","79","704683","0.0-2.0-15.0","battery-v0.2","","""event"",""trial"",""time""
""fullscreenenter"",""1"",""12246""
","
","
","""event"",""trial"",""time""
""fullscreenenter"",""1"",""12246""
","
","","","","","","","","","","","","","","","","","","","","","","","","","","",""
"pit-instructions","80","736714","0.0-2.0-16.0","battery-v0.2","","""event"",""trial"",""time""
""fullscreenenter"",""1"",""12246""
","
","
","""event"",""trial"",""time""
""fullscreenenter"",""1"",""12246""
","
","","[{""page_index"":0,""viewing_time"":6831.600000023842},{""page_index"":1,""viewing_time"":11549.399999976158},{""page_index"":2,""viewing_time"":6086.300000071526},{""page_index"":3,""viewing_time"":7563.699999928474}]","32031.300000071526","","","","","","","","","","","","","","","","","","","","","","","",""
"pit-trial","81","741591","0.0-2.0-17.0-0.0","battery-v0.2","","""event"",""trial"",""time""
""fullscreenenter"",""1"",""12246""
","
","
","""event"",""trial"",""time""
""fullscreenenter"",""1"",""12246""
","
","","","-1","","","11","6356","299","&#9789;","elianto","#f73b6a7A"," ","-1","0","-10","[]","0","0","4","","","","","","","",""
"pit-trial","82","745033","0.0-2.0-17.0-1.0","battery-v0.2","","""event"",""trial"",""time""
""fullscreenenter"",""1"",""12246""
","
","
","""event"",""trial"",""time""
""fullscreenenter"",""1"",""12246""
","
","","","573","","","11","6356","299","&#9789;","elianto","#f73b6a7A"," "," ","1","0","[1423.3999999761581,1651]","2","0","4","","","","","","","",""
"pit-trial","83","748272","0.0-2.0-17.0-2.0","battery-v0.2","","""event"",""trial"",""time""
""fullscreenenter"",""1"",""12246""
","
","
","""event"",""trial"",""time""
""fullscreenenter"",""1"",""12246""
","
","","","373.6999999284744","","","11","6356","299","&#9789;","elianto","#f73b6a7A"," "," ","1","0","[1226.6999999284744]","1","0","4","","","","","","","",""
"pit-trial","84","751373","0.0-2.0-17.0-3.0","battery-v0.2","","""event"",""trial"",""time""
""fullscreenenter"",""1"",""12246""
","
","
","""event"",""trial"",""time""
""fullscreenenter"",""1"",""12246""
","
","","","227.60000002384186","","","11","6356","299","&#9789;","elianto","#f73b6a7A"," "," ","1","-10","[1085.3999999761581]","1","0","4","","","","","","","",""
"pit-trial","85","755813","0.0-2.0-17.0-4.0","battery-v0.2","","""event"",""trial"",""time""
""fullscreenenter"",""1"",""12246""
","
","
","""event"",""trial"",""time""
""fullscreenenter"",""1"",""12246""
","
","","","1580.8000000715256","","","11","6356","299","&#9789;","elianto","#f73b6a7A"," "," ","1","0","[2433.100000023842]","1","0","4","","","","","","","",""
"pit-trial","86","759408","0.0-2.0-17.1-0.1","battery-v0.2","","""event"",""trial"",""time""
""fullscreenenter"",""1"",""12246""
","
","
","""event"",""trial"",""time""
""fullscreenenter"",""1"",""12246""
","
","","","724.1999999284744","","","11","6356","299","&#9789;","elianto","#f73b6a7A"," "," ","1","0","[1578.1999999284744,2568.899999976158,3480.5999999046326]","3","0","4","","","","","","","",""
"pit-trial","87","762582","0.0-2.0-17.1-1.1","battery-v0.2","","""event"",""trial"",""time""
""fullscreenenter"",""1"",""12246""
","
","
","""event"",""trial"",""time""
""fullscreenenter"",""1"",""12246""
","
","","","307.3000000715256","","","11","6356","299","&#9789;","elianto","#f73b6a7A"," "," ","1","0","[1161.8999999761581]","1","0","4","","","","","","","",""
"pit-trial","88","766785","0.0-2.0-17.1-2.1","battery-v0.2","","""event"",""trial"",""time""
""fullscreenenter"",""1"",""12246""
","
","
","""event"",""trial"",""time""
""fullscreenenter"",""1"",""12246""
","
","","","1342.5999999046326","","","11","6356","299","&#9789;","elianto","#f73b6a7A"," "," ","1","0","[2194]","1","0","4","","","","","","","",""
"pit-trial","89","770161","0.0-2.0-17.1-3.1","battery-v0.2","","""event"",""trial"",""time""
""fullscreenenter"",""1"",""12246""
","
","
","""event"",""trial"",""time""
""fullscreenenter"",""1"",""12246""
","
","","","515","","","11","6356","299","&#9789;","elianto","#f73b6a7A"," "," ","1","-10","[1369.3000000715256]","1","0","4","","","","","","","",""
"pit-trial","90","773569","0.0-2.0-17.1-4.1","battery-v0.2","","""event"",""trial"",""time""
""fullscreenenter"",""1"",""12246""
","
","
","""event"",""trial"",""time""
""fullscreenenter"",""1"",""12246""
","
","","","550.3999999761581","","","11","6356","299","&#9789;","elianto","#f73b6a7A"," "," ","1","0","[1405.7000000476837]","1","0","4","","","","","","","",""
"pit-trial","91","776865","0.0-2.0-17.2-0.2","battery-v0.2","","""event"",""trial"",""time""
""fullscreenenter"",""1"",""12246""
","
","
","""event"",""trial"",""time""
""fullscreenenter"",""1"",""12246""
","
","","","437.39999997615814","","","11","6356","299","&#9789;","elianto","#f73b6a7A"," "," ","1","0","[1291.3999999761581]","1","0","4","","","","","","","",""
"pit-trial","92","780177","0.0-2.0-17.2-1.2","battery-v0.2","","""event"",""trial"",""time""
""fullscreenenter"",""1"",""12246""
","
","
","""event"",""trial"",""time""
""fullscreenenter"",""1"",""12246""
","
","","","450.40000009536743","","","11","6356","299","&#9789;","elianto","#f73b6a7A"," "," ","1","0","[1304.4000000953674]","1","0","4","","","","","","","",""
"pit-trial","93","783465","0.0-2.0-17.2-2.2","battery-v0.2","","""event"",""trial"",""time""
""fullscreenenter"",""1"",""12246""
","
","
","""event"",""trial"",""time""
""fullscreenenter"",""1"",""12246""
","
","","","429.7999999523163","","","11","6356","299","&#9789;","elianto","#f73b6a7A"," "," ","1","0","[1281.1000000238419]","1","0","4","","","","","","","",""
"pit-trial","94","787441","0.0-2.0-17.2-3.2","battery-v0.2","","""event"",""trial"",""time""
""fullscreenenter"",""1"",""12246""
","
","
","""event"",""trial"",""time""
""fullscreenenter"",""1"",""12246""
","
","","","1114.3999999761581","","","11","6356","299","&#9789;","elianto","#f73b6a7A"," "," ","1","-10","[1969.5]","1","0","4","","","","","","","",""
"pit-trial","95","792057","0.0-2.0-17.2-4.2","battery-v0.2","","""event"",""trial"",""time""
""fullscreenenter"",""1"",""12246""
","
","
","""event"",""trial"",""time""
""fullscreenenter"",""1"",""12246""
","
","","","1762.9000000953674","","","11","6356","299","&#9789;","elianto","#f73b6a7A"," "," ","1","0","[2613.7000000476837]","1","0","4","","","","","","","",""
"pit-trial","96","795377","0.0-2.0-17.3-0.3","battery-v0.2","","""event"",""trial"",""time""
""fullscreenenter"",""1"",""12246""
","
","
","""event"",""trial"",""time""
""fullscreenenter"",""1"",""12246""
","
","","","459.8000000715256","","","11","6356","299","&#9789;","elianto","#f73b6a7A"," "," ","1","0","[1310.7000000476837]","1","0","4","","","","","","","",""
"pit-trial","97","800241","0.0-2.0-17.3-1.3","battery-v0.2","","""event"",""trial"",""time""
""fullscreenenter"",""1"",""12246""
","
","
","""event"",""trial"",""time""
""fullscreenenter"",""1"",""12246""
","
","","","-1","","","11","6356","299","&#9789;","elianto","#f73b6a7A"," ","-1","0","-10","[]","0","0","4","","","","","","","",""
"pit-trial","98","803728","0.0-2.0-17.3-2.3","battery-v0.2","","""event"",""trial"",""time""
""fullscreenenter"",""1"",""12246""
","
","
","""event"",""trial"",""time""
""fullscreenenter"",""1"",""12246""
","
","","","624.3999999761581","","","11","6356","299","&#9789;","elianto","#f73b6a7A"," "," ","1","0","[1478.8999999761581]","1","0","4","","","","","","","",""
"pit-trial","99","807281","0.0-2.0-17.3-3.3","battery-v0.2","","""event"",""trial"",""time""
""fullscreenenter"",""1"",""12246""
","
","
","""event"",""trial"",""time""
""fullscreenenter"",""1"",""12246""
","
","","","688.8999999761581","","","11","6356","299","&#9789;","elianto","#f73b6a7A"," "," ","1","-10","[1544]","1","0","4","","","","","","","",""
"pit-trial","100","810913","0.0-2.0-17.3-4.3","battery-v0.2","","""event"",""trial"",""time""
""fullscreenenter"",""1"",""12246""
","
","
","""event"",""trial"",""time""
""fullscreenenter"",""1"",""12246""
","
","","","768.8999999761581","","","11","6356","299","&#9789;","elianto","#f73b6a7A"," "," ","1","0","[1622.7000000476837]","1","0","4","","","","","","","",""
"call-function","101","810915","0.0-2.0-18.0","battery-v0.2","","""event"",""trial"",""time""
""fullscreenenter"",""1"",""12246""
","
","
","""event"",""trial"",""time""
""fullscreenenter"",""1"",""12246""
","
","","","","","","","","","","","","","","","","","","","","","","","","","","",""
"pit-instructions","102","885041","0.0-2.0-19.0","battery-v0.2","","""event"",""trial"",""time""
""fullscreenenter"",""1"",""12246""
","
","
","""event"",""trial"",""time""
""fullscreenenter"",""1"",""12246""
","
","","[{""page_index"":0,""viewing_time"":9209.900000095367},{""page_index"":1,""viewing_time"":4150},{""page_index"":2,""viewing_time"":15829.799999952316},{""page_index"":3,""viewing_time"":7740.100000023842},{""page_index"":4,""viewing_time"":7569.5},{""page_index"":5,""viewing_time"":8287.600000023842},{""page_index"":6,""viewing_time"":8142.699999928474},{""page_index"":7,""viewing_time"":6860.399999976158},{""page_index"":8,""viewing_time"":6335.5}]","74125.90000009537","","","","","","","","","","","","","","","","","","","","","","","",""
"pit-comprehension","103","890766","0.0-2.0-20.0-0.0","battery-v0.2","","""event"",""trial"",""time""
""fullscreenenter"",""1"",""12246""
","
","
","""event"",""trial"",""time""
""fullscreenenter"",""1"",""12246""
","
","","","5721.400000095367","[""SPACE""]","0","11","6356","299","","","","","","","","","","","","","","","","","","",""
"pit-instructions","104","893405","0.0-2.0-20.0-1.0","battery-v0.2","","""event"",""trial"",""time""
""fullscreenenter"",""1"",""12246""
","
","
","""event"",""trial"",""time""
""fullscreenenter"",""1"",""12246""
","
","","[{""page_index"":0,""viewing_time"":2582.8000000715256}]","2583","","","","","","","","","","","","","","","","","","","","","","","",""
"pit-comprehension","105","900515","0.0-2.0-21.0-0.0","battery-v0.2","","""event"",""trial"",""time""
""fullscreenenter"",""1"",""12246""
","
","
","""event"",""trial"",""time""
""fullscreenenter"",""1"",""12246""
","
","","","7107.199999928474","[""10""]","0","11","6356","299","","","","","","","","","","","","","","","","","","",""
"pit-instructions","106","903173","0.0-2.0-21.0-1.0","battery-v0.2","","""event"",""trial"",""time""
""fullscreenenter"",""1"",""12246""
","
","
","""event"",""trial"",""time""
""fullscreenenter"",""1"",""12246""
","
","","[{""page_index"":0,""viewing_time"":2610.600000023842}]","2611","","","","","","","","","","","","","","","","","","","","","","","",""
"pit-comprehension","107","918365","0.0-2.0-22.0-0.0","battery-v0.2","","""event"",""trial"",""time""
""fullscreenenter"",""1"",""12246""
","
","
","""event"",""trial"",""time""
""fullscreenenter"",""1"",""12246""
","
","","","15189","[""0""]","0","11","6356","299","","","","","","","","","","","","","","","","","","",""
"pit-instructions","108","920413","0.0-2.0-22.0-1.0","battery-v0.2","","""event"",""trial"",""time""
""fullscreenenter"",""1"",""12246""
","
","
","""event"",""trial"",""time""
""fullscreenenter"",""1"",""12246""
","
","","[{""page_index"":0,""viewing_time"":2000}]","2000.3000000715256","","","","","","","","","","","","","","","","","","","","","","","",""
"pit-comprehension","109","943757","0.0-2.0-23.0-0.0","battery-v0.2","","""event"",""trial"",""time""
""fullscreenenter"",""1"",""12246""
","
","
","""event"",""trial"",""time""
""fullscreenenter"",""1"",""12246""
","
","","","23340.799999952316","[""True""]","0","11","6356","299","","","","","","","","","","","","","","","","","","",""
"pit-instructions","110","946990","0.0-2.0-23.0-1.0","battery-v0.2","","""event"",""trial"",""time""
""fullscreenenter"",""1"",""12246""
","
","
","""event"",""trial"",""time""
""fullscreenenter"",""1"",""12246""
","
","","[{""page_index"":0,""viewing_time"":3179.2999999523163}]","3179.600000023842","","","","","","","","","","","","","","","","","","","","","","","",""
"pit-comprehension","111","958277","0.0-2.0-24.0-0.0","battery-v0.2","","""event"",""trial"",""time""
""fullscreenenter"",""1"",""12246""
","
","
","""event"",""trial"",""time""
""fullscreenenter"",""1"",""12246""
","
","","","11284.100000023842","[""True""]","0","11","6356","299","","","","","","","","","","","","","","","","","","",""
"pit-instructions","112","959862","0.0-2.0-24.0-1.0","battery-v0.2","","""event"",""trial"",""time""
""fullscreenenter"",""1"",""12246""
","
","
","""event"",""trial"",""time""
""fullscreenenter"",""1"",""12246""
","
","","[{""page_index"":0,""viewing_time"":1534.7000000476837}]","1535","","","","","","","","","","","","","","","","","","","","","","","",""
"pit-comprehension","113","967044","0.0-2.0-25.0-0.0","battery-v0.2","","""event"",""trial"",""time""
""fullscreenenter"",""1"",""12246""
","
","
","""event"",""trial"",""time""
""fullscreenenter"",""1"",""12246""
","
","","","7179.700000047684","[""True""]","0","11","6356","299","","","","","","","","","","","","","","","","","","",""
"pit-instructions","114","968715","0.0-2.0-25.0-1.0","battery-v0.2","","""event"",""trial"",""time""
""fullscreenenter"",""1"",""12246""
","
","
","""event"",""trial"",""time""
""fullscreenenter"",""1"",""12246""
","
","","[{""page_index"":0,""viewing_time"":1621.2000000476837}]","1621.5","","","","","","","","","","","","","","","","","","","","","","","",""
"pit-comprehension","115","975944","0.0-2.0-26.0-0.0","battery-v0.2","","""event"",""trial"",""time""
""fullscreenenter"",""1"",""12246""
","
","
","""event"",""trial"",""time""
""fullscreenenter"",""1"",""12246""
","
","","","7226.699999928474","[""False""]","0","11","6356","299","","","","","","","","","","","","","","","","","","",""
"pit-instructions","116","978767","0.0-2.0-26.0-1.0","battery-v0.2","","""event"",""trial"",""time""
""fullscreenenter"",""1"",""12246""
","
","
","""event"",""trial"",""time""
""fullscreenenter"",""1"",""12246""
","
","","[{""page_index"":0,""viewing_time"":2767.100000023842}]","2767.399999976158","","","","","","","","","","","","","","","","","","","","","","","",""
"pit-instructions","117","999743","0.0-3.0","battery-v0.2","","""event"",""trial"",""time""
""fullscreenenter"",""1"",""12246""
","
","
","""event"",""trial"",""time""
""fullscreenenter"",""1"",""12246""
","
","","[{""page_index"":0,""viewing_time"":8779.899999976158},{""page_index"":1,""viewing_time"":5894.5},{""page_index"":2,""viewing_time"":6299.700000047684}]","20974.299999952316","","","","","","","","","","","","","","","","","","","","","","","",""
"pit-trial","118","1003716","0.0-4.0","battery-v0.2","","""event"",""trial"",""time""
""fullscreenenter"",""1"",""12246""
","
","
","""event"",""trial"",""time""
""fullscreenenter"",""1"",""12246""
","
","","","1109.6999999284744","","","11","6356","299","&#9730;","elianto","#3366ff99"," "," ","1","+10","[1963.7999999523163]","1","1","","","6356","1","1","1","win","go","0"
"pit-trial","119","1008592","0.0-5.0","battery-v0.2","","""event"",""trial"",""time""
""fullscreenenter"",""1"",""12246""
","
","
","""event"",""trial"",""time""
""fullscreenenter"",""1"",""12246""
","
","","","-1","","","11","6356","299","&#9752;","elianto","#f73b6a7A"," ","-1","0","-10","[]","0","1","","","6356","2","3","3","lose","go","0"
"pit-trial","120","1012221","0.0-6.0","battery-v0.2","","""event"",""trial"",""time""
""fullscreenenter"",""1"",""12246""
","
","
","""event"",""trial"",""time""
""fullscreenenter"",""1"",""12246""
","
","","","752.1999999284744","","","11","6356","299","&#9733;","elianto","#3366ff99","-1"," ","0","0","[1615.3999999761581]","1","1","","","6356","3","2","2","win","no-go","0"
"pit-trial","121","1016192","0.0-7.0","battery-v0.2","","""event"",""trial"",""time""
""fullscreenenter"",""1"",""12246""
","
","
","""event"",""trial"",""time""
""fullscreenenter"",""1"",""12246""
","
","","","1104.6999999284744","","","11","6356","299","&#9728;","elianto","#f73b6a7A","-1"," ","0","-10","[1961.5]","1","1","","","6356","4","0","4","lose","no-go","0"
"pit-trial","122","1021072","0.0-8.0","battery-v0.2","","""event"",""trial"",""time""
""fullscreenenter"",""1"",""12246""
","
","
","""event"",""trial"",""time""
""fullscreenenter"",""1"",""12246""
","
","","","-1","","","11","6356","299","&#9728;","elianto","#f73b6a7A","-1","-1","1","0","[]","0","1","","","6356","5","0","4","lose","no-go","0"
"pit-trial","123","1025952","0.0-9.0","battery-v0.2","","""event"",""trial"",""time""
""fullscreenenter"",""1"",""12246""
","
","
","""event"",""trial"",""time""
""fullscreenenter"",""1"",""12246""
","
","","","-1","","","11","6356","299","&#9733;","elianto","#3366ff99","-1","-1","1","+10","[]","0","1","","","6356","6","2","2","win","no-go","0"
"pit-trial","124","1030611","0.0-10.0","battery-v0.2","","""event"",""trial"",""time""
""fullscreenenter"",""1"",""12246""
","
","
","""event"",""trial"",""time""
""fullscreenenter"",""1"",""12246""
","
","","","1780.7000000476837","","","11","6356","299","&#9752;","elianto","#f73b6a7A"," "," ","1","0","[2635.7000000476837]","1","1","","","6356","7","3","3","lose","go","0"
"pit-trial","125","1035470","0.0-11.0","battery-v0.2","","""event"",""trial"",""time""
""fullscreenenter"",""1"",""12246""
","
","
","""event"",""trial"",""time""
""fullscreenenter"",""1"",""12246""
","
","","","-1","","","11","6356","299","&#9730;","elianto","#3366ff99"," ","-1","0","0","[3040.100000023842,4856.5]","2","1","","","6356","8","1","1","win","go","0"
"pit-trial","126","1040337","0.0-12.0","battery-v0.2","","""event"",""trial"",""time""
""fullscreenenter"",""1"",""12246""
","
","
","""event"",""trial"",""time""
""fullscreenenter"",""1"",""12246""
","
","","","-1","","","11","6356","299","&#9730;","elianto","#3366ff99"," ","-1","0","0","[]","0","1","","","6356","9","1","1","win","go","0"
"pit-trial","127","1044385","0.0-13.0","battery-v0.2","","""event"",""trial"",""time""
""fullscreenenter"",""1"",""12246""
","
","
","""event"",""trial"",""time""
""fullscreenenter"",""1"",""12246""
","
","","","1185.2999999523163","","","11","6356","299","&#9733;","elianto","#3366ff99","-1"," ","0","+10","[2040.2999999523163]","1","1","","","6356","10","2","2","win","no-go","1"
"pit-trial","128","1049249","0.0-14.0","battery-v0.2","","""event"",""trial"",""time""
""fullscreenenter"",""1"",""12246""
","
","
","""event"",""trial"",""time""
""fullscreenenter"",""1"",""12246""
","
","","","-1","","","11","6356","299","&#9728;","elianto","#f73b6a7A","-1","-1","1","0","[]","0","1","","","6356","11","0","4","lose","no-go","0"
"pit-trial","129","1054114","0.0-15.0","battery-v0.2","","""event"",""trial"",""time""
""fullscreenenter"",""1"",""12246""
","
","
","""event"",""trial"",""time""
""fullscreenenter"",""1"",""12246""
","
","","","-1","","","11","6356","299","&#9752;","elianto","#f73b6a7A"," ","-1","0","-10","[]","0","1","","","6356","12","3","3","lose","go","0"
"pit-trial","130","1058394","0.0-16.0","battery-v0.2","","""event"",""trial"",""time""
""fullscreenenter"",""1"",""12246""
","
","
","""event"",""trial"",""time""
""fullscreenenter"",""1"",""12246""
","
","","","1416.2000000476837","","","11","6356","299","&#9730;","elianto","#3366ff99"," "," ","1","+10","[2270.7000000476837]","1","1","","","6356","13","1","1","win","go","0"
"pit-trial","131","1062880","0.0-17.0","battery-v0.2","","""event"",""trial"",""time""
""fullscreenenter"",""1"",""12246""
","
","
","""event"",""trial"",""time""
""fullscreenenter"",""1"",""12246""
","
","","","1630.3999999761581","","","11","6356","299","&#9752;","elianto","#f73b6a7A"," "," ","1","-10","[2483.899999976158]","1","1","","","6356","14","3","3","lose","go","1"
"pit-trial","132","1067745","0.0-18.0","battery-v0.2","","""event"",""trial"",""time""
""fullscreenenter"",""1"",""12246""
","
","
","""event"",""trial"",""time""
""fullscreenenter"",""1"",""12246""
","
","","","-1","","","11","6356","299","&#9733;","elianto","#3366ff99","-1","-1","1","+10","[2990.5]","1","1","","","6356","15","2","2","win","no-go","0"
"pit-trial","133","1072609","0.0-19.0","battery-v0.2","","""event"",""trial"",""time""
""fullscreenenter"",""1"",""12246""
","
","
","""event"",""trial"",""time""
""fullscreenenter"",""1"",""12246""
","
","","","-1","","","11","6356","299","&#9728;","elianto","#f73b6a7A","-1","-1","1","0","[3362.2999999523163]","1","1","","","6356","16","0","4","lose","no-go","0"
"pit-trial","134","1077474","0.0-20.0","battery-v0.2","","""event"",""trial"",""time""
""fullscreenenter"",""1"",""12246""
","
","
","""event"",""trial"",""time""
""fullscreenenter"",""1"",""12246""
","
","","","-1","","","11","6356","299","&#9752;","elianto","#f73b6a7A"," ","-1","0","-10","[]","0","1","","","6356","17","3","3","lose","go","0"
"pit-trial","135","1081401","0.0-21.0","battery-v0.2","","""event"",""trial"",""time""
""fullscreenenter"",""1"",""12246""
","
","
","""event"",""trial"",""time""
""fullscreenenter"",""1"",""12246""
","
","","","1072.7999999523163","","","11","6356","299","&#9733;","elianto","#3366ff99","-1"," ","0","0","[1924.2999999523163]","1","1","","","6356","18","2","2","win","no-go","0"
"pit-trial","136","1086265","0.0-22.0","battery-v0.2","","""event"",""trial"",""time""
""fullscreenenter"",""1"",""12246""
","
","
","""event"",""trial"",""time""
""fullscreenenter"",""1"",""12246""
","
","","","-1","","","11","6356","299","&#9728;","elianto","#f73b6a7A","-1","-1","1","0","[]","0","1","","","6356","19","0","4","lose","no-go","0"
"pit-trial","137","1090257","0.0-23.0","battery-v0.2","","""event"",""trial"",""time""
""fullscreenenter"",""1"",""12246""
","
","
","""event"",""trial"",""time""
""fullscreenenter"",""1"",""12246""
","
","","","1132.5","","","11","6356","299","&#9730;","elianto","#3366ff99"," "," ","1","+10","[1986.8999999761581]","1","1","","","6356","20","1","1","win","go","0"
"pit-instructions","138","1102879","0.0-24.0","battery-v0.2","","""event"",""trial"",""time""
""fullscreenenter"",""1"",""12246""
","
","
","""event"",""trial"",""time""
""fullscreenenter"",""1"",""12246""
","
","","[{""page_index"":0,""viewing_time"":6525.399999976158},{""page_index"":1,""viewing_time"":6094.700000047684}]","12620.300000071526","","","","","","","","","","","","","","","","","","","","","","","",""
"pit-trial","139","1106812","0.0-25.0","battery-v0.2","","""event"",""trial"",""time""
""fullscreenenter"",""1"",""12246""
","
","
","""event"",""trial"",""time""
""fullscreenenter"",""1"",""12246""
","
","","","1069.8999999761581","","","11","6356","299","j","elianto","#f73b6a7A"," "," ","1","0","[1922.2999999523163,2741.899999976158]","2","2","","","6356","21","0","3","lose","go","0"
"pit-trial","140","1110712","0.0-26.0","battery-v0.2","","""event"",""trial"",""time""
""fullscreenenter"",""1"",""12246""
","
","
","""event"",""trial"",""time""
""fullscreenenter"",""1"",""12246""
","
","","","1021.5","","","11","6356","299","e","elianto","#f73b6a7A"," "," ","1","0","[1877.2000000476837]","1","2","","","6356","22","2","3","lose","go","0"
"pit-trial","141","1114342","0.0-27.0","battery-v0.2","","""event"",""trial"",""time""
""fullscreenenter"",""1"",""12246""
","
","
","""event"",""trial"",""time""
""fullscreenenter"",""1"",""12246""
","
","","","755.8999999761581","","","11","6356","299","w","elianto","#f73b6a7A","-1"," ","0","-10","[1613]","1","2","","","6356","23","3","4","lose","no-go","0"
"pit-trial","142","1117882","0.0-28.0","battery-v0.2","","""event"",""trial"",""time""
""fullscreenenter"",""1"",""12246""
","
","
","""event"",""trial"",""time""
""fullscreenenter"",""1"",""12246""
","
","","","663.7999999523163","","","11","6356","299","d","elianto","#3366ff99","-1"," ","0","0","[1524.3999999761581]","1","2","","","6356","24","1","2","win","no-go","0"
"pit-trial","143","1121442","0.0-29.0","battery-v0.2","","""event"",""trial"",""time""
""fullscreenenter"",""1"",""12246""
","
","
","""event"",""trial"",""time""
""fullscreenenter"",""1"",""12246""
","
","","","700.5","","","11","6356","299","d","elianto","#3366ff99","-1"," ","0","+10","[1550.8000000715256]","1","2","","","6356","25","1","2","win","no-go","1"
"pit-trial","144","1125212","0.0-30.0","battery-v0.2","","""event"",""trial"",""time""
""fullscreenenter"",""1"",""12246""
","
","
","""event"",""trial"",""time""
""fullscreenenter"",""1"",""12246""
","
","","","887.8999999761581","","","11","6356","299","e","elianto","#f73b6a7A"," "," ","1","0","[1747.7999999523163]","1","2","","","6356","26","2","3","lose","go","0"
"pit-trial","145","1128332","0.0-31.0","battery-v0.2","","""event"",""trial"",""time""
""fullscreenenter"",""1"",""12246""
","
","
","""event"",""trial"",""time""
""fullscreenenter"",""1"",""12246""
","
","","","253.5","","","11","6356","299","j","elianto","#f73b6a7A"," "," ","1","-10","[1106.7000000476837]","1","2","","","6356","27","0","3","lose","go","1"
"pit-trial","146","1132172","0.0-32.0","battery-v0.2","","""event"",""trial"",""time""
""fullscreenenter"",""1"",""12246""
","
","
","""event"",""trial"",""time""
""fullscreenenter"",""1"",""12246""
","
","","","965.5","","","11","6356","299","w","elianto","#f73b6a7A","-1"," ","0","-10","[1816.7000000476837]","1","2","","","6356","28","3","4","lose","no-go","0"
"pit-trial","147","1137032","0.0-33.0","battery-v0.2","","""event"",""trial"",""time""
""fullscreenenter"",""1"",""12246""
","
","
","""event"",""trial"",""time""
""fullscreenenter"",""1"",""12246""
","
","","","-1","","","11","6356","299","j","elianto","#f73b6a7A"," ","-1","0","0","[]","0","2","","","6356","29","0","3","lose","go","1"
"pit-trial","148","1141897","0.0-34.0","battery-v0.2","","""event"",""trial"",""time""
""fullscreenenter"",""1"",""12246""
","
","
","""event"",""trial"",""time""
""fullscreenenter"",""1"",""12246""
","
","","","-1","","","11","6356","299","e","elianto","#f73b6a7A"," ","-1","0","0","[]","0","2","","","6356","30","2","3","lose","go","1"
"pit-trial","149","1146761","0.0-35.0","battery-v0.2","","""event"",""trial"",""time""
""fullscreenenter"",""1"",""12246""
","
","
","""event"",""trial"",""time""
""fullscreenenter"",""1"",""12246""
","
","","","-1","","","11","6356","299","w","elianto","#f73b6a7A","-1","-1","1","0","[]","0","2","","","6356","31","3","4","lose","no-go","0"
"pit-trial","150","1150441","0.0-36.0","battery-v0.2","","""event"",""trial"",""time""
""fullscreenenter"",""1"",""12246""
","
","
","""event"",""trial"",""time""
""fullscreenenter"",""1"",""12246""
","
","","","823.2999999523163","","","11","6356","299","d","elianto","#3366ff99","-1"," ","0","0","[1675.1000000238419]","1","2","","","6356","32","1","2","win","no-go","0"
"pit-trial","151","1154122","0.0-37.0","battery-v0.2","","""event"",""trial"",""time""
""fullscreenenter"",""1"",""12246""
","
","
","""event"",""trial"",""time""
""fullscreenenter"",""1"",""12246""
","
","","","817.0999999046326","","","11","6356","299","j","elianto","#f73b6a7A"," "," ","1","0","[1671.5]","1","2","","","6356","33","0","3","lose","go","0"
"pit-trial","152","1157626","0.0-38.0","battery-v0.2","","""event"",""trial"",""time""
""fullscreenenter"",""1"",""12246""
","
","
","""event"",""trial"",""time""
""fullscreenenter"",""1"",""12246""
","
","","","648.2999999523163","","","11","6356","299","e","elianto","#f73b6a7A"," "," ","1","0","[1500.5]","1","2","","","6356","34","2","3","lose","go","0"
"pit-trial","153","1161121","0.0-39.0","battery-v0.2","","""event"",""trial"",""time""
""fullscreenenter"",""1"",""12246""
","
","
","""event"",""trial"",""time""
""fullscreenenter"",""1"",""12246""
","
","","","631.6000000238419","","","11","6356","299","d","elianto","#3366ff99","-1"," ","0","0","[1485.1000000238419]","1","2","","","6356","35","1","2","win","no-go","0"
"pit-trial","154","1165362","0.0-40.0","battery-v0.2","","""event"",""trial"",""time""
""fullscreenenter"",""1"",""12246""
","
","
","""event"",""trial"",""time""
""fullscreenenter"",""1"",""12246""
","
","","","1377.3000000715256","","","11","6356","299","w","elianto","#f73b6a7A","-1"," ","0","-10","[2231.7000000476837]","1","2","","","6356","36","3","4","lose","no-go","0"
"pit-trial","155","1170225","0.0-41.0","battery-v0.2","","""event"",""trial"",""time""
""fullscreenenter"",""1"",""12246""
","
","
","""event"",""trial"",""time""
""fullscreenenter"",""1"",""12246""
","
","","","-1","","","11","6356","299","w","elianto","#f73b6a7A","-1","-1","1","0","[]","0","2","","","6356","37","3","4","lose","no-go","0"
"pit-trial","156","1174512","0.0-42.0","battery-v0.2","","""event"",""trial"",""time""
""fullscreenenter"",""1"",""12246""
","
","
","""event"",""trial"",""time""
""fullscreenenter"",""1"",""12246""
","
","","","1430.2000000476837","","","11","6356","299","e","elianto","#f73b6a7A"," "," ","1","0","[2284.2999999523163]","1","2","","","6356","38","2","3","lose","go","0"
"pit-trial","157","1178065","0.0-43.0","battery-v0.2","","""event"",""trial"",""time""
""fullscreenenter"",""1"",""12246""
","
","
","""event"",""trial"",""time""
""fullscreenenter"",""1"",""12246""
","
","","","690.5","","","11","6356","299","j","elianto","#f73b6a7A"," "," ","1","0","[1545.2000000476837]","1","2","","","6356","39","0","3","lose","go","0"
"pit-trial","158","1181649","0.0-44.0","battery-v0.2","","""event"",""trial"",""time""
""fullscreenenter"",""1"",""12246""
","
","
","""event"",""trial"",""time""
""fullscreenenter"",""1"",""12246""
","
","","","723","","","11","6356","299","d","elianto","#3366ff99","-1"," ","0","0","[1577.2999999523163]","1","2","","","6356","40","1","2","win","no-go","0"
"pit-trial","159","1185345","0.0-45.0","battery-v0.2","","""event"",""trial"",""time""
""fullscreenenter"",""1"",""12246""
","
","
","""event"",""trial"",""time""
""fullscreenenter"",""1"",""12246""
","
","","","836.8000000715256","","","11","6356","299","e","elianto","#f73b6a7A"," "," ","1","0","[1691.8000000715256]","1","2","","","6356","41","2","3","lose","go","0"
"pit-trial","160","1189129","0.0-46.0","battery-v0.2","","""event"",""trial"",""time""
""fullscreenenter"",""1"",""12246""
","
","
","""event"",""trial"",""time""
""fullscreenenter"",""1"",""12246""
","
","","","927","","","11","6356","299","j","elianto","#f73b6a7A"," "," ","1","-10","[1780.5999999046326]","1","2","","","6356","42","0","3","lose","go","1"
"pit-trial","161","1193417","0.0-47.0","battery-v0.2","","""event"",""trial"",""time""
""fullscreenenter"",""1"",""12246""
","
","
","""event"",""trial"",""time""
""fullscreenenter"",""1"",""12246""
","
","","","1424","","","11","6356","299","d","elianto","#3366ff99","-1"," ","0","0","[2278.1999999284744]","1","2","","","6356","43","1","2","win","no-go","0"
"pit-trial","162","1197289","0.0-48.0","battery-v0.2","","""event"",""trial"",""time""
""fullscreenenter"",""1"",""12246""
","
","
","""event"",""trial"",""time""
""fullscreenenter"",""1"",""12246""
","
","","","1012.7999999523163","","","11","6356","299","w","elianto","#f73b6a7A","-1"," ","0","-10","[1867]","1","2","","","6356","44","3","4","lose","no-go","0"
"pit-trial","163","1202153","0.0-49.0","battery-v0.2","","""event"",""trial"",""time""
""fullscreenenter"",""1"",""12246""
","
","
","""event"",""trial"",""time""
""fullscreenenter"",""1"",""12246""
","
","","","-1","","","11","6356","299","w","elianto","#f73b6a7A","-1","-1","1","0","[]","0","2","","","6356","45","3","4","lose","no-go","0"
"pit-trial","164","1206569","0.0-50.0","battery-v0.2","","""event"",""trial"",""time""
""fullscreenenter"",""1"",""12246""
","
","
","""event"",""trial"",""time""
""fullscreenenter"",""1"",""12246""
","
","","","1557.1000000238419","","","11","6356","299","j","elianto","#f73b6a7A"," "," ","1","0","[2411.7999999523163]","1","2","","","6356","46","0","3","lose","go","0"
"pit-trial","165","1211433","0.0-51.0","battery-v0.2","","""event"",""trial"",""time""
""fullscreenenter"",""1"",""12246""
","
","
","""event"",""trial"",""time""
""fullscreenenter"",""1"",""12246""
","
","","","-1","","","11","6356","299","d","elianto","#3366ff99","-1","-1","1","+10","[]","0","2","","","6356","47","1","2","win","no-go","0"
"pit-trial","166","1216297","0.0-52.0","battery-v0.2","","""event"",""trial"",""time""
""fullscreenenter"",""1"",""12246""
","
","
","""event"",""trial"",""time""
""fullscreenenter"",""1"",""12246""
","
","","","-1","","","11","6356","299","e","elianto","#f73b6a7A"," ","-1","0","-10","[]","0","2","","","6356","48","2","3","lose","go","0"
"pit-trial","167","1219832","0.0-53.0","battery-v0.2","","""event"",""trial"",""time""
""fullscreenenter"",""1"",""12246""
","
","
","""event"",""trial"",""time""
""fullscreenenter"",""1"",""12246""
","
","","","674.5999999046326","","","11","6356","299","e","elianto","#f73b6a7A"," "," ","1","0","[1526.1999999284744]","1","2","","","6356","49","2","3","lose","go","0"
"pit-trial","168","1224698","0.0-54.0","battery-v0.2","","""event"",""trial"",""time""
""fullscreenenter"",""1"",""12246""
","
","
","""event"",""trial"",""time""
""fullscreenenter"",""1"",""12246""
","
","","","-1","","","11","6356","299","w","elianto","#f73b6a7A","-1","-1","1","0","[]","0","2","","","6356","50","3","4","lose","no-go","0"
"pit-trial","169","1229561","0.0-55.0","battery-v0.2","","""event"",""trial"",""time""
""fullscreenenter"",""1"",""12246""
","
","
","""event"",""trial"",""time""
""fullscreenenter"",""1"",""12246""
","
","","","-1","","","11","6356","299","d","elianto","#3366ff99","-1","-1","1","+10","[]","0","2","","","6356","51","1","2","win","no-go","0"
"pit-trial","170","1234417","0.0-56.0","battery-v0.2","","""event"",""trial"",""time""
""fullscreenenter"",""1"",""12246""
","
","
","""event"",""trial"",""time""
""fullscreenenter"",""1"",""12246""
","
","","","1998.2999999523163","","","11","6356","299","j","elianto","#f73b6a7A"," "," ","1","0","[2853.1999999284744]","1","2","","","6356","52","0","3","lose","go","0"
"pit-trial","171","1239281","0.0-57.0","battery-v0.2","","""event"",""trial"",""time""
""fullscreenenter"",""1"",""12246""
","
","
","""event"",""trial"",""time""
""fullscreenenter"",""1"",""12246""
","
","","","-1","","","11","6356","299","d","elianto","#3366ff99","-1","-1","1","0","[]","0","2","","","6356","53","1","2","win","no-go","1"
"pit-trial","172","1243257","0.0-58.0","battery-v0.2","","""event"",""trial"",""time""
""fullscreenenter"",""1"",""12246""
","
","
","""event"",""trial"",""time""
""fullscreenenter"",""1"",""12246""
","
","","","1113.7999999523163","","","11","6356","299","w","elianto","#f73b6a7A","-1"," ","0","-10","[1968]","1","2","","","6356","54","3","4","lose","no-go","0"
"pit-trial","173","1248121","0.0-59.0","battery-v0.2","","""event"",""trial"",""time""
""fullscreenenter"",""1"",""12246""
","
","
","""event"",""trial"",""time""
""fullscreenenter"",""1"",""12246""
","
","","","-1","","","11","6356","299","e","elianto","#f73b6a7A"," ","-1","0","-10","[]","0","2","","","6356","55","2","3","lose","go","0"
"pit-trial","174","1251801","0.0-60.0","battery-v0.2","","""event"",""trial"",""time""
""fullscreenenter"",""1"",""12246""
","
","
","""event"",""trial"",""time""
""fullscreenenter"",""1"",""12246""
","
","","","824.7999999523163","","","11","6356","299","j","elianto","#f73b6a7A"," "," ","1","0","[1677.6000000238419]","1","2","","","6356","56","0","3","lose","go","0"
"pit-trial","175","1255969","0.0-61.0","battery-v0.2","","""event"",""trial"",""time""
""fullscreenenter"",""1"",""12246""
","
","
","""event"",""trial"",""time""
""fullscreenenter"",""1"",""12246""
","
","","","1308.5","","","11","6356","299","e","elianto","#f73b6a7A"," "," ","1","0","[2162.7000000476837]","1","2","","","6356","57","2","3","lose","go","0"
"pit-trial","176","1260705","0.0-62.0","battery-v0.2","","""event"",""trial"",""time""
""fullscreenenter"",""1"",""12246""
","
","
","""event"",""trial"",""time""
""fullscreenenter"",""1"",""12246""
","
","","","1870.9000000953674","","","11","6356","299","s","elianto","#3366ff99"," "," ","1","+10","[2725.7000000476837]","1","2","","","6356","58","4","1","win","go","0"
"pit-trial","177","1265568","0.0-63.0","battery-v0.2","","""event"",""trial"",""time""
""fullscreenenter"",""1"",""12246""
","
","
","""event"",""trial"",""time""
""fullscreenenter"",""1"",""12246""
","
","","","-1","","","11","6356","299","w","elianto","#f73b6a7A","-1","-1","1","0","[]","0","2","","","6356","59","3","4","lose","no-go","0"
"pit-trial","178","1269137","0.0-64.0","battery-v0.2","","""event"",""trial"",""time""
""fullscreenenter"",""1"",""12246""
","
","
","""event"",""trial"",""time""
""fullscreenenter"",""1"",""12246""
","
","","","710.7000000476837","","","11","6356","299","j","elianto","#f73b6a7A"," "," ","1","0","[1561.3999999761581]","1","2","","","6356","60","0","3","lose","go","0"
"pit-trial","179","1274001","0.0-65.0","battery-v0.2","","""event"",""trial"",""time""
""fullscreenenter"",""1"",""12246""
","
","
","""event"",""trial"",""time""
""fullscreenenter"",""1"",""12246""
","
","","","-1","","","11","6356","299","d","elianto","#3366ff99","-1","-1","1","+10","[]","0","2","","","6356","61","1","2","win","no-go","0"
"pit-trial","180","1278385","0.0-66.0","battery-v0.2","","""event"",""trial"",""time""
""fullscreenenter"",""1"",""12246""
","
","
","""event"",""trial"",""time""
""fullscreenenter"",""1"",""12246""
","
","","","1521","","","11","6356","299","e","elianto","#f73b6a7A"," "," ","1","0","[2376.399999976158]","1","2","","","6356","62","2","3","lose","go","0"
"pit-trial","181","1283249","0.0-67.0","battery-v0.2","","""event"",""trial"",""time""
""fullscreenenter"",""1"",""12246""
","
","
","""event"",""trial"",""time""
""fullscreenenter"",""1"",""12246""
","
","","","-1","","","11","6356","299","w","elianto","#f73b6a7A","-1","-1","1","0","[]","0","2","","","6356","63","3","4","lose","no-go","0"
"pit-trial","182","1287105","0.0-68.0","battery-v0.2","","""event"",""trial"",""time""
""fullscreenenter"",""1"",""12246""
","
","
","""event"",""trial"",""time""
""fullscreenenter"",""1"",""12246""
","
","","","991.7999999523163","","","11","6356","299","s","elianto","#3366ff99"," "," ","1","+10","[1846.8999999761581]","1","2","","","6356","64","4","1","win","go","0"
"pit-trial","183","1291969","0.0-69.0","battery-v0.2","","""event"",""trial"",""time""
""fullscreenenter"",""1"",""12246""
","
","
","""event"",""trial"",""time""
""fullscreenenter"",""1"",""12246""
","
","","","-1","","","11","6356","299","w","elianto","#f73b6a7A","-1","-1","1","0","[]","0","2","","","6356","65","3","4","lose","no-go","0"
"pit-trial","184","1296833","0.0-70.0","battery-v0.2","","""event"",""trial"",""time""
""fullscreenenter"",""1"",""12246""
","
","
","""event"",""trial"",""time""
""fullscreenenter"",""1"",""12246""
","
","","","-1","","","11","6356","299","d","elianto","#3366ff99","-1","-1","1","+10","[]","0","2","","","6356","66","1","2","win","no-go","0"
"pit-trial","185","1301080","0.0-71.0","battery-v0.2","","""event"",""trial"",""time""
""fullscreenenter"",""1"",""12246""
","
","
","""event"",""trial"",""time""
""fullscreenenter"",""1"",""12246""
","
","","","1385.5","","","11","6356","299","p","elianto","#3366ff99","-1"," ","0","0","[2240.2999999523163]","1","2","","","6356","67","5","2","win","no-go","0"
"pit-trial","186","1304865","0.0-72.0","battery-v0.2","","""event"",""trial"",""time""
""fullscreenenter"",""1"",""12246""
","
","
","""event"",""trial"",""time""
""fullscreenenter"",""1"",""12246""
","
","","","925.5999999046326","","","11","6356","299","s","elianto","#3366ff99"," "," ","1","+10","[1781.2000000476837]","1","2","","","6356","68","4","1","win","go","0"
"pit-trial","187","1309274","0.0-73.0","battery-v0.2","","""event"",""trial"",""time""
""fullscreenenter"",""1"",""12246""
","
","
","""event"",""trial"",""time""
""fullscreenenter"",""1"",""12246""
","
","","","1545.3999999761581","","","11","6356","299","e","elianto","#f73b6a7A"," "," ","1","0","[2400.2999999523163]","1","2","","","6356","69","2","3","lose","go","0"
"pit-trial","188","1313281","0.0-74.0","battery-v0.2","","""event"",""trial"",""time""
""fullscreenenter"",""1"",""12246""
","
","
","""event"",""trial"",""time""
""fullscreenenter"",""1"",""12246""
","
","","","1148.3999999761581","","","11","6356","299","p","elianto","#3366ff99","-1"," ","0","0","[1998.8000000715256]","1","2","","","6356","70","5","2","win","no-go","0"
"pit-trial","189","1318145","0.0-75.0","battery-v0.2","","""event"",""trial"",""time""
""fullscreenenter"",""1"",""12246""
","
","
","""event"",""trial"",""time""
""fullscreenenter"",""1"",""12246""
","
","","","-1","","","11","6356","299","d","elianto","#3366ff99","-1","-1","1","0","[]","0","2","","","6356","71","1","2","win","no-go","1"
"pit-trial","190","1323009","0.0-76.0","battery-v0.2","","""event"",""trial"",""time""
""fullscreenenter"",""1"",""12246""
","
","
","""event"",""trial"",""time""
""fullscreenenter"",""1"",""12246""
","
","","","-1","","","11","6356","299","s","elianto","#3366ff99"," ","-1","0","0","[]","0","2","","","6356","72","4","1","win","go","0"
"pit-trial","191","1326817","0.0-77.0","battery-v0.2","","""event"",""trial"",""time""
""fullscreenenter"",""1"",""12246""
","
","
","""event"",""trial"",""time""
""fullscreenenter"",""1"",""12246""
","
","","","949.6999999284744","","","11","6356","299","s","elianto","#3366ff99"," "," ","1","+10","[1804.1999999284744]","1","2","","","6356","73","4","1","win","go","0"
"pit-trial","192","1331682","0.0-78.0","battery-v0.2","","""event"",""trial"",""time""
""fullscreenenter"",""1"",""12246""
","
","
","""event"",""trial"",""time""
""fullscreenenter"",""1"",""12246""
","
","","","-1","","","11","6356","299","w","elianto","#f73b6a7A","-1","-1","1","0","[]","0","2","","","6356","74","3","4","lose","no-go","0"
"pit-trial","193","1336546","0.0-79.0","battery-v0.2","","""event"",""trial"",""time""
""fullscreenenter"",""1"",""12246""
","
","
","""event"",""trial"",""time""
""fullscreenenter"",""1"",""12246""
","
","","","-1","","","11","6356","299","d","elianto","#3366ff99","-1","-1","1","+10","[]","0","2","","","6356","75","1","2","win","no-go","0"
"pit-trial","194","1341329","0.0-80.0","battery-v0.2","","""event"",""trial"",""time""
""fullscreenenter"",""1"",""12246""
","
","
","""event"",""trial"",""time""
""fullscreenenter"",""1"",""12246""
","
","","","1922.7999999523163","","","11","6356","299","p","elianto","#3366ff99","-1"," ","0","0","[2777.2999999523163]","1","2","","","6356","76","5","2","win","no-go","0"
"pit-trial","195","1346194","0.0-81.0","battery-v0.2","","""event"",""trial"",""time""
""fullscreenenter"",""1"",""12246""
","
","
","""event"",""trial"",""time""
""fullscreenenter"",""1"",""12246""
","
","","","-1","","","11","6356","299","w","elianto","#f73b6a7A","-1","-1","1","0","[]","0","2","","","6356","77","3","4","lose","no-go","0"
"pit-trial","196","1351057","0.0-82.0","battery-v0.2","","""event"",""trial"",""time""
""fullscreenenter"",""1"",""12246""
","
","
","""event"",""trial"",""time""
""fullscreenenter"",""1"",""12246""
","
","","","-1","","","11","6356","299","s","elianto","#3366ff99"," ","-1","0","0","[2992.600000023842]","1","2","","","6356","78","4","1","win","go","0"
"pit-trial","197","1354786","0.0-83.0","battery-v0.2","","""event"",""trial"",""time""
""fullscreenenter"",""1"",""12246""
","
","
","""event"",""trial"",""time""
""fullscreenenter"",""1"",""12246""
","
","","","867.3000000715256","","","11","6356","299","s","elianto","#3366ff99"," "," ","1","+10","[1719.6000000238419]","1","2","","","6356","79","4","1","win","go","0"
"pit-trial","198","1359649","0.0-84.0","battery-v0.2","","""event"",""trial"",""time""
""fullscreenenter"",""1"",""12246""
","
","
","""event"",""trial"",""time""
""fullscreenenter"",""1"",""12246""
","
","","","-1","","","11","6356","299","p","elianto","#3366ff99","-1","-1","1","+10","[]","0","2","","","6356","80","5","2","win","no-go","0"
"pit-trial","199","1363673","0.0-85.0","battery-v0.2","","""event"",""trial"",""time""
""fullscreenenter"",""1"",""12246""
","
","
","""event"",""trial"",""time""
""fullscreenenter"",""1"",""12246""
","
","","","1162.8000000715256","","","11","6356","299","s","elianto","#3366ff99"," "," ","1","+10","[2017.7000000476837]","1","2","","","6356","81","4","1","win","go","0"
"pit-trial","200","1368537","0.0-86.0","battery-v0.2","","""event"",""trial"",""time""
""fullscreenenter"",""1"",""12246""
","
","
","""event"",""trial"",""time""
""fullscreenenter"",""1"",""12246""
","
","","","-1","","","11","6356","299","w","elianto","#f73b6a7A","-1","-1","1","0","[]","0","2","","","6356","82","3","4","lose","no-go","0"
"pit-trial","201","1373401","0.0-87.0","battery-v0.2","","""event"",""trial"",""time""
""fullscreenenter"",""1"",""12246""
","
","
","""event"",""trial"",""time""
""fullscreenenter"",""1"",""12246""
","
","","","-1","","","11","6356","299","p","elianto","#3366ff99","-1","-1","1","0","[]","0","2","","","6356","83","5","2","win","no-go","1"
"pit-trial","202","1377936","0.0-88.0","battery-v0.2","","""event"",""trial"",""time""
""fullscreenenter"",""1"",""12246""
","
","
","""event"",""trial"",""time""
""fullscreenenter"",""1"",""12246""
","
","","","1673.7999999523163","","","11","6356","299","a","elianto","#f73b6a7A","-1"," ","0","-10","[2528.100000023842]","1","2","","","6356","84","7","4","lose","no-go","0"
"pit-trial","203","1382425","0.0-89.0","battery-v0.2","","""event"",""trial"",""time""
""fullscreenenter"",""1"",""12246""
","
","
","""event"",""trial"",""time""
""fullscreenenter"",""1"",""12246""
","
","","","1630.8000000715256","","","11","6356","299","s","elianto","#3366ff99"," "," ","1","+10","[2482.399999976158]","1","2","","","6356","85","4","1","win","go","0"
"pit-trial","204","1387289","0.0-90.0","battery-v0.2","","""event"",""trial"",""time""
""fullscreenenter"",""1"",""12246""
","
","
","""event"",""trial"",""time""
""fullscreenenter"",""1"",""12246""
","
","","","-1","","","11","6356","299","a","elianto","#f73b6a7A","-1","-1","1","-10","[]","0","2","","","6356","86","7","4","lose","no-go","1"
"pit-trial","205","1391345","0.0-91.0","battery-v0.2","","""event"",""trial"",""time""
""fullscreenenter"",""1"",""12246""
","
","
","""event"",""trial"",""time""
""fullscreenenter"",""1"",""12246""
","
","","","1193.2999999523163","","","11","6356","299","g","elianto","#f73b6a7A"," "," ","1","-10","[2047.1999999284744]","1","2","","","6356","87","6","3","lose","go","1"
"pit-trial","206","1394777","0.0-92.0","battery-v0.2","","""event"",""trial"",""time""
""fullscreenenter"",""1"",""12246""
","
","
","""event"",""trial"",""time""
""fullscreenenter"",""1"",""12246""
","
","","","573","","","11","6356","299","p","elianto","#3366ff99","-1"," ","0","0","[1427]","1","2","","","6356","88","5","2","win","no-go","0"
"pit-trial","207","1399641","0.0-93.0","battery-v0.2","","""event"",""trial"",""time""
""fullscreenenter"",""1"",""12246""
","
","
","""event"",""trial"",""time""
""fullscreenenter"",""1"",""12246""
","
","","","-1","","","11","6356","299","p","elianto","#3366ff99","-1","-1","1","+10","[]","0","2","","","6356","89","5","2","win","no-go","0"
"pit-trial","208","1404505","0.0-94.0","battery-v0.2","","""event"",""trial"",""time""
""fullscreenenter"",""1"",""12246""
","
","
","""event"",""trial"",""time""
""fullscreenenter"",""1"",""12246""
","
","","","-1","","","11","6356","299","a","elianto","#f73b6a7A","-1","-1","1","0","[]","0","2","","","6356","90","7","4","lose","no-go","0"
"pit-trial","209","1408752","0.0-95.0","battery-v0.2","","""event"",""trial"",""time""
""fullscreenenter"",""1"",""12246""
","
","
","""event"",""trial"",""time""
""fullscreenenter"",""1"",""12246""
","
","","","1383.8999999761581","","","11","6356","299","s","elianto","#3366ff99"," "," ","1","+10","[2237.399999976158]","1","2","","","6356","91","4","1","win","go","0"
"pit-trial","210","1413617","0.0-96.0","battery-v0.2","","""event"",""trial"",""time""
""fullscreenenter"",""1"",""12246""
","
","
","""event"",""trial"",""time""
""fullscreenenter"",""1"",""12246""
","
","","","-1","","","11","6356","299","g","elianto","#f73b6a7A"," ","-1","0","0","[]","0","2","","","6356","92","6","3","lose","go","1"
"pit-trial","211","1418481","0.0-97.0","battery-v0.2","","""event"",""trial"",""time""
""fullscreenenter"",""1"",""12246""
","
","
","""event"",""trial"",""time""
""fullscreenenter"",""1"",""12246""
","
","","","-1","","","11","6356","299","g","elianto","#f73b6a7A"," ","-1","0","-10","[]","0","2","","","6356","93","6","3","lose","go","0"
"pit-trial","212","1423345","0.0-98.0","battery-v0.2","","""event"",""trial"",""time""
""fullscreenenter"",""1"",""12246""
","
","
","""event"",""trial"",""time""
""fullscreenenter"",""1"",""12246""
","
","","","-1","","","11","6356","299","a","elianto","#f73b6a7A","-1","-1","1","-10","[]","0","2","","","6356","94","7","4","lose","no-go","1"
"pit-trial","213","1427393","0.0-99.0","battery-v0.2","","""event"",""trial"",""time""
""fullscreenenter"",""1"",""12246""
","
","
","""event"",""trial"",""time""
""fullscreenenter"",""1"",""12246""
","
","","","1190.3999999761581","","","11","6356","299","l","elianto","#3366ff99"," "," ","1","+10","[2044.1999999284744]","1","2","","","6356","95","8","1","win","go","0"
"pit-trial","214","1431377","0.0-100.0","battery-v0.2","","""event"",""trial"",""time""
""fullscreenenter"",""1"",""12246""
","
","
","""event"",""trial"",""time""
""fullscreenenter"",""1"",""12246""
","
","","","1124.5","","","11","6356","299","p","elianto","#3366ff99","-1"," ","0","0","[1979.6000000238419]","1","2","","","6356","96","5","2","win","no-go","0"
"pit-trial","215","1436241","0.0-101.0","battery-v0.2","","""event"",""trial"",""time""
""fullscreenenter"",""1"",""12246""
","
","
","""event"",""trial"",""time""
""fullscreenenter"",""1"",""12246""
","
","","","-1","","","11","6356","299","g","elianto","#f73b6a7A"," ","-1","0","-10","[]","0","2","","","6356","97","6","3","lose","go","0"
"pit-trial","216","1441106","0.0-102.0","battery-v0.2","","""event"",""trial"",""time""
""fullscreenenter"",""1"",""12246""
","
","
","""event"",""trial"",""time""
""fullscreenenter"",""1"",""12246""
","
","","","-1","","","11","6356","299","l","elianto","#3366ff99"," ","-1","0","+10","[]","0","2","","","6356","98","8","1","win","go","1"
"pit-trial","217","1445969","0.0-103.0","battery-v0.2","","""event"",""trial"",""time""
""fullscreenenter"",""1"",""12246""
","
","
","""event"",""trial"",""time""
""fullscreenenter"",""1"",""12246""
","
","","","-1","","","11","6356","299","p","elianto","#3366ff99","-1","-1","1","+10","[]","0","2","","","6356","99","5","2","win","no-go","0"
"pit-trial","218","1450833","0.0-104.0","battery-v0.2","","""event"",""trial"",""time""
""fullscreenenter"",""1"",""12246""
","
","
","""event"",""trial"",""time""
""fullscreenenter"",""1"",""12246""
","
","","","-1","","","11","6356","299","a","elianto","#f73b6a7A","-1","-1","1","0","[]","0","2","","","6356","100","7","4","lose","no-go","0"
"pit-trial","219","1455129","0.0-105.0","battery-v0.2","","""event"",""trial"",""time""
""fullscreenenter"",""1"",""12246""
","
","
","""event"",""trial"",""time""
""fullscreenenter"",""1"",""12246""
","
","","","1435.0999999046326","","","11","6356","299","u","elianto","#3366ff99"," "," ","1","+10","[2293.9000000953674]","1","2","","","6356","101","9","1","win","go","0"
"pit-trial","220","1459993","0.0-106.0","battery-v0.2","","""event"",""trial"",""time""
""fullscreenenter"",""1"",""12246""
","
","
","""event"",""trial"",""time""
""fullscreenenter"",""1"",""12246""
","
","","","-1","","","11","6356","299","l","elianto","#3366ff99"," ","-1","0","+10","[]","0","2","","","6356","102","8","1","win","go","1"
"pit-trial","221","1464857","0.0-107.0","battery-v0.2","","""event"",""trial"",""time""
""fullscreenenter"",""1"",""12246""
","
","
","""event"",""trial"",""time""
""fullscreenenter"",""1"",""12246""
","
","","","-1","","","11","6356","299","p","elianto","#3366ff99","-1","-1","1","+10","[]","0","2","","","6356","103","5","2","win","no-go","0"
"pit-trial","222","1469721","0.0-108.0","battery-v0.2","","""event"",""trial"",""time""
""fullscreenenter"",""1"",""12246""
","
","
","""event"",""trial"",""time""
""fullscreenenter"",""1"",""12246""
","
","","","-1","","","11","6356","299","a","elianto","#f73b6a7A","-1","-1","1","0","[]","0","2","","","6356","104","7","4","lose","no-go","0"
"pit-trial","223","1473873","0.0-109.0","battery-v0.2","","""event"",""trial"",""time""
""fullscreenenter"",""1"",""12246""
","
","
","""event"",""trial"",""time""
""fullscreenenter"",""1"",""12246""
","
","","","1288.3999999761581","","","11","6356","299","u","elianto","#3366ff99"," "," ","1","+10","[2143.6999999284744]","1","2","","","6356","105","9","1","win","go","0"
"pit-trial","224","1478737","0.0-110.0","battery-v0.2","","""event"",""trial"",""time""
""fullscreenenter"",""1"",""12246""
","
","
","""event"",""trial"",""time""
""fullscreenenter"",""1"",""12246""
","
","","","-1","","","11","6356","299","g","elianto","#f73b6a7A"," ","-1","0","0","[]","0","2","","","6356","106","6","3","lose","go","1"
"pit-trial","225","1482856","0.0-111.0","battery-v0.2","","""event"",""trial"",""time""
""fullscreenenter"",""1"",""12246""
","
","
","""event"",""trial"",""time""
""fullscreenenter"",""1"",""12246""
","
","","","1261.8999999761581","","","11","6356","299","s","elianto","#3366ff99"," "," ","1","0","[2116.399999976158]","1","2","","","6356","107","4","1","win","go","1"
"pit-trial","226","1487017","0.0-112.0","battery-v0.2","","""event"",""trial"",""time""
""fullscreenenter"",""1"",""12246""
","
","
","""event"",""trial"",""time""
""fullscreenenter"",""1"",""12246""
","
","","","1296.8000000715256","","","11","6356","299","l","elianto","#3366ff99"," "," ","1","+10","[2151.5]","1","2","","","6356","108","8","1","win","go","0"
"pit-trial","227","1490761","0.0-113.0","battery-v0.2","","""event"",""trial"",""time""
""fullscreenenter"",""1"",""12246""
","
","
","""event"",""trial"",""time""
""fullscreenenter"",""1"",""12246""
","
","","","882.9000000953674","","","11","6356","299","g","elianto","#f73b6a7A"," "," ","1","0","[1736.8999999761581]","1","2","","","6356","109","6","3","lose","go","0"
"pit-trial","228","1495625","0.0-114.0","battery-v0.2","","""event"",""trial"",""time""
""fullscreenenter"",""1"",""12246""
","
","
","""event"",""trial"",""time""
""fullscreenenter"",""1"",""12246""
","
","","","-1","","","11","6356","299","p","elianto","#3366ff99","-1","-1","1","+10","[]","0","2","","","6356","110","5","2","win","no-go","0"
"pit-trial","229","1500488","0.0-115.0","battery-v0.2","","""event"",""trial"",""time""
""fullscreenenter"",""1"",""12246""
","
","
","""event"",""trial"",""time""
""fullscreenenter"",""1"",""12246""
","
","","","-1","","","11","6356","299","l","elianto","#3366ff99"," ","-1","0","0","[]","0","2","","","6356","111","8","1","win","go","0"
"pit-trial","230","1504176","0.0-116.0","battery-v0.2","","""event"",""trial"",""time""
""fullscreenenter"",""1"",""12246""
","
","
","""event"",""trial"",""time""
""fullscreenenter"",""1"",""12246""
","
","","","831.0999999046326","","","11","6356","299","u","elianto","#3366ff99"," "," ","1","+10","[1683.1000000238419]","1","2","","","6356","112","9","1","win","go","0"
"pit-trial","231","1508337","0.0-117.0","battery-v0.2","","""event"",""trial"",""time""
""fullscreenenter"",""1"",""12246""
","
","
","""event"",""trial"",""time""
""fullscreenenter"",""1"",""12246""
","
","","","1297.2999999523163","","","11","6356","299","g","elianto","#f73b6a7A"," "," ","1","0","[2152.399999976158]","1","2","","","6356","113","6","3","lose","go","0"
"pit-trial","232","1512306","0.0-118.0","battery-v0.2","","""event"",""trial"",""time""
""fullscreenenter"",""1"",""12246""
","
","
","""event"",""trial"",""time""
""fullscreenenter"",""1"",""12246""
","
","","","1103.1999999284744","","","11","6356","299","l","elianto","#3366ff99"," "," ","1","0","[1957.8999999761581]","1","2","","","6356","114","8","1","win","go","1"
"pit-trial","233","1516097","0.0-119.0","battery-v0.2","","""event"",""trial"",""time""
""fullscreenenter"",""1"",""12246""
","
","
","""event"",""trial"",""time""
""fullscreenenter"",""1"",""12246""
","
","","","931.2999999523163","","","11","6356","299","u","elianto","#3366ff99"," "," ","1","+10","[1785.2000000476837]","1","2","","","6356","115","9","1","win","go","0"
"pit-trial","234","1519969","0.0-120.0","battery-v0.2","","""event"",""trial"",""time""
""fullscreenenter"",""1"",""12246""
","
","
","""event"",""trial"",""time""
""fullscreenenter"",""1"",""12246""
","
","","","1008","","","11","6356","299","p","elianto","#3366ff99","-1"," ","0","0","[1861.7999999523163]","1","2","","","6356","116","5","2","win","no-go","0"
"pit-trial","235","1524833","0.0-121.0","battery-v0.2","","""event"",""trial"",""time""
""fullscreenenter"",""1"",""12246""
","
","
","""event"",""trial"",""time""
""fullscreenenter"",""1"",""12246""
","
","","","-1","","","11","6356","299","g","elianto","#f73b6a7A"," ","-1","0","-10","[]","0","2","","","6356","117","6","3","lose","go","0"
"pit-trial","236","1528322","0.0-122.0","battery-v0.2","","""event"",""trial"",""time""
""fullscreenenter"",""1"",""12246""
","
","
","""event"",""trial"",""time""
""fullscreenenter"",""1"",""12246""
","
","","","630.1999999284744","","","11","6356","299","u","elianto","#3366ff99"," "," ","1","+10","[1485.3999999761581]","1","2","","","6356","118","9","1","win","go","0"
"pit-trial","237","1532169","0.0-123.0","battery-v0.2","","""event"",""trial"",""time""
""fullscreenenter"",""1"",""12246""
","
","
","""event"",""trial"",""time""
""fullscreenenter"",""1"",""12246""
","
","","","987.3999999761581","","","11","6356","299","p","elianto","#3366ff99","-1"," ","0","+10","[1842.2000000476837]","1","2","","","6356","119","5","2","win","no-go","1"
"pit-trial","238","1535753","0.0-124.0","battery-v0.2","","""event"",""trial"",""time""
""fullscreenenter"",""1"",""12246""
","
","
","""event"",""trial"",""time""
""fullscreenenter"",""1"",""12246""
","
","","","721.7000000476837","","","11","6356","299","l","elianto","#3366ff99"," "," ","1","+10","[1576]","1","2","","","6356","120","8","1","win","go","0"
"pit-trial","239","1540617","0.0-125.0","battery-v0.2","","""event"",""trial"",""time""
""fullscreenenter"",""1"",""12246""
","
","
","""event"",""trial"",""time""
""fullscreenenter"",""1"",""12246""
","
","","","-1","","","11","6356","299","g","elianto","#f73b6a7A"," ","-1","0","0","[]","0","2","","","6356","121","6","3","lose","go","1"
"pit-trial","240","1545481","0.0-126.0","battery-v0.2","","""event"",""trial"",""time""
""fullscreenenter"",""1"",""12246""
","
","
","""event"",""trial"",""time""
""fullscreenenter"",""1"",""12246""
","
","","","-1","","","11","6356","299","a","elianto","#f73b6a7A","-1","-1","1","0","[]","0","2","","","6356","122","7","4","lose","no-go","0"
"pit-trial","241","1549313","0.0-127.0","battery-v0.2","","""event"",""trial"",""time""
""fullscreenenter"",""1"",""12246""
","
","
","""event"",""trial"",""time""
""fullscreenenter"",""1"",""12246""
","
","","","970","","","11","6356","299","u","elianto","#3366ff99"," "," ","1","+10","[1824.6999999284744]","1","2","","","6356","123","9","1","win","go","0"
"pit-trial","242","1552777","0.0-128.0","battery-v0.2","","""event"",""trial"",""time""
""fullscreenenter"",""1"",""12246""
","
","
","""event"",""trial"",""time""
""fullscreenenter"",""1"",""12246""
","
","","","600","","","11","6356","299","l","elianto","#3366ff99"," "," ","1","+10","[1454.6999999284744]","1","2","","","6356","124","8","1","win","go","0"
"pit-trial","243","1556273","0.0-129.0","battery-v0.2","","""event"",""trial"",""time""
""fullscreenenter"",""1"",""12246""
","
","
","""event"",""trial"",""time""
""fullscreenenter"",""1"",""12246""
","
","","","637","","","11","6356","299","l","elianto","#3366ff99"," "," ","1","0","[1491.2999999523163]","1","2","","","6356","125","8","1","win","go","1"
"pit-trial","244","1559361","0.0-130.0","battery-v0.2","","""event"",""trial"",""time""
""fullscreenenter"",""1"",""12246""
","
","
","""event"",""trial"",""time""
""fullscreenenter"",""1"",""12246""
","
","","","232","","","11","6356","299","a","elianto","#f73b6a7A","-1"," ","0","0","[1084.8999999761581]","1","2","","","6356","126","7","4","lose","no-go","1"
"pit-trial","245","1562737","0.0-131.0","battery-v0.2","","""event"",""trial"",""time""
""fullscreenenter"",""1"",""12246""
","
","
","""event"",""trial"",""time""
""fullscreenenter"",""1"",""12246""
","
","","","513.2000000476837","","","11","6356","299","g","elianto","#f73b6a7A"," "," ","1","0","[1367.1000000238419]","1","2","","","6356","127","6","3","lose","go","0"
"pit-trial","246","1566258","0.0-132.0","battery-v0.2","","""event"",""trial"",""time""
""fullscreenenter"",""1"",""12246""
","
","
","""event"",""trial"",""time""
""fullscreenenter"",""1"",""12246""
","
","","","662.7999999523163","","","11","6356","299","u","elianto","#3366ff99"," "," ","1","+10","[1515.0999999046326]","1","2","","","6356","128","9","1","win","go","0"
"pit-trial","247","1569785","0.0-133.0","battery-v0.2","","""event"",""trial"",""time""
""fullscreenenter"",""1"",""12246""
","
","
","""event"",""trial"",""time""
""fullscreenenter"",""1"",""12246""
","
","","","668.6000000238419","","","11","6356","299","l","elianto","#3366ff99"," "," ","1","+10","[1520.3999999761581]","1","2","","","6356","129","8","1","win","go","0"
"pit-trial","248","1573193","0.0-134.0","battery-v0.2","","""event"",""trial"",""time""
""fullscreenenter"",""1"",""12246""
","
","
","""event"",""trial"",""time""
""fullscreenenter"",""1"",""12246""
","
","","","548","","","11","6356","299","u","elianto","#3366ff99"," "," ","1","+10","[1401.8999999761581]","1","2","","","6356","130","9","1","win","go","0"
"pit-trial","249","1576625","0.0-135.0","battery-v0.2","","""event"",""trial"",""time""
""fullscreenenter"",""1"",""12246""
","
","
","""event"",""trial"",""time""
""fullscreenenter"",""1"",""12246""
","
","","","567.6000000238419","","","11","6356","299","g","elianto","#f73b6a7A"," "," ","1","0","[1422.2000000476837]","1","2","","","6356","131","6","3","lose","go","0"
"pit-trial","250","1580393","0.0-136.0","battery-v0.2","","""event"",""trial"",""time""
""fullscreenenter"",""1"",""12246""
","
","
","""event"",""trial"",""time""
""fullscreenenter"",""1"",""12246""
","
","","","905.7999999523163","","","11","6356","299","a","elianto","#f73b6a7A","-1"," ","0","0","[1760.2999999523163]","1","2","","","6356","132","7","4","lose","no-go","1"
"pit-trial","251","1583849","0.0-137.0","battery-v0.2","","""event"",""trial"",""time""
""fullscreenenter"",""1"",""12246""
","
","
","""event"",""trial"",""time""
""fullscreenenter"",""1"",""12246""
","
","","","598.6000000238419","","","11","6356","299","l","elianto","#3366ff99"," "," ","1","+10","[1453]","1","2","","","6356","133","8","1","win","go","0"
"pit-trial","252","1587169","0.0-138.0","battery-v0.2","","""event"",""trial"",""time""
""fullscreenenter"",""1"",""12246""
","
","
","""event"",""trial"",""time""
""fullscreenenter"",""1"",""12246""
","
","","","461.6999999284744","","","11","6356","299","u","elianto","#3366ff99"," "," ","1","+10","[1315.5]","1","2","","","6356","134","9","1","win","go","0"
"pit-trial","253","1590801","0.0-139.0","battery-v0.2","","""event"",""trial"",""time""
""fullscreenenter"",""1"",""12246""
","
","
","""event"",""trial"",""time""
""fullscreenenter"",""1"",""12246""
","
","","","773.7000000476837","","","11","6356","299","g","elianto","#f73b6a7A"," "," ","1","0","[1629.3999999761581]","1","2","","","6356","135","6","3","lose","go","0"
"pit-trial","254","1594218","0.0-140.0","battery-v0.2","","""event"",""trial"",""time""
""fullscreenenter"",""1"",""12246""
","
","
","""event"",""trial"",""time""
""fullscreenenter"",""1"",""12246""
","
","","","555.5","","","11","6356","299","a","elianto","#f73b6a7A","-1"," ","0","-10","[1410.2999999523163]","1","2","","","6356","136","7","4","lose","no-go","0"
"pit-trial","255","1597521","0.0-141.0","battery-v0.2","","""event"",""trial"",""time""
""fullscreenenter"",""1"",""12246""
","
","
","""event"",""trial"",""time""
""fullscreenenter"",""1"",""12246""
","
","","","443","","","11","6356","299","u","elianto","#3366ff99"," "," ","1","+10","[1296.5]","1","2","","","6356","137","9","1","win","go","0"
"pit-trial","256","1600841","0.0-142.0","battery-v0.2","","""event"",""trial"",""time""
""fullscreenenter"",""1"",""12246""
","
","
","""event"",""trial"",""time""
""fullscreenenter"",""1"",""12246""
","
","","","460.6999999284744","","","11","6356","299","a","elianto","#f73b6a7A","-1"," ","0","-10","[1314.5]","1","2","","","6356","138","7","4","lose","no-go","0"
"pit-trial","257","1605705","0.0-143.0","battery-v0.2","","""event"",""trial"",""time""
""fullscreenenter"",""1"",""12246""
","
","
","""event"",""trial"",""time""
""fullscreenenter"",""1"",""12246""
","
","","","-1","","","11","6356","299","g","elianto","#f73b6a7A"," ","-1","0","-10","[]","0","2","","","6356","139","6","3","lose","go","0"
"pit-trial","258","1609121","0.0-144.0","battery-v0.2","","""event"",""trial"",""time""
""fullscreenenter"",""1"",""12246""
","
","
","""event"",""trial"",""time""
""fullscreenenter"",""1"",""12246""
","
","","","552.6000000238419","","","11","6356","299","l","elianto","#3366ff99"," "," ","1","+10","[1406.8999999761581]","1","2","","","6356","140","8","1","win","go","0"
"pit-instructions","259","1751520","0.0-145.0","battery-v0.2","","""event"",""trial"",""time""
""fullscreenenter"",""1"",""12246""
","
","
","""event"",""trial"",""time""
""fullscreenenter"",""1"",""12246""
","
","","[{""page_index"":0,""viewing_time"":133664},{""page_index"":1,""viewing_time"":8733.100000023842}]","142397.29999995232","","","","","","","","","","","","","","","","","","","","","","","",""
"pit-trial","260","1756398","0.0-146.0","battery-v0.2","","""event"",""trial"",""time""
""fullscreenenter"",""1"",""12246""
","
","
","""event"",""trial"",""time""
""fullscreenenter"",""1"",""12246""
","
","","","-1","","","11","6356","299","m","elianto","#f73b6a7A","-1","-1","1","-10","[]","0","3","","","6356","141","0","4","lose","no-go","1"
"pit-trial","261","1760038","0.0-147.0","battery-v0.2","","""event"",""trial"",""time""
""fullscreenenter"",""1"",""12246""
","
","
","""event"",""trial"",""time""
""fullscreenenter"",""1"",""12246""
","
","","","775.6000000238419","","","11","6356","299","r","elianto","#3366ff99"," "," ","1","0","[1630.6999999284744]","1","3","","","6356","142","1","1","win","go","1"
"pit-trial","262","1763658","0.0-148.0","battery-v0.2","","""event"",""trial"",""time""
""fullscreenenter"",""1"",""12246""
","
","
","""event"",""trial"",""time""
""fullscreenenter"",""1"",""12246""
","
","","","754.1000000238419","","","11","6356","299","y","elianto","#f73b6a7A","-1"," ","0","-10","[1613.3999999761581]","1","3","","","6356","143","2","4","lose","no-go","0"
"pit-trial","263","1766828","0.0-149.0","battery-v0.2","","""event"",""trial"",""time""
""fullscreenenter"",""1"",""12246""
","
","
","""event"",""trial"",""time""
""fullscreenenter"",""1"",""12246""
","
","","","293.2000000476837","","","11","6356","299","h","elianto","#f73b6a7A"," "," ","1","0","[1152.1000000238419,1943.8000000715256]","2","3","","","6356","144","3","3","lose","go","0"
"pit-trial","264","1770418","0.0-150.0","battery-v0.2","","""event"",""trial"",""time""
""fullscreenenter"",""1"",""12246""
","
","
","""event"",""trial"",""time""
""fullscreenenter"",""1"",""12246""
","
","","","709.7999999523163","","","11","6356","299","m","elianto","#f73b6a7A","-1"," ","0","-10","[1568.3000000715256]","1","3","","","6356","145","0","4","lose","no-go","0"
"pit-trial","265","1773727","0.0-151.0","battery-v0.2","","""event"",""trial"",""time""
""fullscreenenter"",""1"",""12246""
","
","
","""event"",""trial"",""time""
""fullscreenenter"",""1"",""12246""
","
