"trial_type","trial_index","time_elapsed","internal_node_id","task_version","subject_id","interactions","blur_events","focus_events","fullscreenenter_events","fullscreenexit_events","success","view_history","rt","responses","num_errors","age","subject","participantId","rune","rune_set","hex","correct","choice","accuracy","outcome","keys","total_keys","block","practice","value"
"pavlovia","0","21","0.0-0.0","battery-v0.2","","""event"",""trial"",""time""
""fullscreenenter"",""1"",""4687""
","
","
","""event"",""trial"",""time""
""fullscreenenter"",""1"",""4687""
","
","","","","","","","","","","","","","","","","","","","",""
"fullscreen","1","5670","0.0-1.0","battery-v0.2","","""event"",""trial"",""time""
""fullscreenenter"",""1"",""4687""
","
","
","""event"",""trial"",""time""
""fullscreenenter"",""1"",""4687""
","
","true","","","","","","","","","","","","","","","","","","",""
"pit-instructions","2","12051","0.0-2.0-0.0","battery-v0.2","","""event"",""trial"",""time""
""fullscreenenter"",""1"",""4687""
","
","
","""event"",""trial"",""time""
""fullscreenenter"",""1"",""4687""
","
","","[{""page_index"":0,""viewing_time"":6373.5}]","6374.70000000298","","","","","","","","","","","","","","","","",""
"pit-comprehension","3","18268","0.0-2.0-1.0-0.0","battery-v0.2","","""event"",""trial"",""time""
""fullscreenenter"",""1"",""4687""
","
","
","""event"",""trial"",""time""
""fullscreenenter"",""1"",""4687""
","
","","","6211.800000000745","[""shark""]","0","10","3249","2884","","","","","","","","","","","",""
"pit-instructions","4","20226","0.0-2.0-1.0-1.0","battery-v0.2","","""event"",""trial"",""time""
""fullscreenenter"",""1"",""4687""
","
","
","""event"",""trial"",""time""
""fullscreenenter"",""1"",""4687""
","
","","[{""page_index"":0,""viewing_time"":1947.300000000745}]","1947.800000000745","","","","","","","","","","","","","","","","",""
"pit-comprehension","5","26154","0.0-2.0-2.0-0.0","battery-v0.2","","""event"",""trial"",""time""
""fullscreenenter"",""1"",""4687""
","
","
","""event"",""trial"",""time""
""fullscreenenter"",""1"",""4687""
","
","","","5923.300000000745","[""tiger""]","0","10","3249","2884","","","","","","","","","","","",""
"pit-instructions","6","27651","0.0-2.0-2.0-1.0","battery-v0.2","","""event"",""trial"",""time""
""fullscreenenter"",""1"",""4687""
","
","
","""event"",""trial"",""time""
""fullscreenenter"",""1"",""4687""
","
","","[{""page_index"":0,""viewing_time"":1494}]","1494.300000000745","","","","","","","","","","","","","","","","",""
"pit-instructions","7","127347","0.0-2.0-3.0","battery-v0.2","","""event"",""trial"",""time""
""fullscreenenter"",""1"",""4687""
","
","
","""event"",""trial"",""time""
""fullscreenenter"",""1"",""4687""
","
","","[{""page_index"":0,""viewing_time"":9553.39999999851},{""page_index"":1,""viewing_time"":6173.199999999255},{""page_index"":2,""viewing_time"":6385.800000000745},{""page_index"":3,""viewing_time"":8523.900000002235},{""page_index"":4,""viewing_time"":5793.89999999851},{""page_index"":5,""viewing_time"":5504.60000000149},{""page_index"":6,""viewing_time"":6805.89999999851},{""page_index"":7,""viewing_time"":6924.699999999255},{""page_index"":8,""viewing_time"":6573.800000000745},{""page_index"":9,""viewing_time"":9374.10000000149},{""page_index"":10,""viewing_time"":9669.699999999255},{""page_index"":11,""viewing_time"":6909.800000000745},{""page_index"":12,""viewing_time"":6293.79999999702},{""page_index"":13,""viewing_time"":5208.60000000149}]","99695.59999999776","","","","","","","","","","","","","","","","",""
"pit-trial","8","130965","0.0-2.0-4.0-0.0","battery-v0.2","","""event"",""trial"",""time""
""fullscreenenter"",""1"",""4687""
","
","
","""event"",""trial"",""time""
""fullscreenenter"",""1"",""4687""
","
","","","764.6000000014901","","","10","3249","2884","&#9784;","elianto","#FFFFF080"," "," ","1","&#10004","[1614.699999999255]","1","0","0",""
"pit-trial","9","134495","0.0-2.0-4.1-0.1","battery-v0.2","","""event"",""trial"",""time""
""fullscreenenter"",""1"",""4687""
","
","
","""event"",""trial"",""time""
""fullscreenenter"",""1"",""4687""
","
","","","674.8000000007451","","","10","3249","2884","&#9784;","elianto","#FFFFF080"," "," ","1","&#10004","[1526.6000000014901]","1","0","0",""
"pit-trial","10","138014","0.0-2.0-4.2-0.2","battery-v0.2","","""event"",""trial"",""time""
""fullscreenenter"",""1"",""4687""
","
","
","""event"",""trial"",""time""
""fullscreenenter"",""1"",""4687""
","
","","","663.8000000007451","","","10","3249","2884","&#9784;","elianto","#FFFFF080"," "," ","1","&#10004","[1517.1000000014901]","1","0","0",""
"pit-trial","11","141609","0.0-2.0-4.3-0.3","battery-v0.2","","""event"",""trial"",""time""
""fullscreenenter"",""1"",""4687""
","
","
","""event"",""trial"",""time""
""fullscreenenter"",""1"",""4687""
","
","","","737.1000000014901","","","10","3249","2884","&#9784;","elianto","#FFFFF080"," "," ","1","&#10004","[1589.199999999255]","1","0","0",""
"pit-trial","12","145385","0.0-2.0-4.4-0.4","battery-v0.2","","""event"",""trial"",""time""
""fullscreenenter"",""1"",""4687""
","
","
","""event"",""trial"",""time""
""fullscreenenter"",""1"",""4687""
","
","","","912.9000000022352","","","10","3249","2884","&#9784;","elianto","#FFFFF080"," "," ","1","&#10004","[1767.3999999985099]","1","0","0",""
"pit-instructions","13","165419","0.0-2.0-5.0","battery-v0.2","","""event"",""trial"",""time""
""fullscreenenter"",""1"",""4687""
","
","
","""event"",""trial"",""time""
""fullscreenenter"",""1"",""4687""
","
","","[{""page_index"":0,""viewing_time"":5094.400000002235},{""page_index"":1,""viewing_time"":5156.199999999255},{""page_index"":2,""viewing_time"":4717.5},{""page_index"":3,""viewing_time"":5061}]","20029.60000000149","","","","","","","","","","","","","","","","",""
"pit-trial","14","170280","0.0-2.0-6.0-0.0","battery-v0.2","","""event"",""trial"",""time""
""fullscreenenter"",""1"",""4687""
","
","
","""event"",""trial"",""time""
""fullscreenenter"",""1"",""4687""
","
","","","-1","","","10","3249","2884","&#9854;","elianto","#FFFFF080","-1","-1","1","&#10004","[]","0","0","1",""
"pit-trial","15","175145","0.0-2.0-6.1-0.1","battery-v0.2","","""event"",""trial"",""time""
""fullscreenenter"",""1"",""4687""
","
","
","""event"",""trial"",""time""
""fullscreenenter"",""1"",""4687""
","
","","","-1","","","10","3249","2884","&#9854;","elianto","#FFFFF080","-1","-1","1","&#10004","[]","0","0","1",""
"pit-trial","16","180002","0.0-2.0-6.2-0.2","battery-v0.2","","""event"",""trial"",""time""
""fullscreenenter"",""1"",""4687""
","
","
","""event"",""trial"",""time""
""fullscreenenter"",""1"",""4687""
","
","","","-1","","","10","3249","2884","&#9854;","elianto","#FFFFF080","-1","-1","1","&#10004","[]","0","0","1",""
"pit-trial","17","184866","0.0-2.0-6.3-0.3","battery-v0.2","","""event"",""trial"",""time""
""fullscreenenter"",""1"",""4687""
","
","
","""event"",""trial"",""time""
""fullscreenenter"",""1"",""4687""
","
","","","-1","","","10","3249","2884","&#9854;","elianto","#FFFFF080","-1","-1","1","&#10004","[]","0","0","1",""
"pit-trial","18","189730","0.0-2.0-6.4-0.4","battery-v0.2","","""event"",""trial"",""time""
""fullscreenenter"",""1"",""4687""
","
","
","""event"",""trial"",""time""
""fullscreenenter"",""1"",""4687""
","
","","","-1","","","10","3249","2884","&#9854;","elianto","#FFFFF080","-1","-1","1","&#10004","[]","0","0","1",""
"pit-instructions","19","335908","0.0-2.0-7.0","battery-v0.2","","""event"",""trial"",""time""
""fullscreenenter"",""1"",""4687""
","
","
","""event"",""trial"",""time""
""fullscreenenter"",""1"",""4687""
","
","","[{""page_index"":0,""viewing_time"":6376.70000000298},{""page_index"":1,""viewing_time"":8357.29999999702},{""page_index"":2,""viewing_time"":7660.10000000149},{""page_index"":3,""viewing_time"":7004.800000000745},{""page_index"":4,""viewing_time"":9901.199999999255},{""page_index"":5,""viewing_time"":5357.10000000149},{""page_index"":6,""viewing_time"":5075.89999999851},{""page_index"":7,""viewing_time"":8807.89999999851},{""page_index"":8,""viewing_time"":15088.400000002235},{""page_index"":9,""viewing_time"":6970.5},{""page_index"":10,""viewing_time"":7586.099999997765},{""page_index"":11,""viewing_time"":5461.5},{""page_index"":12,""viewing_time"":7742.800000000745},{""page_index"":13,""viewing_time"":8194.300000000745},{""page_index"":14,""viewing_time"":9458.60000000149},{""page_index"":15,""viewing_time"":11894.79999999702},{""page_index"":16,""viewing_time"":7813.60000000149},{""page_index"":17,""viewing_time"":7424.300000000745}]","146176.70000000298","","","","","","","","","","","","","","","","",""
"pit-trial","20","339387","0.0-2.0-8.0-0.0","battery-v0.2","","""event"",""trial"",""time""
""fullscreenenter"",""1"",""4687""
","
","
","""event"",""trial"",""time""
""fullscreenenter"",""1"",""4687""
","
","","","623.9000000022352","","","10","3249","2884","&#9776;","elianto","#3366ff99"," "," ","1","+10","[1474.8999999985099]","1","0","1",""
"pit-trial","21","342901","0.0-2.0-8.0-1.0","battery-v0.2","","""event"",""trial"",""time""
""fullscreenenter"",""1"",""4687""
","
","
","""event"",""trial"",""time""
""fullscreenenter"",""1"",""4687""
","
","","","653.5","","","10","3249","2884","&#9776;","elianto","#3366ff99"," "," ","1","+10","[1508.2000000029802]","1","0","1",""
"pit-trial","22","346549","0.0-2.0-8.0-2.0","battery-v0.2","","""event"",""trial"",""time""
""fullscreenenter"",""1"",""4687""
","
","
","""event"",""trial"",""time""
""fullscreenenter"",""1"",""4687""
","
","","","787.5","","","10","3249","2884","&#9776;","elianto","#3366ff99"," "," ","1","+10","[1641.9000000022352]","1","0","1",""
"pit-trial","23","350027","0.0-2.0-8.0-3.0","battery-v0.2","","""event"",""trial"",""time""
""fullscreenenter"",""1"",""4687""
","
","
","""event"",""trial"",""time""
""fullscreenenter"",""1"",""4687""
","
","","","622.3000000007451","","","10","3249","2884","&#9776;","elianto","#3366ff99"," "," ","1","0","[1475.5]","1","0","1",""
"pit-trial","24","354888","0.0-2.0-8.0-4.0","battery-v0.2","","""event"",""trial"",""time""
""fullscreenenter"",""1"",""4687""
","
","
","""event"",""trial"",""time""
""fullscreenenter"",""1"",""4687""
","
","","","-1","","","10","3249","2884","&#9776;","elianto","#3366ff99"," ","-1","0","0","[]","0","0","1",""
"pit-trial","25","359753","0.0-2.0-8.1-0.1","battery-v0.2","","""event"",""trial"",""time""
""fullscreenenter"",""1"",""4687""
","
","
","""event"",""trial"",""time""
""fullscreenenter"",""1"",""4687""
","
","","","-1","","","10","3249","2884","&#9776;","elianto","#3366ff99"," ","-1","0","0","[]","0","0","1",""
"pit-trial","26","364616","0.0-2.0-8.1-1.1","battery-v0.2","","""event"",""trial"",""time""
""fullscreenenter"",""1"",""4687""
","
","
","""event"",""trial"",""time""
""fullscreenenter"",""1"",""4687""
","
","","","-1","","","10","3249","2884","&#9776;","elianto","#3366ff99"," ","-1","0","0","[]","0","0","1",""
"pit-trial","27","369478","0.0-2.0-8.1-2.1","battery-v0.2","","""event"",""trial"",""time""
""fullscreenenter"",""1"",""4687""
","
","
","""event"",""trial"",""time""
""fullscreenenter"",""1"",""4687""
","
","","","-1","","","10","3249","2884","&#9776;","elianto","#3366ff99"," ","-1","0","0","[]","0","0","1",""
"pit-trial","28","374339","0.0-2.0-8.1-3.1","battery-v0.2","","""event"",""trial"",""time""
""fullscreenenter"",""1"",""4687""
","
","
","""event"",""trial"",""time""
""fullscreenenter"",""1"",""4687""
","
","","","-1","","","10","3249","2884","&#9776;","elianto","#3366ff99"," ","-1","0","+10","[]","0","0","1",""
"pit-trial","29","377817","0.0-2.0-8.1-4.1","battery-v0.2","","""event"",""trial"",""time""
""fullscreenenter"",""1"",""4687""
","
","
","""event"",""trial"",""time""
""fullscreenenter"",""1"",""4687""
","
","","","619.6999999992549","","","10","3249","2884","&#9776;","elianto","#3366ff99"," "," ","1","+10","[1473]","1","0","1",""
"pit-trial","30","381269","0.0-2.0-8.2-0.2","battery-v0.2","","""event"",""trial"",""time""
""fullscreenenter"",""1"",""4687""
","
","
","""event"",""trial"",""time""
""fullscreenenter"",""1"",""4687""
","
","","","589.3999999985099","","","10","3249","2884","&#9776;","elianto","#3366ff99"," "," ","1","+10","[1443.699999999255]","1","0","1",""
"pit-trial","31","385272","0.0-2.0-8.2-1.2","battery-v0.2","","""event"",""trial"",""time""
""fullscreenenter"",""1"",""4687""
","
","
","""event"",""trial"",""time""
""fullscreenenter"",""1"",""4687""
","
","","","1146.8999999985099","","","10","3249","2884","&#9776;","elianto","#3366ff99"," "," ","1","+10","[1997.3999999985099]","1","0","1",""
"pit-trial","32","388648","0.0-2.0-8.2-2.2","battery-v0.2","","""event"",""trial"",""time""
""fullscreenenter"",""1"",""4687""
","
","
","""event"",""trial"",""time""
""fullscreenenter"",""1"",""4687""
","
","","","520.6999999992549","","","10","3249","2884","&#9776;","elianto","#3366ff99"," "," ","1","+10","[1371]","1","0","1",""
"pit-trial","33","391923","0.0-2.0-8.2-3.2","battery-v0.2","","""event"",""trial"",""time""
""fullscreenenter"",""1"",""4687""
","
","
","""event"",""trial"",""time""
""fullscreenenter"",""1"",""4687""
","
","","","420.69999999925494","","","10","3249","2884","&#9776;","elianto","#3366ff99"," "," ","1","0","[1271]","1","0","1",""
"pit-trial","34","396781","0.0-2.0-8.2-4.2","battery-v0.2","","""event"",""trial"",""time""
""fullscreenenter"",""1"",""4687""
","
","
","""event"",""trial"",""time""
""fullscreenenter"",""1"",""4687""
","
","","","-1","","","10","3249","2884","&#9776;","elianto","#3366ff99"," ","-1","0","0","[]","0","0","1",""
"pit-trial","35","401645","0.0-2.0-8.3-0.3","battery-v0.2","","""event"",""trial"",""time""
""fullscreenenter"",""1"",""4687""
","
","
","""event"",""trial"",""time""
""fullscreenenter"",""1"",""4687""
","
","","","-1","","","10","3249","2884","&#9776;","elianto","#3366ff99"," ","-1","0","0","[]","0","0","1",""
"pit-trial","36","406506","0.0-2.0-8.3-1.3","battery-v0.2","","""event"",""trial"",""time""
""fullscreenenter"",""1"",""4687""
","
","
","""event"",""trial"",""time""
""fullscreenenter"",""1"",""4687""
","
","","","-1","","","10","3249","2884","&#9776;","elianto","#3366ff99"," ","-1","0","0","[]","0","0","1",""
"pit-trial","37","411364","0.0-2.0-8.3-2.3","battery-v0.2","","""event"",""trial"",""time""
""fullscreenenter"",""1"",""4687""
","
","
","""event"",""trial"",""time""
""fullscreenenter"",""1"",""4687""
","
","","","-1","","","10","3249","2884","&#9776;","elianto","#3366ff99"," ","-1","0","0","[]","0","0","1",""
"pit-trial","38","416223","0.0-2.0-8.3-3.3","battery-v0.2","","""event"",""trial"",""time""
""fullscreenenter"",""1"",""4687""
","
","
","""event"",""trial"",""time""
""fullscreenenter"",""1"",""4687""
","
","","","-1","","","10","3249","2884","&#9776;","elianto","#3366ff99"," ","-1","0","+10","[]","0","0","1",""
"pit-trial","39","419593","0.0-2.0-8.3-4.3","battery-v0.2","","""event"",""trial"",""time""
""fullscreenenter"",""1"",""4687""
","
","
","""event"",""trial"",""time""
""fullscreenenter"",""1"",""4687""
","
","","","510","","","10","3249","2884","&#9776;","elianto","#3366ff99"," "," ","1","+10","[1363.8999999985099]","1","0","1",""
"pit-trial","40","423063","0.0-2.0-8.4-0.4","battery-v0.2","","""event"",""trial"",""time""
""fullscreenenter"",""1"",""4687""
","
","
","""event"",""trial"",""time""
""fullscreenenter"",""1"",""4687""
","
","","","610.1999999992549","","","10","3249","2884","&#9776;","elianto","#3366ff99"," "," ","1","+10","[1462.800000000745]","1","0","1",""
"pit-trial","41","426567","0.0-2.0-8.4-1.4","battery-v0.2","","""event"",""trial"",""time""
""fullscreenenter"",""1"",""4687""
","
","
","""event"",""trial"",""time""
""fullscreenenter"",""1"",""4687""
","
","","","650.1999999992549","","","10","3249","2884","&#9776;","elianto","#3366ff99"," "," ","1","+10","[1500.6000000014901]","1","0","1",""
"pit-trial","42","430055","0.0-2.0-8.4-2.4","battery-v0.2","","""event"",""trial"",""time""
""fullscreenenter"",""1"",""4687""
","
","
","""event"",""trial"",""time""
""fullscreenenter"",""1"",""4687""
","
","","","633.3999999985099","","","10","3249","2884","&#9776;","elianto","#3366ff99"," "," ","1","+10","[1484.0999999977648]","1","0","1",""
"pit-trial","43","433313","0.0-2.0-8.4-3.4","battery-v0.2","","""event"",""trial"",""time""
""fullscreenenter"",""1"",""4687""
","
","
","""event"",""trial"",""time""
""fullscreenenter"",""1"",""4687""
","
","","","402","","","10","3249","2884","&#9776;","elianto","#3366ff99"," "," ","1","0","[1254.800000000745]","1","0","1",""
"pit-trial","44","438172","0.0-2.0-8.4-4.4","battery-v0.2","","""event"",""trial"",""time""
""fullscreenenter"",""1"",""4687""
","
","
","""event"",""trial"",""time""
""fullscreenenter"",""1"",""4687""
","
","","","-1","","","10","3249","2884","&#9776;","elianto","#3366ff99"," ","-1","0","0","[]","0","0","1",""
"pit-instructions","45","498075","0.0-2.0-8.4-5.4-0.4","battery-v0.2","","""event"",""trial"",""time""
""fullscreenenter"",""1"",""4687""
","
","
","""event"",""trial"",""time""
""fullscreenenter"",""1"",""4687""
","
","","[{""page_index"":0,""viewing_time"":15434.39999999851},{""page_index"":1,""viewing_time"":6064.20000000298},{""page_index"":2,""viewing_time"":38404.699999999255}]","59903.89999999851","","","","","","","","","","","","","","","","",""
"pit-trial","46","501993","0.0-2.0-8.5-0.5","battery-v0.2","","""event"",""trial"",""time""
""fullscreenenter"",""1"",""4687""
","
","
","""event"",""trial"",""time""
""fullscreenenter"",""1"",""4687""
","
","","","1057.5999999977648","","","10","3249","2884","&#9776;","elianto","#3366ff99"," "," ","1","+10","[1910.199999999255]","1","0","1",""
"pit-trial","47","505573","0.0-2.0-8.5-1.5","battery-v0.2","","""event"",""trial"",""time""
""fullscreenenter"",""1"",""4687""
","
","
","""event"",""trial"",""time""
""fullscreenenter"",""1"",""4687""
","
","","","721.4000000022352","","","10","3249","2884","&#9776;","elianto","#3366ff99"," "," ","1","+10","[1573.6000000014901]","1","0","1",""
"pit-trial","48","509032","0.0-2.0-8.5-2.5","battery-v0.2","","""event"",""trial"",""time""
""fullscreenenter"",""1"",""4687""
","
","
","""event"",""trial"",""time""
""fullscreenenter"",""1"",""4687""
","
","","","603.4000000022352","","","10","3249","2884","&#9776;","elianto","#3366ff99"," "," ","1","+10","[1454]","1","0","1",""
"pit-trial","49","512475","0.0-2.0-8.5-3.5","battery-v0.2","","""event"",""trial"",""time""
""fullscreenenter"",""1"",""4687""
","
","
","""event"",""trial"",""time""
""fullscreenenter"",""1"",""4687""
","
","","","579.3999999985099","","","10","3249","2884","&#9776;","elianto","#3366ff99"," "," ","1","0","[1432.5]","1","0","1",""
"pit-trial","50","517336","0.0-2.0-8.5-4.5","battery-v0.2","","""event"",""trial"",""time""
""fullscreenenter"",""1"",""4687""
","
","
","""event"",""trial"",""time""
""fullscreenenter"",""1"",""4687""
","
","","","-1","","","10","3249","2884","&#9776;","elianto","#3366ff99"," ","-1","0","0","[]","0","0","1",""
"pit-trial","51","522199","0.0-2.0-8.6-0.6","battery-v0.2","","""event"",""trial"",""time""
""fullscreenenter"",""1"",""4687""
","
","
","""event"",""trial"",""time""
""fullscreenenter"",""1"",""4687""
","
","","","-1","","","10","3249","2884","&#9776;","elianto","#3366ff99"," ","-1","0","0","[]","0","0","1",""
"pit-trial","52","527056","0.0-2.0-8.6-1.6","battery-v0.2","","""event"",""trial"",""time""
""fullscreenenter"",""1"",""4687""
","
","
","""event"",""trial"",""time""
""fullscreenenter"",""1"",""4687""
","
","","","-1","","","10","3249","2884","&#9776;","elianto","#3366ff99"," ","-1","0","0","[]","0","0","1",""
"pit-trial","53","531917","0.0-2.0-8.6-2.6","battery-v0.2","","""event"",""trial"",""time""
""fullscreenenter"",""1"",""4687""
","
","
","""event"",""trial"",""time""
""fullscreenenter"",""1"",""4687""
","
","","","-1","","","10","3249","2884","&#9776;","elianto","#3366ff99"," ","-1","0","0","[]","0","0","1",""
"pit-trial","54","536776","0.0-2.0-8.6-3.6","battery-v0.2","","""event"",""trial"",""time""
""fullscreenenter"",""1"",""4687""
","
","
","""event"",""trial"",""time""
""fullscreenenter"",""1"",""4687""
","
","","","-1","","","10","3249","2884","&#9776;","elianto","#3366ff99"," ","-1","0","+10","[3176.2999999970198]","1","0","1",""
"pit-trial","55","540247","0.0-2.0-8.6-4.6","battery-v0.2","","""event"",""trial"",""time""
""fullscreenenter"",""1"",""4687""
","
","
","""event"",""trial"",""time""
""fullscreenenter"",""1"",""4687""
","
","","","614.1999999992549","","","10","3249","2884","&#9776;","elianto","#3366ff99"," "," ","1","+10","[1465.3999999985099]","1","0","1",""
"pit-trial","56","543762","0.0-2.0-8.7-0.7","battery-v0.2","","""event"",""trial"",""time""
""fullscreenenter"",""1"",""4687""
","
","
","""event"",""trial"",""time""
""fullscreenenter"",""1"",""4687""
","
","","","651.8999999985099","","","10","3249","2884","&#9776;","elianto","#3366ff99"," "," ","1","+10","[1506.5]","1","0","1",""
"pit-trial","57","547106","0.0-2.0-8.7-1.7","battery-v0.2","","""event"",""trial"",""time""
""fullscreenenter"",""1"",""4687""
","
","
","""event"",""trial"",""time""
""fullscreenenter"",""1"",""4687""
","
","","","485.5","","","10","3249","2884","&#9776;","elianto","#3366ff99"," "," ","1","+10","[1335.9000000022352]","1","0","1",""
"pit-trial","58","550535","0.0-2.0-8.7-2.7","battery-v0.2","","""event"",""trial"",""time""
""fullscreenenter"",""1"",""4687""
","
","
","""event"",""trial"",""time""
""fullscreenenter"",""1"",""4687""
","
","","","569.3999999985099","","","10","3249","2884","&#9776;","elianto","#3366ff99"," "," ","1","+10","[1420.699999999255]","1","0","1",""
"pit-trial","59","554018","0.0-2.0-8.7-3.7","battery-v0.2","","""event"",""trial"",""time""
""fullscreenenter"",""1"",""4687""
","
","
","""event"",""trial"",""time""
""fullscreenenter"",""1"",""4687""
","
","","","622.8000000007451","","","10","3249","2884","&#9776;","elianto","#3366ff99"," "," ","1","0","[1476.5]","1","0","1",""
"pit-trial","60","557422","0.0-2.0-8.7-4.7","battery-v0.2","","""event"",""trial"",""time""
""fullscreenenter"",""1"",""4687""
","
","
","""event"",""trial"",""time""
""fullscreenenter"",""1"",""4687""
","
","","","547.8000000007451","","","10","3249","2884","&#9776;","elianto","#3366ff99"," "," ","1","+10","[1398]","1","0","1",""
"call-function","61","557425","0.0-2.0-9.0","battery-v0.2","","""event"",""trial"",""time""
""fullscreenenter"",""1"",""4687""
","
","
","""event"",""trial"",""time""
""fullscreenenter"",""1"",""4687""
","
","","","","","","","","","","","","","","","","","","","",""
"pit-instructions","62","628360","0.0-2.0-10.0","battery-v0.2","","""event"",""trial"",""time""
""fullscreenenter"",""1"",""4687""
","
","
","""event"",""trial"",""time""
""fullscreenenter"",""1"",""4687""
","
","","[{""page_index"":0,""viewing_time"":11733.599999997765},{""page_index"":1,""viewing_time"":15457.800000000745},{""page_index"":2,""viewing_time"":15623.5},{""page_index"":3,""viewing_time"":12726.699999999255},{""page_index"":4,""viewing_time"":15393.900000002235}]","70936.39999999851","","","","","","","","","","","","","","","","",""
"pit-trial","63","631840","0.0-2.0-11.0-0.0","battery-v0.2","","""event"",""trial"",""time""
""fullscreenenter"",""1"",""4687""
","
","
","""event"",""trial"",""time""
""fullscreenenter"",""1"",""4687""
","
","","","624.8000000007451","","","10","3249","2884","&#9761;","elianto","#3366ff99","-1"," ","0","0","[1475.5]","1","0","2",""
"pit-trial","64","636486","0.0-2.0-11.0-1.0","battery-v0.2","","""event"",""trial"",""time""
""fullscreenenter"",""1"",""4687""
","
","
","""event"",""trial"",""time""
""fullscreenenter"",""1"",""4687""
","
","","","1783.300000000745","","","10","3249","2884","&#9761;","elianto","#3366ff99","-1"," ","0","0","[2637.400000002235]","1","0","2",""
"pit-trial","65","641349","0.0-2.0-11.0-2.0","battery-v0.2","","""event"",""trial"",""time""
""fullscreenenter"",""1"",""4687""
","
","
","""event"",""trial"",""time""
""fullscreenenter"",""1"",""4687""
","
","","","-1","","","10","3249","2884","&#9761;","elianto","#3366ff99","-1","-1","1","+10","[]","0","0","2",""
"pit-trial","66","644773","0.0-2.0-11.0-3.0","battery-v0.2","","""event"",""trial"",""time""
""fullscreenenter"",""1"",""4687""
","
","
","""event"",""trial"",""time""
""fullscreenenter"",""1"",""4687""
","
","","","564","","","10","3249","2884","&#9761;","elianto","#3366ff99","-1"," ","0","+10","[1416.6000000014901]","1","0","2",""
"pit-trial","67","648384","0.0-2.0-11.0-4.0","battery-v0.2","","""event"",""trial"",""time""
""fullscreenenter"",""1"",""4687""
","
","
","""event"",""trial"",""time""
""fullscreenenter"",""1"",""4687""
","
","","","749.3999999985099","","","10","3249","2884","&#9761;","elianto","#3366ff99","-1"," ","0","0","[1602.699999999255]","1","0","2",""
"pit-trial","68","651984","0.0-2.0-11.1-0.1","battery-v0.2","","""event"",""trial"",""time""
""fullscreenenter"",""1"",""4687""
","
","
","""event"",""trial"",""time""
""fullscreenenter"",""1"",""4687""
","
","","","737.5","","","10","3249","2884","&#9761;","elianto","#3366ff99","-1"," ","0","0","[1590]","1","0","2",""
"pit-trial","69","656843","0.0-2.0-11.1-1.1","battery-v0.2","","""event"",""trial"",""time""
""fullscreenenter"",""1"",""4687""
","
","
","""event"",""trial"",""time""
""fullscreenenter"",""1"",""4687""
","
","","","-1","","","10","3249","2884","&#9761;","elianto","#3366ff99","-1","-1","1","+10","[]","0","0","2",""
"pit-trial","70","660213","0.0-2.0-11.1-2.1","battery-v0.2","","""event"",""trial"",""time""
""fullscreenenter"",""1"",""4687""
","
","
","""event"",""trial"",""time""
""fullscreenenter"",""1"",""4687""
","
","","","516.3000000007451","","","10","3249","2884","&#9761;","elianto","#3366ff99","-1"," ","0","0","[1366.5]","1","0","2",""
"pit-trial","71","663482","0.0-2.0-11.1-3.1","battery-v0.2","","""event"",""trial"",""time""
""fullscreenenter"",""1"",""4687""
","
","
","""event"",""trial"",""time""
""fullscreenenter"",""1"",""4687""
","
","","","415.1000000014901","","","10","3249","2884","&#9761;","elianto","#3366ff99","-1"," ","0","+10","[1265.4000000022352]","1","0","2",""
"pit-trial","72","667012","0.0-2.0-11.1-4.1","battery-v0.2","","""event"",""trial"",""time""
""fullscreenenter"",""1"",""4687""
","
","
","""event"",""trial"",""time""
""fullscreenenter"",""1"",""4687""
","
","","","672.3000000007451","","","10","3249","2884","&#9761;","elianto","#3366ff99","-1"," ","0","0","[1522.300000000745]","1","0","2",""
"pit-trial","73","670970","0.0-2.0-11.2-0.2","battery-v0.2","","""event"",""trial"",""time""
""fullscreenenter"",""1"",""4687""
","
","
","""event"",""trial"",""time""
""fullscreenenter"",""1"",""4687""
","
","","","1101.2000000029802","","","10","3249","2884","&#9761;","elianto","#3366ff99","-1"," ","0","0","[1951.199999999255]","1","0","2",""
"pit-trial","74","674399","0.0-2.0-11.2-1.2","battery-v0.2","","""event"",""trial"",""time""
""fullscreenenter"",""1"",""4687""
","
","
","""event"",""trial"",""time""
""fullscreenenter"",""1"",""4687""
","
","","","573.4000000022352","","","10","3249","2884","&#9761;","elianto","#3366ff99","-1"," ","0","0","[1423.4000000022352]","1","0","2",""
"pit-trial","75","679257","0.0-2.0-11.2-2.2","battery-v0.2","","""event"",""trial"",""time""
""fullscreenenter"",""1"",""4687""
","
","
","""event"",""trial"",""time""
""fullscreenenter"",""1"",""4687""
","
","","","-1","","","10","3249","2884","&#9761;","elianto","#3366ff99","-1","-1","1","+10","[]","0","0","2",""
"pit-trial","76","683076","0.0-2.0-11.2-3.2","battery-v0.2","","""event"",""trial"",""time""
""fullscreenenter"",""1"",""4687""
","
","
","""event"",""trial"",""time""
""fullscreenenter"",""1"",""4687""
","
","","","964.6000000014901","","","10","3249","2884","&#9761;","elianto","#3366ff99","-1"," ","0","+10","[1815.5]","1","0","2",""
"pit-trial","77","686710","0.0-2.0-11.2-4.2","battery-v0.2","","""event"",""trial"",""time""
""fullscreenenter"",""1"",""4687""
","
","
","""event"",""trial"",""time""
""fullscreenenter"",""1"",""4687""
","
","","","779.8000000007451","","","10","3249","2884","&#9761;","elianto","#3366ff99","-1"," ","0","0","[1630.800000000745]","1","0","2",""
"pit-trial","78","691075","0.0-2.0-11.3-0.3","battery-v0.2","","""event"",""trial"",""time""
""fullscreenenter"",""1"",""4687""
","
","
","""event"",""trial"",""time""
""fullscreenenter"",""1"",""4687""
","
","","","1505.8999999985099","","","10","3249","2884","&#9761;","elianto","#3366ff99","-1"," ","0","0","[2356.199999999255]","1","0","2",""
"pit-trial","79","694625","0.0-2.0-11.3-1.3","battery-v0.2","","""event"",""trial"",""time""
""fullscreenenter"",""1"",""4687""
","
","
","""event"",""trial"",""time""
""fullscreenenter"",""1"",""4687""
","
","","","691.1000000014901","","","10","3249","2884","&#9761;","elianto","#3366ff99","-1"," ","0","0","[1542.4000000022352]","1","0","2",""
"pit-trial","80","699484","0.0-2.0-11.3-2.3","battery-v0.2","","""event"",""trial"",""time""
""fullscreenenter"",""1"",""4687""
","
","
","""event"",""trial"",""time""
""fullscreenenter"",""1"",""4687""
","
","","","-1","","","10","3249","2884","&#9761;","elianto","#3366ff99","-1","-1","1","+10","[]","0","0","2",""
"pit-trial","81","702819","0.0-2.0-11.3-3.3","battery-v0.2","","""event"",""trial"",""time""
""fullscreenenter"",""1"",""4687""
","
","
","""event"",""trial"",""time""
""fullscreenenter"",""1"",""4687""
","
","","","479.6000000014901","","","10","3249","2884","&#9761;","elianto","#3366ff99","-1"," ","0","+10","[1332.4000000022352]","1","0","2",""
"pit-trial","82","706190","0.0-2.0-11.3-4.3","battery-v0.2","","""event"",""trial"",""time""
""fullscreenenter"",""1"",""4687""
","
","
","""event"",""trial"",""time""
""fullscreenenter"",""1"",""4687""
","
","","","513.0999999977648","","","10","3249","2884","&#9761;","elianto","#3366ff99","-1"," ","0","0","[1366.5]","1","0","2",""
"pit-trial","83","709699","0.0-2.0-11.4-0.4","battery-v0.2","","""event"",""trial"",""time""
""fullscreenenter"",""1"",""4687""
","
","
","""event"",""trial"",""time""
""fullscreenenter"",""1"",""4687""
","
","","","649.6999999992549","","","10","3249","2884","&#9761;","elianto","#3366ff99","-1"," ","0","0","[1504.5]","1","0","2",""
"pit-trial","84","713331","0.0-2.0-11.4-1.4","battery-v0.2","","""event"",""trial"",""time""
""fullscreenenter"",""1"",""4687""
","
","
","""event"",""trial"",""time""
""fullscreenenter"",""1"",""4687""
","
","","","773.6000000014901","","","10","3249","2884","&#9761;","elianto","#3366ff99","-1"," ","0","0","[1624.199999999255]","1","0","2",""
"pit-trial","85","718186","0.0-2.0-11.4-2.4","battery-v0.2","","""event"",""trial"",""time""
""fullscreenenter"",""1"",""4687""
","
","
","""event"",""trial"",""time""
""fullscreenenter"",""1"",""4687""
","
","","","-1","","","10","3249","2884","&#9761;","elianto","#3366ff99","-1","-1","1","+10","[]","0","0","2",""
"pit-trial","86","721629","0.0-2.0-11.4-3.4","battery-v0.2","","""event"",""trial"",""time""
""fullscreenenter"",""1"",""4687""
","
","
","""event"",""trial"",""time""
""fullscreenenter"",""1"",""4687""
","
","","","582","","","10","3249","2884","&#9761;","elianto","#3366ff99","-1"," ","0","+10","[1435.699999999255]","1","0","2",""
"pit-trial","87","725320","0.0-2.0-11.4-4.4","battery-v0.2","","""event"",""trial"",""time""
""fullscreenenter"",""1"",""4687""
","
","
","""event"",""trial"",""time""
""fullscreenenter"",""1"",""4687""
","
","","","835.3000000007451","","","10","3249","2884","&#9761;","elianto","#3366ff99","-1"," ","0","0","[1686]","1","0","2",""
"pit-instructions","88","769259","0.0-2.0-11.4-5.4-0.4","battery-v0.2","","""event"",""trial"",""time""
""fullscreenenter"",""1"",""4687""
","
","
","""event"",""trial"",""time""
""fullscreenenter"",""1"",""4687""
","
","","[{""page_index"":0,""viewing_time"":13115.300000000745},{""page_index"":1,""viewing_time"":22246.699999999255},{""page_index"":2,""viewing_time"":8576.5}]","43939.10000000149","","","","","","","","","","","","","","","","",""
"pit-trial","89","773166","0.0-2.0-11.5-0.5","battery-v0.2","","""event"",""trial"",""time""
""fullscreenenter"",""1"",""4687""
","
","
","""event"",""trial"",""time""
""fullscreenenter"",""1"",""4687""
","
","","","1044.199999999255","","","10","3249","2884","&#9761;","elianto","#3366ff99","-1"," ","0","0","[1898.300000000745]","1","0","2",""
"pit-trial","90","778027","0.0-2.0-11.5-1.5","battery-v0.2","","""event"",""trial"",""time""
""fullscreenenter"",""1"",""4687""
","
","
","""event"",""trial"",""time""
""fullscreenenter"",""1"",""4687""
","
","","","-1","","","10","3249","2884","&#9761;","elianto","#3366ff99","-1","-1","1","+10","[]","0","0","2",""
"pit-trial","91","781623","0.0-2.0-11.5-2.5","battery-v0.2","","""event"",""trial"",""time""
""fullscreenenter"",""1"",""4687""
","
","
","""event"",""trial"",""time""
""fullscreenenter"",""1"",""4687""
","
","","","734.6000000014901","","","10","3249","2884","&#9761;","elianto","#3366ff99","-1"," ","0","0","[1585.1000000014901]","1","0","2",""
"pit-trial","92","786483","0.0-2.0-11.5-3.5","battery-v0.2","","""event"",""trial"",""time""
""fullscreenenter"",""1"",""4687""
","
","
","""event"",""trial"",""time""
""fullscreenenter"",""1"",""4687""
","
","","","-1","","","10","3249","2884","&#9761;","elianto","#3366ff99","-1","-1","1","0","[]","0","0","2",""
"pit-trial","93","791345","0.0-2.0-11.5-4.5","battery-v0.2","","""event"",""trial"",""time""
""fullscreenenter"",""1"",""4687""
","
","
","""event"",""trial"",""time""
""fullscreenenter"",""1"",""4687""
","
","","","-1","","","10","3249","2884","&#9761;","elianto","#3366ff99","-1","-1","1","+10","[]","0","0","2",""
"pit-trial","94","795245","0.0-2.0-11.6-0.6","battery-v0.2","","""event"",""trial"",""time""
""fullscreenenter"",""1"",""4687""
","
","
","""event"",""trial"",""time""
""fullscreenenter"",""1"",""4687""
","
","","","1041.699999999255","","","10","3249","2884","&#9761;","elianto","#3366ff99","-1"," ","0","0","[1893.699999999255]","1","0","2",""
"pit-trial","95","799075","0.0-2.0-11.6-1.6","battery-v0.2","","""event"",""trial"",""time""
""fullscreenenter"",""1"",""4687""
","
","
","""event"",""trial"",""time""
""fullscreenenter"",""1"",""4687""
","
","","","971.8000000007451","","","10","3249","2884","&#9761;","elianto","#3366ff99","-1"," ","0","0","[1824.5]","1","0","2",""
"pit-trial","96","802739","0.0-2.0-11.6-2.6","battery-v0.2","","""event"",""trial"",""time""
""fullscreenenter"",""1"",""4687""
","
","
","""event"",""trial"",""time""
""fullscreenenter"",""1"",""4687""
","
","","","807.1000000014901","","","10","3249","2884","&#9761;","elianto","#3366ff99","-1"," ","0","0","[1657.5999999977648]","1","0","2",""
"pit-trial","97","806370","0.0-2.0-11.6-3.6","battery-v0.2","","""event"",""trial"",""time""
""fullscreenenter"",""1"",""4687""
","
","
","""event"",""trial"",""time""
""fullscreenenter"",""1"",""4687""
","
","","","776.3000000007451","","","10","3249","2884","&#9761;","elianto","#3366ff99","-1"," ","0","+10","[1628]","1","0","2",""
"pit-trial","98","809845","0.0-2.0-11.6-4.6","battery-v0.2","","""event"",""trial"",""time""
""fullscreenenter"",""1"",""4687""
","
","
","""event"",""trial"",""time""
""fullscreenenter"",""1"",""4687""
","
","","","620.1999999992549","","","10","3249","2884","&#9761;","elianto","#3366ff99","-1"," ","0","0","[1470.699999999255]","1","0","2",""
"pit-trial","99","813253","0.0-2.0-11.7-0.7","battery-v0.2","","""event"",""trial"",""time""
""fullscreenenter"",""1"",""4687""
","
","
","""event"",""trial"",""time""
""fullscreenenter"",""1"",""4687""
","
","","","546.8000000007451","","","10","3249","2884","&#9761;","elianto","#3366ff99","-1"," ","0","0","[1401.800000000745]","1","0","2",""
"pit-trial","100","817712","0.0-2.0-11.7-1.7","battery-v0.2","","""event"",""trial"",""time""
""fullscreenenter"",""1"",""4687""
","
","
","""event"",""trial"",""time""
""fullscreenenter"",""1"",""4687""
","
","","","1600.800000000745","","","10","3249","2884","&#9761;","elianto","#3366ff99","-1"," ","0","0","[2451.599999997765]","1","0","2",""
"pit-trial","101","822571","0.0-2.0-11.7-2.7","battery-v0.2","","""event"",""trial"",""time""
""fullscreenenter"",""1"",""4687""
","
","
","""event"",""trial"",""time""
""fullscreenenter"",""1"",""4687""
","
","","","-1","","","10","3249","2884","&#9761;","elianto","#3366ff99","-1","-1","1","+10","[]","0","0","2",""
"pit-trial","102","826982","0.0-2.0-11.7-3.7","battery-v0.2","","""event"",""trial"",""time""
""fullscreenenter"",""1"",""4687""
","
","
","""event"",""trial"",""time""
""fullscreenenter"",""1"",""4687""
","
","","","1554.9000000022352","","","10","3249","2884","&#9761;","elianto","#3366ff99","-1"," ","0","+10","[2405.400000002235]","1","0","2",""
"pit-trial","103","830464","0.0-2.0-11.7-4.7","battery-v0.2","","""event"",""trial"",""time""
""fullscreenenter"",""1"",""4687""
","
","
","""event"",""trial"",""time""
""fullscreenenter"",""1"",""4687""
","
","","","621.4000000022352","","","10","3249","2884","&#9761;","elianto","#3366ff99","-1"," ","0","0","[1476.199999999255]","1","0","2",""
"pit-trial","104","834005","0.0-2.0-11.8-0.8","battery-v0.2","","""event"",""trial"",""time""
""fullscreenenter"",""1"",""4687""
","
","
","""event"",""trial"",""time""
""fullscreenenter"",""1"",""4687""
","
","","","678.8999999985099","","","10","3249","2884","&#9761;","elianto","#3366ff99","-1"," ","0","0","[1533.3999999985099]","1","0","2",""
"pit-trial","105","838860","0.0-2.0-11.8-1.8","battery-v0.2","","""event"",""trial"",""time""
""fullscreenenter"",""1"",""4687""
","
","
","""event"",""trial"",""time""
""fullscreenenter"",""1"",""4687""
","
","","","-1","","","10","3249","2884","&#9761;","elianto","#3366ff99","-1","-1","1","+10","[]","0","0","2",""
"pit-trial","106","842236","0.0-2.0-11.8-2.8","battery-v0.2","","""event"",""trial"",""time""
""fullscreenenter"",""1"",""4687""
","
","
","""event"",""trial"",""time""
""fullscreenenter"",""1"",""4687""
","
","","","516.5999999977648","","","10","3249","2884","&#9761;","elianto","#3366ff99","-1"," ","0","0","[1370.2999999970198]","1","0","2",""
"pit-trial","107","847094","0.0-2.0-11.8-3.8","battery-v0.2","","""event"",""trial"",""time""
""fullscreenenter"",""1"",""4687""
","
","
","""event"",""trial"",""time""
""fullscreenenter"",""1"",""4687""
","
","","","-1","","","10","3249","2884","&#9761;","elianto","#3366ff99","-1","-1","1","0","[]","0","0","2",""
"pit-trial","108","851956","0.0-2.0-11.8-4.8","battery-v0.2","","""event"",""trial"",""time""
""fullscreenenter"",""1"",""4687""
","
","
","""event"",""trial"",""time""
""fullscreenenter"",""1"",""4687""
","
","","","-1","","","10","3249","2884","&#9761;","elianto","#3366ff99","-1","-1","1","+10","[]","0","0","2",""
"pit-trial","109","856447","0.0-2.0-11.9-0.9","battery-v0.2","","""event"",""trial"",""time""
""fullscreenenter"",""1"",""4687""
","
","
","""event"",""trial"",""time""
""fullscreenenter"",""1"",""4687""
","
","","","1633.1000000014901","","","10","3249","2884","&#9761;","elianto","#3366ff99","-1"," ","0","0","[2484.2000000029802]","1","0","2",""
"pit-trial","110","860366","0.0-2.0-11.9-1.9","battery-v0.2","","""event"",""trial"",""time""
""fullscreenenter"",""1"",""4687""
","
","
","""event"",""trial"",""time""
""fullscreenenter"",""1"",""4687""
","
","","","1062.5999999977648","","","10","3249","2884","&#9761;","elianto","#3366ff99","-1"," ","0","0","[1913.199999999255]","1","0","2",""
"pit-trial","111","865225","0.0-2.0-11.9-2.9","battery-v0.2","","""event"",""trial"",""time""
""fullscreenenter"",""1"",""4687""
","
","
","""event"",""trial"",""time""
""fullscreenenter"",""1"",""4687""
","
","","","-1","","","10","3249","2884","&#9761;","elianto","#3366ff99","-1","-1","1","+10","[]","0","0","2",""
"pit-trial","112","870083","0.0-2.0-11.9-3.9","battery-v0.2","","""event"",""trial"",""time""
""fullscreenenter"",""1"",""4687""
","
","
","""event"",""trial"",""time""
""fullscreenenter"",""1"",""4687""
","
","","","-1","","","10","3249","2884","&#9761;","elianto","#3366ff99","-1","-1","1","0","[]","0","0","2",""
"pit-trial","113","874830","0.0-2.0-11.9-4.9","battery-v0.2","","""event"",""trial"",""time""
""fullscreenenter"",""1"",""4687""
","
","
","""event"",""trial"",""time""
""fullscreenenter"",""1"",""4687""
","
","","","1890.199999999255","","","10","3249","2884","&#9761;","elianto","#3366ff99","-1"," ","0","0","[2742.5]","1","0","2",""
"pit-trial","114","879694","0.0-2.0-11.10-0.10","battery-v0.2","","""event"",""trial"",""time""
""fullscreenenter"",""1"",""4687""
","
","
","""event"",""trial"",""time""
""fullscreenenter"",""1"",""4687""
","
","","","-1","","","10","3249","2884","&#9761;","elianto","#3366ff99","-1","-1","1","+10","[]","0","0","2",""
"pit-trial","115","883360","0.0-2.0-11.10-1.10","battery-v0.2","","""event"",""trial"",""time""
""fullscreenenter"",""1"",""4687""
","
","
","""event"",""trial"",""time""
""fullscreenenter"",""1"",""4687""
","
","","","802.2000000029802","","","10","3249","2884","&#9761;","elianto","#3366ff99","-1"," ","0","0","[1656.5]","1","0","2",""
"pit-trial","116","887165","0.0-2.0-11.10-2.10","battery-v0.2","","""event"",""trial"",""time""
""fullscreenenter"",""1"",""4687""
","
","
","""event"",""trial"",""time""
""fullscreenenter"",""1"",""4687""
","
","","","948.3000000007451","","","10","3249","2884","&#9761;","elianto","#3366ff99","-1"," ","0","0","[1801.300000000745]","1","0","2",""
"pit-trial","117","890749","0.0-2.0-11.10-3.10","battery-v0.2","","""event"",""trial"",""time""
""fullscreenenter"",""1"",""4687""
","
","
","""event"",""trial"",""time""
""fullscreenenter"",""1"",""4687""
","
","","","724.6999999992549","","","10","3249","2884","&#9761;","elianto","#3366ff99","-1"," ","0","+10","[1575.5]","1","0","2",""
"pit-trial","118","894309","0.0-2.0-11.10-4.10","battery-v0.2","","""event"",""trial"",""time""
""fullscreenenter"",""1"",""4687""
","
","
","""event"",""trial"",""time""
""fullscreenenter"",""1"",""4687""
","
","","","696.3000000007451","","","10","3249","2884","&#9761;","elianto","#3366ff99","-1"," ","0","0","[1549.800000000745]","1","0","2",""
"pit-trial","119","899170","0.0-2.0-11.11-0.11","battery-v0.2","","""event"",""trial"",""time""
""fullscreenenter"",""1"",""4687""
","
","
","""event"",""trial"",""time""
""fullscreenenter"",""1"",""4687""
","
","","","-1","","","10","3249","2884","&#9761;","elianto","#3366ff99","-1","-1","1","+10","[]","0","0","2",""
"pit-trial","120","903271","0.0-2.0-11.11-1.11","battery-v0.2","","""event"",""trial"",""time""
""fullscreenenter"",""1"",""4687""
","
","
","""event"",""trial"",""time""
""fullscreenenter"",""1"",""4687""
","
","","","1244.5","","","10","3249","2884","&#9761;","elianto","#3366ff99","-1"," ","0","0","[2097.300000000745]","1","0","2",""
"pit-trial","121","908132","0.0-2.0-11.11-2.11","battery-v0.2","","""event"",""trial"",""time""
""fullscreenenter"",""1"",""4687""
","
","
","""event"",""trial"",""time""
""fullscreenenter"",""1"",""4687""
","
","","","-1","","","10","3249","2884","&#9761;","elianto","#3366ff99","-1","-1","1","+10","[]","0","0","2",""
"pit-trial","122","912994","0.0-2.0-11.11-3.11","battery-v0.2","","""event"",""trial"",""time""
""fullscreenenter"",""1"",""4687""
","
","
","""event"",""trial"",""time""
""fullscreenenter"",""1"",""4687""
","
","","","-1","","","10","3249","2884","&#9761;","elianto","#3366ff99","-1","-1","1","0","[]","0","0","2",""
"pit-trial","123","917849","0.0-2.0-11.11-4.11","battery-v0.2","","""event"",""trial"",""time""
""fullscreenenter"",""1"",""4687""
","
","
","""event"",""trial"",""time""
""fullscreenenter"",""1"",""4687""
","
","","","-1","","","10","3249","2884","&#9761;","elianto","#3366ff99","-1","-1","1","+10","[]","0","0","2",""
"pit-trial","124","922711","0.0-2.0-11.12-0.12","battery-v0.2","","""event"",""trial"",""time""
""fullscreenenter"",""1"",""4687""
","
","
","""event"",""trial"",""time""
""fullscreenenter"",""1"",""4687""
","
","","","-1","","","10","3249","2884","&#9761;","elianto","#3366ff99","-1","-1","1","+10","[]","0","0","2",""
"pit-trial","125","926665","0.0-2.0-11.12-1.12","battery-v0.2","","""event"",""trial"",""time""
""fullscreenenter"",""1"",""4687""
","
","
","""event"",""trial"",""time""
""fullscreenenter"",""1"",""4687""
","
","","","1095.199999999255","","","10","3249","2884","&#9761;","elianto","#3366ff99","-1"," ","0","0","[1945.8999999985099]","1","0","2",""
"pit-trial","126","930685","0.0-2.0-11.12-2.12","battery-v0.2","","""event"",""trial"",""time""
""fullscreenenter"",""1"",""4687""
","
","
","""event"",""trial"",""time""
""fullscreenenter"",""1"",""4687""
","
","","","1165.7999999970198","","","10","3249","2884","&#9761;","elianto","#3366ff99","-1"," ","0","0","[2016.5999999977648]","1","0","2",""
"pit-trial","127","935022","0.0-2.0-11.12-3.12","battery-v0.2","","""event"",""trial"",""time""
""fullscreenenter"",""1"",""4687""
","
","
","""event"",""trial"",""time""
""fullscreenenter"",""1"",""4687""
","
","","","1479.0999999977648","","","10","3249","2884","&#9761;","elianto","#3366ff99","-1"," ","0","+10","[2329.5]","1","0","2",""
"pit-trial","128","938465","0.0-2.0-11.12-4.12","battery-v0.2","","""event"",""trial"",""time""
""fullscreenenter"",""1"",""4687""
","
","
","""event"",""trial"",""time""
""fullscreenenter"",""1"",""4687""
","
","","","586","","","10","3249","2884","&#9761;","elianto","#3366ff99","-1"," ","0","0","[1439.5]","1","0","2",""
"pit-trial","129","942119","0.0-2.0-11.13-0.13","battery-v0.2","","""event"",""trial"",""time""
""fullscreenenter"",""1"",""4687""
","
","
","""event"",""trial"",""time""
""fullscreenenter"",""1"",""4687""
","
","","","795.1000000014901","","","10","3249","2884","&#9761;","elianto","#3366ff99","-1"," ","0","0","[1645.4000000022352]","1","0","2",""
"pit-trial","130","946982","0.0-2.0-11.13-1.13","battery-v0.2","","""event"",""trial"",""time""
""fullscreenenter"",""1"",""4687""
","
","
","""event"",""trial"",""time""
""fullscreenenter"",""1"",""4687""
","
","","","-1","","","10","3249","2884","&#9761;","elianto","#3366ff99","-1","-1","1","+10","[]","0","0","2",""
"pit-trial","131","950448","0.0-2.0-11.13-2.13","battery-v0.2","","""event"",""trial"",""time""
""fullscreenenter"",""1"",""4687""
","
","
","""event"",""trial"",""time""
""fullscreenenter"",""1"",""4687""
","
","","","610.7000000029802","","","10","3249","2884","&#9761;","elianto","#3366ff99","-1"," ","0","0","[1461.4000000022352]","1","0","2",""
"pit-trial","132","955307","0.0-2.0-11.13-3.13","battery-v0.2","","""event"",""trial"",""time""
""fullscreenenter"",""1"",""4687""
","
","
","""event"",""trial"",""time""
""fullscreenenter"",""1"",""4687""
","
","","","-1","","","10","3249","2884","&#9761;","elianto","#3366ff99","-1","-1","1","0","[]","0","0","2",""
"pit-trial","133","960165","0.0-2.0-11.13-4.13","battery-v0.2","","""event"",""trial"",""time""
""fullscreenenter"",""1"",""4687""
","
","
","""event"",""trial"",""time""
""fullscreenenter"",""1"",""4687""
","
","","","-1","","","10","3249","2884","&#9761;","elianto","#3366ff99","-1","-1","1","+10","[]","0","0","2",""
"pit-trial","134","963797","0.0-2.0-11.14-0.14","battery-v0.2","","""event"",""trial"",""time""
""fullscreenenter"",""1"",""4687""
","
","
","""event"",""trial"",""time""
""fullscreenenter"",""1"",""4687""
","
","","","776.1000000014901","","","10","3249","2884","&#9761;","elianto","#3366ff99","-1"," ","0","0","[1627.800000000745]","1","0","2",""
"pit-trial","135","966759","0.0-2.0-11.14-1.14","battery-v0.2","","""event"",""trial"",""time""
""fullscreenenter"",""1"",""4687""
","
","
","""event"",""trial"",""time""
""fullscreenenter"",""1"",""4687""
","
","","","104.80000000074506","","","10","3249","2884","&#9761;","elianto","#3366ff99","-1"," ","0","0","[955.8999999985099]","1","0","2",""
"pit-trial","136","971616","0.0-2.0-11.14-2.14","battery-v0.2","","""event"",""trial"",""time""
""fullscreenenter"",""1"",""4687""
","
","
","""event"",""trial"",""time""
""fullscreenenter"",""1"",""4687""
","
","","","-1","","","10","3249","2884","&#9761;","elianto","#3366ff99","-1","-1","1","+10","[]","0","0","2",""
"pit-trial","137","976261","0.0-2.0-11.14-3.14","battery-v0.2","","""event"",""trial"",""time""
""fullscreenenter"",""1"",""4687""
","
","
","""event"",""trial"",""time""
""fullscreenenter"",""1"",""4687""
","
","","","1789.4000000022352","","","10","3249","2884","&#9761;","elianto","#3366ff99","-1"," ","0","+10","[2640.199999999255]","1","0","2",""
"pit-trial","138","979807","0.0-2.0-11.14-4.14","battery-v0.2","","""event"",""trial"",""time""
""fullscreenenter"",""1"",""4687""
","
","
","""event"",""trial"",""time""
""fullscreenenter"",""1"",""4687""
","
","","","687.4000000022352","","","10","3249","2884","&#9761;","elianto","#3366ff99","-1"," ","0","0","[1540.9000000022352]","1","0","2",""
"pit-trial","139","984665","0.0-2.0-11.15-0.15","battery-v0.2","","""event"",""trial"",""time""
""fullscreenenter"",""1"",""4687""
","
","
","""event"",""trial"",""time""
""fullscreenenter"",""1"",""4687""
","
","","","-1","","","10","3249","2884","&#9761;","elianto","#3366ff99","-1","-1","1","+10","[]","0","0","2",""
"pit-trial","140","989524","0.0-2.0-11.15-1.15","battery-v0.2","","""event"",""trial"",""time""
""fullscreenenter"",""1"",""4687""
","
","
","""event"",""trial"",""time""
""fullscreenenter"",""1"",""4687""
","
","","","-1","","","10","3249","2884","&#9761;","elianto","#3366ff99","-1","-1","1","+10","[]","0","0","2",""
"pit-trial","141","993433","0.0-2.0-11.15-2.15","battery-v0.2","","""event"",""trial"",""time""
""fullscreenenter"",""1"",""4687""
","
","
","""event"",""trial"",""time""
""fullscreenenter"",""1"",""4687""
","
","","","1053","","","10","3249","2884","&#9761;","elianto","#3366ff99","-1"," ","0","0","[1904]","1","0","2",""
"pit-trial","142","996646","0.0-2.0-11.15-3.15","battery-v0.2","","""event"",""trial"",""time""
""fullscreenenter"",""1"",""4687""
","
","
","""event"",""trial"",""time""
""fullscreenenter"",""1"",""4687""
","
","","","352","","","10","3249","2884","&#9761;","elianto","#3366ff99","-1"," ","0","+10","[1202.199999999255]","1","0","2",""
"pit-trial","143","999887","0.0-2.0-11.15-4.15","battery-v0.2","","""event"",""trial"",""time""
""fullscreenenter"",""1"",""4687""
","
","
","""event"",""trial"",""time""
""fullscreenenter"",""1"",""4687""
","
","","","384.0999999977648","","","10","3249","2884","&#9761;","elianto","#3366ff99","-1"," ","0","0","[1236.800000000745]","1","0","2",""
"pit-trial","144","1002761","0.0-2.0-11.16-0.16","battery-v0.2","","""event"",""trial"",""time""
""fullscreenenter"",""1"",""4687""
","
","
","""event"",""trial"",""time""
""fullscreenenter"",""1"",""4687""
","
","","","12.699999999254942","","","10","3249","2884","&#9761;","elianto","#3366ff99","-1"," ","0","0","[866.6999999992549]","1","0","2",""
"pit-trial","145","1006158","0.0-2.0-11.16-1.16","battery-v0.2","","""event"",""trial"",""time""
""fullscreenenter"",""1"",""4687""
","
","
","""event"",""trial"",""time""
""fullscreenenter"",""1"",""4687""
","
","","","541.5","","","10","3249","2884","&#9761;","elianto","#3366ff99","-1"," ","0","0","[1391.800000000745]","1","0","2",""
"pit-trial","146","1009627","0.0-2.0-11.16-2.16","battery-v0.2","","""event"",""trial"",""time""
""fullscreenenter"",""1"",""4687""
","
","
","""event"",""trial"",""time""
""fullscreenenter"",""1"",""4687""
","
","","","606.5","","","10","3249","2884","&#9761;","elianto","#3366ff99","-1"," ","0","0","[1459.5]","1","0","2",""
"pit-trial","147","1013451","0.0-2.0-11.16-3.16","battery-v0.2","","""event"",""trial"",""time""
""fullscreenenter"",""1"",""4687""
","
","
","""event"",""trial"",""time""
""fullscreenenter"",""1"",""4687""
","
","","","964.2000000029802","","","10","3249","2884","&#9761;","elianto","#3366ff99","-1"," ","0","+10","[1816.1000000014901]","1","0","2",""
"pit-trial","148","1017462","0.0-2.0-11.16-4.16","battery-v0.2","","""event"",""trial"",""time""
""fullscreenenter"",""1"",""4687""
","
","
","""event"",""trial"",""time""
""fullscreenenter"",""1"",""4687""
","
","","","1153.199999999255","","","10","3249","2884","&#9761;","elianto","#3366ff99","-1"," ","0","0","[2006.0999999977648]","1","0","2",""
"pit-trial","149","1022217","0.0-2.0-11.17-0.17","battery-v0.2","","""event"",""trial"",""time""
""fullscreenenter"",""1"",""4687""
","
","
","""event"",""trial"",""time""
""fullscreenenter"",""1"",""4687""
","
","","","1896.5","","","10","3249","2884","&#9761;","elianto","#3366ff99","-1"," ","0","0","[2750.199999999255]","1","0","2",""
"pit-trial","150","1027075","0.0-2.0-11.17-1.17","battery-v0.2","","""event"",""trial"",""time""
""fullscreenenter"",""1"",""4687""
","
","
","""event"",""trial"",""time""
""fullscreenenter"",""1"",""4687""
","
","","","-1","","","10","3249","2884","&#9761;","elianto","#3366ff99","-1","-1","1","+10","[3081.300000000745]","1","0","2",""
"pit-trial","151","1030466","0.0-2.0-11.17-2.17","battery-v0.2","","""event"",""trial"",""time""
""fullscreenenter"",""1"",""4687""
","
","
","""event"",""trial"",""time""
""fullscreenenter"",""1"",""4687""
","
","","","534.6000000014901","","","10","3249","2884","&#9761;","elianto","#3366ff99","-1"," ","0","0","[1384.800000000745]","1","0","2",""
"pit-trial","152","1033906","0.0-2.0-11.17-3.17","battery-v0.2","","""event"",""trial"",""time""
""fullscreenenter"",""1"",""4687""
","
","
","""event"",""trial"",""time""
""fullscreenenter"",""1"",""4687""
","
","","","581","","","10","3249","2884","&#9761;","elianto","#3366ff99","-1"," ","0","+10","[1432.3999999985099]","1","0","2",""
"pit-trial","153","1037358","0.0-2.0-11.17-4.17","battery-v0.2","","""event"",""trial"",""time""
""fullscreenenter"",""1"",""4687""
","
","
","""event"",""trial"",""time""
""fullscreenenter"",""1"",""4687""
","
","","","597.2000000029802","","","10","3249","2884","&#9761;","elianto","#3366ff99","-1"," ","0","0","[1447.9000000022352]","1","0","2",""
"pit-trial","154","1040669","0.0-2.0-11.18-0.18","battery-v0.2","","""event"",""trial"",""time""
""fullscreenenter"",""1"",""4687""
","
","
","""event"",""trial"",""time""
""fullscreenenter"",""1"",""4687""
","
","","","450.1000000014901","","","10","3249","2884","&#9761;","elianto","#3366ff99","-1"," ","0","0","[1303.6000000014901]","1","0","2",""
"pit-trial","155","1044601","0.0-2.0-11.18-1.18","battery-v0.2","","""event"",""trial"",""time""
""fullscreenenter"",""1"",""4687""
","
","
","""event"",""trial"",""time""
""fullscreenenter"",""1"",""4687""
","
","","","1073.800000000745","","","10","3249","2884","&#9761;","elianto","#3366ff99","-1"," ","0","0","[1924.3999999985099]","1","0","2",""
"pit-trial","156","1048340","0.0-2.0-11.18-2.18","battery-v0.2","","""event"",""trial"",""time""
""fullscreenenter"",""1"",""4687""
","
","
","""event"",""trial"",""time""
""fullscreenenter"",""1"",""4687""
","
","","","879.5","","","10","3249","2884","&#9761;","elianto","#3366ff99","-1"," ","0","0","[1733.4000000022352]","1","0","2",""
"pit-trial","157","1051748","0.0-2.0-11.18-3.18","battery-v0.2","","""event"",""trial"",""time""
""fullscreenenter"",""1"",""4687""
","
","
","""event"",""trial"",""time""
""fullscreenenter"",""1"",""4687""
","
","","","549.1999999992549","","","10","3249","2884","&#9761;","elianto","#3366ff99","-1"," ","0","+10","[1404.3999999985099]","1","0","2",""
"pit-trial","158","1055241","0.0-2.0-11.18-4.18","battery-v0.2","","""event"",""trial"",""time""
""fullscreenenter"",""1"",""4687""
""blur"",""159"",""1074947""
""focus"",""159"",""1074948""
""fullscreenexit"",""159"",""1074957""
","""event"",""trial"",""time""
""blur"",""159"",""1074947""
","""event"",""trial"",""time""
""focus"",""159"",""1074948""
","""event"",""trial"",""time""
""fullscreenenter"",""1"",""4687""
","""event"",""trial"",""time""
""fullscreenexit"",""159"",""1074957""
","","","635.3999999985099","","","10","3249","2884","&#9761;","elianto","#3366ff99","-1"," ","0","0","[1487.199999999255]","1","0","2",""
