"trial_type","trial_index","time_elapsed","internal_node_id","task_version","subject_id","interactions","blur_events","focus_events","fullscreenenter_events","fullscreenexit_events","success","view_history","rt","responses","num_errors","age","subject","participantId","rune","rune_set","hex","correct","choice","accuracy","outcome","keys","total_keys","block","practice","value","sub","trial","stimulus","robot","valence","action","sham"
"pavlovia","0","8","0.0-0.0","battery-v0.2","","""event"",""trial"",""time""
""fullscreenenter"",""1"",""2138""
","
","
","""event"",""trial"",""time""
""fullscreenenter"",""1"",""2138""
","
","","","","","","","","","","","","","","","","","","","","","","","","","","",""
"fullscreen","1","3122","0.0-1.0","battery-v0.2","","""event"",""trial"",""time""
""fullscreenenter"",""1"",""2138""
","
","
","""event"",""trial"",""time""
""fullscreenenter"",""1"",""2138""
","
","true","","","","","","","","","","","","","","","","","","","","","","","","","",""
"pit-instructions","2","9737","0.0-2.0-0.0","battery-v0.2","","""event"",""trial"",""time""
""fullscreenenter"",""1"",""2138""
","
","
","""event"",""trial"",""time""
""fullscreenenter"",""1"",""2138""
","
","","[{""page_index"":0,""viewing_time"":6611.5}]","6611.699999988079","","","","","","","","","","","","","","","","","","","","","","","",""
"pit-comprehension","3","12686","0.0-2.0-1.0-0.0","battery-v0.2","","""event"",""trial"",""time""
""fullscreenenter"",""1"",""2138""
","
","
","""event"",""trial"",""time""
""fullscreenenter"",""1"",""2138""
","
","","","2946.7999999523163","[""shark""]","0","19","15343","2682","","","","","","","","","","","","","","","","","","",""
"pit-instructions","4","13936","0.0-2.0-1.0-1.0","battery-v0.2","","""event"",""trial"",""time""
""fullscreenenter"",""1"",""2138""
","
","
","""event"",""trial"",""time""
""fullscreenenter"",""1"",""2138""
","
","","[{""page_index"":0,""viewing_time"":1244.8999999761581}]","1245.199999988079","","","","","","","","","","","","","","","","","","","","","","","",""
"pit-comprehension","5","16419","0.0-2.0-2.0-0.0","battery-v0.2","","""event"",""trial"",""time""
""fullscreenenter"",""1"",""2138""
","
","
","""event"",""trial"",""time""
""fullscreenenter"",""1"",""2138""
","
","","","2481.800000011921","[""tiger""]","0","19","15343","2682","","","","","","","","","","","","","","","","","","",""
"pit-instructions","6","17135","0.0-2.0-2.0-1.0","battery-v0.2","","""event"",""trial"",""time""
""fullscreenenter"",""1"",""2138""
","
","
","""event"",""trial"",""time""
""fullscreenenter"",""1"",""2138""
","
","","[{""page_index"":0,""viewing_time"":714.1999999880791}]","714.3999999761581","","","","","","","","","","","","","","","","","","","","","","","",""
"pit-instructions","7","110303","0.0-2.0-3.0","battery-v0.2","","""event"",""trial"",""time""
""fullscreenenter"",""1"",""2138""
","
","
","""event"",""trial"",""time""
""fullscreenenter"",""1"",""2138""
","
","","[{""page_index"":0,""viewing_time"":8299.599999964237},{""page_index"":1,""viewing_time"":5749.5},{""page_index"":2,""viewing_time"":6266.900000035763},{""page_index"":3,""viewing_time"":5869.699999988079},{""page_index"":4,""viewing_time"":6013.699999988079},{""page_index"":5,""viewing_time"":5603.400000035763},{""page_index"":6,""viewing_time"":6980.099999964237},{""page_index"":7,""viewing_time"":6350},{""page_index"":8,""viewing_time"":6121},{""page_index"":9,""viewing_time"":8514.900000035763},{""page_index"":10,""viewing_time"":7764.5},{""page_index"":11,""viewing_time"":7700.5},{""page_index"":12,""viewing_time"":6433.5},{""page_index"":13,""viewing_time"":5499.899999976158}]","93167.59999996424","","","","","","","","","","","","","","","","","","","","","","","",""
"pit-trial","8","113786","0.0-2.0-4.0-0.0","battery-v0.2","","""event"",""trial"",""time""
""fullscreenenter"",""1"",""2138""
","
","
","""event"",""trial"",""time""
""fullscreenenter"",""1"",""2138""
","
","","","627.3999999761581","","","19","15343","2682","&#9784;","elianto","#FFFFF080"," "," ","1","&#10004","[1479]","1","0","0","","","","","","","",""
"pit-trial","9","117392","0.0-2.0-4.1-0.1","battery-v0.2","","""event"",""trial"",""time""
""fullscreenenter"",""1"",""2138""
","
","
","""event"",""trial"",""time""
""fullscreenenter"",""1"",""2138""
","
","","","748","","","19","15343","2682","&#9784;","elianto","#FFFFF080"," "," ","1","&#10004","[1599.5]","1","0","0","","","","","","","",""
"pit-trial","10","120911","0.0-2.0-4.2-0.2","battery-v0.2","","""event"",""trial"",""time""
""fullscreenenter"",""1"",""2138""
","
","
","""event"",""trial"",""time""
""fullscreenenter"",""1"",""2138""
","
","","","663.6999999880791","","","19","15343","2682","&#9784;","elianto","#FFFFF080"," "," ","1","&#10004","[1514.800000011921]","1","0","0","","","","","","","",""
"pit-trial","11","124291","0.0-2.0-4.3-0.3","battery-v0.2","","""event"",""trial"",""time""
""fullscreenenter"",""1"",""2138""
","
","
","""event"",""trial"",""time""
""fullscreenenter"",""1"",""2138""
","
","","","525.1999999880791","","","19","15343","2682","&#9784;","elianto","#FFFFF080"," "," ","1","&#10004","[1376.199999988079]","1","0","0","","","","","","","",""
"pit-trial","12","127638","0.0-2.0-4.4-0.4","battery-v0.2","","""event"",""trial"",""time""
""fullscreenenter"",""1"",""2138""
","
","
","""event"",""trial"",""time""
""fullscreenenter"",""1"",""2138""
","
","","","492.80000001192093","","","19","15343","2682","&#9784;","elianto","#FFFFF080"," "," ","1","&#10004","[1343]","1","0","0","","","","","","","",""
"pit-instructions","13","148339","0.0-2.0-5.0","battery-v0.2","","""event"",""trial"",""time""
""fullscreenenter"",""1"",""2138""
","
","
","""event"",""trial"",""time""
""fullscreenenter"",""1"",""2138""
","
","","[{""page_index"":0,""viewing_time"":4912.800000011921},{""page_index"":1,""viewing_time"":5301.300000011921},{""page_index"":2,""viewing_time"":5084.899999976158},{""page_index"":3,""viewing_time"":5401.100000023842}]","20700.19999998808","","","","","","","","","","","","","","","","","","","","","","","",""
"pit-trial","14","153194","0.0-2.0-6.0-0.0","battery-v0.2","","""event"",""trial"",""time""
""fullscreenenter"",""1"",""2138""
","
","
","""event"",""trial"",""time""
""fullscreenenter"",""1"",""2138""
","
","","","-1","","","19","15343","2682","&#9854;","elianto","#FFFFF080","-1","-1","1","&#10004","[]","0","0","1","","","","","","","",""
"pit-trial","15","158053","0.0-2.0-6.1-0.1","battery-v0.2","","""event"",""trial"",""time""
""fullscreenenter"",""1"",""2138""
","
","
","""event"",""trial"",""time""
""fullscreenenter"",""1"",""2138""
","
","","","-1","","","19","15343","2682","&#9854;","elianto","#FFFFF080","-1","-1","1","&#10004","[]","0","0","1","","","","","","","",""
"pit-trial","16","162909","0.0-2.0-6.2-0.2","battery-v0.2","","""event"",""trial"",""time""
""fullscreenenter"",""1"",""2138""
","
","
","""event"",""trial"",""time""
""fullscreenenter"",""1"",""2138""
","
","","","-1","","","19","15343","2682","&#9854;","elianto","#FFFFF080","-1","-1","1","&#10004","[]","0","0","1","","","","","","","",""
"pit-trial","17","167766","0.0-2.0-6.3-0.3","battery-v0.2","","""event"",""trial"",""time""
""fullscreenenter"",""1"",""2138""
","
","
","""event"",""trial"",""time""
""fullscreenenter"",""1"",""2138""
","
","","","-1","","","19","15343","2682","&#9854;","elianto","#FFFFF080","-1","-1","1","&#10004","[]","0","0","1","","","","","","","",""
"pit-trial","18","172622","0.0-2.0-6.4-0.4","battery-v0.2","","""event"",""trial"",""time""
""fullscreenenter"",""1"",""2138""
","
","
","""event"",""trial"",""time""
""fullscreenenter"",""1"",""2138""
","
","","","-1","","","19","15343","2682","&#9854;","elianto","#FFFFF080","-1","-1","1","&#10004","[]","0","0","1","","","","","","","",""
"pit-instructions","19","287002","0.0-2.0-7.0","battery-v0.2","","""event"",""trial"",""time""
""fullscreenenter"",""1"",""2138""
","
","
","""event"",""trial"",""time""
""fullscreenenter"",""1"",""2138""
","
","","[{""page_index"":0,""viewing_time"":5961.800000011921},{""page_index"":1,""viewing_time"":6530.899999976158},{""page_index"":2,""viewing_time"":6150.199999988079},{""page_index"":3,""viewing_time"":6336.199999988079},{""page_index"":4,""viewing_time"":5164},{""page_index"":5,""viewing_time"":5220.600000023842},{""page_index"":6,""viewing_time"":5346.300000011921},{""page_index"":7,""viewing_time"":7286.599999964237},{""page_index"":8,""viewing_time"":6113.800000011921},{""page_index"":9,""viewing_time"":7666.699999988079},{""page_index"":10,""viewing_time"":6133.600000023842},{""page_index"":11,""viewing_time"":4716.699999988079},{""page_index"":12,""viewing_time"":8066.699999988079},{""page_index"":13,""viewing_time"":7483.5},{""page_index"":14,""viewing_time"":7303.900000035763},{""page_index"":15,""viewing_time"":6430.5},{""page_index"":16,""viewing_time"":6265.800000011921},{""page_index"":17,""viewing_time"":6200.5}]","114378.5","","","","","","","","","","","","","","","","","","","","","","","",""
"pit-trial","20","290915","0.0-2.0-8.0-0.0","battery-v0.2","","""event"",""trial"",""time""
""fullscreenenter"",""1"",""2138""
","
","
","""event"",""trial"",""time""
""fullscreenenter"",""1"",""2138""
","
","","","1058.7000000476837","","","19","15343","2682","&#9776;","elianto","#3366ff99"," "," ","1","+10","[1909.5]","1","0","1","","","","","","","",""
"pit-trial","21","294479","0.0-2.0-8.0-1.0","battery-v0.2","","""event"",""trial"",""time""
""fullscreenenter"",""1"",""2138""
","
","
","""event"",""trial"",""time""
""fullscreenenter"",""1"",""2138""
","
","","","708.9000000357628","","","19","15343","2682","&#9776;","elianto","#3366ff99"," "," ","1","+10","[1560.800000011921]","1","0","1","","","","","","","",""
"pit-trial","22","297915","0.0-2.0-8.0-2.0","battery-v0.2","","""event"",""trial"",""time""
""fullscreenenter"",""1"",""2138""
","
","
","""event"",""trial"",""time""
""fullscreenenter"",""1"",""2138""
","
","","","580.1000000238419","","","19","15343","2682","&#9776;","elianto","#3366ff99"," "," ","1","+10","[1431.699999988079]","1","0","1","","","","","","","",""
"pit-trial","23","301267","0.0-2.0-8.0-3.0","battery-v0.2","","""event"",""trial"",""time""
""fullscreenenter"",""1"",""2138""
","
","
","""event"",""trial"",""time""
""fullscreenenter"",""1"",""2138""
","
","","","496.69999998807907","","","19","15343","2682","&#9776;","elianto","#3366ff99"," "," ","1","0","[1348.300000011921]","1","0","1","","","","","","","",""
"pit-trial","24","304618","0.0-2.0-8.0-4.0","battery-v0.2","","""event"",""trial"",""time""
""fullscreenenter"",""1"",""2138""
","
","
","""event"",""trial"",""time""
""fullscreenenter"",""1"",""2138""
","
","","","495.5","","","19","15343","2682","&#9776;","elianto","#3366ff99"," "," ","1","+10","[1346.699999988079]","1","0","1","","","","","","","",""
"pit-trial","25","308021","0.0-2.0-8.1-0.1","battery-v0.2","","""event"",""trial"",""time""
""fullscreenenter"",""1"",""2138""
","
","
","""event"",""trial"",""time""
""fullscreenenter"",""1"",""2138""
","
","","","547.5999999642372","","","19","15343","2682","&#9776;","elianto","#3366ff99"," "," ","1","+10","[1398.1000000238419]","1","0","1","","","","","","","",""
"pit-trial","26","311380","0.0-2.0-8.1-1.1","battery-v0.2","","""event"",""trial"",""time""
""fullscreenenter"",""1"",""2138""
","
","
","""event"",""trial"",""time""
""fullscreenenter"",""1"",""2138""
","
","","","503.19999998807907","","","19","15343","2682","&#9776;","elianto","#3366ff99"," "," ","1","+10","[1353.699999988079]","1","0","1","","","","","","","",""
"pit-trial","27","315053","0.0-2.0-8.1-2.1","battery-v0.2","","""event"",""trial"",""time""
""fullscreenenter"",""1"",""2138""
","
","
","""event"",""trial"",""time""
""fullscreenenter"",""1"",""2138""
","
","","","817.1999999880791","","","19","15343","2682","&#9776;","elianto","#3366ff99"," "," ","1","+10","[1668.800000011921]","1","0","1","","","","","","","",""
"pit-trial","28","318312","0.0-2.0-8.1-3.1","battery-v0.2","","""event"",""trial"",""time""
""fullscreenenter"",""1"",""2138""
","
","
","""event"",""trial"",""time""
""fullscreenenter"",""1"",""2138""
","
","","","404.9000000357628","","","19","15343","2682","&#9776;","elianto","#3366ff99"," "," ","1","0","[1255.7000000476837]","1","0","1","","","","","","","",""
"pit-trial","29","321492","0.0-2.0-8.1-4.1","battery-v0.2","","""event"",""trial"",""time""
""fullscreenenter"",""1"",""2138""
","
","
","""event"",""trial"",""time""
""fullscreenenter"",""1"",""2138""
","
","","","324","","","19","15343","2682","&#9776;","elianto","#3366ff99"," "," ","1","+10","[1175.4000000357628]","1","0","1","","","","","","","",""
"pit-trial","30","324445","0.0-2.0-8.2-0.2","battery-v0.2","","""event"",""trial"",""time""
""fullscreenenter"",""1"",""2138""
","
","
","""event"",""trial"",""time""
""fullscreenenter"",""1"",""2138""
","
","","","97.19999998807907","","","19","15343","2682","&#9776;","elianto","#3366ff99"," "," ","1","+10","[947.9000000357628]","1","0","1","","","","","","","",""
"pit-trial","31","327442","0.0-2.0-8.2-1.2","battery-v0.2","","""event"",""trial"",""time""
""fullscreenenter"",""1"",""2138""
","
","
","""event"",""trial"",""time""
""fullscreenenter"",""1"",""2138""
","
","","","140.79999995231628","","","19","15343","2682","&#9776;","elianto","#3366ff99"," "," ","1","+10","[991.8999999761581]","1","0","1","","","","","","","",""
"pit-trial","32","330473","0.0-2.0-8.2-2.2","battery-v0.2","","""event"",""trial"",""time""
""fullscreenenter"",""1"",""2138""
","
","
","""event"",""trial"",""time""
""fullscreenenter"",""1"",""2138""
","
","","","175.19999998807907","","","19","15343","2682","&#9776;","elianto","#3366ff99"," "," ","1","+10","[1026.1000000238419]","1","0","1","","","","","","","",""
"pit-trial","33","333350","0.0-2.0-8.2-3.2","battery-v0.2","","""event"",""trial"",""time""
""fullscreenenter"",""1"",""2138""
","
","
","""event"",""trial"",""time""
""fullscreenenter"",""1"",""2138""
","
","","","22.5","","","19","15343","2682","&#9776;","elianto","#3366ff99"," "," ","1","0","[872.6999999880791]","1","0","1","","","","","","","",""
"pit-trial","34","336363","0.0-2.0-8.2-4.2","battery-v0.2","","""event"",""trial"",""time""
""fullscreenenter"",""1"",""2138""
","
","
","""event"",""trial"",""time""
""fullscreenenter"",""1"",""2138""
","
","","","157.30000001192093","","","19","15343","2682","&#9776;","elianto","#3366ff99"," "," ","1","+10","[1009]","1","0","1","","","","","","","",""
"call-function","35","336365","0.0-2.0-9.0","battery-v0.2","","""event"",""trial"",""time""
""fullscreenenter"",""1"",""2138""
","
","
","""event"",""trial"",""time""
""fullscreenenter"",""1"",""2138""
","
","","","","","","","","","","","","","","","","","","","","","","","","","","",""
"pit-instructions","36","377068","0.0-2.0-10.0","battery-v0.2","","""event"",""trial"",""time""
""fullscreenenter"",""1"",""2138""
","
","
","""event"",""trial"",""time""
""fullscreenenter"",""1"",""2138""
","
","","[{""page_index"":0,""viewing_time"":6521.899999976158},{""page_index"":1,""viewing_time"":6964.699999988079},{""page_index"":2,""viewing_time"":9585.100000023842},{""page_index"":3,""viewing_time"":10197.199999988079},{""page_index"":4,""viewing_time"":7433.5}]","40702.69999998808","","","","","","","","","","","","","","","","","","","","","","","",""
"pit-trial","37","380345","0.0-2.0-11.0-0.0","battery-v0.2","","""event"",""trial"",""time""
""fullscreenenter"",""1"",""2138""
","
","
","""event"",""trial"",""time""
""fullscreenenter"",""1"",""2138""
","
","","","422.5","","","19","15343","2682","&#9761;","elianto","#3366ff99","-1"," ","0","0","[1273.7000000476837]","1","0","2","","","","","","","",""
"pit-trial","38","383524","0.0-2.0-11.0-1.0","battery-v0.2","","""event"",""trial"",""time""
""fullscreenenter"",""1"",""2138""
","
","
","""event"",""trial"",""time""
""fullscreenenter"",""1"",""2138""
","
","","","324.19999998807907","","","19","15343","2682","&#9761;","elianto","#3366ff99","-1"," ","0","0","[1175.199999988079]","1","0","2","","","","","","","",""
"pit-trial","39","388381","0.0-2.0-11.0-2.0","battery-v0.2","","""event"",""trial"",""time""
""fullscreenenter"",""1"",""2138""
","
","
","""event"",""trial"",""time""
""fullscreenenter"",""1"",""2138""
","
","","","-1","","","19","15343","2682","&#9761;","elianto","#3366ff99","-1","-1","1","+10","[]","0","0","2","","","","","","","",""
"pit-trial","40","393237","0.0-2.0-11.0-3.0","battery-v0.2","","""event"",""trial"",""time""
""fullscreenenter"",""1"",""2138""
","
","
","""event"",""trial"",""time""
""fullscreenenter"",""1"",""2138""
","
","","","-1","","","19","15343","2682","&#9761;","elianto","#3366ff99","-1","-1","1","0","[]","0","0","2","","","","","","","",""
"pit-trial","41","398093","0.0-2.0-11.0-4.0","battery-v0.2","","""event"",""trial"",""time""
""fullscreenenter"",""1"",""2138""
","
","
","""event"",""trial"",""time""
""fullscreenenter"",""1"",""2138""
","
","","","-1","","","19","15343","2682","&#9761;","elianto","#3366ff99","-1","-1","1","+10","[]","0","0","2","","","","","","","",""
"pit-trial","42","402949","0.0-2.0-11.1-0.1","battery-v0.2","","""event"",""trial"",""time""
""fullscreenenter"",""1"",""2138""
","
","
","""event"",""trial"",""time""
""fullscreenenter"",""1"",""2138""
","
","","","-1","","","19","15343","2682","&#9761;","elianto","#3366ff99","-1","-1","1","+10","[]","0","0","2","","","","","","","",""
"pit-trial","43","407805","0.0-2.0-11.1-1.1","battery-v0.2","","""event"",""trial"",""time""
""fullscreenenter"",""1"",""2138""
","
","
","""event"",""trial"",""time""
""fullscreenenter"",""1"",""2138""
","
","","","-1","","","19","15343","2682","&#9761;","elianto","#3366ff99","-1","-1","1","+10","[]","0","0","2","","","","","","","",""
"pit-trial","44","412660","0.0-2.0-11.1-2.1","battery-v0.2","","""event"",""trial"",""time""
""fullscreenenter"",""1"",""2138""
","
","
","""event"",""trial"",""time""
""fullscreenenter"",""1"",""2138""
","
","","","-1","","","19","15343","2682","&#9761;","elianto","#3366ff99","-1","-1","1","+10","[]","0","0","2","","","","","","","",""
"pit-trial","45","417516","0.0-2.0-11.1-3.1","battery-v0.2","","""event"",""trial"",""time""
""fullscreenenter"",""1"",""2138""
","
","
","""event"",""trial"",""time""
""fullscreenenter"",""1"",""2138""
","
","","","-1","","","19","15343","2682","&#9761;","elianto","#3366ff99","-1","-1","1","0","[]","0","0","2","","","","","","","",""
"pit-trial","46","422371","0.0-2.0-11.1-4.1","battery-v0.2","","""event"",""trial"",""time""
""fullscreenenter"",""1"",""2138""
","
","
","""event"",""trial"",""time""
""fullscreenenter"",""1"",""2138""
","
","","","-1","","","19","15343","2682","&#9761;","elianto","#3366ff99","-1","-1","1","+10","[]","0","0","2","","","","","","","",""
"pit-trial","47","427229","0.0-2.0-11.2-0.2","battery-v0.2","","""event"",""trial"",""time""
""fullscreenenter"",""1"",""2138""
","
","
","""event"",""trial"",""time""
""fullscreenenter"",""1"",""2138""
","
","","","-1","","","19","15343","2682","&#9761;","elianto","#3366ff99","-1","-1","1","+10","[]","0","0","2","","","","","","","",""
"pit-trial","48","432085","0.0-2.0-11.2-1.2","battery-v0.2","","""event"",""trial"",""time""
""fullscreenenter"",""1"",""2138""
","
","
","""event"",""trial"",""time""
""fullscreenenter"",""1"",""2138""
","
","","","-1","","","19","15343","2682","&#9761;","elianto","#3366ff99","-1","-1","1","+10","[]","0","0","2","","","","","","","",""
"pit-trial","49","436941","0.0-2.0-11.2-2.2","battery-v0.2","","""event"",""trial"",""time""
""fullscreenenter"",""1"",""2138""
","
","
","""event"",""trial"",""time""
""fullscreenenter"",""1"",""2138""
","
","","","-1","","","19","15343","2682","&#9761;","elianto","#3366ff99","-1","-1","1","+10","[]","0","0","2","","","","","","","",""
"pit-trial","50","441796","0.0-2.0-11.2-3.2","battery-v0.2","","""event"",""trial"",""time""
""fullscreenenter"",""1"",""2138""
","
","
","""event"",""trial"",""time""
""fullscreenenter"",""1"",""2138""
","
","","","-1","","","19","15343","2682","&#9761;","elianto","#3366ff99","-1","-1","1","0","[]","0","0","2","","","","","","","",""
"pit-trial","51","446652","0.0-2.0-11.2-4.2","battery-v0.2","","""event"",""trial"",""time""
""fullscreenenter"",""1"",""2138""
","
","
","""event"",""trial"",""time""
""fullscreenenter"",""1"",""2138""
","
","","","-1","","","19","15343","2682","&#9761;","elianto","#3366ff99","-1","-1","1","+10","[]","0","0","2","","","","","","","",""
"pit-trial","52","451509","0.0-2.0-11.3-0.3","battery-v0.2","","""event"",""trial"",""time""
""fullscreenenter"",""1"",""2138""
","
","
","""event"",""trial"",""time""
""fullscreenenter"",""1"",""2138""
","
","","","-1","","","19","15343","2682","&#9761;","elianto","#3366ff99","-1","-1","1","+10","[]","0","0","2","","","","","","","",""
"pit-trial","53","456365","0.0-2.0-11.3-1.3","battery-v0.2","","""event"",""trial"",""time""
""fullscreenenter"",""1"",""2138""
","
","
","""event"",""trial"",""time""
""fullscreenenter"",""1"",""2138""
","
","","","-1","","","19","15343","2682","&#9761;","elianto","#3366ff99","-1","-1","1","+10","[]","0","0","2","","","","","","","",""
"pit-trial","54","461222","0.0-2.0-11.3-2.3","battery-v0.2","","""event"",""trial"",""time""
""fullscreenenter"",""1"",""2138""
","
","
","""event"",""trial"",""time""
""fullscreenenter"",""1"",""2138""
","
","","","-1","","","19","15343","2682","&#9761;","elianto","#3366ff99","-1","-1","1","+10","[]","0","0","2","","","","","","","",""
"pit-trial","55","466078","0.0-2.0-11.3-3.3","battery-v0.2","","""event"",""trial"",""time""
""fullscreenenter"",""1"",""2138""
","
","
","""event"",""trial"",""time""
""fullscreenenter"",""1"",""2138""
","
","","","-1","","","19","15343","2682","&#9761;","elianto","#3366ff99","-1","-1","1","0","[]","0","0","2","","","","","","","",""
"pit-trial","56","470934","0.0-2.0-11.3-4.3","battery-v0.2","","""event"",""trial"",""time""
""fullscreenenter"",""1"",""2138""
","
","
","""event"",""trial"",""time""
""fullscreenenter"",""1"",""2138""
","
","","","-1","","","19","15343","2682","&#9761;","elianto","#3366ff99","-1","-1","1","+10","[]","0","0","2","","","","","","","",""
"call-function","57","470936","0.0-2.0-12.0","battery-v0.2","","""event"",""trial"",""time""
""fullscreenenter"",""1"",""2138""
","
","
","""event"",""trial"",""time""
""fullscreenenter"",""1"",""2138""
","
","","","","","","","","","","","","","","","","","","","","","","","","","","",""
"pit-instructions","58","502385","0.0-2.0-13.0","battery-v0.2","","""event"",""trial"",""time""
""fullscreenenter"",""1"",""2138""
","
","
","""event"",""trial"",""time""
""fullscreenenter"",""1"",""2138""
","
","","[{""page_index"":0,""viewing_time"":4697},{""page_index"":1,""viewing_time"":6949.899999976158},{""page_index"":2,""viewing_time"":4701.800000011921},{""page_index"":3,""viewing_time"":10320.399999976158},{""page_index"":4,""viewing_time"":4779.800000011921}]","31449.099999964237","","","","","","","","","","","","","","","","","","","","","","","",""
"pit-trial","59","505839","0.0-2.0-14.0-0.0","battery-v0.2","","""event"",""trial"",""time""
""fullscreenenter"",""1"",""2138""
","
","
","""event"",""trial"",""time""
""fullscreenenter"",""1"",""2138""
","
","","","599.1999999880791","","","19","15343","2682","&#9826;","elianto","#f73b6a7A","-1"," ","0","-10","[1450.0999999642372]","1","0","3","","","","","","","",""
"pit-trial","60","509233","0.0-2.0-14.0-1.0","battery-v0.2","","""event"",""trial"",""time""
""fullscreenenter"",""1"",""2138""
","
","
","""event"",""trial"",""time""
""fullscreenenter"",""1"",""2138""
","
","","","538.8999999761581","","","19","15343","2682","&#9826;","elianto","#f73b6a7A","-1"," ","0","-10","[1390]","1","0","3","","","","","","","",""
"pit-trial","61","514090","0.0-2.0-14.0-2.0","battery-v0.2","","""event"",""trial"",""time""
""fullscreenenter"",""1"",""2138""
","
","
","""event"",""trial"",""time""
""fullscreenenter"",""1"",""2138""
","
","","","-1","","","19","15343","2682","&#9826;","elianto","#f73b6a7A","-1","-1","1","0","[]","0","0","3","","","","","","","",""
"pit-trial","62","518945","0.0-2.0-14.0-3.0","battery-v0.2","","""event"",""trial"",""time""
""fullscreenenter"",""1"",""2138""
","
","
","""event"",""trial"",""time""
""fullscreenenter"",""1"",""2138""
","
","","","-1","","","19","15343","2682","&#9826;","elianto","#f73b6a7A","-1","-1","1","-10","[]","0","0","3","","","","","","","",""
"pit-trial","63","523799","0.0-2.0-14.0-4.0","battery-v0.2","","""event"",""trial"",""time""
""fullscreenenter"",""1"",""2138""
","
","
","""event"",""trial"",""time""
""fullscreenenter"",""1"",""2138""
","
","","","-1","","","19","15343","2682","&#9826;","elianto","#f73b6a7A","-1","-1","1","0","[]","0","0","3","","","","","","","",""
"pit-trial","64","528658","0.0-2.0-14.1-0.1","battery-v0.2","","""event"",""trial"",""time""
""fullscreenenter"",""1"",""2138""
","
","
","""event"",""trial"",""time""
""fullscreenenter"",""1"",""2138""
","
","","","-1","","","19","15343","2682","&#9826;","elianto","#f73b6a7A","-1","-1","1","0","[]","0","0","3","","","","","","","",""
"pit-trial","65","533514","0.0-2.0-14.1-1.1","battery-v0.2","","""event"",""trial"",""time""
""fullscreenenter"",""1"",""2138""
","
","
","""event"",""trial"",""time""
""fullscreenenter"",""1"",""2138""
","
","","","-1","","","19","15343","2682","&#9826;","elianto","#f73b6a7A","-1","-1","1","0","[]","0","0","3","","","","","","","",""
"pit-trial","66","538369","0.0-2.0-14.1-2.1","battery-v0.2","","""event"",""trial"",""time""
""fullscreenenter"",""1"",""2138""
","
","
","""event"",""trial"",""time""
""fullscreenenter"",""1"",""2138""
","
","","","-1","","","19","15343","2682","&#9826;","elianto","#f73b6a7A","-1","-1","1","0","[]","0","0","3","","","","","","","",""
"pit-trial","67","543225","0.0-2.0-14.1-3.1","battery-v0.2","","""event"",""trial"",""time""
""fullscreenenter"",""1"",""2138""
","
","
","""event"",""trial"",""time""
""fullscreenenter"",""1"",""2138""
","
","","","-1","","","19","15343","2682","&#9826;","elianto","#f73b6a7A","-1","-1","1","-10","[]","0","0","3","","","","","","","",""
"pit-trial","68","548080","0.0-2.0-14.1-4.1","battery-v0.2","","""event"",""trial"",""time""
""fullscreenenter"",""1"",""2138""
","
","
","""event"",""trial"",""time""
""fullscreenenter"",""1"",""2138""
","
","","","-1","","","19","15343","2682","&#9826;","elianto","#f73b6a7A","-1","-1","1","0","[]","0","0","3","","","","","","","",""
"pit-trial","69","552938","0.0-2.0-14.2-0.2","battery-v0.2","","""event"",""trial"",""time""
""fullscreenenter"",""1"",""2138""
","
","
","""event"",""trial"",""time""
""fullscreenenter"",""1"",""2138""
","
","","","-1","","","19","15343","2682","&#9826;","elianto","#f73b6a7A","-1","-1","1","0","[]","0","0","3","","","","","","","",""
"pit-trial","70","557794","0.0-2.0-14.2-1.2","battery-v0.2","","""event"",""trial"",""time""
""fullscreenenter"",""1"",""2138""
","
","
","""event"",""trial"",""time""
""fullscreenenter"",""1"",""2138""
","
","","","-1","","","19","15343","2682","&#9826;","elianto","#f73b6a7A","-1","-1","1","0","[]","0","0","3","","","","","","","",""
"pit-trial","71","562650","0.0-2.0-14.2-2.2","battery-v0.2","","""event"",""trial"",""time""
""fullscreenenter"",""1"",""2138""
","
","
","""event"",""trial"",""time""
""fullscreenenter"",""1"",""2138""
","
","","","-1","","","19","15343","2682","&#9826;","elianto","#f73b6a7A","-1","-1","1","0","[]","0","0","3","","","","","","","",""
"pit-trial","72","567505","0.0-2.0-14.2-3.2","battery-v0.2","","""event"",""trial"",""time""
""fullscreenenter"",""1"",""2138""
","
","
","""event"",""trial"",""time""
""fullscreenenter"",""1"",""2138""
","
","","","-1","","","19","15343","2682","&#9826;","elianto","#f73b6a7A","-1","-1","1","-10","[]","0","0","3","","","","","","","",""
"pit-trial","73","572361","0.0-2.0-14.2-4.2","battery-v0.2","","""event"",""trial"",""time""
""fullscreenenter"",""1"",""2138""
","
","
","""event"",""trial"",""time""
""fullscreenenter"",""1"",""2138""
","
","","","-1","","","19","15343","2682","&#9826;","elianto","#f73b6a7A","-1","-1","1","0","[]","0","0","3","","","","","","","",""
"pit-trial","74","577217","0.0-2.0-14.3-0.3","battery-v0.2","","""event"",""trial"",""time""
""fullscreenenter"",""1"",""2138""
","
","
","""event"",""trial"",""time""
""fullscreenenter"",""1"",""2138""
","
","","","-1","","","19","15343","2682","&#9826;","elianto","#f73b6a7A","-1","-1","1","0","[]","0","0","3","","","","","","","",""
"pit-trial","75","581158","0.0-2.0-14.3-1.3","battery-v0.2","","""event"",""trial"",""time""
""fullscreenenter"",""1"",""2138""
","
","
","""event"",""trial"",""time""
""fullscreenenter"",""1"",""2138""
","
","","","1085","","","19","15343","2682","&#9826;","elianto","#f73b6a7A","-1"," ","0","-10","[1936.2999999523163]","1","0","3","","","","","","","",""
"pit-trial","76","586013","0.0-2.0-14.3-2.3","battery-v0.2","","""event"",""trial"",""time""
""fullscreenenter"",""1"",""2138""
","
","
","""event"",""trial"",""time""
""fullscreenenter"",""1"",""2138""
","
","","","-1","","","19","15343","2682","&#9826;","elianto","#f73b6a7A","-1","-1","1","0","[]","0","0","3","","","","","","","",""
"pit-trial","77","590870","0.0-2.0-14.3-3.3","battery-v0.2","","""event"",""trial"",""time""
""fullscreenenter"",""1"",""2138""
","
","
","""event"",""trial"",""time""
""fullscreenenter"",""1"",""2138""
","
","","","-1","","","19","15343","2682","&#9826;","elianto","#f73b6a7A","-1","-1","1","-10","[]","0","0","3","","","","","","","",""
"pit-trial","78","595726","0.0-2.0-14.3-4.3","battery-v0.2","","""event"",""trial"",""time""
""fullscreenenter"",""1"",""2138""
","
","
","""event"",""trial"",""time""
""fullscreenenter"",""1"",""2138""
","
","","","-1","","","19","15343","2682","&#9826;","elianto","#f73b6a7A","-1","-1","1","0","[]","0","0","3","","","","","","","",""
"call-function","79","595729","0.0-2.0-15.0","battery-v0.2","","""event"",""trial"",""time""
""fullscreenenter"",""1"",""2138""
","
","
","""event"",""trial"",""time""
""fullscreenenter"",""1"",""2138""
","
","","","","","","","","","","","","","","","","","","","","","","","","","","",""
"pit-instructions","80","619816","0.0-2.0-16.0","battery-v0.2","","""event"",""trial"",""time""
""fullscreenenter"",""1"",""2138""
","
","
","""event"",""trial"",""time""
""fullscreenenter"",""1"",""2138""
","
","","[{""page_index"":0,""viewing_time"":6321.800000011921},{""page_index"":1,""viewing_time"":8401.899999976158},{""page_index"":2,""viewing_time"":4548.800000011921},{""page_index"":3,""viewing_time"":4814}]","24086.80000001192","","","","","","","","","","","","","","","","","","","","","","","",""
"pit-trial","81","623106","0.0-2.0-17.0-0.0","battery-v0.2","","""event"",""trial"",""time""
""fullscreenenter"",""1"",""2138""
","
","
","""event"",""trial"",""time""
""fullscreenenter"",""1"",""2138""
","
","","","436","","","19","15343","2682","&#9789;","elianto","#f73b6a7A"," "," ","1","0","[1287.6000000238419]","1","0","4","","","","","","","",""
"pit-trial","82","626142","0.0-2.0-17.0-1.0","battery-v0.2","","""event"",""trial"",""time""
""fullscreenenter"",""1"",""2138""
","
","
","""event"",""trial"",""time""
""fullscreenenter"",""1"",""2138""
","
","","","181.39999997615814","","","19","15343","2682","&#9789;","elianto","#f73b6a7A"," "," ","1","0","[1032.5]","1","0","4","","","","","","","",""
"pit-trial","83","629298","0.0-2.0-17.0-2.0","battery-v0.2","","""event"",""trial"",""time""
""fullscreenenter"",""1"",""2138""
","
","
","""event"",""trial"",""time""
""fullscreenenter"",""1"",""2138""
","
","","","299.9000000357628","","","19","15343","2682","&#9789;","elianto","#f73b6a7A"," "," ","1","0","[1151.199999988079]","1","0","4","","","","","","","",""
"pit-trial","84","632219","0.0-2.0-17.0-3.0","battery-v0.2","","""event"",""trial"",""time""
""fullscreenenter"",""1"",""2138""
","
","
","""event"",""trial"",""time""
""fullscreenenter"",""1"",""2138""
","
","","","64.69999998807907","","","19","15343","2682","&#9789;","elianto","#f73b6a7A"," "," ","1","-10","[916.1999999880791]","1","0","4","","","","","","","",""
"pit-trial","85","635134","0.0-2.0-17.0-4.0","battery-v0.2","","""event"",""trial"",""time""
""fullscreenenter"",""1"",""2138""
","
","
","""event"",""trial"",""time""
""fullscreenenter"",""1"",""2138""
","
","","","61.10000002384186","","","19","15343","2682","&#9789;","elianto","#f73b6a7A"," "," ","1","0","[911.8000000119209]","1","0","4","","","","","","","",""
"pit-trial","86","638096","0.0-2.0-17.1-0.1","battery-v0.2","","""event"",""trial"",""time""
""fullscreenenter"",""1"",""2138""
","
","
","""event"",""trial"",""time""
""fullscreenenter"",""1"",""2138""
","
","","","107.80000001192093","","","19","15343","2682","&#9789;","elianto","#f73b6a7A"," "," ","1","0","[958.1000000238419]","1","0","4","","","","","","","",""
"pit-trial","87","641036","0.0-2.0-17.1-1.1","battery-v0.2","","""event"",""trial"",""time""
""fullscreenenter"",""1"",""2138""
","
","
","""event"",""trial"",""time""
""fullscreenenter"",""1"",""2138""
","
","","","83.39999997615814","","","19","15343","2682","&#9789;","elianto","#f73b6a7A"," "," ","1","0","[935.2999999523163]","1","0","4","","","","","","","",""
"pit-trial","88","643913","0.0-2.0-17.1-2.1","battery-v0.2","","""event"",""trial"",""time""
""fullscreenenter"",""1"",""2138""
","
","
","""event"",""trial"",""time""
""fullscreenenter"",""1"",""2138""
","
","","","22.19999998807907","","","19","15343","2682","&#9789;","elianto","#f73b6a7A"," "," ","1","0","[872.6000000238419]","1","0","4","","","","","","","",""
"pit-trial","89","646793","0.0-2.0-17.1-3.1","battery-v0.2","","""event"",""trial"",""time""
""fullscreenenter"",""1"",""2138""
","
","
","""event"",""trial"",""time""
""fullscreenenter"",""1"",""2138""
","
","","","24.399999976158142","","","19","15343","2682","&#9789;","elianto","#f73b6a7A"," "," ","1","-10","[876]","1","0","4","","","","","","","",""
"pit-trial","90","649728","0.0-2.0-17.1-4.1","battery-v0.2","","""event"",""trial"",""time""
""fullscreenenter"",""1"",""2138""
","
","
","""event"",""trial"",""time""
""fullscreenenter"",""1"",""2138""
","
","","","79.69999998807907","","","19","15343","2682","&#9789;","elianto","#f73b6a7A"," "," ","1","0","[931.5]","1","0","4","","","","","","","",""
"pit-trial","91","652725","0.0-2.0-17.2-0.2","battery-v0.2","","""event"",""trial"",""time""
""fullscreenenter"",""1"",""2138""
","
","
","""event"",""trial"",""time""
""fullscreenenter"",""1"",""2138""
","
","","","140.30000001192093","","","19","15343","2682","&#9789;","elianto","#f73b6a7A"," "," ","1","0","[991.8000000119209]","1","0","4","","","","","","","",""
"pit-trial","92","655618","0.0-2.0-17.2-1.2","battery-v0.2","","""event"",""trial"",""time""
""fullscreenenter"",""1"",""2138""
","
","
","""event"",""trial"",""time""
""fullscreenenter"",""1"",""2138""
","
","","","37.30000001192093","","","19","15343","2682","&#9789;","elianto","#f73b6a7A"," "," ","1","0","[888.3000000119209]","1","0","4","","","","","","","",""
"pit-trial","93","658500","0.0-2.0-17.2-2.2","battery-v0.2","","""event"",""trial"",""time""
""fullscreenenter"",""1"",""2138""
","
","
","""event"",""trial"",""time""
""fullscreenenter"",""1"",""2138""
","
","","","27.700000047683716","","","19","15343","2682","&#9789;","elianto","#f73b6a7A"," "," ","1","0","[878.5]","1","0","4","","","","","","","",""
"pit-trial","94","661461","0.0-2.0-17.2-3.2","battery-v0.2","","""event"",""trial"",""time""
""fullscreenenter"",""1"",""2138""
","
","
","""event"",""trial"",""time""
""fullscreenenter"",""1"",""2138""
","
","","","106.10000002384186","","","19","15343","2682","&#9789;","elianto","#f73b6a7A"," "," ","1","-10","[956.8000000119209]","1","0","4","","","","","","","",""
"pit-trial","95","664354","0.0-2.0-17.2-4.2","battery-v0.2","","""event"",""trial"",""time""
""fullscreenenter"",""1"",""2138""
","
","
","""event"",""trial"",""time""
""fullscreenenter"",""1"",""2138""
","
","","","35.89999997615814","","","19","15343","2682","&#9789;","elianto","#f73b6a7A"," "," ","1","0","[887.8000000119209]","1","0","4","","","","","","","",""
"pit-trial","96","668284","0.0-2.0-17.3-0.3","battery-v0.2","","""event"",""trial"",""time""
""fullscreenenter"",""1"",""2138""
","
","
","""event"",""trial"",""time""
""fullscreenenter"",""1"",""2138""
","
","","","1073.699999988079","","","19","15343","2682","&#9789;","elianto","#f73b6a7A"," "," ","1","0","[836.9000000357628,1924.4000000357628]","2","0","4","","","","","","","",""
"pit-trial","97","671389","0.0-2.0-17.3-1.3","battery-v0.2","","""event"",""trial"",""time""
""fullscreenenter"",""1"",""2138""
","
","
","""event"",""trial"",""time""
""fullscreenenter"",""1"",""2138""
","
","","","248.89999997615814","","","19","15343","2682","&#9789;","elianto","#f73b6a7A"," "," ","1","0","[1100.699999988079]","1","0","4","","","","","","","",""
"pit-trial","98","674482","0.0-2.0-17.3-2.3","battery-v0.2","","""event"",""trial"",""time""
""fullscreenenter"",""1"",""2138""
","
","
","""event"",""trial"",""time""
""fullscreenenter"",""1"",""2138""
","
","","","236.5999999642372","","","19","15343","2682","&#9789;","elianto","#f73b6a7A"," "," ","1","0","[1088.0999999642372]","1","0","4","","","","","","","",""
"pit-trial","99","677501","0.0-2.0-17.3-3.3","battery-v0.2","","""event"",""trial"",""time""
""fullscreenenter"",""1"",""2138""
","
","
","""event"",""trial"",""time""
""fullscreenenter"",""1"",""2138""
","
","","","164.89999997615814","","","19","15343","2682","&#9789;","elianto","#f73b6a7A"," "," ","1","-10","[1015.3000000119209]","1","0","4","","","","","","","",""
"pit-trial","100","680427","0.0-2.0-17.3-4.3","battery-v0.2","","""event"",""trial"",""time""
""fullscreenenter"",""1"",""2138""
","
","
","""event"",""trial"",""time""
""fullscreenenter"",""1"",""2138""
","
","","","70.80000001192093","","","19","15343","2682","&#9789;","elianto","#f73b6a7A"," "," ","1","0","[921.7000000476837]","1","0","4","","","","","","","",""
"call-function","101","680430","0.0-2.0-18.0","battery-v0.2","","""event"",""trial"",""time""
""fullscreenenter"",""1"",""2138""
","
","
","""event"",""trial"",""time""
""fullscreenenter"",""1"",""2138""
","
","","","","","","","","","","","","","","","","","","","","","","","","","","",""
"pit-instructions","102","746832","0.0-2.0-19.0","battery-v0.2","","""event"",""trial"",""time""
""fullscreenenter"",""1"",""2138""
","
","
","""event"",""trial"",""time""
""fullscreenenter"",""1"",""2138""
","
","","[{""page_index"":0,""viewing_time"":6101.100000023842},{""page_index"":1,""viewing_time"":5404.899999976158},{""page_index"":2,""viewing_time"":12912.400000035763},{""page_index"":3,""viewing_time"":6866.800000011921},{""page_index"":4,""viewing_time"":8052.799999952316},{""page_index"":5,""viewing_time"":8964.100000023842},{""page_index"":6,""viewing_time"":8433.399999976158},{""page_index"":7,""viewing_time"":5783.700000047684},{""page_index"":8,""viewing_time"":3882.7999999523163}]","66402.30000001192","","","","","","","","","","","","","","","","","","","","","","","",""
"pit-comprehension","103","751050","0.0-2.0-20.0-0.0","battery-v0.2","","""event"",""trial"",""time""
""fullscreenenter"",""1"",""2138""
","
","
","""event"",""trial"",""time""
""fullscreenenter"",""1"",""2138""
","
","","","4212.899999976158","[""SPACE""]","0","19","15343","2682","","","","","","","","","","","","","","","","","","",""
"pit-instructions","104","753649","0.0-2.0-20.0-1.0","battery-v0.2","","""event"",""trial"",""time""
""fullscreenenter"",""1"",""2138""
","
","
","""event"",""trial"",""time""
""fullscreenenter"",""1"",""2138""
","
","","[{""page_index"":0,""viewing_time"":2581.099999964237}]","2581.300000011921","","","","","","","","","","","","","","","","","","","","","","","",""
"pit-comprehension","105","758683","0.0-2.0-21.0-0.0","battery-v0.2","","""event"",""trial"",""time""
""fullscreenenter"",""1"",""2138""
","
","
","""event"",""trial"",""time""
""fullscreenenter"",""1"",""2138""
","
","","","5032.300000011921","[""10""]","0","19","15343","2682","","","","","","","","","","","","","","","","","","",""
"pit-instructions","106","760885","0.0-2.0-21.0-1.0","battery-v0.2","","""event"",""trial"",""time""
""fullscreenenter"",""1"",""2138""
","
","
","""event"",""trial"",""time""
""fullscreenenter"",""1"",""2138""
","
","","[{""page_index"":0,""viewing_time"":2184.900000035763}]","2185.2000000476837","","","","","","","","","","","","","","","","","","","","","","","",""
"pit-comprehension","107","767218","0.0-2.0-22.0-0.0","battery-v0.2","","""event"",""trial"",""time""
""fullscreenenter"",""1"",""2138""
","
","
","""event"",""trial"",""time""
""fullscreenenter"",""1"",""2138""
","
","","","6331.699999988079","[""0""]","0","19","15343","2682","","","","","","","","","","","","","","","","","","",""
"pit-instructions","108","769015","0.0-2.0-22.0-1.0","battery-v0.2","","""event"",""trial"",""time""
""fullscreenenter"",""1"",""2138""
","
","
","""event"",""trial"",""time""
""fullscreenenter"",""1"",""2138""
","
","","[{""page_index"":0,""viewing_time"":1778.800000011921}]","1778.9000000357628","","","","","","","","","","","","","","","","","","","","","","","",""
"pit-comprehension","109","777366","0.0-2.0-23.0-0.0","battery-v0.2","","""event"",""trial"",""time""
""fullscreenenter"",""1"",""2138""
","
","
","""event"",""trial"",""time""
""fullscreenenter"",""1"",""2138""
","
","","","8348.5","[""False""]","1","19","15343","2682","","","","","","","","","","","","","","","","","","",""
"pit-instructions","110","779115","0.0-2.0-23.0-1.0","battery-v0.2","","""event"",""trial"",""time""
""fullscreenenter"",""1"",""2138""
","
","
","""event"",""trial"",""time""
""fullscreenenter"",""1"",""2138""
","
","","[{""page_index"":0,""viewing_time"":1732.4000000357628}]","1732.5","","","","","","","","","","","","","","","","","","","","","","","",""
"pit-instructions","111","780498","0.0-2.0-23.0-2.0-0.0","battery-v0.2","","""event"",""trial"",""time""
""fullscreenenter"",""1"",""2138""
","
","
","""event"",""trial"",""time""
""fullscreenenter"",""1"",""2138""
","
","","[{""page_index"":0,""viewing_time"":1382.300000011921}]","1382.3999999761581","","","","","","","","","","","","","","","","","","","","","","","",""
"pit-comprehension","112","788715","0.0-2.0-23.1-0.1","battery-v0.2","","""event"",""trial"",""time""
""fullscreenenter"",""1"",""2138""
","
","
","""event"",""trial"",""time""
""fullscreenenter"",""1"",""2138""
","
","","","8215.800000011921","[""True""]","0","19","15343","2682","","","","","","","","","","","","","","","","","","",""
"pit-instructions","113","790165","0.0-2.0-23.1-1.1","battery-v0.2","","""event"",""trial"",""time""
""fullscreenenter"",""1"",""2138""
","
","
","""event"",""trial"",""time""
""fullscreenenter"",""1"",""2138""
","
","","[{""page_index"":0,""viewing_time"":1429.6000000238419}]","1429.800000011921","","","","","","","","","","","","","","","","","","","","","","","",""
"pit-comprehension","114","797399","0.0-2.0-24.0-0.0","battery-v0.2","","""event"",""trial"",""time""
""fullscreenenter"",""1"",""2138""
","
","
","""event"",""trial"",""time""
""fullscreenenter"",""1"",""2138""
","
","","","7232.5","[""True""]","0","19","15343","2682","","","","","","","","","","","","","","","","","","",""
"pit-instructions","115","798816","0.0-2.0-24.0-1.0","battery-v0.2","","""event"",""trial"",""time""
""fullscreenenter"",""1"",""2138""
","
","
","""event"",""trial"",""time""
""fullscreenenter"",""1"",""2138""
","
","","[{""page_index"":0,""viewing_time"":1398.6000000238419}]","1398.699999988079","","","","","","","","","","","","","","","","","","","","","","","",""
"pit-comprehension","116","805086","0.0-2.0-25.0-0.0","battery-v0.2","","""event"",""trial"",""time""
""fullscreenenter"",""1"",""2138""
","
","
","""event"",""trial"",""time""
""fullscreenenter"",""1"",""2138""
","
","","","6268.100000023842","[""True""]","0","19","15343","2682","","","","","","","","","","","","","","","","","","",""
"pit-instructions","117","806482","0.0-2.0-25.0-1.0","battery-v0.2","","""event"",""trial"",""time""
""fullscreenenter"",""1"",""2138""
","
","
","""event"",""trial"",""time""
""fullscreenenter"",""1"",""2138""
","
","","[{""page_index"":0,""viewing_time"":1376.6000000238419}]","1376.800000011921","","","","","","","","","","","","","","","","","","","","","","","",""
"pit-comprehension","118","811049","0.0-2.0-26.0-0.0","battery-v0.2","","""event"",""trial"",""time""
""fullscreenenter"",""1"",""2138""
","
","
","""event"",""trial"",""time""
""fullscreenenter"",""1"",""2138""
","
","","","4565.199999988079","[""False""]","0","19","15343","2682","","","","","","","","","","","","","","","","","","",""
"pit-instructions","119","812465","0.0-2.0-26.0-1.0","battery-v0.2","","""event"",""trial"",""time""
""fullscreenenter"",""1"",""2138""
","
","
","""event"",""trial"",""time""
""fullscreenenter"",""1"",""2138""
","
","","[{""page_index"":0,""viewing_time"":1397.2000000476837}]","1397.4000000357628","","","","","","","","","","","","","","","","","","","","","","","",""
"pit-instructions","120","827965","0.0-3.0","battery-v0.2","","""event"",""trial"",""time""
""fullscreenenter"",""1"",""2138""
","
","
","""event"",""trial"",""time""
""fullscreenenter"",""1"",""2138""
","
","","[{""page_index"":0,""viewing_time"":3499.100000023842},{""page_index"":1,""viewing_time"":5067},{""page_index"":2,""viewing_time"":6932.899999976158}]","15499.100000023842","","","","","","","","","","","","","","","","","","","","","","","",""
"pit-trial","121","831825","0.0-4.0","battery-v0.2","","""event"",""trial"",""time""
""fullscreenenter"",""1"",""2138""
","
","
","""event"",""trial"",""time""
""fullscreenenter"",""1"",""2138""
","
","","","1003.5","","","19","15343","2682","&#9728;","elianto","#f73b6a7A","-1"," ","0","-10","[1855.5999999642372]","1","1","","","15343","1","0","4","lose","no-go","0"
"pit-trial","122","835396","0.0-5.0","battery-v0.2","","""event"",""trial"",""time""
""fullscreenenter"",""1"",""2138""
","
","
","""event"",""trial"",""time""
""fullscreenenter"",""1"",""2138""
","
","","","714.3999999761581","","","19","15343","2682","&#9733;","elianto","#3366ff99","-1"," ","0","0","[1565.6000000238419]","1","1","","","15343","2","2","2","win","no-go","0"
"pit-trial","123","839081","0.0-6.0","battery-v0.2","","""event"",""trial"",""time""
""fullscreenenter"",""1"",""2138""
","
","
","""event"",""trial"",""time""
""fullscreenenter"",""1"",""2138""
","
","","","828.9000000357628","","","19","15343","2682","&#9730;","elianto","#3366ff99"," "," ","1","+10","[1679.6000000238419]","1","1","","","15343","3","1","1","win","go","0"
"pit-trial","124","843022","0.0-7.0","battery-v0.2","","""event"",""trial"",""time""
""fullscreenenter"",""1"",""2138""
","
","
","""event"",""trial"",""time""
""fullscreenenter"",""1"",""2138""
","
","","","1084.8999999761581","","","19","15343","2682","&#9752;","elianto","#f73b6a7A"," "," ","1","0","[1936]","1","1","","","15343","4","3","3","lose","go","0"
"pit-trial","125","847879","0.0-8.0","battery-v0.2","","""event"",""trial"",""time""
""fullscreenenter"",""1"",""2138""
","
","
","""event"",""trial"",""time""
""fullscreenenter"",""1"",""2138""
","
","","","-1","","","19","15343","2682","&#9728;","elianto","#f73b6a7A","-1","-1","1","-10","[]","0","1","","","15343","5","0","4","lose","no-go","1"
"pit-trial","126","852176","0.0-9.0","battery-v0.2","","""event"",""trial"",""time""
""fullscreenenter"",""1"",""2138""
","
","
","""event"",""trial"",""time""
""fullscreenenter"",""1"",""2138""
","
","","","1441.8999999761581","","","19","15343","2682","&#9752;","elianto","#f73b6a7A"," "," ","1","0","[2293]","1","1","","","15343","6","3","3","lose","go","0"
"pit-trial","127","856214","0.0-10.0","battery-v0.2","","""event"",""trial"",""time""
""fullscreenenter"",""1"",""2138""
","
","
","""event"",""trial"",""time""
""fullscreenenter"",""1"",""2138""
","
","","","1181.8999999761581","","","19","15343","2682","&#9733;","elianto","#3366ff99","-1"," ","0","+10","[2033]","1","1","","","15343","7","2","2","win","no-go","1"
"pit-trial","128","861070","0.0-11.0","battery-v0.2","","""event"",""trial"",""time""
""fullscreenenter"",""1"",""2138""
","
","
","""event"",""trial"",""time""
""fullscreenenter"",""1"",""2138""
","
","","","-1","","","19","15343","2682","&#9730;","elianto","#3366ff99"," ","-1","0","0","[]","0","1","","","15343","8","1","1","win","go","0"
"pit-trial","129","864752","0.0-12.0","battery-v0.2","","""event"",""trial"",""time""
""fullscreenenter"",""1"",""2138""
","
","
","""event"",""trial"",""time""
""fullscreenenter"",""1"",""2138""
","
","","","825.1000000238419","","","19","15343","2682","&#9728;","elianto","#f73b6a7A","-1"," ","0","-10","[1676.5]","1","1","","","15343","9","0","4","lose","no-go","0"
"pit-trial","130","868288","0.0-13.0","battery-v0.2","","""event"",""trial"",""time""
""fullscreenenter"",""1"",""2138""
","
","
","""event"",""trial"",""time""
""fullscreenenter"",""1"",""2138""
","
","","","681.1000000238419","","","19","15343","2682","&#9733;","elianto","#3366ff99","-1"," ","0","0","[138.39999997615814,1531.5]","2","1","","","15343","10","2","2","win","no-go","0"
"pit-trial","131","871966","0.0-14.0","battery-v0.2","","""event"",""trial"",""time""
""fullscreenenter"",""1"",""2138""
","
","
","""event"",""trial"",""time""
""fullscreenenter"",""1"",""2138""
","
","","","822.7000000476837","","","19","15343","2682","&#9752;","elianto","#f73b6a7A"," "," ","1","-10","[1673.3999999761581]","1","1","","","15343","11","3","3","lose","go","1"
"pit-trial","132","876823","0.0-15.0","battery-v0.2","","""event"",""trial"",""time""
""fullscreenenter"",""1"",""2138""
","
","
","""event"",""trial"",""time""
""fullscreenenter"",""1"",""2138""
","
","","","-1","","","19","15343","2682","&#9730;","elianto","#3366ff99"," ","-1","0","+10","[]","0","1","","","15343","12","1","1","win","go","1"
"pit-trial","133","880334","0.0-16.0","battery-v0.2","","""event"",""trial"",""time""
""fullscreenenter"",""1"",""2138""
","
","
","""event"",""trial"",""time""
""fullscreenenter"",""1"",""2138""
","
","","","655","","","19","15343","2682","&#9733;","elianto","#3366ff99","-1"," ","0","0","[1506.2999999523163]","1","1","","","15343","13","2","2","win","no-go","0"
"pit-trial","134","885190","0.0-17.0","battery-v0.2","","""event"",""trial"",""time""
""fullscreenenter"",""1"",""2138""
","
","
","""event"",""trial"",""time""
""fullscreenenter"",""1"",""2138""
","
","","","-1","","","19","15343","2682","&#9730;","elianto","#3366ff99"," ","-1","0","0","[4353.100000023842]","1","1","","","15343","14","1","1","win","go","0"
"pit-trial","135","889315","0.0-18.0","battery-v0.2","","""event"",""trial"",""time""
""fullscreenenter"",""1"",""2138""
","
","
","""event"",""trial"",""time""
""fullscreenenter"",""1"",""2138""
","
","","","1268.800000011921","","","19","15343","2682","&#9728;","elianto","#f73b6a7A","-1"," ","0","0","[2120.5]","1","1","","","15343","15","0","4","lose","no-go","1"
"pit-trial","136","892965","0.0-19.0","battery-v0.2","","""event"",""trial"",""time""
""fullscreenenter"",""1"",""2138""
","
","
","""event"",""trial"",""time""
""fullscreenenter"",""1"",""2138""
","
","","","793.8000000119209","","","19","15343","2682","&#9752;","elianto","#f73b6a7A"," "," ","1","0","[1645.1000000238419]","1","1","","","15343","16","3","3","lose","go","0"
"pit-trial","137","896562","0.0-20.0","battery-v0.2","","""event"",""trial"",""time""
""fullscreenenter"",""1"",""2138""
","
","
","""event"",""trial"",""time""
""fullscreenenter"",""1"",""2138""
","
","","","740.7999999523163","","","19","15343","2682","&#9733;","elianto","#3366ff99","-1"," ","0","0","[1592.300000011921]","1","1","","","15343","17","2","2","win","no-go","0"
"pit-trial","138","900259","0.0-21.0","battery-v0.2","","""event"",""trial"",""time""
""fullscreenenter"",""1"",""2138""
","
","
","""event"",""trial"",""time""
""fullscreenenter"",""1"",""2138""
","
","","","841.5","","","19","15343","2682","&#9728;","elianto","#f73b6a7A","-1"," ","0","-10","[1692.800000011921]","1","1","","","15343","18","0","4","lose","no-go","0"
"pit-trial","139","904163","0.0-22.0","battery-v0.2","","""event"",""trial"",""time""
""fullscreenenter"",""1"",""2138""
","
","
","""event"",""trial"",""time""
""fullscreenenter"",""1"",""2138""
","
","","","1050.6000000238419","","","19","15343","2682","&#9752;","elianto","#f73b6a7A"," "," ","1","0","[1901.699999988079]","1","1","","","15343","19","3","3","lose","go","0"
"pit-trial","140","909020","0.0-23.0","battery-v0.2","","""event"",""trial"",""time""
""fullscreenenter"",""1"",""2138""
","
","
","""event"",""trial"",""time""
""fullscreenenter"",""1"",""2138""
","
","","","-1","","","19","15343","2682","&#9730;","elianto","#3366ff99"," ","-1","0","0","[]","0","1","","","15343","20","1","1","win","go","0"
"pit-instructions","141","972731","0.0-24.0","battery-v0.2","","""event"",""trial"",""time""
""fullscreenenter"",""1"",""2138""
","
","
","""event"",""trial"",""time""
""fullscreenenter"",""1"",""2138""
","
","","[{""page_index"":0,""viewing_time"":5975.199999988079},{""page_index"":1,""viewing_time"":57734.69999998808}]","63710.09999996424","","","","","","","","","","","","","","","","","","","","","","","",""
"pit-trial","142","976750","0.0-25.0","battery-v0.2","","""event"",""trial"",""time""
""fullscreenenter"",""1"",""2138""
","
","
","""event"",""trial"",""time""
""fullscreenenter"",""1"",""2138""
","
","","","1165.199999988079","","","19","15343","2682","l","elianto","#3366ff99"," "," ","1","+10","[2015.800000011921]","1","2","","","15343","21","1","1","win","go","0"
"pit-trial","143","981605","0.0-26.0","battery-v0.2","","""event"",""trial"",""time""
""fullscreenenter"",""1"",""2138""
","
","
","""event"",""trial"",""time""
""fullscreenenter"",""1"",""2138""
","
","","","-1","","","19","15343","2682","a","elianto","#f73b6a7A","-1","-1","1","0","[]","0","2","","","15343","22","2","4","lose","no-go","0"
"pit-trial","144","986462","0.0-27.0","battery-v0.2","","""event"",""trial"",""time""
""fullscreenenter"",""1"",""2138""
","
","
","""event"",""trial"",""time""
""fullscreenenter"",""1"",""2138""
","
","","","-1","","","19","15343","2682","u","elianto","#f73b6a7A","-1","-1","1","0","[3034.099999964237]","1","2","","","15343","23","0","4","lose","no-go","0"
"pit-trial","145","990334","0.0-28.0","battery-v0.2","","""event"",""trial"",""time""
""fullscreenenter"",""1"",""2138""
","
","
","""event"",""trial"",""time""
""fullscreenenter"",""1"",""2138""
","
","","","1017.0999999642372","","","19","15343","2682","g","elianto","#f73b6a7A"," "," ","1","0","[1867.7999999523163]","1","2","","","15343","24","3","3","lose","go","0"
"pit-trial","146","994596","0.0-29.0","battery-v0.2","","""event"",""trial"",""time""
""fullscreenenter"",""1"",""2138""
","
","
","""event"",""trial"",""time""
""fullscreenenter"",""1"",""2138""
","
","","","1406.3999999761581","","","19","15343","2682","u","elianto","#f73b6a7A","-1"," ","0","-10","[2257.100000023842]","1","2","","","15343","25","0","4","lose","no-go","0"
"pit-trial","147","998419","0.0-30.0","battery-v0.2","","""event"",""trial"",""time""
""fullscreenenter"",""1"",""2138""
","
","
","""event"",""trial"",""time""
""fullscreenenter"",""1"",""2138""
","
","","","967.6999999880791","","","19","15343","2682","a","elianto","#f73b6a7A","-1"," ","0","-10","[1818.5]","1","2","","","15343","26","2","4","lose","no-go","0"
"pit-trial","148","1002169","0.0-31.0","battery-v0.2","","""event"",""trial"",""time""
""fullscreenenter"",""1"",""2138""
","
","
","""event"",""trial"",""time""
""fullscreenenter"",""1"",""2138""
","
","","","894.3000000119209","","","19","15343","2682","g","elianto","#f73b6a7A"," "," ","1","-10","[1745.699999988079]","1","2","","","15343","27","3","3","lose","go","1"
"pit-trial","149","1007025","0.0-32.0","battery-v0.2","","""event"",""trial"",""time""
""fullscreenenter"",""1"",""2138""
","
","
","""event"",""trial"",""time""
""fullscreenenter"",""1"",""2138""
","
","","","-1","","","19","15343","2682","l","elianto","#3366ff99"," ","-1","0","0","[]","0","2","","","15343","28","1","1","win","go","0"
"pit-trial","150","1010931","0.0-33.0","battery-v0.2","","""event"",""trial"",""time""
""fullscreenenter"",""1"",""2138""
","
","
","""event"",""trial"",""time""
""fullscreenenter"",""1"",""2138""
","
","","","1050.8999999761581","","","19","15343","2682","l","elianto","#3366ff99"," "," ","1","+10","[1902.0999999642372]","1","2","","","15343","29","1","1","win","go","0"
"pit-trial","151","1015787","0.0-34.0","battery-v0.2","","""event"",""trial"",""time""
""fullscreenenter"",""1"",""2138""
","
","
","""event"",""trial"",""time""
""fullscreenenter"",""1"",""2138""
","
","","","-1","","","19","15343","2682","u","elianto","#f73b6a7A","-1","-1","1","0","[]","0","2","","","15343","30","0","4","lose","no-go","0"
"pit-trial","152","1019918","0.0-35.0","battery-v0.2","","""event"",""trial"",""time""
""fullscreenenter"",""1"",""2138""
","
","
","""event"",""trial"",""time""
""fullscreenenter"",""1"",""2138""
","
","","","1275.5","","","19","15343","2682","g","elianto","#f73b6a7A"," "," ","1","0","[2126.399999976158]","1","2","","","15343","31","3","3","lose","go","0"
"pit-trial","153","1024774","0.0-36.0","battery-v0.2","","""event"",""trial"",""time""
""fullscreenenter"",""1"",""2138""
","
","
","""event"",""trial"",""time""
""fullscreenenter"",""1"",""2138""
","
","","","-1","","","19","15343","2682","a","elianto","#f73b6a7A","-1","-1","1","0","[]","0","2","","","15343","32","2","4","lose","no-go","0"
"pit-trial","154","1029630","0.0-37.0","battery-v0.2","","""event"",""trial"",""time""
""fullscreenenter"",""1"",""2138""
","
","
","""event"",""trial"",""time""
""fullscreenenter"",""1"",""2138""
","
","","","-1","","","19","15343","2682","u","elianto","#f73b6a7A","-1","-1","1","0","[]","0","2","","","15343","33","0","4","lose","no-go","0"
"pit-trial","155","1034486","0.0-38.0","battery-v0.2","","""event"",""trial"",""time""
""fullscreenenter"",""1"",""2138""
","
","
","""event"",""trial"",""time""
""fullscreenenter"",""1"",""2138""
","
","","","-1","","","19","15343","2682","a","elianto","#f73b6a7A","-1","-1","1","0","[]","0","2","","","15343","34","2","4","lose","no-go","0"
"pit-trial","156","1038252","0.0-39.0","battery-v0.2","","""event"",""trial"",""time""
""fullscreenenter"",""1"",""2138""
","
","
","""event"",""trial"",""time""
""fullscreenenter"",""1"",""2138""
","
","","","908.3999999761581","","","19","15343","2682","l","elianto","#3366ff99"," "," ","1","+10","[1760.199999988079]","1","2","","","15343","35","1","1","win","go","0"
"pit-trial","157","1042453","0.0-40.0","battery-v0.2","","""event"",""trial"",""time""
""fullscreenenter"",""1"",""2138""
","
","
","""event"",""trial"",""time""
""fullscreenenter"",""1"",""2138""
","
","","","1346.3999999761581","","","19","15343","2682","g","elianto","#f73b6a7A"," "," ","1","0","[2197.099999964237]","1","2","","","15343","36","3","3","lose","go","0"
"pit-trial","158","1045990","0.0-41.0","battery-v0.2","","""event"",""trial"",""time""
""fullscreenenter"",""1"",""2138""
","
","
","""event"",""trial"",""time""
""fullscreenenter"",""1"",""2138""
","
","","","680.5","","","19","15343","2682","l","elianto","#3366ff99"," "," ","1","+10","[1531.4000000357628]","1","2","","","15343","37","1","1","win","go","0"
"pit-trial","159","1049693","0.0-42.0","battery-v0.2","","""event"",""trial"",""time""
""fullscreenenter"",""1"",""2138""
","
","
","""event"",""trial"",""time""
""fullscreenenter"",""1"",""2138""
","
","","","847.1000000238419","","","19","15343","2682","g","elianto","#f73b6a7A"," "," ","1","0","[1698.7000000476837]","1","2","","","15343","38","3","3","lose","go","0"
"pit-trial","160","1054549","0.0-43.0","battery-v0.2","","""event"",""trial"",""time""
""fullscreenenter"",""1"",""2138""
","
","
","""event"",""trial"",""time""
""fullscreenenter"",""1"",""2138""
","
","","","-1","","","19","15343","2682","u","elianto","#f73b6a7A","-1","-1","1","0","[]","0","2","","","15343","39","0","4","lose","no-go","0"
"pit-trial","161","1059405","0.0-44.0","battery-v0.2","","""event"",""trial"",""time""
""fullscreenenter"",""1"",""2138""
","
","
","""event"",""trial"",""time""
""fullscreenenter"",""1"",""2138""
","
","","","-1","","","19","15343","2682","a","elianto","#f73b6a7A","-1","-1","1","0","[]","0","2","","","15343","40","2","4","lose","no-go","0"
"pit-trial","162","1063095","0.0-45.0","battery-v0.2","","""event"",""trial"",""time""
""fullscreenenter"",""1"",""2138""
","
","
","""event"",""trial"",""time""
""fullscreenenter"",""1"",""2138""
","
","","","833.3000000119209","","","19","15343","2682","g","elianto","#f73b6a7A"," "," ","1","0","[1685]","1","2","","","15343","41","3","3","lose","go","0"
"pit-trial","163","1067951","0.0-46.0","battery-v0.2","","""event"",""trial"",""time""
""fullscreenenter"",""1"",""2138""
","
","
","""event"",""trial"",""time""
""fullscreenenter"",""1"",""2138""
","
","","","-1","","","19","15343","2682","u","elianto","#f73b6a7A","-1","-1","1","0","[]","0","2","","","15343","42","0","4","lose","no-go","0"
"pit-trial","164","1072806","0.0-47.0","battery-v0.2","","""event"",""trial"",""time""
""fullscreenenter"",""1"",""2138""
","
","
","""event"",""trial"",""time""
""fullscreenenter"",""1"",""2138""
","
","","","-1","","","19","15343","2682","a","elianto","#f73b6a7A","-1","-1","1","0","[]","0","2","","","15343","43","2","4","lose","no-go","0"
"pit-trial","165","1076165","0.0-48.0","battery-v0.2","","""event"",""trial"",""time""
""fullscreenenter"",""1"",""2138""
","
","
","""event"",""trial"",""time""
""fullscreenenter"",""1"",""2138""
","
","","","503.2999999523163","","","19","15343","2682","l","elianto","#3366ff99"," "," ","1","+10","[1354.300000011921]","1","2","","","15343","44","1","1","win","go","0"
"pit-trial","166","1081020","0.0-49.0","battery-v0.2","","""event"",""trial"",""time""
""fullscreenenter"",""1"",""2138""
","
","
","""event"",""trial"",""time""
""fullscreenenter"",""1"",""2138""
","
","","","-1","","","19","15343","2682","a","elianto","#f73b6a7A","-1","-1","1","0","[]","0","2","","","15343","45","2","4","lose","no-go","0"
"pit-trial","167","1085340","0.0-50.0","battery-v0.2","","""event"",""trial"",""time""
""fullscreenenter"",""1"",""2138""
","
","
","""event"",""trial"",""time""
""fullscreenenter"",""1"",""2138""
","
","","","1465.6000000238419","","","19","15343","2682","g","elianto","#f73b6a7A"," "," ","1","0","[2316.800000011921]","1","2","","","15343","46","3","3","lose","go","0"
"pit-trial","168","1090196","0.0-51.0","battery-v0.2","","""event"",""trial"",""time""
""fullscreenenter"",""1"",""2138""
","
","
","""event"",""trial"",""time""
""fullscreenenter"",""1"",""2138""
","
","","","-1","","","19","15343","2682","u","elianto","#f73b6a7A","-1","-1","1","-10","[]","0","2","","","15343","47","0","4","lose","no-go","1"
"pit-trial","169","1094555","0.0-52.0","battery-v0.2","","""event"",""trial"",""time""
""fullscreenenter"",""1"",""2138""
","
","
","""event"",""trial"",""time""
""fullscreenenter"",""1"",""2138""
","
","","","1503.6000000238419","","","19","15343","2682","p","elianto","#3366ff99","-1"," ","0","0","[2354.2000000476837]","1","2","","","15343","48","4","2","win","no-go","0"
"pit-trial","170","1098150","0.0-53.0","battery-v0.2","","""event"",""trial"",""time""
""fullscreenenter"",""1"",""2138""
","
","
","""event"",""trial"",""time""
""fullscreenenter"",""1"",""2138""
","
","","","740","","","19","15343","2682","g","elianto","#f73b6a7A"," "," ","1","0","[1591.3999999761581]","1","2","","","15343","49","3","3","lose","go","0"
"pit-trial","171","1101647","0.0-54.0","battery-v0.2","","""event"",""trial"",""time""
""fullscreenenter"",""1"",""2138""
","
","
","""event"",""trial"",""time""
""fullscreenenter"",""1"",""2138""
","
","","","640.8000000119209","","","19","15343","2682","l","elianto","#3366ff99"," "," ","1","+10","[1491.699999988079]","1","2","","","15343","50","1","1","win","go","0"
"pit-trial","172","1106503","0.0-55.0","battery-v0.2","","""event"",""trial"",""time""
""fullscreenenter"",""1"",""2138""
","
","
","""event"",""trial"",""time""
""fullscreenenter"",""1"",""2138""
","
","","","-1","","","19","15343","2682","u","elianto","#f73b6a7A","-1","-1","1","0","[]","0","2","","","15343","51","0","4","lose","no-go","0"
"pit-trial","173","1111359","0.0-56.0","battery-v0.2","","""event"",""trial"",""time""
""fullscreenenter"",""1"",""2138""
","
","
","""event"",""trial"",""time""
""fullscreenenter"",""1"",""2138""
","
","","","-1","","","19","15343","2682","p","elianto","#3366ff99","-1","-1","1","+10","[]","0","2","","","15343","52","4","2","win","no-go","0"
"pit-trial","174","1114915","0.0-57.0","battery-v0.2","","""event"",""trial"",""time""
""fullscreenenter"",""1"",""2138""
","
","
","""event"",""trial"",""time""
""fullscreenenter"",""1"",""2138""
","
","","","699.6999999880791","","","19","15343","2682","l","elianto","#3366ff99"," "," ","1","+10","[1551.1000000238419]","1","2","","","15343","53","1","1","win","go","0"
"pit-trial","175","1119771","0.0-58.0","battery-v0.2","","""event"",""trial"",""time""
""fullscreenenter"",""1"",""2138""
","
","
","""event"",""trial"",""time""
""fullscreenenter"",""1"",""2138""
","
","","","-1","","","19","15343","2682","u","elianto","#f73b6a7A","-1","-1","1","0","[]","0","2","","","15343","54","0","4","lose","no-go","0"
"pit-trial","176","1124627","0.0-59.0","battery-v0.2","","""event"",""trial"",""time""
""fullscreenenter"",""1"",""2138""
","
","
","""event"",""trial"",""time""
""fullscreenenter"",""1"",""2138""
","
","","","-1","","","19","15343","2682","p","elianto","#3366ff99","-1","-1","1","+10","[]","0","2","","","15343","55","4","2","win","no-go","0"
"pit-trial","177","1129483","0.0-60.0","battery-v0.2","","""event"",""trial"",""time""
""fullscreenenter"",""1"",""2138""
","
","
","""event"",""trial"",""time""
""fullscreenenter"",""1"",""2138""
","
","","","-1","","","19","15343","2682","a","elianto","#f73b6a7A","-1","-1","1","0","[]","0","2","","","15343","56","2","4","lose","no-go","0"
"pit-trial","178","1132991","0.0-61.0","battery-v0.2","","""event"",""trial"",""time""
""fullscreenenter"",""1"",""2138""
","
","
","""event"",""trial"",""time""
""fullscreenenter"",""1"",""2138""
","
","","","653.1000000238419","","","19","15343","2682","l","elianto","#3366ff99"," "," ","1","0","[1503.699999988079]","1","2","","","15343","57","1","1","win","go","1"
"pit-trial","179","1137847","0.0-62.0","battery-v0.2","","""event"",""trial"",""time""
""fullscreenenter"",""1"",""2138""
","
","
","""event"",""trial"",""time""
""fullscreenenter"",""1"",""2138""
","
","","","-1","","","19","15343","2682","p","elianto","#3366ff99","-1","-1","1","+10","[]","0","2","","","15343","58","4","2","win","no-go","0"
"pit-trial","180","1142703","0.0-63.0","battery-v0.2","","""event"",""trial"",""time""
""fullscreenenter"",""1"",""2138""
","
","
","""event"",""trial"",""time""
""fullscreenenter"",""1"",""2138""
","
","","","-1","","","19","15343","2682","u","elianto","#f73b6a7A","-1","-1","1","0","[]","0","2","","","15343","59","0","4","lose","no-go","0"
"pit-trial","181","1146220","0.0-64.0","battery-v0.2","","""event"",""trial"",""time""
""fullscreenenter"",""1"",""2138""
","
","
","""event"",""trial"",""time""
""fullscreenenter"",""1"",""2138""
","
","","","662.5","","","19","15343","2682","g","elianto","#f73b6a7A"," "," ","1","0","[1513.5]","1","2","","","15343","60","3","3","lose","go","0"
"pit-trial","182","1151076","0.0-65.0","battery-v0.2","","""event"",""trial"",""time""
""fullscreenenter"",""1"",""2138""
","
","
","""event"",""trial"",""time""
""fullscreenenter"",""1"",""2138""
","
","","","-1","","","19","15343","2682","a","elianto","#f73b6a7A","-1","-1","1","0","[]","0","2","","","15343","61","2","4","lose","no-go","0"
"pit-trial","183","1155933","0.0-66.0","battery-v0.2","","""event"",""trial"",""time""
""fullscreenenter"",""1"",""2138""
","
","
","""event"",""trial"",""time""
""fullscreenenter"",""1"",""2138""
","
","","","-1","","","19","15343","2682","p","elianto","#3366ff99","-1","-1","1","+10","[]","0","2","","","15343","62","4","2","win","no-go","0"
"pit-trial","184","1159698","0.0-67.0","battery-v0.2","","""event"",""trial"",""time""
""fullscreenenter"",""1"",""2138""
","
","
","""event"",""trial"",""time""
""fullscreenenter"",""1"",""2138""
","
","","","909.8999999761581","","","19","15343","2682","g","elianto","#f73b6a7A"," "," ","1","0","[1760.4000000357628]","1","2","","","15343","63","3","3","lose","go","0"
"pit-trial","185","1163062","0.0-68.0","battery-v0.2","","""event"",""trial"",""time""
""fullscreenenter"",""1"",""2138""
","
","
","""event"",""trial"",""time""
""fullscreenenter"",""1"",""2138""
","
","","","508.80000001192093","","","19","15343","2682","l","elianto","#3366ff99"," "," ","1","+10","[1359]","1","2","","","15343","64","1","1","win","go","0"
"pit-trial","186","1167919","0.0-69.0","battery-v0.2","","""event"",""trial"",""time""
""fullscreenenter"",""1"",""2138""
","
","
","""event"",""trial"",""time""
""fullscreenenter"",""1"",""2138""
","
","","","-1","","","19","15343","2682","a","elianto","#f73b6a7A","-1","-1","1","0","[]","0","2","","","15343","65","2","4","lose","no-go","0"
"pit-trial","187","1171472","0.0-70.0","battery-v0.2","","""event"",""trial"",""time""
""fullscreenenter"",""1"",""2138""
","
","
","""event"",""trial"",""time""
""fullscreenenter"",""1"",""2138""
","
","","","697.9000000357628","","","19","15343","2682","g","elianto","#f73b6a7A"," "," ","1","-10","[1549.2000000476837]","1","2","","","15343","66","3","3","lose","go","1"
"pit-trial","188","1176328","0.0-71.0","battery-v0.2","","""event"",""trial"",""time""
""fullscreenenter"",""1"",""2138""
","
","
","""event"",""trial"",""time""
""fullscreenenter"",""1"",""2138""
","
","","","-1","","","19","15343","2682","p","elianto","#3366ff99","-1","-1","1","0","[]","0","2","","","15343","67","4","2","win","no-go","1"
"pit-trial","189","1179920","0.0-72.0","battery-v0.2","","""event"",""trial"",""time""
""fullscreenenter"",""1"",""2138""
","
","
","""event"",""trial"",""time""
""fullscreenenter"",""1"",""2138""
","
","","","735.1999999880791","","","19","15343","2682","l","elianto","#3366ff99"," "," ","1","+10","[1586.9000000357628]","1","2","","","15343","68","1","1","win","go","0"
"pit-trial","190","1183406","0.0-73.0","battery-v0.2","","""event"",""trial"",""time""
""fullscreenenter"",""1"",""2138""
","
","
","""event"",""trial"",""time""
""fullscreenenter"",""1"",""2138""
","
","","","630.0999999642372","","","19","15343","2682","l","elianto","#3366ff99"," "," ","1","+10","[1481.300000011921]","1","2","","","15343","69","1","1","win","go","0"
"pit-trial","191","1187268","0.0-74.0","battery-v0.2","","""event"",""trial"",""time""
""fullscreenenter"",""1"",""2138""
","
","
","""event"",""trial"",""time""
""fullscreenenter"",""1"",""2138""
","
","","","1007.1000000238419","","","19","15343","2682","g","elianto","#f73b6a7A"," "," ","1","0","[1857.800000011921]","1","2","","","15343","70","3","3","lose","go","0"
"pit-trial","192","1191140","0.0-75.0","battery-v0.2","","""event"",""trial"",""time""
""fullscreenenter"",""1"",""2138""
","
","
","""event"",""trial"",""time""
""fullscreenenter"",""1"",""2138""
","
","","","1016","","","19","15343","2682","s","elianto","#3366ff99"," "," ","1","0","[1867.199999988079]","1","2","","","15343","71","5","1","win","go","1"
"pit-trial","193","1195997","0.0-76.0","battery-v0.2","","""event"",""trial"",""time""
""fullscreenenter"",""1"",""2138""
","
","
","""event"",""trial"",""time""
""fullscreenenter"",""1"",""2138""
","
","","","-1","","","19","15343","2682","p","elianto","#3366ff99","-1","-1","1","+10","[]","0","2","","","15343","72","4","2","win","no-go","0"
"pit-trial","194","1199505","0.0-77.0","battery-v0.2","","""event"",""trial"",""time""
""fullscreenenter"",""1"",""2138""
","
","
","""event"",""trial"",""time""
""fullscreenenter"",""1"",""2138""
","
","","","652.5","","","19","15343","2682","g","elianto","#f73b6a7A"," "," ","1","0","[1502.7000000476837]","1","2","","","15343","73","3","3","lose","go","0"
"pit-trial","195","1203392","0.0-78.0","battery-v0.2","","""event"",""trial"",""time""
""fullscreenenter"",""1"",""2138""
","
","
","""event"",""trial"",""time""
""fullscreenenter"",""1"",""2138""
","
","","","1031.3999999761581","","","19","15343","2682","l","elianto","#3366ff99"," "," ","1","+10","[1882.300000011921]","1","2","","","15343","74","1","1","win","go","0"
"pit-trial","196","1208248","0.0-79.0","battery-v0.2","","""event"",""trial"",""time""
""fullscreenenter"",""1"",""2138""
","
","
","""event"",""trial"",""time""
""fullscreenenter"",""1"",""2138""
","
","","","-1","","","19","15343","2682","p","elianto","#3366ff99","-1","-1","1","+10","[]","0","2","","","15343","75","4","2","win","no-go","0"
"pit-trial","197","1211967","0.0-80.0","battery-v0.2","","""event"",""trial"",""time""
""fullscreenenter"",""1"",""2138""
","
","
","""event"",""trial"",""time""
""fullscreenenter"",""1"",""2138""
","
","","","865.1000000238419","","","19","15343","2682","s","elianto","#3366ff99"," "," ","1","+10","[1715.1000000238419]","1","2","","","15343","76","5","1","win","go","0"
"pit-trial","198","1216823","0.0-81.0","battery-v0.2","","""event"",""trial"",""time""
""fullscreenenter"",""1"",""2138""
","
","
","""event"",""trial"",""time""
""fullscreenenter"",""1"",""2138""
","
","","","-1","","","19","15343","2682","p","elianto","#3366ff99","-1","-1","1","+10","[]","0","2","","","15343","77","4","2","win","no-go","0"
"pit-trial","199","1220308","0.0-82.0","battery-v0.2","","""event"",""trial"",""time""
""fullscreenenter"",""1"",""2138""
","
","
","""event"",""trial"",""time""
""fullscreenenter"",""1"",""2138""
","
","","","629.3999999761581","","","19","15343","2682","g","elianto","#f73b6a7A"," "," ","1","0","[1480.9000000357628]","1","2","","","15343","78","3","3","lose","go","0"
"pit-trial","200","1224424","0.0-83.0","battery-v0.2","","""event"",""trial"",""time""
""fullscreenenter"",""1"",""2138""
","
","
","""event"",""trial"",""time""
""fullscreenenter"",""1"",""2138""
","
","","","1260","","","19","15343","2682","w","elianto","#f73b6a7A","-1"," ","0","0","[2111.300000011921]","1","2","","","15343","79","6","4","lose","no-go","1"
"pit-trial","201","1228948","0.0-84.0","battery-v0.2","","""event"",""trial"",""time""
""fullscreenenter"",""1"",""2138""
","
","
","""event"",""trial"",""time""
""fullscreenenter"",""1"",""2138""
","
","","","1668.300000011921","","","19","15343","2682","s","elianto","#3366ff99"," "," ","1","+10","[2519.7000000476837]","1","2","","","15343","80","5","1","win","go","0"
"pit-trial","202","1233803","0.0-85.0","battery-v0.2","","""event"",""trial"",""time""
""fullscreenenter"",""1"",""2138""
","
","
","""event"",""trial"",""time""
""fullscreenenter"",""1"",""2138""
","
","","","-1","","","19","15343","2682","p","elianto","#3366ff99","-1","-1","1","0","[]","0","2","","","15343","81","4","2","win","no-go","1"
"pit-trial","203","1237449","0.0-86.0","battery-v0.2","","""event"",""trial"",""time""
""fullscreenenter"",""1"",""2138""
","
","
","""event"",""trial"",""time""
""fullscreenenter"",""1"",""2138""
","
","","","789.5999999642372","","","19","15343","2682","e","elianto","#f73b6a7A"," "," ","1","0","[1640.699999988079]","1","2","","","15343","82","7","3","lose","go","0"
"pit-trial","204","1240868","0.0-87.0","battery-v0.2","","""event"",""trial"",""time""
""fullscreenenter"",""1"",""2138""
","
","
","""event"",""trial"",""time""
""fullscreenenter"",""1"",""2138""
","
","","","564.3000000119209","","","19","15343","2682","w","elianto","#f73b6a7A","-1"," ","0","-10","[1415.300000011921]","1","2","","","15343","83","6","4","lose","no-go","0"
"pit-trial","205","1245395","0.0-88.0","battery-v0.2","","""event"",""trial"",""time""
""fullscreenenter"",""1"",""2138""
","
","
","""event"",""trial"",""time""
""fullscreenenter"",""1"",""2138""
","
","","","1672.0999999642372","","","19","15343","2682","s","elianto","#3366ff99"," "," ","1","+10","[2523.300000011921]","1","2","","","15343","84","5","1","win","go","0"
"pit-trial","206","1250252","0.0-89.0","battery-v0.2","","""event"",""trial"",""time""
""fullscreenenter"",""1"",""2138""
","
","
","""event"",""trial"",""time""
""fullscreenenter"",""1"",""2138""
","
","","","-1","","","19","15343","2682","p","elianto","#3366ff99","-1","-1","1","+10","[]","0","2","","","15343","85","4","2","win","no-go","0"
"pit-trial","207","1254401","0.0-90.0","battery-v0.2","","""event"",""trial"",""time""
""fullscreenenter"",""1"",""2138""
","
","
","""event"",""trial"",""time""
""fullscreenenter"",""1"",""2138""
","
","","","1293.2000000476837","","","19","15343","2682","e","elianto","#f73b6a7A"," "," ","1","0","[2143.800000011921]","1","2","","","15343","86","7","3","lose","go","0"
"pit-trial","208","1258197","0.0-91.0","battery-v0.2","","""event"",""trial"",""time""
""fullscreenenter"",""1"",""2138""
","
","
","""event"",""trial"",""time""
""fullscreenenter"",""1"",""2138""
","
","","","939.9000000357628","","","19","15343","2682","w","elianto","#f73b6a7A","-1"," ","0","-10","[1791.2000000476837]","1","2","","","15343","87","6","4","lose","no-go","0"
"pit-trial","209","1261870","0.0-92.0","battery-v0.2","","""event"",""trial"",""time""
""fullscreenenter"",""1"",""2138""
","
","
","""event"",""trial"",""time""
""fullscreenenter"",""1"",""2138""
","
","","","818.0999999642372","","","19","15343","2682","s","elianto","#3366ff99"," "," ","1","+10","[1668.800000011921]","1","2","","","15343","88","5","1","win","go","0"
"pit-trial","210","1266725","0.0-93.0","battery-v0.2","","""event"",""trial"",""time""
""fullscreenenter"",""1"",""2138""
","
","
","""event"",""trial"",""time""
""fullscreenenter"",""1"",""2138""
","
","","","-1","","","19","15343","2682","s","elianto","#3366ff99"," ","-1","0","0","[]","0","2","","","15343","89","5","1","win","go","0"
"pit-trial","211","1271580","0.0-94.0","battery-v0.2","","""event"",""trial"",""time""
""fullscreenenter"",""1"",""2138""
","
","
","""event"",""trial"",""time""
""fullscreenenter"",""1"",""2138""
","
","","","-1","","","19","15343","2682","p","elianto","#3366ff99","-1","-1","1","+10","[]","0","2","","","15343","90","4","2","win","no-go","0"
"pit-trial","212","1276436","0.0-95.0","battery-v0.2","","""event"",""trial"",""time""
""fullscreenenter"",""1"",""2138""
","
","
","""event"",""trial"",""time""
""fullscreenenter"",""1"",""2138""
","
","","","-1","","","19","15343","2682","w","elianto","#f73b6a7A","-1","-1","1","0","[]","0","2","","","15343","91","6","4","lose","no-go","0"
"pit-trial","213","1280398","0.0-96.0","battery-v0.2","","""event"",""trial"",""time""
""fullscreenenter"",""1"",""2138""
","
","
","""event"",""trial"",""time""
""fullscreenenter"",""1"",""2138""
","
","","","1105.2999999523163","","","19","15343","2682","e","elianto","#f73b6a7A"," "," ","1","0","[1956.800000011921]","1","2","","","15343","92","7","3","lose","go","0"
"pit-trial","214","1284116","0.0-97.0","battery-v0.2","","""event"",""trial"",""time""
""fullscreenenter"",""1"",""2138""
","
","
","""event"",""trial"",""time""
""fullscreenenter"",""1"",""2138""
","
","","","862.9000000357628","","","19","15343","2682","d","elianto","#3366ff99","-1"," ","0","0","[1713.5999999642372]","1","2","","","15343","93","8","2","win","no-go","0"
"pit-trial","215","1288973","0.0-98.0","battery-v0.2","","""event"",""trial"",""time""
""fullscreenenter"",""1"",""2138""
","
","
","""event"",""trial"",""time""
""fullscreenenter"",""1"",""2138""
","
","","","-1","","","19","15343","2682","w","elianto","#f73b6a7A","-1","-1","1","0","[]","0","2","","","15343","94","6","4","lose","no-go","0"
"pit-trial","216","1292811","0.0-99.0","battery-v0.2","","""event"",""trial"",""time""
""fullscreenenter"",""1"",""2138""
","
","
","""event"",""trial"",""time""
""fullscreenenter"",""1"",""2138""
","
","","","983.0999999642372","","","19","15343","2682","e","elianto","#f73b6a7A"," "," ","1","0","[1834.199999988079]","1","2","","","15343","95","7","3","lose","go","0"
"pit-trial","217","1296897","0.0-100.0","battery-v0.2","","""event"",""trial"",""time""
""fullscreenenter"",""1"",""2138""
","
","
","""event"",""trial"",""time""
""fullscreenenter"",""1"",""2138""
","
","","","1231","","","19","15343","2682","s","elianto","#3366ff99"," "," ","1","0","[2081.800000011921]","1","2","","","15343","96","5","1","win","go","1"
"pit-trial","218","1300895","0.0-101.0","battery-v0.2","","""event"",""trial"",""time""
""fullscreenenter"",""1"",""2138""
","
","
","""event"",""trial"",""time""
""fullscreenenter"",""1"",""2138""
","
","","","1142.3999999761581","","","19","15343","2682","d","elianto","#3366ff99","-1"," ","0","0","[1992.800000011921]","1","2","","","15343","97","8","2","win","no-go","0"
"pit-trial","219","1305751","0.0-102.0","battery-v0.2","","""event"",""trial"",""time""
""fullscreenenter"",""1"",""2138""
","
","
","""event"",""trial"",""time""
""fullscreenenter"",""1"",""2138""
","
","","","-1","","","19","15343","2682","w","elianto","#f73b6a7A","-1","-1","1","0","[]","0","2","","","15343","98","6","4","lose","no-go","0"
"pit-trial","220","1309798","0.0-103.0","battery-v0.2","","""event"",""trial"",""time""
""fullscreenenter"",""1"",""2138""
","
","
","""event"",""trial"",""time""
""fullscreenenter"",""1"",""2138""
","
","","","1191.5","","","19","15343","2682","e","elianto","#f73b6a7A"," "," ","1","0","[2042.199999988079]","1","2","","","15343","99","7","3","lose","go","0"
"pit-trial","221","1314654","0.0-104.0","battery-v0.2","","""event"",""trial"",""time""
""fullscreenenter"",""1"",""2138""
","
","
","""event"",""trial"",""time""
""fullscreenenter"",""1"",""2138""
","
","","","-1","","","19","15343","2682","s","elianto","#3366ff99"," ","-1","0","0","[]","0","2","","","15343","100","5","1","win","go","0"
"pit-trial","222","1318490","0.0-105.0","battery-v0.2","","""event"",""trial"",""time""
""fullscreenenter"",""1"",""2138""
","
","
","""event"",""trial"",""time""
""fullscreenenter"",""1"",""2138""
","
","","","980.6000000238419","","","19","15343","2682","s","elianto","#3366ff99"," "," ","1","+10","[1831.8999999761581]","1","2","","","15343","101","5","1","win","go","0"
"pit-trial","223","1322165","0.0-106.0","battery-v0.2","","""event"",""trial"",""time""
""fullscreenenter"",""1"",""2138""
","
","
","""event"",""trial"",""time""
""fullscreenenter"",""1"",""2138""
","
","","","819.1999999880791","","","19","15343","2682","j","elianto","#3366ff99","-1"," ","0","0","[1670.300000011921]","1","2","","","15343","102","9","2","win","no-go","0"
"pit-trial","224","1327021","0.0-107.0","battery-v0.2","","""event"",""trial"",""time""
""fullscreenenter"",""1"",""2138""
","
","
","""event"",""trial"",""time""
""fullscreenenter"",""1"",""2138""
","
","","","-1","","","19","15343","2682","w","elianto","#f73b6a7A","-1","-1","1","0","[]","0","2","","","15343","103","6","4","lose","no-go","0"
"pit-trial","225","1331875","0.0-108.0","battery-v0.2","","""event"",""trial"",""time""
""fullscreenenter"",""1"",""2138""
","
","
","""event"",""trial"",""time""
""fullscreenenter"",""1"",""2138""
","
","","","-1","","","19","15343","2682","d","elianto","#3366ff99","-1","-1","1","+10","[]","0","2","","","15343","104","8","2","win","no-go","0"
"pit-trial","226","1336732","0.0-109.0","battery-v0.2","","""event"",""trial"",""time""
""fullscreenenter"",""1"",""2138""
","
","
","""event"",""trial"",""time""
""fullscreenenter"",""1"",""2138""
","
","","","-1","","","19","15343","2682","j","elianto","#3366ff99","-1","-1","1","+10","[]","0","2","","","15343","105","9","2","win","no-go","0"
"pit-trial","227","1341588","0.0-110.0","battery-v0.2","","""event"",""trial"",""time""
""fullscreenenter"",""1"",""2138""
","
","
","""event"",""trial"",""time""
""fullscreenenter"",""1"",""2138""
","
","","","-1","","","19","15343","2682","d","elianto","#3366ff99","-1","-1","1","+10","[]","0","2","","","15343","106","8","2","win","no-go","0"
"pit-trial","228","1346444","0.0-111.0","battery-v0.2","","""event"",""trial"",""time""
""fullscreenenter"",""1"",""2138""
","
","
","""event"",""trial"",""time""
""fullscreenenter"",""1"",""2138""
","
","","","-1","","","19","15343","2682","s","elianto","#3366ff99"," ","-1","0","0","[]","0","2","","","15343","107","5","1","win","go","0"
"pit-trial","229","1351301","0.0-112.0","battery-v0.2","","""event"",""trial"",""time""
""fullscreenenter"",""1"",""2138""
","
","
","""event"",""trial"",""time""
""fullscreenenter"",""1"",""2138""
","
","","","-1","","","19","15343","2682","w","elianto","#f73b6a7A","-1","-1","1","0","[]","0","2","","","15343","108","6","4","lose","no-go","0"
"pit-trial","230","1355391","0.0-113.0","battery-v0.2","","""event"",""trial"",""time""
""fullscreenenter"",""1"",""2138""
","
","
","""event"",""trial"",""time""
""fullscreenenter"",""1"",""2138""
","
","","","1234.4000000357628","","","19","15343","2682","s","elianto","#3366ff99"," "," ","1","+10","[2085]","1","2","","","15343","109","5","1","win","go","0"
"pit-trial","231","1360247","0.0-114.0","battery-v0.2","","""event"",""trial"",""time""
""fullscreenenter"",""1"",""2138""
","
","
","""event"",""trial"",""time""
""fullscreenenter"",""1"",""2138""
","
","","","-1","","","19","15343","2682","j","elianto","#3366ff99","-1","-1","1","+10","[]","0","2","","","15343","110","9","2","win","no-go","0"
"pit-trial","232","1365103","0.0-115.0","battery-v0.2","","""event"",""trial"",""time""
""fullscreenenter"",""1"",""2138""
","
","
","""event"",""trial"",""time""
""fullscreenenter"",""1"",""2138""
","
","","","-1","","","19","15343","2682","w","elianto","#f73b6a7A","-1","-1","1","0","[]","0","2","","","15343","111","6","4","lose","no-go","0"
"pit-trial","233","1369959","0.0-116.0","battery-v0.2","","""event"",""trial"",""time""
""fullscreenenter"",""1"",""2138""
","
","
","""event"",""trial"",""time""
""fullscreenenter"",""1"",""2138""
","
","","","-1","","","19","15343","2682","d","elianto","#3366ff99","-1","-1","1","+10","[]","0","2","","","15343","112","8","2","win","no-go","0"
"pit-trial","234","1374466","0.0-117.0","battery-v0.2","","""event"",""trial"",""time""
""fullscreenenter"",""1"",""2138""
","
","
","""event"",""trial"",""time""
""fullscreenenter"",""1"",""2138""
","
","","","1650.2000000476837","","","19","15343","2682","e","elianto","#f73b6a7A"," "," ","1","0","[2501.800000011921]","1","2","","","15343","113","7","3","lose","go","0"
"pit-trial","235","1379322","0.0-118.0","battery-v0.2","","""event"",""trial"",""time""
""fullscreenenter"",""1"",""2138""
","
","
","""event"",""trial"",""time""
""fullscreenenter"",""1"",""2138""
","
","","","-1","","","19","15343","2682","j","elianto","#3366ff99","-1","-1","1","+10","[]","0","2","","","15343","114","9","2","win","no-go","0"
"pit-trial","236","1383942","0.0-119.0","battery-v0.2","","""event"",""trial"",""time""
""fullscreenenter"",""1"",""2138""
","
","
","""event"",""trial"",""time""
""fullscreenenter"",""1"",""2138""
","
","","","1764.5","","","19","15343","2682","s","elianto","#3366ff99"," "," ","1","+10","[2615.600000023842]","1","2","","","15343","115","5","1","win","go","0"
"pit-trial","237","1388800","0.0-120.0","battery-v0.2","","""event"",""trial"",""time""
""fullscreenenter"",""1"",""2138""
","
","
","""event"",""trial"",""time""
""fullscreenenter"",""1"",""2138""
","
","","","-1","","","19","15343","2682","d","elianto","#3366ff99","-1","-1","1","+10","[]","0","2","","","15343","116","8","2","win","no-go","0"
"pit-trial","238","1393656","0.0-121.0","battery-v0.2","","""event"",""trial"",""time""
""fullscreenenter"",""1"",""2138""
","
","
","""event"",""trial"",""time""
""fullscreenenter"",""1"",""2138""
","
","","","-1","","","19","15343","2682","w","elianto","#f73b6a7A","-1","-1","1","-10","[]","0","2","","","15343","117","6","4","lose","no-go","1"
"pit-trial","239","1398511","0.0-122.0","battery-v0.2","","""event"",""trial"",""time""
""fullscreenenter"",""1"",""2138""
","
","
","""event"",""trial"",""time""
""fullscreenenter"",""1"",""2138""
","
","","","-1","","","19","15343","2682","j","elianto","#3366ff99","-1","-1","1","+10","[]","0","2","","","15343","118","9","2","win","no-go","0"
"pit-trial","240","1403367","0.0-123.0","battery-v0.2","","""event"",""trial"",""time""
""fullscreenenter"",""1"",""2138""
","
","
","""event"",""trial"",""time""
""fullscreenenter"",""1"",""2138""
","
","","","-1","","","19","15343","2682","s","elianto","#3366ff99"," ","-1","0","+10","[]","0","2","","","15343","119","5","1","win","go","1"
"pit-trial","241","1408222","0.0-124.0","battery-v0.2","","""event"",""trial"",""time""
""fullscreenenter"",""1"",""2138""
","
","
","""event"",""trial"",""time""
""fullscreenenter"",""1"",""2138""
","
","","","-1","","","19","15343","2682","d","elianto","#3366ff99","-1","-1","1","+10","[]","0","2","","","15343","120","8","2","win","no-go","0"
"pit-trial","242","1413079","0.0-125.0","battery-v0.2","","""event"",""trial"",""time""
""fullscreenenter"",""1"",""2138""
","
","
","""event"",""trial"",""time""
""fullscreenenter"",""1"",""2138""
","
","","","-1","","","19","15343","2682","d","elianto","#3366ff99","-1","-1","1","+10","[]","0","2","","","15343","121","8","2","win","no-go","0"
"pit-trial","243","1417936","0.0-126.0","battery-v0.2","","""event"",""trial"",""time""
""fullscreenenter"",""1"",""2138""
","
","
","""event"",""trial"",""time""
""fullscreenenter"",""1"",""2138""
","
","","","-1","","","19","15343","2682","j","elianto","#3366ff99","-1","-1","1","0","[]","0","2","","","15343","122","9","2","win","no-go","1"
"pit-trial","244","1422792","0.0-127.0","battery-v0.2","","""event"",""trial"",""time""
""fullscreenenter"",""1"",""2138""
","
","
","""event"",""trial"",""time""
""fullscreenenter"",""1"",""2138""
","
","","","-1","","","19","15343","2682","s","elianto","#3366ff99"," ","-1","0","0","[]","0","2","","","15343","123","5","1","win","go","0"
"pit-trial","245","1427259","0.0-128.0","battery-v0.2","","""event"",""trial"",""time""
""fullscreenenter"",""1"",""2138""
","
","
","""event"",""trial"",""time""
""fullscreenenter"",""1"",""2138""
","
","","","1610.800000011921","","","19","15343","2682","e","elianto","#f73b6a7A"," "," ","1","0","[2462]","1","2","","","15343","124","7","3","lose","go","0"
"pit-trial","246","1430981","0.0-129.0","battery-v0.2","","""event"",""trial"",""time""
""fullscreenenter"",""1"",""2138""
","
","
","""event"",""trial"",""time""
""fullscreenenter"",""1"",""2138""
","
","","","866.6999999880791","","","19","15343","2682","e","elianto","#f73b6a7A"," "," ","1","-10","[1717.7000000476837]","1","2","","","15343","125","7","3","lose","go","1"
"pit-trial","247","1435837","0.0-130.0","battery-v0.2","","""event"",""trial"",""time""
""fullscreenenter"",""1"",""2138""
","
","
","""event"",""trial"",""time""
""fullscreenenter"",""1"",""2138""
","
","","","-1","","","19","15343","2682","w","elianto","#f73b6a7A","-1","-1","1","0","[]","0","2","","","15343","126","6","4","lose","no-go","0"
"pit-trial","248","1440692","0.0-131.0","battery-v0.2","","""event"",""trial"",""time""
""fullscreenenter"",""1"",""2138""
","
","
","""event"",""trial"",""time""
""fullscreenenter"",""1"",""2138""
","
","","","-1","","","19","15343","2682","j","elianto","#3366ff99","-1","-1","1","+10","[]","0","2","","","15343","127","9","2","win","no-go","0"
"pit-trial","249","1445549","0.0-132.0","battery-v0.2","","""event"",""trial"",""time""
""fullscreenenter"",""1"",""2138""
","
","
","""event"",""trial"",""time""
""fullscreenenter"",""1"",""2138""
","
","","","-1","","","19","15343","2682","d","elianto","#3366ff99","-1","-1","1","+10","[]","0","2","","","15343","128","8","2","win","no-go","0"
"pit-trial","250","1450405","0.0-133.0","battery-v0.2","","""event"",""trial"",""time""
""fullscreenenter"",""1"",""2138""
","
","
","""event"",""trial"",""time""
""fullscreenenter"",""1"",""2138""
","
","","","-1","","","19","15343","2682","w","elianto","#f73b6a7A","-1","-1","1","0","[]","0","2","","","15343","129","6","4","lose","no-go","0"
"pit-trial","251","1455261","0.0-134.0","battery-v0.2","","""event"",""trial"",""time""
""fullscreenenter"",""1"",""2138""
","
","
","""event"",""trial"",""time""
""fullscreenenter"",""1"",""2138""
","
","","","-1","","","19","15343","2682","d","elianto","#3366ff99","-1","-1","1","+10","[]","0","2","","","15343","130","8","2","win","no-go","0"
"pit-trial","252","1460118","0.0-135.0","battery-v0.2","","""event"",""trial"",""time""
""fullscreenenter"",""1"",""2138""
","
","
","""event"",""trial"",""time""
""fullscreenenter"",""1"",""2138""
","
","","","-1","","","19","15343","2682","j","elianto","#3366ff99","-1","-1","1","+10","[]","0","2","","","15343","131","9","2","win","no-go","0"
"pit-trial","253","1464975","0.0-136.0","battery-v0.2","","""event"",""trial"",""time""
""fullscreenenter"",""1"",""2138""
","
","
","""event"",""trial"",""time""
""fullscreenenter"",""1"",""2138""
","
","","","-1","","","19","15343","2682","e","elianto","#f73b6a7A"," ","-1","0","-10","[]","0","2","","","15343","132","7","3","lose","go","0"
"pit-trial","254","1469830","0.0-137.0","battery-v0.2","","""event"",""trial"",""time""
""fullscreenenter"",""1"",""2138""
","
","
","""event"",""trial"",""time""
""fullscreenenter"",""1"",""2138""
","
","","","-1","","","19","15343","2682","w","elianto","#f73b6a7A","-1","-1","1","0","[]","0","2","","","15343","133","6","4","lose","no-go","0"
"pit-trial","255","1474348","0.0-138.0","battery-v0.2","","""event"",""trial"",""time""
""fullscreenenter"",""1"",""2138""
","
","
","""event"",""trial"",""time""
""fullscreenenter"",""1"",""2138""
","
","","","1665","","","19","15343","2682","e","elianto","#f73b6a7A"," "," ","1","0","[2515.400000035763]","1","2","","","15343","134","7","3","lose","go","0"
"pit-trial","256","1479204","0.0-139.0","battery-v0.2","","""event"",""trial"",""time""
""fullscreenenter"",""1"",""2138""
","
","
","""event"",""trial"",""time""
""fullscreenenter"",""1"",""2138""
","
","","","-1","","","19","15343","2682","d","elianto","#3366ff99","-1","-1","1","+10","[]","0","2","","","15343","135","8","2","win","no-go","0"
"pit-trial","257","1484060","0.0-140.0","battery-v0.2","","""event"",""trial"",""time""
""fullscreenenter"",""1"",""2138""
","
","
","""event"",""trial"",""time""
""fullscreenenter"",""1"",""2138""
","
","","","-1","","","19","15343","2682","j","elianto","#3366ff99","-1","-1","1","+10","[]","0","2","","","15343","136","9","2","win","no-go","0"
"pit-trial","258","1488917","0.0-141.0","battery-v0.2","","""event"",""trial"",""time""
""fullscreenenter"",""1"",""2138""
","
","
","""event"",""trial"",""time""
""fullscreenenter"",""1"",""2138""
","
","","","-1","","","19","15343","2682","d","elianto","#3366ff99","-1","-1","1","+10","[]","0","2","","","15343","137","8","2","win","no-go","0"
"pit-trial","259","1493774","0.0-142.0","battery-v0.2","","""event"",""trial"",""time""
""fullscreenenter"",""1"",""2138""
","
","
","""event"",""trial"",""time""
""fullscreenenter"",""1"",""2138""
","
","","","-1","","","19","15343","2682","w","elianto","#f73b6a7A","-1","-1","1","-10","[]","0","2","","","15343","138","6","4","lose","no-go","1"
"pit-trial","260","1498630","0.0-143.0","battery-v0.2","","""event"",""trial"",""time""
""fullscreenenter"",""1"",""2138""
","
","
","""event"",""trial"",""time""
""fullscreenenter"",""1"",""2138""
","
","","","-1","","","19","15343","2682","j","elianto","#3366ff99","-1","-1","1","+10","[]","0","2","","","15343","139","9","2","win","no-go","0"
"pit-trial","261","1503487","0.0-144.0","battery-v0.2","","""event"",""trial"",""time""
""fullscreenenter"",""1"",""2138""
""blur"",""262"",""1634841""
""focus"",""262"",""1643554""
","""event"",""trial"",""time""
""blur"",""262"",""1634841""
","""event"",""trial"",""time""
""focus"",""262"",""1643554""
","""event"",""trial"",""time""
""fullscreenenter"",""1"",""2138""
","
","","","-1","","","19","15343","2682","e","elianto","#f73b6a7A"," ","-1","0","-10","[]","0","2","","","15343","140","7","3","lose","go","0"
"pit-instructions","262","1657475","0.0-145.0","battery-v0.2","","""event"",""trial"",""time""
""fullscreenenter"",""1"",""2138""
""blur"",""262"",""1634841""
""focus"",""262"",""1643554""
","""event"",""trial"",""time""
""blur"",""262"",""1634841""
","""event"",""trial"",""time""
""focus"",""262"",""1643554""
","""event"",""trial"",""time""
""fullscreenenter"",""1"",""2138""
","
","","[{""page_index"":0,""viewing_time"":143824.39999997616},{""page_index"":1,""viewing_time"":10163.5}]","153988.19999998808","","","","","","","","","","","","","","","","","","","","","","","",""
"pit-trial","263","1661765","0.0-146.0","battery-v0.2","","""event"",""trial"",""time""
""fullscreenenter"",""1"",""2138""
""blur"",""262"",""1634841""
""focus"",""262"",""1643554""
","""event"",""trial"",""time""
""blur"",""262"",""1634841""
","""event"",""trial"",""time""
""focus"",""262"",""1643554""
","""event"",""trial"",""time""
""fullscreenenter"",""1"",""2138""
","
","","","1434.199999988079","","","19","15343","2682","n","elianto","#f73b6a7A"," "," ","1","0","[2284.100000023842]","1","3","","","15343","141","0","3","lose","go","0"
"pit-trial","264","1665680","0.0-147.0","battery-v0.2","","""event"",""trial"",""time""
""fullscreenenter"",""1"",""2138""
""blur"",""262"",""1634841""
""focus"",""262"",""1643554""
","""event"",""trial"",""time""
""blur"",""262"",""1634841""
","""event"",""trial"",""time""
""focus"",""262"",""1643554""
","""event"",""trial"",""time""
""fullscreenenter"",""1"",""2138""
","
","","","1058.6000000238419","","","19","15343","2682","b","elianto","#f73b6a7A","-1"," ","0","-10","[1909.5]","1","3","","","15343","142","3","4","lose","no-go","0"
"pit-trial","265","1670375","0.0-148.0","battery-v0.2","","""event"",""trial"",""time""
""fullscreenenter"",""1"",""2138""
""blur"",""262"",""1634841""
""focus"",""262"",""1643554""