"trial_type","trial_index","time_elapsed","internal_node_id","task_version","subject_id","interactions","blur_events","focus_events","fullscreenenter_events","fullscreenexit_events","success","view_history","rt","responses","num_errors","age","subject","participantId","rune","rune_set","hex","correct","choice","accuracy","outcome","keys","total_keys","block","practice","value","sub","trial","stimulus","robot","valence","action","sham"
"pavlovia","0","8","0.0-0.0","battery-v0.2","","""event"",""trial"",""time""
""focus"",""0"",""1""
""fullscreenenter"",""1"",""2848""
","
","""event"",""trial"",""time""
""focus"",""0"",""1""
","""event"",""trial"",""time""
""fullscreenenter"",""1"",""2848""
","
","","","","","","","","","","","","","","","","","","","","","","","","","","",""
"fullscreen","1","3650","0.0-1.0","battery-v0.2","","""event"",""trial"",""time""
""focus"",""0"",""1""
""fullscreenenter"",""1"",""2848""
","
","""event"",""trial"",""time""
""focus"",""0"",""1""
","""event"",""trial"",""time""
""fullscreenenter"",""1"",""2848""
","
","true","","","","","","","","","","","","","","","","","","","","","","","","","",""
"pit-instructions","2","8317","0.0-2.0-0.0","battery-v0.2","","""event"",""trial"",""time""
""focus"",""0"",""1""
""fullscreenenter"",""1"",""2848""
","
","""event"",""trial"",""time""
""focus"",""0"",""1""
","""event"",""trial"",""time""
""fullscreenenter"",""1"",""2848""
","
","","[{""page_index"":0,""viewing_time"":4665}]","4666","","","","","","","","","","","","","","","","","","","","","","","",""
"pit-comprehension","3","13559","0.0-2.0-1.0-0.0","battery-v0.2","","""event"",""trial"",""time""
""focus"",""0"",""1""
""fullscreenenter"",""1"",""2848""
","
","""event"",""trial"",""time""
""focus"",""0"",""1""
","""event"",""trial"",""time""
""fullscreenenter"",""1"",""2848""
","
","","","5239","[""shark""]","0","12","3374","2312","","","","","","","","","","","","","","","","","","",""
"pit-instructions","4","16118","0.0-2.0-1.0-1.0","battery-v0.2","","""event"",""trial"",""time""
""focus"",""0"",""1""
""fullscreenenter"",""1"",""2848""
","
","""event"",""trial"",""time""
""focus"",""0"",""1""
","""event"",""trial"",""time""
""fullscreenenter"",""1"",""2848""
","
","","[{""page_index"":0,""viewing_time"":2555}]","2555","","","","","","","","","","","","","","","","","","","","","","","",""
"pit-comprehension","5","20404","0.0-2.0-2.0-0.0","battery-v0.2","","""event"",""trial"",""time""
""focus"",""0"",""1""
""fullscreenenter"",""1"",""2848""
","
","""event"",""trial"",""time""
""focus"",""0"",""1""
","""event"",""trial"",""time""
""fullscreenenter"",""1"",""2848""
","
","","","4283","[""tiger""]","0","12","3374","2312","","","","","","","","","","","","","","","","","","",""
"pit-instructions","6","21954","0.0-2.0-2.0-1.0","battery-v0.2","","""event"",""trial"",""time""
""focus"",""0"",""1""
""fullscreenenter"",""1"",""2848""
","
","""event"",""trial"",""time""
""focus"",""0"",""1""
","""event"",""trial"",""time""
""fullscreenenter"",""1"",""2848""
","
","","[{""page_index"":0,""viewing_time"":1549}]","1549","","","","","","","","","","","","","","","","","","","","","","","",""
"pit-instructions","7","127112","0.0-2.0-3.0","battery-v0.2","","""event"",""trial"",""time""
""focus"",""0"",""1""
""fullscreenenter"",""1"",""2848""
","
","""event"",""trial"",""time""
""focus"",""0"",""1""
","""event"",""trial"",""time""
""fullscreenenter"",""1"",""2848""
","
","","[{""page_index"":0,""viewing_time"":14384},{""page_index"":1,""viewing_time"":5852},{""page_index"":2,""viewing_time"":6402},{""page_index"":3,""viewing_time"":5767},{""page_index"":4,""viewing_time"":5603},{""page_index"":5,""viewing_time"":5401},{""page_index"":6,""viewing_time"":7886},{""page_index"":7,""viewing_time"":7551},{""page_index"":8,""viewing_time"":8737},{""page_index"":9,""viewing_time"":9385},{""page_index"":10,""viewing_time"":8053},{""page_index"":11,""viewing_time"":7036},{""page_index"":12,""viewing_time"":8301},{""page_index"":13,""viewing_time"":4802}]","105160","","","","","","","","","","","","","","","","","","","","","","","",""
"pit-trial","8","131121","0.0-2.0-4.0-0.0","battery-v0.2","","""event"",""trial"",""time""
""focus"",""0"",""1""
""fullscreenenter"",""1"",""2848""
","
","""event"",""trial"",""time""
""focus"",""0"",""1""
","""event"",""trial"",""time""
""fullscreenenter"",""1"",""2848""
","
","","","1154","","","12","3374","2312","&#9784;","elianto","#FFFFF080"," "," ","1","&#10004","[2006]","1","0","0","","","","","","","",""
"pit-trial","9","135025","0.0-2.0-4.1-0.1","battery-v0.2","","""event"",""trial"",""time""
""focus"",""0"",""1""
""fullscreenenter"",""1"",""2848""
","
","""event"",""trial"",""time""
""focus"",""0"",""1""
","""event"",""trial"",""time""
""fullscreenenter"",""1"",""2848""
","
","","","1049","","","12","3374","2312","&#9784;","elianto","#FFFFF080"," "," ","1","&#10004","[1900]","1","0","0","","","","","","","",""
"pit-trial","10","138577","0.0-2.0-4.2-0.2","battery-v0.2","","""event"",""trial"",""time""
""focus"",""0"",""1""
""fullscreenenter"",""1"",""2848""
","
","""event"",""trial"",""time""
""focus"",""0"",""1""
","""event"",""trial"",""time""
""fullscreenenter"",""1"",""2848""
","
","","","697","","","12","3374","2312","&#9784;","elianto","#FFFFF080"," "," ","1","&#10004","[1548]","1","0","0","","","","","","","",""
"pit-trial","11","141970","0.0-2.0-4.3-0.3","battery-v0.2","","""event"",""trial"",""time""
""focus"",""0"",""1""
""fullscreenenter"",""1"",""2848""
","
","""event"",""trial"",""time""
""focus"",""0"",""1""
","""event"",""trial"",""time""
""fullscreenenter"",""1"",""2848""
","
","","","540","","","12","3374","2312","&#9784;","elianto","#FFFFF080"," "," ","1","&#10004","[1390]","1","0","0","","","","","","","",""
"pit-trial","12","145585","0.0-2.0-4.4-0.4","battery-v0.2","","""event"",""trial"",""time""
""focus"",""0"",""1""
""fullscreenenter"",""1"",""2848""
","
","""event"",""trial"",""time""
""focus"",""0"",""1""
","""event"",""trial"",""time""
""fullscreenenter"",""1"",""2848""
","
","","","759","","","12","3374","2312","&#9784;","elianto","#FFFFF080"," "," ","1","&#10004","[1612]","1","0","0","","","","","","","",""
"pit-instructions","13","170640","0.0-2.0-5.0","battery-v0.2","","""event"",""trial"",""time""
""focus"",""0"",""1""
""fullscreenenter"",""1"",""2848""
","
","""event"",""trial"",""time""
""focus"",""0"",""1""
","""event"",""trial"",""time""
""fullscreenenter"",""1"",""2848""
","
","","[{""page_index"":0,""viewing_time"":4948},{""page_index"":1,""viewing_time"":5519},{""page_index"":2,""viewing_time"":8201},{""page_index"":3,""viewing_time"":6386}]","25054","","","","","","","","","","","","","","","","","","","","","","","",""
"pit-trial","14","175495","0.0-2.0-6.0-0.0","battery-v0.2","","""event"",""trial"",""time""
""focus"",""0"",""1""
""fullscreenenter"",""1"",""2848""
","
","""event"",""trial"",""time""
""focus"",""0"",""1""
","""event"",""trial"",""time""
""fullscreenenter"",""1"",""2848""
","
","","","-1","","","12","3374","2312","&#9854;","elianto","#FFFFF080","-1","-1","1","&#10004","[]","0","0","1","","","","","","","",""
"pit-trial","15","180350","0.0-2.0-6.1-0.1","battery-v0.2","","""event"",""trial"",""time""
""focus"",""0"",""1""
""fullscreenenter"",""1"",""2848""
","
","""event"",""trial"",""time""
""focus"",""0"",""1""
","""event"",""trial"",""time""
""fullscreenenter"",""1"",""2848""
","
","","","-1","","","12","3374","2312","&#9854;","elianto","#FFFFF080","-1","-1","1","&#10004","[]","0","0","1","","","","","","","",""
"pit-trial","16","185205","0.0-2.0-6.2-0.2","battery-v0.2","","""event"",""trial"",""time""
""focus"",""0"",""1""
""fullscreenenter"",""1"",""2848""
","
","""event"",""trial"",""time""
""focus"",""0"",""1""
","""event"",""trial"",""time""
""fullscreenenter"",""1"",""2848""
","
","","","-1","","","12","3374","2312","&#9854;","elianto","#FFFFF080","-1","-1","1","&#10004","[]","0","0","1","","","","","","","",""
"pit-trial","17","190056","0.0-2.0-6.3-0.3","battery-v0.2","","""event"",""trial"",""time""
""focus"",""0"",""1""
""fullscreenenter"",""1"",""2848""
","
","""event"",""trial"",""time""
""focus"",""0"",""1""
","""event"",""trial"",""time""
""fullscreenenter"",""1"",""2848""
","
","","","-1","","","12","3374","2312","&#9854;","elianto","#FFFFF080","-1","-1","1","&#10004","[]","0","0","1","","","","","","","",""
"pit-trial","18","194911","0.0-2.0-6.4-0.4","battery-v0.2","","""event"",""trial"",""time""
""focus"",""0"",""1""
""fullscreenenter"",""1"",""2848""
","
","""event"",""trial"",""time""
""focus"",""0"",""1""
","""event"",""trial"",""time""
""fullscreenenter"",""1"",""2848""
","
","","","-1","","","12","3374","2312","&#9854;","elianto","#FFFFF080","-1","-1","1","&#10004","[]","0","0","1","","","","","","","",""
"pit-instructions","19","334664","0.0-2.0-7.0","battery-v0.2","","""event"",""trial"",""time""
""focus"",""0"",""1""
""fullscreenenter"",""1"",""2848""
","
","""event"",""trial"",""time""
""focus"",""0"",""1""
","""event"",""trial"",""time""
""fullscreenenter"",""1"",""2848""
","
","","[{""page_index"":0,""viewing_time"":22441},{""page_index"":1,""viewing_time"":8935},{""page_index"":2,""viewing_time"":5552},{""page_index"":3,""viewing_time"":6168},{""page_index"":4,""viewing_time"":5785},{""page_index"":5,""viewing_time"":5851},{""page_index"":6,""viewing_time"":6052},{""page_index"":7,""viewing_time"":7235},{""page_index"":8,""viewing_time"":6786},{""page_index"":9,""viewing_time"":7769},{""page_index"":10,""viewing_time"":6684},{""page_index"":11,""viewing_time"":4552},{""page_index"":12,""viewing_time"":10187},{""page_index"":13,""viewing_time"":6184},{""page_index"":14,""viewing_time"":8603},{""page_index"":15,""viewing_time"":6802},{""page_index"":16,""viewing_time"":6986},{""page_index"":17,""viewing_time"":7185}]","139757","","","","","","","","","","","","","","","","","","","","","","","",""
"pit-trial","20","337997","0.0-2.0-8.0-0.0","battery-v0.2","","""event"",""trial"",""time""
""focus"",""0"",""1""
""fullscreenenter"",""1"",""2848""
","
","""event"",""trial"",""time""
""focus"",""0"",""1""
","""event"",""trial"",""time""
""fullscreenenter"",""1"",""2848""
","
","","","479","","","12","3374","2312","&#9776;","elianto","#3366ff99"," "," ","1","+10","[1328]","1","0","1","","","","","","","",""
"pit-trial","21","340997","0.0-2.0-8.0-1.0","battery-v0.2","","""event"",""trial"",""time""
""focus"",""0"",""1""
""fullscreenenter"",""1"",""2848""
","
","""event"",""trial"",""time""
""focus"",""0"",""1""
","""event"",""trial"",""time""
""fullscreenenter"",""1"",""2848""
","
","","","143","","","12","3374","2312","&#9776;","elianto","#3366ff99"," "," ","1","+10","[998]","1","0","1","","","","","","","",""
"pit-trial","22","345225","0.0-2.0-8.0-2.0","battery-v0.2","","""event"",""trial"",""time""
""focus"",""0"",""1""
""fullscreenenter"",""1"",""2848""
","
","""event"",""trial"",""time""
""focus"",""0"",""1""
","""event"",""trial"",""time""
""fullscreenenter"",""1"",""2848""
","
","","","1372","","","12","3374","2312","&#9776;","elianto","#3366ff99"," "," ","1","+10","[2226]","1","0","1","","","","","","","",""
"pit-trial","23","349301","0.0-2.0-8.0-3.0","battery-v0.2","","""event"",""trial"",""time""
""focus"",""0"",""1""
""fullscreenenter"",""1"",""2848""
","
","""event"",""trial"",""time""
""focus"",""0"",""1""
","""event"",""trial"",""time""
""fullscreenenter"",""1"",""2848""
","
","","","1222","","","12","3374","2312","&#9776;","elianto","#3366ff99"," "," ","1","0","[2071]","1","0","1","","","","","","","",""
"pit-trial","24","352902","0.0-2.0-8.0-4.0","battery-v0.2","","""event"",""trial"",""time""
""focus"",""0"",""1""
""fullscreenenter"",""1"",""2848""
","
","""event"",""trial"",""time""
""focus"",""0"",""1""
","""event"",""trial"",""time""
""fullscreenenter"",""1"",""2848""
","
","","","744","","","12","3374","2312","&#9776;","elianto","#3366ff99"," "," ","1","+10","[1594]","1","0","1","","","","","","","",""
"pit-trial","25","356685","0.0-2.0-8.1-0.1","battery-v0.2","","""event"",""trial"",""time""
""focus"",""0"",""1""
""fullscreenenter"",""1"",""2848""
","
","""event"",""trial"",""time""
""focus"",""0"",""1""
","""event"",""trial"",""time""
""fullscreenenter"",""1"",""2848""
","
","","","927","","","12","3374","2312","&#9776;","elianto","#3366ff99"," "," ","1","+10","[1778]","1","0","1","","","","","","","",""
"pit-trial","26","361389","0.0-2.0-8.1-1.1","battery-v0.2","","""event"",""trial"",""time""
""focus"",""0"",""1""
""fullscreenenter"",""1"",""2848""
","
","""event"",""trial"",""time""
""focus"",""0"",""1""
","""event"",""trial"",""time""
""fullscreenenter"",""1"",""2848""
","
","","","1844","","","12","3374","2312","&#9776;","elianto","#3366ff99"," "," ","1","+10","[2699]","1","0","1","","","","","","","",""
"pit-trial","27","366146","0.0-2.0-8.1-2.1","battery-v0.2","","""event"",""trial"",""time""
""focus"",""0"",""1""
""fullscreenenter"",""1"",""2848""
","
","""event"",""trial"",""time""
""focus"",""0"",""1""
","""event"",""trial"",""time""
""fullscreenenter"",""1"",""2848""
","
","","","1905","","","12","3374","2312","&#9776;","elianto","#3366ff99"," "," ","1","+10","[2754]","1","0","1","","","","","","","",""
"pit-trial","28","370449","0.0-2.0-8.1-3.1","battery-v0.2","","""event"",""trial"",""time""
""focus"",""0"",""1""
""fullscreenenter"",""1"",""2848""
","
","""event"",""trial"",""time""
""focus"",""0"",""1""
","""event"",""trial"",""time""
""fullscreenenter"",""1"",""2848""
","
","","","1451","","","12","3374","2312","&#9776;","elianto","#3366ff99"," "," ","1","0","[2301]","1","0","1","","","","","","","",""
"pit-trial","29","373793","0.0-2.0-8.1-4.1","battery-v0.2","","""event"",""trial"",""time""
""focus"",""0"",""1""
""fullscreenenter"",""1"",""2848""
","
","""event"",""trial"",""time""
""focus"",""0"",""1""
","""event"",""trial"",""time""
""fullscreenenter"",""1"",""2848""
","
","","","491","","","12","3374","2312","&#9776;","elianto","#3366ff99"," "," ","1","+10","[1342]","1","0","1","","","","","","","",""
"pit-trial","30","377208","0.0-2.0-8.2-0.2","battery-v0.2","","""event"",""trial"",""time""
""focus"",""0"",""1""
""fullscreenenter"",""1"",""2848""
","
","""event"",""trial"",""time""
""focus"",""0"",""1""
","""event"",""trial"",""time""
""fullscreenenter"",""1"",""2848""
","
","","","562","","","12","3374","2312","&#9776;","elianto","#3366ff99"," "," ","1","+10","[1413]","1","0","1","","","","","","","",""
"pit-trial","31","380705","0.0-2.0-8.2-1.2","battery-v0.2","","""event"",""trial"",""time""
""focus"",""0"",""1""
""fullscreenenter"",""1"",""2848""
","
","""event"",""trial"",""time""
""focus"",""0"",""1""
","""event"",""trial"",""time""
""fullscreenenter"",""1"",""2848""
","
","","","642","","","12","3374","2312","&#9776;","elianto","#3366ff99"," "," ","1","+10","[1494]","1","0","1","","","","","","","",""
"pit-trial","32","384087","0.0-2.0-8.2-2.2","battery-v0.2","","""event"",""trial"",""time""
""focus"",""0"",""1""
""fullscreenenter"",""1"",""2848""
","
","""event"",""trial"",""time""
""focus"",""0"",""1""
","""event"",""trial"",""time""
""fullscreenenter"",""1"",""2848""
","
","","","529","","","12","3374","2312","&#9776;","elianto","#3366ff99"," "," ","1","+10","[1381]","1","0","1","","","","","","","",""
"pit-trial","33","388940","0.0-2.0-8.2-3.2","battery-v0.2","","""event"",""trial"",""time""
""focus"",""0"",""1""
""fullscreenenter"",""1"",""2848""
","
","""event"",""trial"",""time""
""focus"",""0"",""1""
","""event"",""trial"",""time""
""fullscreenenter"",""1"",""2848""
","
","","","-1","","","12","3374","2312","&#9776;","elianto","#3366ff99"," ","-1","0","+10","[3327,4463]","2","0","1","","","","","","","",""
"pit-trial","34","393797","0.0-2.0-8.2-4.2","battery-v0.2","","""event"",""trial"",""time""
""focus"",""0"",""1""
""fullscreenenter"",""1"",""2848""
","
","""event"",""trial"",""time""
""focus"",""0"",""1""
","""event"",""trial"",""time""
""fullscreenenter"",""1"",""2848""
","
","","","-1","","","12","3374","2312","&#9776;","elianto","#3366ff99"," ","-1","0","0","[3818]","1","0","1","","","","","","","",""
"call-function","35","393797","0.0-2.0-9.0","battery-v0.2","","""event"",""trial"",""time""
""focus"",""0"",""1""
""fullscreenenter"",""1"",""2848""
","
","""event"",""trial"",""time""
""focus"",""0"",""1""
","""event"",""trial"",""time""
""fullscreenenter"",""1"",""2848""
","
","","","","","","","","","","","","","","","","","","","","","","","","","","",""
"pit-instructions","36","445473","0.0-2.0-10.0","battery-v0.2","","""event"",""trial"",""time""
""focus"",""0"",""1""
""fullscreenenter"",""1"",""2848""
","
","""event"",""trial"",""time""
""focus"",""0"",""1""
","""event"",""trial"",""time""
""fullscreenenter"",""1"",""2848""
","
","","[{""page_index"":0,""viewing_time"":12849},{""page_index"":1,""viewing_time"":9136},{""page_index"":2,""viewing_time"":10203},{""page_index"":3,""viewing_time"":12254},{""page_index"":4,""viewing_time"":7235}]","51677","","","","","","","","","","","","","","","","","","","","","","","",""
"pit-trial","37","449336","0.0-2.0-11.0-0.0","battery-v0.2","","""event"",""trial"",""time""
""focus"",""0"",""1""
""fullscreenenter"",""1"",""2848""
","
","""event"",""trial"",""time""
""focus"",""0"",""1""
","""event"",""trial"",""time""
""fullscreenenter"",""1"",""2848""
","
","","","1007","","","12","3374","2312","&#9761;","elianto","#3366ff99","-1"," ","0","0","[1858]","1","0","2","","","","","","","",""
"pit-trial","38","452280","0.0-2.0-11.0-1.0","battery-v0.2","","""event"",""trial"",""time""
""focus"",""0"",""1""
""fullscreenenter"",""1"",""2848""
","
","""event"",""trial"",""time""
""focus"",""0"",""1""
","""event"",""trial"",""time""
""fullscreenenter"",""1"",""2848""
","
","","","90","","","12","3374","2312","&#9761;","elianto","#3366ff99","-1"," ","0","0","[939]","1","0","2","","","","","","","",""
"pit-trial","39","455281","0.0-2.0-11.0-2.0","battery-v0.2","","""event"",""trial"",""time""
""focus"",""0"",""1""
""fullscreenenter"",""1"",""2848""
","
","""event"",""trial"",""time""
""focus"",""0"",""1""
","""event"",""trial"",""time""
""fullscreenenter"",""1"",""2848""
","
","","","146","","","12","3374","2312","&#9761;","elianto","#3366ff99","-1"," ","0","0","[996]","1","0","2","","","","","","","",""
"pit-trial","40","458481","0.0-2.0-11.0-3.0","battery-v0.2","","""event"",""trial"",""time""
""focus"",""0"",""1""
""fullscreenenter"",""1"",""2848""
","
","""event"",""trial"",""time""
""focus"",""0"",""1""
","""event"",""trial"",""time""
""fullscreenenter"",""1"",""2848""
","
","","","343","","","12","3374","2312","&#9761;","elianto","#3366ff99","-1"," ","0","+10","[1196]","1","0","2","","","","","","","",""
"pit-trial","41","461648","0.0-2.0-11.0-4.0","battery-v0.2","","""event"",""trial"",""time""
""focus"",""0"",""1""
""fullscreenenter"",""1"",""2848""
","
","""event"",""trial"",""time""
""focus"",""0"",""1""
","""event"",""trial"",""time""
""fullscreenenter"",""1"",""2848""
","
","","","309","","","12","3374","2312","&#9761;","elianto","#3366ff99","-1"," ","0","0","[1161]","1","0","2","","","","","","","",""
"pit-trial","42","465886","0.0-2.0-11.1-0.1","battery-v0.2","","""event"",""trial"",""time""
""focus"",""0"",""1""
""fullscreenenter"",""1"",""2848""
","
","""event"",""trial"",""time""
""focus"",""0"",""1""
","""event"",""trial"",""time""
""fullscreenenter"",""1"",""2848""
","
","","","1385","","","12","3374","2312","&#9761;","elianto","#3366ff99","-1"," ","0","0","[2236]","1","0","2","","","","","","","",""
"pit-trial","43","469316","0.0-2.0-11.1-1.1","battery-v0.2","","""event"",""trial"",""time""
""focus"",""0"",""1""
""fullscreenenter"",""1"",""2848""
","
","""event"",""trial"",""time""
""focus"",""0"",""1""
","""event"",""trial"",""time""
""fullscreenenter"",""1"",""2848""
","
","","","578","","","12","3374","2312","&#9761;","elianto","#3366ff99","-1"," ","0","0","[1428]","1","0","2","","","","","","","",""
"pit-trial","44","472944","0.0-2.0-11.1-2.1","battery-v0.2","","""event"",""trial"",""time""
""focus"",""0"",""1""
""fullscreenenter"",""1"",""2848""
","
","""event"",""trial"",""time""
""focus"",""0"",""1""
","""event"",""trial"",""time""
""fullscreenenter"",""1"",""2848""
","
","","","771","","","12","3374","2312","&#9761;","elianto","#3366ff99","-1"," ","0","0","[1623]","1","0","2","","","","","","","",""
"pit-trial","45","477801","0.0-2.0-11.1-3.1","battery-v0.2","","""event"",""trial"",""time""
""focus"",""0"",""1""
""fullscreenenter"",""1"",""2848""
","
","""event"",""trial"",""time""
""focus"",""0"",""1""
","""event"",""trial"",""time""
""fullscreenenter"",""1"",""2848""
","
","","","-1","","","12","3374","2312","&#9761;","elianto","#3366ff99","-1","-1","1","0","[]","0","0","2","","","","","","","",""
"pit-trial","46","482657","0.0-2.0-11.1-4.1","battery-v0.2","","""event"",""trial"",""time""
""focus"",""0"",""1""
""fullscreenenter"",""1"",""2848""
","
","""event"",""trial"",""time""
""focus"",""0"",""1""
","""event"",""trial"",""time""
""fullscreenenter"",""1"",""2848""
","
","","","-1","","","12","3374","2312","&#9761;","elianto","#3366ff99","-1","-1","1","+10","[]","0","0","2","","","","","","","",""
"pit-trial","47","487512","0.0-2.0-11.2-0.2","battery-v0.2","","""event"",""trial"",""time""
""focus"",""0"",""1""
""fullscreenenter"",""1"",""2848""
","
","""event"",""trial"",""time""
""focus"",""0"",""1""
","""event"",""trial"",""time""
""fullscreenenter"",""1"",""2848""
","
","","","-1","","","12","3374","2312","&#9761;","elianto","#3366ff99","-1","-1","1","+10","[]","0","0","2","","","","","","","",""
"pit-trial","48","492368","0.0-2.0-11.2-1.2","battery-v0.2","","""event"",""trial"",""time""
""focus"",""0"",""1""
""fullscreenenter"",""1"",""2848""
","
","""event"",""trial"",""time""
""focus"",""0"",""1""
","""event"",""trial"",""time""
""fullscreenenter"",""1"",""2848""
","
","","","-1","","","12","3374","2312","&#9761;","elianto","#3366ff99","-1","-1","1","+10","[]","0","0","2","","","","","","","",""
"pit-trial","49","497224","0.0-2.0-11.2-2.2","battery-v0.2","","""event"",""trial"",""time""
""focus"",""0"",""1""
""fullscreenenter"",""1"",""2848""
","
","""event"",""trial"",""time""
""focus"",""0"",""1""
","""event"",""trial"",""time""
""fullscreenenter"",""1"",""2848""
","
","","","-1","","","12","3374","2312","&#9761;","elianto","#3366ff99","-1","-1","1","+10","[]","0","0","2","","","","","","","",""
"pit-trial","50","501159","0.0-2.0-11.2-3.2","battery-v0.2","","""event"",""trial"",""time""
""focus"",""0"",""1""
""fullscreenenter"",""1"",""2848""
","
","""event"",""trial"",""time""
""focus"",""0"",""1""
","""event"",""trial"",""time""
""fullscreenenter"",""1"",""2848""
","
","","","1080","","","12","3374","2312","&#9761;","elianto","#3366ff99","-1"," ","0","+10","[1930]","1","0","2","","","","","","","",""
"pit-trial","51","505436","0.0-2.0-11.2-4.2","battery-v0.2","","""event"",""trial"",""time""
""focus"",""0"",""1""
""fullscreenenter"",""1"",""2848""
","
","""event"",""trial"",""time""
""focus"",""0"",""1""
","""event"",""trial"",""time""
""fullscreenenter"",""1"",""2848""
","
","","","1424","","","12","3374","2312","&#9761;","elianto","#3366ff99","-1"," ","0","0","[2274]","1","0","2","","","","","","","",""
"pit-trial","52","510291","0.0-2.0-11.3-0.3","battery-v0.2","","""event"",""trial"",""time""
""focus"",""0"",""1""
""fullscreenenter"",""1"",""2848""
","
","""event"",""trial"",""time""
""focus"",""0"",""1""
","""event"",""trial"",""time""
""fullscreenenter"",""1"",""2848""
","
","","","-1","","","12","3374","2312","&#9761;","elianto","#3366ff99","-1","-1","1","+10","[]","0","0","2","","","","","","","",""
"pit-trial","53","515150","0.0-2.0-11.3-1.3","battery-v0.2","","""event"",""trial"",""time""
""focus"",""0"",""1""
""fullscreenenter"",""1"",""2848""
","
","""event"",""trial"",""time""
""focus"",""0"",""1""
","""event"",""trial"",""time""
""fullscreenenter"",""1"",""2848""
","
","","","-1","","","12","3374","2312","&#9761;","elianto","#3366ff99","-1","-1","1","+10","[]","0","0","2","","","","","","","",""
"pit-trial","54","520003","0.0-2.0-11.3-2.3","battery-v0.2","","""event"",""trial"",""time""
""focus"",""0"",""1""
""fullscreenenter"",""1"",""2848""
","
","""event"",""trial"",""time""
""focus"",""0"",""1""
","""event"",""trial"",""time""
""fullscreenenter"",""1"",""2848""
","
","","","-1","","","12","3374","2312","&#9761;","elianto","#3366ff99","-1","-1","1","+10","[]","0","0","2","","","","","","","",""
"pit-trial","55","524858","0.0-2.0-11.3-3.3","battery-v0.2","","""event"",""trial"",""time""
""focus"",""0"",""1""
""fullscreenenter"",""1"",""2848""
","
","""event"",""trial"",""time""
""focus"",""0"",""1""
","""event"",""trial"",""time""
""fullscreenenter"",""1"",""2848""
","
","","","-1","","","12","3374","2312","&#9761;","elianto","#3366ff99","-1","-1","1","0","[]","0","0","2","","","","","","","",""
"pit-trial","56","529714","0.0-2.0-11.3-4.3","battery-v0.2","","""event"",""trial"",""time""
""focus"",""0"",""1""
""fullscreenenter"",""1"",""2848""
","
","""event"",""trial"",""time""
""focus"",""0"",""1""
","""event"",""trial"",""time""
""fullscreenenter"",""1"",""2848""
","
","","","-1","","","12","3374","2312","&#9761;","elianto","#3366ff99","-1","-1","1","+10","[]","0","0","2","","","","","","","",""
"call-function","57","529714","0.0-2.0-12.0","battery-v0.2","","""event"",""trial"",""time""
""focus"",""0"",""1""
""fullscreenenter"",""1"",""2848""
","
","""event"",""trial"",""time""
""focus"",""0"",""1""
","""event"",""trial"",""time""
""fullscreenenter"",""1"",""2848""
","
","","","","","","","","","","","","","","","","","","","","","","","","","","",""
"pit-instructions","58","567504","0.0-2.0-13.0","battery-v0.2","","""event"",""trial"",""time""
""focus"",""0"",""1""
""fullscreenenter"",""1"",""2848""
","
","""event"",""trial"",""time""
""focus"",""0"",""1""
","""event"",""trial"",""time""
""fullscreenenter"",""1"",""2848""
","
","","[{""page_index"":0,""viewing_time"":7800},{""page_index"":1,""viewing_time"":7001},{""page_index"":2,""viewing_time"":3967},{""page_index"":3,""viewing_time"":13005},{""page_index"":4,""viewing_time"":6018}]","37791","","","","","","","","","","","","","","","","","","","","","","","",""
"pit-trial","59","572359","0.0-2.0-14.0-0.0","battery-v0.2","","""event"",""trial"",""time""
""focus"",""0"",""1""
""fullscreenenter"",""1"",""2848""
","
","""event"",""trial"",""time""
""focus"",""0"",""1""
","""event"",""trial"",""time""
""fullscreenenter"",""1"",""2848""
","
","","","-1","","","12","3374","2312","&#9826;","elianto","#f73b6a7A","-1","-1","1","0","[]","0","0","3","","","","","","","",""
"pit-trial","60","576013","0.0-2.0-14.0-1.0","battery-v0.2","","""event"",""trial"",""time""
""focus"",""0"",""1""
""fullscreenenter"",""1"",""2848""
","
","""event"",""trial"",""time""
""focus"",""0"",""1""
","""event"",""trial"",""time""
""fullscreenenter"",""1"",""2848""
","
","","","798","","","12","3374","2312","&#9826;","elianto","#f73b6a7A","-1"," ","0","-10","[1648]","1","0","3","","","","","","","",""
"pit-trial","61","580870","0.0-2.0-14.0-2.0","battery-v0.2","","""event"",""trial"",""time""
""focus"",""0"",""1""
""fullscreenenter"",""1"",""2848""
","
","""event"",""trial"",""time""
""focus"",""0"",""1""
","""event"",""trial"",""time""
""fullscreenenter"",""1"",""2848""
","
","","","-1","","","12","3374","2312","&#9826;","elianto","#f73b6a7A","-1","-1","1","0","[]","0","0","3","","","","","","","",""
"pit-trial","62","585724","0.0-2.0-14.0-3.0","battery-v0.2","","""event"",""trial"",""time""
""focus"",""0"",""1""
""fullscreenenter"",""1"",""2848""
","
","""event"",""trial"",""time""
""focus"",""0"",""1""
","""event"",""trial"",""time""
""fullscreenenter"",""1"",""2848""
","
","","","-1","","","12","3374","2312","&#9826;","elianto","#f73b6a7A","-1","-1","1","-10","[]","0","0","3","","","","","","","",""
"pit-trial","63","590579","0.0-2.0-14.0-4.0","battery-v0.2","","""event"",""trial"",""time""
""focus"",""0"",""1""
""fullscreenenter"",""1"",""2848""
","
","""event"",""trial"",""time""
""focus"",""0"",""1""
","""event"",""trial"",""time""
""fullscreenenter"",""1"",""2848""
","
","","","-1","","","12","3374","2312","&#9826;","elianto","#f73b6a7A","-1","-1","1","0","[]","0","0","3","","","","","","","",""
"pit-trial","64","595434","0.0-2.0-14.1-0.1","battery-v0.2","","""event"",""trial"",""time""
""focus"",""0"",""1""
""fullscreenenter"",""1"",""2848""
","
","""event"",""trial"",""time""
""focus"",""0"",""1""
","""event"",""trial"",""time""
""fullscreenenter"",""1"",""2848""
","
","","","-1","","","12","3374","2312","&#9826;","elianto","#f73b6a7A","-1","-1","1","0","[]","0","0","3","","","","","","","",""
"pit-trial","65","598808","0.0-2.0-14.1-1.1","battery-v0.2","","""event"",""trial"",""time""
""focus"",""0"",""1""
""fullscreenenter"",""1"",""2848""
","
","""event"",""trial"",""time""
""focus"",""0"",""1""
","""event"",""trial"",""time""
""fullscreenenter"",""1"",""2848""
","
","","","520","","","12","3374","2312","&#9826;","elianto","#f73b6a7A","-1"," ","0","-10","[1372]","1","0","3","","","","","","","",""
"pit-trial","66","603662","0.0-2.0-14.1-2.1","battery-v0.2","","""event"",""trial"",""time""
""focus"",""0"",""1""
""fullscreenenter"",""1"",""2848""
","
","""event"",""trial"",""time""
""focus"",""0"",""1""
","""event"",""trial"",""time""
""fullscreenenter"",""1"",""2848""
","
","","","-1","","","12","3374","2312","&#9826;","elianto","#f73b6a7A","-1","-1","1","0","[]","0","0","3","","","","","","","",""
"pit-trial","67","608518","0.0-2.0-14.1-3.1","battery-v0.2","","""event"",""trial"",""time""
""focus"",""0"",""1""
""fullscreenenter"",""1"",""2848""
","
","""event"",""trial"",""time""
""focus"",""0"",""1""
","""event"",""trial"",""time""
""fullscreenenter"",""1"",""2848""
","
","","","-1","","","12","3374","2312","&#9826;","elianto","#f73b6a7A","-1","-1","1","-10","[]","0","0","3","","","","","","","",""
"pit-trial","68","613377","0.0-2.0-14.1-4.1","battery-v0.2","","""event"",""trial"",""time""
""focus"",""0"",""1""
""fullscreenenter"",""1"",""2848""
","
","""event"",""trial"",""time""
""focus"",""0"",""1""
","""event"",""trial"",""time""
""fullscreenenter"",""1"",""2848""
","
","","","-1","","","12","3374","2312","&#9826;","elianto","#f73b6a7A","-1","-1","1","0","[]","0","0","3","","","","","","","",""
"pit-trial","69","618237","0.0-2.0-14.2-0.2","battery-v0.2","","""event"",""trial"",""time""
""focus"",""0"",""1""
""fullscreenenter"",""1"",""2848""
","
","""event"",""trial"",""time""
""focus"",""0"",""1""
","""event"",""trial"",""time""
""fullscreenenter"",""1"",""2848""
","
","","","-1","","","12","3374","2312","&#9826;","elianto","#f73b6a7A","-1","-1","1","0","[]","0","0","3","","","","","","","",""
"pit-trial","70","623090","0.0-2.0-14.2-1.2","battery-v0.2","","""event"",""trial"",""time""
""focus"",""0"",""1""
""fullscreenenter"",""1"",""2848""
","
","""event"",""trial"",""time""
""focus"",""0"",""1""
","""event"",""trial"",""time""
""fullscreenenter"",""1"",""2848""
","
","","","-1","","","12","3374","2312","&#9826;","elianto","#f73b6a7A","-1","-1","1","0","[]","0","0","3","","","","","","","",""
"pit-trial","71","627944","0.0-2.0-14.2-2.2","battery-v0.2","","""event"",""trial"",""time""
""focus"",""0"",""1""
""fullscreenenter"",""1"",""2848""
","
","""event"",""trial"",""time""
""focus"",""0"",""1""
","""event"",""trial"",""time""
""fullscreenenter"",""1"",""2848""
","
","","","-1","","","12","3374","2312","&#9826;","elianto","#f73b6a7A","-1","-1","1","0","[]","0","0","3","","","","","","","",""
"pit-trial","72","632797","0.0-2.0-14.2-3.2","battery-v0.2","","""event"",""trial"",""time""
""focus"",""0"",""1""
""fullscreenenter"",""1"",""2848""
","
","""event"",""trial"",""time""
""focus"",""0"",""1""
","""event"",""trial"",""time""
""fullscreenenter"",""1"",""2848""
","
","","","-1","","","12","3374","2312","&#9826;","elianto","#f73b6a7A","-1","-1","1","-10","[]","0","0","3","","","","","","","",""
"pit-trial","73","637653","0.0-2.0-14.2-4.2","battery-v0.2","","""event"",""trial"",""time""
""focus"",""0"",""1""
""fullscreenenter"",""1"",""2848""
","
","""event"",""trial"",""time""
""focus"",""0"",""1""
","""event"",""trial"",""time""
""fullscreenenter"",""1"",""2848""
","
","","","-1","","","12","3374","2312","&#9826;","elianto","#f73b6a7A","-1","-1","1","0","[]","0","0","3","","","","","","","",""
"pit-trial","74","642510","0.0-2.0-14.3-0.3","battery-v0.2","","""event"",""trial"",""time""
""focus"",""0"",""1""
""fullscreenenter"",""1"",""2848""
","
","""event"",""trial"",""time""
""focus"",""0"",""1""
","""event"",""trial"",""time""
""fullscreenenter"",""1"",""2848""
","
","","","-1","","","12","3374","2312","&#9826;","elianto","#f73b6a7A","-1","-1","1","0","[]","0","0","3","","","","","","","",""
"pit-trial","75","647366","0.0-2.0-14.3-1.3","battery-v0.2","","""event"",""trial"",""time""
""focus"",""0"",""1""
""fullscreenenter"",""1"",""2848""
","
","""event"",""trial"",""time""
""focus"",""0"",""1""
","""event"",""trial"",""time""
""fullscreenenter"",""1"",""2848""
","
","","","-1","","","12","3374","2312","&#9826;","elianto","#f73b6a7A","-1","-1","1","0","[]","0","0","3","","","","","","","",""
"pit-trial","76","652219","0.0-2.0-14.3-2.3","battery-v0.2","","""event"",""trial"",""time""
""focus"",""0"",""1""
""fullscreenenter"",""1"",""2848""
","
","""event"",""trial"",""time""
""focus"",""0"",""1""
","""event"",""trial"",""time""
""fullscreenenter"",""1"",""2848""
","
","","","-1","","","12","3374","2312","&#9826;","elianto","#f73b6a7A","-1","-1","1","0","[]","0","0","3","","","","","","","",""
"pit-trial","77","657072","0.0-2.0-14.3-3.3","battery-v0.2","","""event"",""trial"",""time""
""focus"",""0"",""1""
""fullscreenenter"",""1"",""2848""
","
","""event"",""trial"",""time""
""focus"",""0"",""1""
","""event"",""trial"",""time""
""fullscreenenter"",""1"",""2848""
","
","","","-1","","","12","3374","2312","&#9826;","elianto","#f73b6a7A","-1","-1","1","-10","[]","0","0","3","","","","","","","",""
"pit-trial","78","661928","0.0-2.0-14.3-4.3","battery-v0.2","","""event"",""trial"",""time""
""focus"",""0"",""1""
""fullscreenenter"",""1"",""2848""
","
","""event"",""trial"",""time""
""focus"",""0"",""1""
","""event"",""trial"",""time""
""fullscreenenter"",""1"",""2848""
","
","","","-1","","","12","3374","2312","&#9826;","elianto","#f73b6a7A","-1","-1","1","0","[]","0","0","3","","","","","","","",""
"call-function","79","661929","0.0-2.0-15.0","battery-v0.2","","""event"",""trial"",""time""
""focus"",""0"",""1""
""fullscreenenter"",""1"",""2848""
","
","""event"",""trial"",""time""
""focus"",""0"",""1""
","""event"",""trial"",""time""
""fullscreenenter"",""1"",""2848""
","
","","","","","","","","","","","","","","","","","","","","","","","","","","",""
"pit-instructions","80","698903","0.0-2.0-16.0","battery-v0.2","","""event"",""trial"",""time""
""focus"",""0"",""1""
""fullscreenenter"",""1"",""2848""
","
","""event"",""trial"",""time""
""focus"",""0"",""1""
","""event"",""trial"",""time""
""fullscreenenter"",""1"",""2848""
","
","","[{""page_index"":0,""viewing_time"":11433},{""page_index"":1,""viewing_time"":8987},{""page_index"":2,""viewing_time"":12269},{""page_index"":3,""viewing_time"":4284}]","36974","","","","","","","","","","","","","","","","","","","","","","","",""
"pit-trial","81","703756","0.0-2.0-17.0-0.0","battery-v0.2","","""event"",""trial"",""time""
""focus"",""0"",""1""
""fullscreenenter"",""1"",""2848""
","
","""event"",""trial"",""time""
""focus"",""0"",""1""
","""event"",""trial"",""time""
""fullscreenenter"",""1"",""2848""
","
","","","-1","","","12","3374","2312","&#9789;","elianto","#f73b6a7A"," ","-1","0","-10","[]","0","0","4","","","","","","","",""
"pit-trial","82","708610","0.0-2.0-17.0-1.0","battery-v0.2","","""event"",""trial"",""time""
""focus"",""0"",""1""
""fullscreenenter"",""1"",""2848""
","
","""event"",""trial"",""time""
""focus"",""0"",""1""
","""event"",""trial"",""time""
""fullscreenenter"",""1"",""2848""
","
","","","-1","","","12","3374","2312","&#9789;","elianto","#f73b6a7A"," ","-1","0","-10","[]","0","0","4","","","","","","","",""
"pit-trial","83","712500","0.0-2.0-17.0-2.0","battery-v0.2","","""event"",""trial"",""time""
""focus"",""0"",""1""
""fullscreenenter"",""1"",""2848""
","
","""event"",""trial"",""time""
""focus"",""0"",""1""
","""event"",""trial"",""time""
""fullscreenenter"",""1"",""2848""
","
","","","1036","","","12","3374","2312","&#9789;","elianto","#f73b6a7A"," "," ","1","0","[1889]","1","0","4","","","","","","","",""
"pit-trial","84","715884","0.0-2.0-17.0-3.0","battery-v0.2","","""event"",""trial"",""time""
""focus"",""0"",""1""
""fullscreenenter"",""1"",""2848""
","
","""event"",""trial"",""time""
""focus"",""0"",""1""
","""event"",""trial"",""time""
""fullscreenenter"",""1"",""2848""
","
","","","532","","","12","3374","2312","&#9789;","elianto","#f73b6a7A"," "," ","1","-10","[1382]","1","0","4","","","","","","","",""
"pit-trial","85","719149","0.0-2.0-17.0-4.0","battery-v0.2","","""event"",""trial"",""time""
""focus"",""0"",""1""
""fullscreenenter"",""1"",""2848""
","
","""event"",""trial"",""time""
""focus"",""0"",""1""
","""event"",""trial"",""time""
""fullscreenenter"",""1"",""2848""
","
","","","411","","","12","3374","2312","&#9789;","elianto","#f73b6a7A"," "," ","1","0","[1262]","1","0","4","","","","","","","",""
"pit-trial","86","722731","0.0-2.0-17.1-0.1","battery-v0.2","","""event"",""trial"",""time""
""focus"",""0"",""1""
""fullscreenenter"",""1"",""2848""
","
","""event"",""trial"",""time""
""focus"",""0"",""1""
","""event"",""trial"",""time""
""fullscreenenter"",""1"",""2848""
","
","","","729","","","12","3374","2312","&#9789;","elianto","#f73b6a7A"," "," ","1","0","[1580]","1","0","4","","","","","","","",""
"pit-trial","87","725931","0.0-2.0-17.1-1.1","battery-v0.2","","""event"",""trial"",""time""
""focus"",""0"",""1""
""fullscreenenter"",""1"",""2848""
","
","""event"",""trial"",""time""
""focus"",""0"",""1""
","""event"",""trial"",""time""
""fullscreenenter"",""1"",""2848""
","
","","","345","","","12","3374","2312","&#9789;","elianto","#f73b6a7A"," "," ","1","0","[1198]","1","0","4","","","","","","","",""
"pit-trial","88","729163","0.0-2.0-17.1-2.1","battery-v0.2","","""event"",""trial"",""time""
""focus"",""0"",""1""
""fullscreenenter"",""1"",""2848""
","
","""event"",""trial"",""time""
""focus"",""0"",""1""
","""event"",""trial"",""time""
""fullscreenenter"",""1"",""2848""
","
","","","379","","","12","3374","2312","&#9789;","elianto","#f73b6a7A"," "," ","1","0","[1230]","1","0","4","","","","","","","",""
"pit-trial","89","732605","0.0-2.0-17.1-3.1","battery-v0.2","","""event"",""trial"",""time""
""focus"",""0"",""1""
""fullscreenenter"",""1"",""2848""
","
","""event"",""trial"",""time""
""focus"",""0"",""1""
","""event"",""trial"",""time""
""fullscreenenter"",""1"",""2848""
","
","","","587","","","12","3374","2312","&#9789;","elianto","#f73b6a7A"," "," ","1","-10","[1439,2279,2903]","3","0","4","","","","","","","",""
"pit-trial","90","735847","0.0-2.0-17.1-4.1","battery-v0.2","","""event"",""trial"",""time""
""focus"",""0"",""1""
""fullscreenenter"",""1"",""2848""
","
","""event"",""trial"",""time""
""focus"",""0"",""1""
","""event"",""trial"",""time""
""fullscreenenter"",""1"",""2848""
","
","","","386","","","12","3374","2312","&#9789;","elianto","#f73b6a7A"," "," ","1","0","[1236]","1","0","4","","","","","","","",""
"pit-trial","91","738967","0.0-2.0-17.2-0.2","battery-v0.2","","""event"",""trial"",""time""
""focus"",""0"",""1""
""fullscreenenter"",""1"",""2848""
","
","""event"",""trial"",""time""
""focus"",""0"",""1""
","""event"",""trial"",""time""
""fullscreenenter"",""1"",""2848""
","
","","","263","","","12","3374","2312","&#9789;","elianto","#f73b6a7A"," "," ","1","0","[1114]","1","0","4","","","","","","","",""
"pit-trial","92","742116","0.0-2.0-17.2-1.2","battery-v0.2","","""event"",""trial"",""time""
""focus"",""0"",""1""
""fullscreenenter"",""1"",""2848""
","
","""event"",""trial"",""time""
""focus"",""0"",""1""
","""event"",""trial"",""time""
""fullscreenenter"",""1"",""2848""
","
","","","296","","","12","3374","2312","&#9789;","elianto","#f73b6a7A"," "," ","1","0","[1147]","1","0","4","","","","","","","",""
"pit-trial","93","744980","0.0-2.0-17.2-2.2","battery-v0.2","","""event"",""trial"",""time""
""focus"",""0"",""1""
""fullscreenenter"",""1"",""2848""
","
","""event"",""trial"",""time""
""focus"",""0"",""1""
","""event"",""trial"",""time""
""fullscreenenter"",""1"",""2848""
","
","","","5","","","12","3374","2312","&#9789;","elianto","#f73b6a7A"," "," ","1","0","[861]","1","0","4","","","","","","","",""
"pit-trial","94","747998","0.0-2.0-17.2-3.2","battery-v0.2","","""event"",""trial"",""time""
""focus"",""0"",""1""
""fullscreenenter"",""1"",""2848""
","
","""event"",""trial"",""time""
""focus"",""0"",""1""
","""event"",""trial"",""time""
""fullscreenenter"",""1"",""2848""
","
","","","163","","","12","3374","2312","&#9789;","elianto","#f73b6a7A"," "," ","1","-10","[1014]","1","0","4","","","","","","","",""
"pit-trial","95","752854","0.0-2.0-17.2-4.2","battery-v0.2","","""event"",""trial"",""time""
""focus"",""0"",""1""
""fullscreenenter"",""1"",""2848""
","
","""event"",""trial"",""time""
""focus"",""0"",""1""
","""event"",""trial"",""time""
""fullscreenenter"",""1"",""2848""
","
","","","-1","","","12","3374","2312","&#9789;","elianto","#f73b6a7A"," ","-1","0","-10","[3114]","1","0","4","","","","","","","",""
"pit-trial","96","755988","0.0-2.0-17.3-0.3","battery-v0.2","","""event"",""trial"",""time""
""focus"",""0"",""1""
""fullscreenenter"",""1"",""2848""
","
","""event"",""trial"",""time""
""focus"",""0"",""1""
","""event"",""trial"",""time""
""fullscreenenter"",""1"",""2848""
","
","","","279","","","12","3374","2312","&#9789;","elianto","#f73b6a7A"," "," ","1","0","[1130]","1","0","4","","","","","","","",""
"pit-trial","97","759286","0.0-2.0-17.3-1.3","battery-v0.2","","""event"",""trial"",""time""
""focus"",""0"",""1""
""fullscreenenter"",""1"",""2848""
","
","""event"",""trial"",""time""
""focus"",""0"",""1""
","""event"",""trial"",""time""
""fullscreenenter"",""1"",""2848""
","
","","","438","","","12","3374","2312","&#9789;","elianto","#f73b6a7A"," "," ","1","0","[1294]","1","0","4","","","","","","","",""
"pit-trial","98","762755","0.0-2.0-17.3-2.3","battery-v0.2","","""event"",""trial"",""time""
""focus"",""0"",""1""
""fullscreenenter"",""1"",""2848""
","
","""event"",""trial"",""time""
""focus"",""0"",""1""
","""event"",""trial"",""time""
""fullscreenenter"",""1"",""2848""
","
","","","616","","","12","3374","2312","&#9789;","elianto","#f73b6a7A"," "," ","1","0","[1467]","1","0","4","","","","","","","",""
"pit-trial","99","765659","0.0-2.0-17.3-3.3","battery-v0.2","","""event"",""trial"",""time""
""focus"",""0"",""1""
""fullscreenenter"",""1"",""2848""
","
","""event"",""trial"",""time""
""focus"",""0"",""1""
","""event"",""trial"",""time""
""fullscreenenter"",""1"",""2848""
","
","","","49","","","12","3374","2312","&#9789;","elianto","#f73b6a7A"," "," ","1","-10","[902]","1","0","4","","","","","","","",""
"pit-trial","100","768851","0.0-2.0-17.3-4.3","battery-v0.2","","""event"",""trial"",""time""
""focus"",""0"",""1""
""fullscreenenter"",""1"",""2848""
","
","""event"",""trial"",""time""
""focus"",""0"",""1""
","""event"",""trial"",""time""
""fullscreenenter"",""1"",""2848""
","
","","","336","","","12","3374","2312","&#9789;","elianto","#f73b6a7A"," "," ","1","0","[1189]","1","0","4","","","","","","","",""
"call-function","101","768851","0.0-2.0-18.0","battery-v0.2","","""event"",""trial"",""time""
""focus"",""0"",""1""
""fullscreenenter"",""1"",""2848""
","
","""event"",""trial"",""time""
""focus"",""0"",""1""
","""event"",""trial"",""time""
""fullscreenenter"",""1"",""2848""
","
","","","","","","","","","","","","","","","","","","","","","","","","","","",""
"pit-instructions","102","846304","0.0-2.0-19.0","battery-v0.2","","""event"",""trial"",""time""
""focus"",""0"",""1""
""fullscreenenter"",""1"",""2848""
","
","""event"",""trial"",""time""
""focus"",""0"",""1""
","""event"",""trial"",""time""
""fullscreenenter"",""1"",""2848""
","
","","[{""page_index"":0,""viewing_time"":10088},{""page_index"":1,""viewing_time"":9852},{""page_index"":2,""viewing_time"":15270},{""page_index"":3,""viewing_time"":8537},{""page_index"":4,""viewing_time"":8385},{""page_index"":5,""viewing_time"":9768},{""page_index"":6,""viewing_time"":6720},{""page_index"":7,""viewing_time"":5019},{""page_index"":8,""viewing_time"":3816}]","77455","","","","","","","","","","","","","","","","","","","","","","","",""
"pit-comprehension","103","854441","0.0-2.0-20.0-0.0","battery-v0.2","","""event"",""trial"",""time""
""focus"",""0"",""1""
""fullscreenenter"",""1"",""2848""
","
","""event"",""trial"",""time""
""focus"",""0"",""1""
","""event"",""trial"",""time""
""fullscreenenter"",""1"",""2848""
","
","","","8135","[""SPACE""]","0","12","3374","2312","","","","","","","","","","","","","","","","","","",""
"pit-instructions","104","858691","0.0-2.0-20.0-1.0","battery-v0.2","","""event"",""trial"",""time""
""focus"",""0"",""1""
""fullscreenenter"",""1"",""2848""
","
","""event"",""trial"",""time""
""focus"",""0"",""1""
","""event"",""trial"",""time""
""fullscreenenter"",""1"",""2848""
","
","","[{""page_index"":0,""viewing_time"":4230}]","4230","","","","","","","","","","","","","","","","","","","","","","","",""
"pit-comprehension","105","865594","0.0-2.0-21.0-0.0","battery-v0.2","","""event"",""trial"",""time""
""focus"",""0"",""1""
""fullscreenenter"",""1"",""2848""
","
","""event"",""trial"",""time""
""focus"",""0"",""1""
","""event"",""trial"",""time""
""fullscreenenter"",""1"",""2848""
","
","","","6901","[""10""]","0","12","3374","2312","","","","","","","","","","","","","","","","","","",""
"pit-instructions","106","871643","0.0-2.0-21.0-1.0","battery-v0.2","","""event"",""trial"",""time""
""focus"",""0"",""1""
""fullscreenenter"",""1"",""2848""
","
","""event"",""trial"",""time""
""focus"",""0"",""1""
","""event"",""trial"",""time""
""fullscreenenter"",""1"",""2848""
","
","","[{""page_index"":0,""viewing_time"":6031}]","6031","","","","","","","","","","","","","","","","","","","","","","","",""
"pit-comprehension","107","878247","0.0-2.0-22.0-0.0","battery-v0.2","","""event"",""trial"",""time""
""focus"",""0"",""1""
""fullscreenenter"",""1"",""2848""
","
","""event"",""trial"",""time""
""focus"",""0"",""1""
","""event"",""trial"",""time""
""fullscreenenter"",""1"",""2848""
","
","","","6601","[""10""]","1","12","3374","2312","","","","","","","","","","","","","","","","","","",""
"pit-instructions","108","882714","0.0-2.0-22.0-1.0","battery-v0.2","","""event"",""trial"",""time""
""focus"",""0"",""1""
""fullscreenenter"",""1"",""2848""
","
","""event"",""trial"",""time""
""focus"",""0"",""1""
","""event"",""trial"",""time""
""fullscreenenter"",""1"",""2848""
","
","","[{""page_index"":0,""viewing_time"":4449}]","4449","","","","","","","","","","","","","","","","","","","","","","","",""
"pit-instructions","109","883797","0.0-2.0-22.0-2.0-0.0","battery-v0.2","","""event"",""trial"",""time""
""focus"",""0"",""1""
""fullscreenenter"",""1"",""2848""
","
","""event"",""trial"",""time""
""focus"",""0"",""1""
","""event"",""trial"",""time""
""fullscreenenter"",""1"",""2848""
","
","","[{""page_index"":0,""viewing_time"":1083}]","1083","","","","","","","","","","","","","","","","","","","","","","","",""
"pit-comprehension","110","890983","0.0-2.0-22.1-0.1","battery-v0.2","","""event"",""trial"",""time""
""focus"",""0"",""1""
""fullscreenenter"",""1"",""2848""
","
","""event"",""trial"",""time""
""focus"",""0"",""1""
","""event"",""trial"",""time""
""fullscreenenter"",""1"",""2848""
","
","","","7185","[""0""]","0","12","3374","2312","","","","","","","","","","","","","","","","","","",""
"pit-instructions","111","892266","0.0-2.0-22.1-1.1","battery-v0.2","","""event"",""trial"",""time""
""focus"",""0"",""1""
""fullscreenenter"",""1"",""2848""
","
","""event"",""trial"",""time""
""focus"",""0"",""1""
","""event"",""trial"",""time""
""fullscreenenter"",""1"",""2848""
","
","","[{""page_index"":0,""viewing_time"":1264}]","1264","","","","","","","","","","","","","","","","","","","","","","","",""
"pit-comprehension","112","902953","0.0-2.0-23.0-0.0","battery-v0.2","","""event"",""trial"",""time""
""focus"",""0"",""1""
""fullscreenenter"",""1"",""2848""
","
","""event"",""trial"",""time""
""focus"",""0"",""1""
","""event"",""trial"",""time""
""fullscreenenter"",""1"",""2848""
","
","","","10685","[""True""]","0","12","3374","2312","","","","","","","","","","","","","","","","","","",""
"pit-instructions","113","904585","0.0-2.0-23.0-1.0","battery-v0.2","","""event"",""trial"",""time""
""focus"",""0"",""1""
""fullscreenenter"",""1"",""2848""
","
","""event"",""trial"",""time""
""focus"",""0"",""1""
","""event"",""trial"",""time""
""fullscreenenter"",""1"",""2848""
","
","","[{""page_index"":0,""viewing_time"":1613}]","1613","","","","","","","","","","","","","","","","","","","","","","","",""
"pit-comprehension","114","912355","0.0-2.0-24.0-0.0","battery-v0.2","","""event"",""trial"",""time""
""focus"",""0"",""1""
""fullscreenenter"",""1"",""2848""
","
","""event"",""trial"",""time""
""focus"",""0"",""1""
","""event"",""trial"",""time""
""fullscreenenter"",""1"",""2848""
","
","","","7768","[""True""]","0","12","3374","2312","","","","","","","","","","","","","","","","","","",""
"pit-instructions","115","914171","0.0-2.0-24.0-1.0","battery-v0.2","","""event"",""trial"",""time""
""focus"",""0"",""1""
""fullscreenenter"",""1"",""2848""
","
","""event"",""trial"",""time""
""focus"",""0"",""1""
","""event"",""trial"",""time""
""fullscreenenter"",""1"",""2848""
","
","","[{""page_index"":0,""viewing_time"":1797}]","1797","","","","","","","","","","","","","","","","","","","","","","","",""
"pit-comprehension","116","920290","0.0-2.0-25.0-0.0","battery-v0.2","","""event"",""trial"",""time""
""focus"",""0"",""1""
""fullscreenenter"",""1"",""2848""
","
","""event"",""trial"",""time""
""focus"",""0"",""1""
","""event"",""trial"",""time""
""fullscreenenter"",""1"",""2848""
","
","","","6117","[""True""]","0","12","3374","2312","","","","","","","","","","","","","","","","","","",""
"pit-instructions","117","922075","0.0-2.0-25.0-1.0","battery-v0.2","","""event"",""trial"",""time""
""focus"",""0"",""1""
""fullscreenenter"",""1"",""2848""
","
","""event"",""trial"",""time""
""focus"",""0"",""1""
","""event"",""trial"",""time""
""fullscreenenter"",""1"",""2848""
","
","","[{""page_index"":0,""viewing_time"":1784}]","1784","","","","","","","","","","","","","","","","","","","","","","","",""
"pit-comprehension","118","929110","0.0-2.0-26.0-0.0","battery-v0.2","","""event"",""trial"",""time""
""focus"",""0"",""1""
""fullscreenenter"",""1"",""2848""
","
","""event"",""trial"",""time""
""focus"",""0"",""1""
","""event"",""trial"",""time""
""fullscreenenter"",""1"",""2848""
","
","","","7033","[""False""]","0","12","3374","2312","","","","","","","","","","","","","","","","","","",""
"pit-instructions","119","930675","0.0-2.0-26.0-1.0","battery-v0.2","","""event"",""trial"",""time""
""focus"",""0"",""1""
""fullscreenenter"",""1"",""2848""
","
","""event"",""trial"",""time""
""focus"",""0"",""1""
","""event"",""trial"",""time""
""fullscreenenter"",""1"",""2848""
","
","","[{""page_index"":0,""viewing_time"":1546}]","1546","","","","","","","","","","","","","","","","","","","","","","","",""
"pit-instructions","120","957882","0.0-3.0","battery-v0.2","","""event"",""trial"",""time""
""focus"",""0"",""1""
""fullscreenenter"",""1"",""2848""
","
","""event"",""trial"",""time""
""focus"",""0"",""1""
","""event"",""trial"",""time""
""fullscreenenter"",""1"",""2848""
","
","","[{""page_index"":0,""viewing_time"":3783},{""page_index"":1,""viewing_time"":13437},{""page_index"":2,""viewing_time"":9986}]","27206","","","","","","","","","","","","","","","","","","","","","","","",""
"pit-trial","121","962150","0.0-4.0","battery-v0.2","","""event"",""trial"",""time""
""focus"",""0"",""1""
""fullscreenenter"",""1"",""2848""
","
","""event"",""trial"",""time""
""focus"",""0"",""1""
","""event"",""trial"",""time""
""fullscreenenter"",""1"",""2848""
","
","","","1409","","","12","3374","2312","&#9730;","elianto","#3366ff99"," "," ","1","+10","[2262]","1","1","","","3374","1","1","1","win","go","0"
"pit-trial","122","965971","0.0-5.0","battery-v0.2","","""event"",""trial"",""time""
""focus"",""0"",""1""
""fullscreenenter"",""1"",""2848""
","
","""event"",""trial"",""time""
""focus"",""0"",""1""
","""event"",""trial"",""time""
""fullscreenenter"",""1"",""2848""
","
","","","969","","","12","3374","2312","&#9752;","elianto","#f73b6a7A"," "," ","1","-10","[1819]","1","1","","","3374","2","3","3","lose","go","1"
"pit-trial","123","969811","0.0-6.0","battery-v0.2","","""event"",""trial"",""time""
""focus"",""0"",""1""
""fullscreenenter"",""1"",""2848""
","
","""event"",""trial"",""time""
""focus"",""0"",""1""
","""event"",""trial"",""time""
""fullscreenenter"",""1"",""2848""
","
","","","985","","","12","3374","2312","&#9733;","elianto","#3366ff99","-1"," ","0","0","[1837]","1","1","","","3374","3","2","2","win","no-go","0"
"pit-trial","124","973740","0.0-7.0","battery-v0.2","","""event"",""trial"",""time""
""focus"",""0"",""1""
""fullscreenenter"",""1"",""2848""
","
","""event"",""trial"",""time""
""focus"",""0"",""1""
","""event"",""trial"",""time""
""fullscreenenter"",""1"",""2848""
","
","","","1075","","","12","3374","2312","&#9728;","elianto","#f73b6a7A","-1"," ","0","-10","[1925]","1","1","","","3374","4","0","4","lose","no-go","0"
"pit-trial","125","977714","0.0-8.0","battery-v0.2","","""event"",""trial"",""time""
""focus"",""0"",""1""
""fullscreenenter"",""1"",""2848""
","
","""event"",""trial"",""time""
""focus"",""0"",""1""
","""event"",""trial"",""time""
""fullscreenenter"",""1"",""2848""
","
","","","1122","","","12","3374","2312","&#9730;","elianto","#3366ff99"," "," ","1","+10","[1972]","1","1","","","3374","5","1","1","win","go","0"
"pit-trial","126","982573","0.0-9.0","battery-v0.2","","""event"",""trial"",""time""
""focus"",""0"",""1""
""fullscreenenter"",""1"",""2848""
","
","""event"",""trial"",""time""
""focus"",""0"",""1""
","""event"",""trial"",""time""
""fullscreenenter"",""1"",""2848""
","
","","","-1","","","12","3374","2312","&#9733;","elianto","#3366ff99","-1","-1","1","+10","[]","0","1","","","3374","6","2","2","win","no-go","0"
"pit-trial","127","987428","0.0-10.0","battery-v0.2","","""event"",""trial"",""time""
""focus"",""0"",""1""
""fullscreenenter"",""1"",""2848""
","
","""event"",""trial"",""time""
""focus"",""0"",""1""
","""event"",""trial"",""time""
""fullscreenenter"",""1"",""2848""
","
","","","-1","","","12","3374","2312","&#9752;","elianto","#f73b6a7A"," ","-1","0","-10","[]","0","1","","","3374","7","3","3","lose","go","0"
"pit-trial","128","992282","0.0-11.0","battery-v0.2","","""event"",""trial"",""time""
""focus"",""0"",""1""
""fullscreenenter"",""1"",""2848""
","
","""event"",""trial"",""time""
""focus"",""0"",""1""
","""event"",""trial"",""time""
""fullscreenenter"",""1"",""2848""
","
","","","-1","","","12","3374","2312","&#9728;","elianto","#f73b6a7A","-1","-1","1","0","[]","0","1","","","3374","8","0","4","lose","no-go","0"
"pit-trial","129","996331","0.0-12.0","battery-v0.2","","""event"",""trial"",""time""
""focus"",""0"",""1""
""fullscreenenter"",""1"",""2848""
","
","""event"",""trial"",""time""
""focus"",""0"",""1""
","""event"",""trial"",""time""
""fullscreenenter"",""1"",""2848""
","
","","","1195","","","12","3374","2312","&#9730;","elianto","#3366ff99"," "," ","1","+10","[2046]","1","1","","","3374","9","1","1","win","go","0"
"pit-trial","130","1001044","0.0-13.0","battery-v0.2","","""event"",""trial"",""time""
""focus"",""0"",""1""
""fullscreenenter"",""1"",""2848""
","
","""event"",""trial"",""time""
""focus"",""0"",""1""
","""event"",""trial"",""time""
""fullscreenenter"",""1"",""2848""
","
","","","1858","","","12","3374","2312","&#9728;","elianto","#f73b6a7A","-1"," ","0","-10","[2708]","1","1","","","3374","10","0","4","lose","no-go","0"
"pit-trial","131","1005898","0.0-14.0","battery-v0.2","","""event"",""trial"",""time""
""focus"",""0"",""1""
""fullscreenenter"",""1"",""2848""
","
","""event"",""trial"",""time""
""focus"",""0"",""1""
","""event"",""trial"",""time""
""fullscreenenter"",""1"",""2848""
","
","","","-1","","","12","3374","2312","&#9733;","elianto","#3366ff99","-1","-1","1","+10","[]","0","1","","","3374","11","2","2","win","no-go","0"
"pit-trial","132","1009707","0.0-15.0","battery-v0.2","","""event"",""trial"",""time""
""focus"",""0"",""1""
""fullscreenenter"",""1"",""2848""
","
","""event"",""trial"",""time""
""focus"",""0"",""1""
","""event"",""trial"",""time""
""fullscreenenter"",""1"",""2848""
","
","","","956","","","12","3374","2312","&#9752;","elianto","#f73b6a7A"," "," ","1","0","[1805]","1","1","","","3374","12","3","3","lose","go","0"
"pit-trial","133","1014565","0.0-16.0","battery-v0.2","","""event"",""trial"",""time""
""focus"",""0"",""1""
""fullscreenenter"",""1"",""2848""
","
","""event"",""trial"",""time""
""focus"",""0"",""1""
","""event"",""trial"",""time""
""fullscreenenter"",""1"",""2848""
","
","","","-1","","","12","3374","2312","&#9728;","elianto","#f73b6a7A","-1","-1","1","0","[]","0","1","","","3374","13","0","4","lose","no-go","0"
"pit-trial","134","1018522","0.0-17.0","battery-v0.2","","""event"",""trial"",""time""
""focus"",""0"",""1""
""fullscreenenter"",""1"",""2848""
","
","""event"",""trial"",""time""
""focus"",""0"",""1""
","""event"",""trial"",""time""
""fullscreenenter"",""1"",""2848""
","
","","","1104","","","12","3374","2312","&#9730;","elianto","#3366ff99"," "," ","1","+10","[1954]","1","1","","","3374","14","1","1","win","go","0"
"pit-trial","135","1022867","0.0-18.0","battery-v0.2","","""event"",""trial"",""time""
""focus"",""0"",""1""
""fullscreenenter"",""1"",""2848""
","
","""event"",""trial"",""time""
""focus"",""0"",""1""
","""event"",""trial"",""time""
""fullscreenenter"",""1"",""2848""
","
","","","1489","","","12","3374","2312","&#9752;","elianto","#f73b6a7A"," "," ","1","-10","[2342]","1","1","","","3374","15","3","3","lose","go","1"
"pit-trial","136","1027721","0.0-19.0","battery-v0.2","","""event"",""trial"",""time""
""focus"",""0"",""1""
""fullscreenenter"",""1"",""2848""
","
","""event"",""trial"",""time""
""focus"",""0"",""1""
","""event"",""trial"",""time""
""fullscreenenter"",""1"",""2848""
","
","","","-1","","","12","3374","2312","&#9733;","elianto","#3366ff99","-1","-1","1","+10","[]","0","1","","","3374","16","2","2","win","no-go","0"
"pit-trial","137","1032161","0.0-20.0","battery-v0.2","","""event"",""trial"",""time""
""focus"",""0"",""1""
""fullscreenenter"",""1"",""2848""
","
","""event"",""trial"",""time""
""focus"",""0"",""1""
","""event"",""trial"",""time""
""fullscreenenter"",""1"",""2848""
","
","","","1586","","","12","3374","2312","&#9752;","elianto","#f73b6a7A"," "," ","1","0","[2437]","1","1","","","3374","17","3","3","lose","go","0"
"pit-trial","138","1037013","0.0-21.0","battery-v0.2","","""event"",""trial"",""time""
""focus"",""0"",""1""
""fullscreenenter"",""1"",""2848""
","
","""event"",""trial"",""time""
""focus"",""0"",""1""
","""event"",""trial"",""time""
""fullscreenenter"",""1"",""2848""
","
","","","-1","","","12","3374","2312","&#9733;","elianto","#3366ff99","-1","-1","1","+10","[]","0","1","","","3374","18","2","2","win","no-go","0"
"pit-trial","139","1041232","0.0-22.0","battery-v0.2","","""event"",""trial"",""time""
""focus"",""0"",""1""
""fullscreenenter"",""1"",""2848""
","
","""event"",""trial"",""time""
""focus"",""0"",""1""
","""event"",""trial"",""time""
""fullscreenenter"",""1"",""2848""
","
","","","1367","","","12","3374","2312","&#9728;","elianto","#f73b6a7A","-1"," ","0","0","[2218]","1","1","","","3374","19","0","4","lose","no-go","1"
"pit-trial","140","1045091","0.0-23.0","battery-v0.2","","""event"",""trial"",""time""
""focus"",""0"",""1""
""fullscreenenter"",""1"",""2848""
","
","""event"",""trial"",""time""
""focus"",""0"",""1""
","""event"",""trial"",""time""
""fullscreenenter"",""1"",""2848""
","
","","","1000","","","12","3374","2312","&#9730;","elianto","#3366ff99"," "," ","1","0","[1855]","1","1","","","3374","20","1","1","win","go","1"
"pit-instructions","141","1059507","0.0-24.0","battery-v0.2","","""event"",""trial"",""time""
""focus"",""0"",""1""
""fullscreenenter"",""1"",""2848""
","
","""event"",""trial"",""time""
""focus"",""0"",""1""
","""event"",""trial"",""time""
""fullscreenenter"",""1"",""2848""
","
","","[{""page_index"":0,""viewing_time"":7565},{""page_index"":1,""viewing_time"":6851}]","14417","","","","","","","","","","","","","","","","","","","","","","","",""
"pit-trial","142","1064057","0.0-25.0","battery-v0.2","","""event"",""trial"",""time""
""focus"",""0"",""1""
""fullscreenenter"",""1"",""2848""
","
","""event"",""trial"",""time""
""focus"",""0"",""1""
","""event"",""trial"",""time""
""fullscreenenter"",""1"",""2848""
","
","","","1694","","","12","3374","2312","d","elianto","#3366ff99"," "," ","1","+10","[2546]","1","2","","","3374","21","1","1","win","go","0"
"pit-trial","143","1068321","0.0-26.0","battery-v0.2","","""event"",""trial"",""time""
""focus"",""0"",""1""
""fullscreenenter"",""1"",""2848""
","
","""event"",""trial"",""time""
""focus"",""0"",""1""
","""event"",""trial"",""time""
""fullscreenenter"",""1"",""2848""
","
","","","1408","","","12","3374","2312","j","elianto","#f73b6a7A","-1"," ","0","0","[2259]","1","2","","","3374","22","0","4","lose","no-go","1"
"pit-trial","144","1073176","0.0-27.0","battery-v0.2","","""event"",""trial"",""time""
""focus"",""0"",""1""
""fullscreenenter"",""1"",""2848""
","
","""event"",""trial"",""time""
""focus"",""0"",""1""
","""event"",""trial"",""time""
""fullscreenenter"",""1"",""2848""
","
","","","-1","","","12","3374","2312","e","elianto","#f73b6a7A","-1","-1","1","-10","[3277]","1","2","","","3374","23","2","4","lose","no-go","1"
"pit-trial","145","1076888","0.0-28.0","battery-v0.2","","""event"",""trial"",""time""
""focus"",""0"",""1""
""fullscreenenter"",""1"",""2848""
","
","""event"",""trial"",""time""
""focus"",""0"",""1""
","""event"",""trial"",""time""
""fullscreenenter"",""1"",""2848""
","
","","","859","","","12","3374","2312","w","elianto","#f73b6a7A"," "," ","1","0","[1708]","1","2","","","3374","24","3","3","lose","go","0"
"pit-trial","146","1080490","0.0-29.0","battery-v0.2","","""event"",""trial"",""time""
""focus"",""0"",""1""
""fullscreenenter"",""1"",""2848""
","
","""event"",""trial"",""time""
""focus"",""0"",""1""
","""event"",""trial"",""time""
""fullscreenenter"",""1"",""2848""
","
","","","746","","","12","3374","2312","d","elianto","#3366ff99"," "," ","1","+10","[1596]","1","2","","","3374","25","1","1","win","go","0"
"pit-trial","147","1085345","0.0-30.0","battery-v0.2","","""event"",""trial"",""time""
""focus"",""0"",""1""
""fullscreenenter"",""1"",""2848""
","
","""event"",""trial"",""time""
""focus"",""0"",""1""
","""event"",""trial"",""time""
""fullscreenenter"",""1"",""2848""
","
","","","-1","","","12","3374","2312","j","elianto","#f73b6a7A","-1","-1","1","0","[]","0","2","","","3374","26","0","4","lose","no-go","0"
"pit-trial","148","1089450","0.0-31.0","battery-v0.2","","""event"",""trial"",""time""
""focus"",""0"",""1""
""fullscreenenter"",""1"",""2848""
","
","""event"",""trial"",""time""
""focus"",""0"",""1""
","""event"",""trial"",""time""
""fullscreenenter"",""1"",""2848""
","
","","","1247","","","12","3374","2312","e","elianto","#f73b6a7A","-1"," ","0","0","[2100]","1","2","","","3374","27","2","4","lose","no-go","1"
"pit-trial","149","1094239","0.0-32.0","battery-v0.2","","""event"",""trial"",""time""
""focus"",""0"",""1""
""fullscreenenter"",""1"",""2848""
","
","""event"",""trial"",""time""
""focus"",""0"",""1""
","""event"",""trial"",""time""
""fullscreenenter"",""1"",""2848""
","
","","","1935","","","12","3374","2312","w","elianto","#f73b6a7A"," "," ","1","-10","[2787]","1","2","","","3374","28","3","3","lose","go","1"
"pit-trial","150","1099091","0.0-33.0","battery-v0.2","","""event"",""trial"",""time""
""focus"",""0"",""1""
""fullscreenenter"",""1"",""2848""
","
","""event"",""trial"",""time""
""focus"",""0"",""1""
","""event"",""trial"",""time""
""fullscreenenter"",""1"",""2848""
","
","","","-1","","","12","3374","2312","e","elianto","#f73b6a7A","-1","-1","1","0","[]","0","2","","","3374","29","2","4","lose","no-go","0"
"pit-trial","151","1103006","0.0-34.0","battery-v0.2","","""event"",""trial"",""time""
""focus"",""0"",""1""
""fullscreenenter"",""1"",""2848""
","
","""event"",""trial"",""time""
""focus"",""0"",""1""
","""event"",""trial"",""time""
""fullscreenenter"",""1"",""2848""
","
","","","1060","","","12","3374","2312","d","elianto","#3366ff99"," "," ","1","+10","[1913]","1","2","","","3374","30","1","1","win","go","0"
"pit-trial","152","1107237","0.0-35.0","battery-v0.2","","""event"",""trial"",""time""
""focus"",""0"",""1""
""fullscreenenter"",""1"",""2848""
","
","""event"",""trial"",""time""
""focus"",""0"",""1""
","""event"",""trial"",""time""
""fullscreenenter"",""1"",""2848""
","
","","","1380","","","12","3374","2312","w","elianto","#f73b6a7A"," "," ","1","0","[2230]","1","2","","","3374","31","3","3","lose","go","0"
"pit-trial","153","1112091","0.0-36.0","battery-v0.2","","""event"",""trial"",""time""
""focus"",""0"",""1""
""fullscreenenter"",""1"",""2848""
","
","""event"",""trial"",""time""
""focus"",""0"",""1""
","""event"",""trial"",""time""
""fullscreenenter"",""1"",""2848""
","
","","","-1","","","12","3374","2312","j","elianto","#f73b6a7A","-1","-1","1","0","[]","0","2","","","3374","32","0","4","lose","no-go","0"
"pit-trial","154","1116947","0.0-37.0","battery-v0.2","","""event"",""trial"",""time""
""focus"",""0"",""1""
""fullscreenenter"",""1"",""2848""
","
","""event"",""trial"",""time""
""focus"",""0"",""1""
","""event"",""trial"",""time""
""fullscreenenter"",""1"",""2848""
","
","","","-1","","","12","3374","2312","w","elianto","#f73b6a7A"," ","-1","0","-10","[]","0","2","","","3374","33","3","3","lose","go","0"
"pit-trial","155","1121013","0.0-38.0","battery-v0.2","","""event"",""trial"",""time""
""focus"",""0"",""1""
""fullscreenenter"",""1"",""2848""
","
","""event"",""trial"",""time""
""focus"",""0"",""1""
","""event"",""trial"",""time""
""fullscreenenter"",""1"",""2848""
","
","","","1213","","","12","3374","2312","e","elianto","#f73b6a7A","-1"," ","0","-10","[2064]","1","2","","","3374","34","2","4","lose","no-go","0"
"pit-trial","156","1125865","0.0-39.0","battery-v0.2","","""event"",""trial"",""time""
""focus"",""0"",""1""
""fullscreenenter"",""1"",""2848""
","
","""event"",""trial"",""time""
""focus"",""0"",""1""
","""event"",""trial"",""time""
""fullscreenenter"",""1"",""2848""
","
","","","-1","","","12","3374","2312","j","elianto","#f73b6a7A","-1","-1","1","0","[]","0","2","","","3374","35","0","4","lose","no-go","0"
"pit-trial","157","1130100","0.0-40.0","battery-v0.2","","""event"",""trial"",""time""
""focus"",""0"",""1""
""fullscreenenter"",""1"",""2848""
","
","""event"",""trial"",""time""
""focus"",""0"",""1""
","""event"",""trial"",""time""
""fullscreenenter"",""1"",""2848""
","
","","","1381","","","12","3374","2312","d","elianto","#3366ff99"," "," ","1","+10","[2233]","1","2","","","3374","36","1","1","win","go","0"
"pit-trial","158","1134896","0.0-41.0","battery-v0.2","","""event"",""trial"",""time""
""focus"",""0"",""1""
""fullscreenenter"",""1"",""2848""
","
","""event"",""trial"",""time""
""focus"",""0"",""1""
","""event"",""trial"",""time""
""fullscreenenter"",""1"",""2848""
","
","","","1940","","","12","3374","2312","j","elianto","#f73b6a7A","-1"," ","0","-10","[2791]","1","2","","","3374","37","0","4","lose","no-go","0"
"pit-trial","159","1139469","0.0-42.0","battery-v0.2","","""event"",""trial"",""time""
""focus"",""0"",""1""
""fullscreenenter"",""1"",""2848""
","
","""event"",""trial"",""time""
""focus"",""0"",""1""
","""event"",""trial"",""time""
""fullscreenenter"",""1"",""2848""
","
","","","1719","","","12","3374","2312","w","elianto","#f73b6a7A"," "," ","1","0","[2570]","1","2","","","3374","38","3","3","lose","go","0"
"pit-trial","160","1143239","0.0-43.0","battery-v0.2","","""event"",""trial"",""time""
""focus"",""0"",""1""
""fullscreenenter"",""1"",""2848""
","
","""event"",""trial"",""time""
""focus"",""0"",""1""
","""event"",""trial"",""time""
""fullscreenenter"",""1"",""2848""
","
","","","914","","","12","3374","2312","d","elianto","#3366ff99"," "," ","1","0","[1765]","1","2","","","3374","39","1","1","win","go","1"
"pit-trial","161","1148093","0.0-44.0","battery-v0.2","","""event"",""trial"",""time""
""focus"",""0"",""1""
""fullscreenenter"",""1"",""2848""
","
","""event"",""trial"",""time""
""focus"",""0"",""1""
","""event"",""trial"",""time""
""fullscreenenter"",""1"",""2848""
","
","","","-1","","","12","3374","2312","e","elianto","#f73b6a7A","-1","-1","1","0","[]","0","2","","","3374","40","2","4","lose","no-go","0"
"pit-trial","162","1152893","0.0-45.0","battery-v0.2","","""event"",""trial"",""time""
""focus"",""0"",""1""
""fullscreenenter"",""1"",""2848""
","
","""event"",""trial"",""time""
""focus"",""0"",""1""
","""event"",""trial"",""time""
""fullscreenenter"",""1"",""2848""
","
","","","1945","","","12","3374","2312","j","elianto","#f73b6a7A","-1"," ","0","0","[2797]","1","2","","","3374","41","0","4","lose","no-go","1"
"pit-trial","163","1157751","0.0-46.0","battery-v0.2","","""event"",""trial"",""time""
""focus"",""0"",""1""
""fullscreenenter"",""1"",""2848""
","
","""event"",""trial"",""time""
""focus"",""0"",""1""
","""event"",""trial"",""time""
""fullscreenenter"",""1"",""2848""
","
","","","-1","","","12","3374","2312","e","elianto","#f73b6a7A","-1","-1","1","0","[]","0","2","","","3374","42","2","4","lose","no-go","0"
"pit-trial","164","1162604","0.0-47.0","battery-v0.2","","""event"",""trial"",""time""
""focus"",""0"",""1""
""fullscreenenter"",""1"",""2848""
","
","""event"",""trial"",""time""
""focus"",""0"",""1""
","""event"",""trial"",""time""
""fullscreenenter"",""1"",""2848""
","
","","","-1","","","12","3374","2312","w","elianto","#f73b6a7A"," ","-1","0","0","[]","0","2","","","3374","43","3","3","lose","go","1"
"pit-trial","165","1166060","0.0-48.0","battery-v0.2","","""event"",""trial"",""time""
""focus"",""0"",""1""
""fullscreenenter"",""1"",""2848""
","
","""event"",""trial"",""time""
""focus"",""0"",""1""
","""event"",""trial"",""time""
""fullscreenenter"",""1"",""2848""
","
","","","601","","","12","3374","2312","d","elianto","#3366ff99"," "," ","1","+10","[1454]","1","2","","","3374","44","1","1","win","go","0"
"pit-trial","166","1170323","0.0-49.0","battery-v0.2","","""event"",""trial"",""time""
""focus"",""0"",""1""
""fullscreenenter"",""1"",""2848""
","
","""event"",""trial"",""time""
""focus"",""0"",""1""
","""event"",""trial"",""time""
""fullscreenenter"",""1"",""2848""
","
","","","1411","","","12","3374","2312","s","elianto","#3366ff99","-1"," ","0","+10","[2262]","1","2","","","3374","45","4","2","win","no-go","1"
"pit-trial","167","1174027","0.0-50.0","battery-v0.2","","""event"",""trial"",""time""
""focus"",""0"",""1""
""fullscreenenter"",""1"",""2848""
","
","""event"",""trial"",""time""
""focus"",""0"",""1""
","""event"",""trial"",""time""
""fullscreenenter"",""1"",""2848""
","
","","","851","","","12","3374","2312","j","elianto","#f73b6a7A","-1"," ","0","-10","[1702]","1","2","","","3374","46","0","4","lose","no-go","0"
"pit-trial","168","1177947","0.0-51.0","battery-v0.2","","""event"",""trial"",""time""
""focus"",""0"",""1""
""fullscreenenter"",""1"",""2848""
","
","""event"",""trial"",""time""
""focus"",""0"",""1""
","""event"",""trial"",""time""
""fullscreenenter"",""1"",""2848""
","
","","","1065","","","12","3374","2312","w","elianto","#f73b6a7A"," "," ","1","0","[1918]","1","2","","","3374","47","3","3","lose","go","0"
"pit-trial","169","1182805","0.0-52.0","battery-v0.2","","""event"",""trial"",""time""
""focus"",""0"",""1""
""fullscreenenter"",""1"",""2848""
","
","""event"",""trial"",""time""
""focus"",""0"",""1""
","""event"",""trial"",""time""
""fullscreenenter"",""1"",""2848""
","
","","","-1","","","12","3374","2312","e","elianto","#f73b6a7A","-1","-1","1","0","[]","0","2","","","3374","48","2","4","lose","no-go","0"
"pit-trial","170","1186509","0.0-53.0","battery-v0.2","","""event"",""trial"",""time""
""focus"",""0"",""1""
""fullscreenenter"",""1"",""2848""
","
","""event"",""trial"",""time""
""focus"",""0"",""1""
","""event"",""trial"",""time""
""fullscreenenter"",""1"",""2848""
","
","","","847","","","12","3374","2312","w","elianto","#f73b6a7A"," "," ","1","0","[1700]","1","2","","","3374","49","3","3","lose","go","0"
"pit-trial","171","1190682","0.0-54.0","battery-v0.2","","""event"",""trial"",""time""
""focus"",""0"",""1""
""fullscreenenter"",""1"",""2848""
","
","""event"",""trial"",""time""
""focus"",""0"",""1""
","""event"",""trial"",""time""
""fullscreenenter"",""1"",""2848""
","
","","","1319","","","12","3374","2312","j","elianto","#f73b6a7A","-1"," ","0","-10","[2173]","1","2","","","3374","50","0","4","lose","no-go","0"
"pit-trial","172","1194228","0.0-55.0","battery-v0.2","","""event"",""trial"",""time""
""focus"",""0"",""1""
""fullscreenenter"",""1"",""2848""
","
","""event"",""trial"",""time""
""focus"",""0"",""1""
","""event"",""trial"",""time""
""fullscreenenter"",""1"",""2848""
","
","","","693","","","12","3374","2312","s","elianto","#3366ff99","-1"," ","0","0","[1543]","1","2","","","3374","51","4","2","win","no-go","0"
"pit-trial","173","1197833","0.0-56.0","battery-v0.2","","""event"",""trial"",""time""
""focus"",""0"",""1""
""fullscreenenter"",""1"",""2848""
","
","""event"",""trial"",""time""
""focus"",""0"",""1""
","""event"",""trial"",""time""
""fullscreenenter"",""1"",""2848""
","
","","","753","","","12","3374","2312","d","elianto","#3366ff99"," "," ","1","+10","[1604]","1","2","","","3374","52","1","1","win","go","0"
"pit-trial","174","1201421","0.0-57.0","battery-v0.2","","""event"",""trial"",""time""
""focus"",""0"",""1""
""fullscreenenter"",""1"",""2848""
","
","""event"",""trial"",""time""
""focus"",""0"",""1""
","""event"",""trial"",""time""
""fullscreenenter"",""1"",""2848""
","
","","","730","","","12","3374","2312","d","elianto","#3366ff99"," "," ","1","+10","[1582]","1","2","","","3374","53","1","1","win","go","0"
"pit-trial","175","1206275","0.0-58.0","battery-v0.2","","""event"",""trial"",""time""
""focus"",""0"",""1""
""fullscreenenter"",""1"",""2848""
","
","""event"",""trial"",""time""
""focus"",""0"",""1""
","""event"",""trial"",""time""
""fullscreenenter"",""1"",""2848""
","
","","","-1","","","12","3374","2312","j","elianto","#f73b6a7A","-1","-1","1","-10","[]","0","2","","","3374","54","0","4","lose","no-go","1"
"pit-trial","176","1210131","0.0-59.0","battery-v0.2","","""event"",""trial"",""time""
""focus"",""0"",""1""
""fullscreenenter"",""1"",""2848""
","
","""event"",""trial"",""time""
""focus"",""0"",""1""
","""event"",""trial"",""time""
""fullscreenenter"",""1"",""2848""
","
","","","998","","","12","3374","2312","s","elianto","#3366ff99","-1"," ","0","0","[1853]","1","2","","","3374","55","4","2","win","no-go","0"
"pit-trial","177","1214989","0.0-60.0","battery-v0.2","","""event"",""trial"",""time""
""focus"",""0"",""1""
""fullscreenenter"",""1"",""2848""
","
","""event"",""trial"",""time""
""focus"",""0"",""1""
","""event"",""trial"",""time""
""fullscreenenter"",""1"",""2848""
","
","","","-1","","","12","3374","2312","e","elianto","#f73b6a7A","-1","-1","1","0","[]","0","2","","","3374","56","2","4","lose","no-go","0"
"pit-trial","178","1219841","0.0-61.0","battery-v0.2","","""event"",""trial"",""time""
""focus"",""0"",""1""
""fullscreenenter"",""1"",""2848""
","
","""event"",""trial"",""time""
""focus"",""0"",""1""
","""event"",""trial"",""time""
""fullscreenenter"",""1"",""2848""
","
","","","-1","","","12","3374","2312","d","elianto","#3366ff99"," ","-1","0","0","[]","0","2","","","3374","57","1","1","win","go","0"
"pit-trial","179","1224025","0.0-62.0","battery-v0.2","","""event"",""trial"",""time""
""focus"",""0"",""1""
""fullscreenenter"",""1"",""2848""
","
","""event"",""trial"",""time""
""focus"",""0"",""1""
","""event"",""trial"",""time""
""fullscreenenter"",""1"",""2848""
","
","","","1332","","","12","3374","2312","j","elianto","#f73b6a7A","-1"," ","0","-10","[2183]","1","2","","","3374","58","0","4","lose","no-go","0"
"pit-trial","180","1228361","0.0-63.0","battery-v0.2","","""event"",""trial"",""time""
""focus"",""0"",""1""
""fullscreenenter"",""1"",""2848""
","
","""event"",""trial"",""time""
""focus"",""0"",""1""
","""event"",""trial"",""time""
""fullscreenenter"",""1"",""2848""
","
","","","1480","","","12","3374","2312","w","elianto","#f73b6a7A"," "," ","1","0","[2334]","1","2","","","3374","59","3","3","lose","go","0"
"pit-trial","181","1232593","0.0-64.0","battery-v0.2","","""event"",""trial"",""time""
""focus"",""0"",""1""
""fullscreenenter"",""1"",""2848""
","
","""event"",""trial"",""time""
""focus"",""0"",""1""
","""event"",""trial"",""time""
""fullscreenenter"",""1"",""2848""
","
","","","1378","","","12","3374","2312","s","elianto","#3366ff99","-1"," ","0","0","[2230]","1","2","","","3374","60","4","2","win","no-go","0"
"pit-trial","182","1237445","0.0-65.0","battery-v0.2","","""event"",""trial"",""time""
""focus"",""0"",""1""
""fullscreenenter"",""1"",""2848""
","
","""event"",""trial"",""time""
""focus"",""0"",""1""
","""event"",""trial"",""time""
""fullscreenenter"",""1"",""2848""
","
","","","-1","","","12","3374","2312","e","elianto","#f73b6a7A","-1","-1","1","0","[]","0","2","","","3374","61","2","4","lose","no-go","0"
"pit-trial","183","1241156","0.0-66.0","battery-v0.2","","""event"",""trial"",""time""
""focus"",""0"",""1""
""fullscreenenter"",""1"",""2848""
","
","""event"",""trial"",""time""
""focus"",""0"",""1""
","""event"",""trial"",""time""
""fullscreenenter"",""1"",""2848""
","
","","","855","","","12","3374","2312","d","elianto","#3366ff99"," "," ","1","0","[1706]","1","2","","","3374","62","1","1","win","go","1"
"pit-trial","184","1244864","0.0-67.0","battery-v0.2","","""event"",""trial"",""time""
""focus"",""0"",""1""
""fullscreenenter"",""1"",""2848""
","
","""event"",""trial"",""time""
""focus"",""0"",""1""
","""event"",""trial"",""time""
""fullscreenenter"",""1"",""2848""
","
","","","856","","","12","3374","2312","s","elianto","#3366ff99","-1"," ","0","0","[1708]","1","2","","","3374","63","4","2","win","no-go","0"
"pit-trial","185","1249723","0.0-68.0","battery-v0.2","","""event"",""trial"",""time""
""focus"",""0"",""1""
""fullscreenenter"",""1"",""2848""
","
","""event"",""trial"",""time""
""focus"",""0"",""1""
","""event"",""trial"",""time""
""fullscreenenter"",""1"",""2848""
","
","","","-1","","","12","3374","2312","w","elianto","#f73b6a7A"," ","-1","0","-10","[2925]","1","2","","","3374","64","3","3","lose","go","0"
"pit-trial","186","1253874","0.0-69.0","battery-v0.2","","""event"",""trial"",""time""
""focus"",""0"",""1""
""fullscreenenter"",""1"",""2848""
","
","""event"",""trial"",""time""
""focus"",""0"",""1""
","""event"",""trial"",""time""
""fullscreenenter"",""1"",""2848""
","
","","","1298","","","12","3374","2312","e","elianto","#f73b6a7A","-1"," ","0","-10","[2147]","1","2","","","3374","65","2","4","lose","no-go","0"
"pit-trial","187","1257359","0.0-70.0","battery-v0.2","","""event"",""trial"",""time""
""focus"",""0"",""1""
""fullscreenenter"",""1"",""2848""
","
","""event"",""trial"",""time""
""focus"",""0"",""1""
","""event"",""trial"",""time""
""fullscreenenter"",""1"",""2848""
","
","","","634","","","12","3374","2312","d","elianto","#3366ff99"," "," ","1","+10","[1484]","1","2","","","3374","66","1","1","win","go","0"
"pit-trial","188","1262215","0.0-71.0","battery-v0.2","","""event"",""trial"",""time""
""focus"",""0"",""1""
""fullscreenenter"",""1"",""2848""
","
","""event"",""trial"",""time""
""focus"",""0"",""1""
","""event"",""trial"",""time""
""fullscreenenter"",""1"",""2848""
","
","","","-1","","","12","3374","2312","w","elianto","#f73b6a7A"," ","-1","0","-10","[]","0","2","","","3374","67","3","3","lose","go","0"
"pit-trial","189","1266467","0.0-72.0","battery-v0.2","","""event"",""trial"",""time""
""focus"",""0"",""1""
""fullscreenenter"",""1"",""2848""
","
","""event"",""trial"",""time""
""focus"",""0"",""1""
","""event"",""trial"",""time""
""fullscreenenter"",""1"",""2848""
","
","","","1394","","","12","3374","2312","s","elianto","#3366ff99","-1"," ","0","0","[2247]","1","2","","","3374","68","4","2","win","no-go","0"
"pit-trial","190","1270065","0.0-73.0","battery-v0.2","","""event"",""trial"",""time""
""focus"",""0"",""1""
""fullscreenenter"",""1"",""2848""
","
","""event"",""trial"",""time""
""focus"",""0"",""1""
","""event"",""trial"",""time""
""fullscreenenter"",""1"",""2848""
","
","","","744","","","12","3374","2312","p","elianto","#3366ff99"," "," ","1","+10","[1596]","1","2","","","3374","69","5","1","win","go","0"
"pit-trial","191","1274080","0.0-74.0","battery-v0.2","","""event"",""trial"",""time""
""focus"",""0"",""1""
""fullscreenenter"",""1"",""2848""
","
","""event"",""trial"",""time""
""focus"",""0"",""1""
","""event"",""trial"",""time""
""fullscreenenter"",""1"",""2848""
","
","","","1161","","","12","3374","2312","d","elianto","#3366ff99"," "," ","1","+10","[2013]","1","2","","","3374","70","1","1","win","go","0"
"pit-trial","192","1277664","0.0-75.0","battery-v0.2","","""event"",""trial"",""time""
""focus"",""0"",""1""
""fullscreenenter"",""1"",""2848""
","
","""event"",""trial"",""time""
""focus"",""0"",""1""
","""event"",""trial"",""time""
""fullscreenenter"",""1"",""2848""
","
","","","729","","","12","3374","2312","s","elianto","#3366ff99","-1"," ","0","0","[1581]","1","2","","","3374","71","4","2","win","no-go","0"
"pit-trial","193","1282520","0.0-76.0","battery-v0.2","","""event"",""trial"",""time""
""focus"",""0"",""1""
""fullscreenenter"",""1"",""2848""
","
","""event"",""trial"",""time""
""focus"",""0"",""1""
","""event"",""trial"",""time""
""fullscreenenter"",""1"",""2848""
","
","","","-1","","","12","3374","2312","w","elianto","#f73b6a7A"," ","-1","0","-10","[]","0","2","","","3374","72","3","3","lose","go","0"
"pit-trial","194","1286097","0.0-77.0","battery-v0.2","","""event"",""trial"",""time""
""focus"",""0"",""1""
""fullscreenenter"",""1"",""2848""
","
","""event"",""trial"",""time""
""focus"",""0"",""1""
","""event"",""trial"",""time""
""fullscreenenter"",""1"",""2848""
","
","","","722","","","12","3374","2312","w","elianto","#f73b6a7A"," "," ","1","0","[1572]","1","2","","","3374","73","3","3","lose","go","0"
"pit-trial","195","1289810","0.0-78.0","battery-v0.2","","""event"",""trial"",""time""
""focus"",""0"",""1""
""fullscreenenter"",""1"",""2848""
","
","""event"",""trial"",""time""
""focus"",""0"",""1""
","""event"",""trial"",""time""
""fullscreenenter"",""1"",""2848""
","
","","","857","","","12","3374","2312","d","elianto","#3366ff99"," "," ","1","+10","[1707]","1","2","","","3374","74","1","1","win","go","0"
"pit-trial","196","1293518","0.0-79.0","battery-v0.2","","""event"",""trial"",""time""
""focus"",""0"",""1""
""fullscreenenter"",""1"",""2848""
","
","""event"",""trial"",""time""
""focus"",""0"",""1""
","""event"",""trial"",""time""
""fullscreenenter"",""1"",""2848""
","
","","","855","","","12","3374","2312","p","elianto","#3366ff99"," "," ","1","+10","[1706]","1","2","","","3374","75","5","1","win","go","0"
"pit-trial","197","1297287","0.0-80.0","battery-v0.2","","""event"",""trial"",""time""
""focus"",""0"",""1""
""fullscreenenter"",""1"",""2848""
","
","""event"",""trial"",""time""
""focus"",""0"",""1""
","""event"",""trial"",""time""
""fullscreenenter"",""1"",""2848""
","
","","","916","","","12","3374","2312","s","elianto","#3366ff99","-1"," ","0","0","[1766]","1","2","","","3374","76","4","2","win","no-go","0"
"pit-trial","198","1300991","0.0-81.0","battery-v0.2","","""event"",""trial"",""time""
""focus"",""0"",""1""
""fullscreenenter"",""1"",""2848""
","
","""event"",""trial"",""time""
""focus"",""0"",""1""
","""event"",""trial"",""time""
""fullscreenenter"",""1"",""2848""
","
","","","851","","","12","3374","2312","p","elianto","#3366ff99"," "," ","1","+10","[1703]","1","2","","","3374","77","5","1","win","go","0"
"pit-trial","199","1305390","0.0-82.0","battery-v0.2","","""event"",""trial"",""time""
""focus"",""0"",""1""
""fullscreenenter"",""1"",""2848""
","
","""event"",""trial"",""time""
""focus"",""0"",""1""
","""event"",""trial"",""time""
""fullscreenenter"",""1"",""2848""
","
","","","1546","","","12","3374","2312","w","elianto","#f73b6a7A"," "," ","1","-10","[2397]","1","2","","","3374","78","3","3","lose","go","1"
"pit-trial","200","1309214","0.0-83.0","battery-v0.2","","""event"",""trial"",""time""
""focus"",""0"",""1""
""fullscreenenter"",""1"",""2848""
","
","""event"",""trial"",""time""
""focus"",""0"",""1""
","""event"",""trial"",""time""
""fullscreenenter"",""1"",""2848""
","
","","","972","","","12","3374","2312","g","elianto","#f73b6a7A","-1"," ","0","-10","[1822]","1","2","","","3374","79","6","4","lose","no-go","0"
"pit-trial","201","1312989","0.0-84.0","battery-v0.2","","""event"",""trial"",""time""
""focus"",""0"",""1""
""fullscreenenter"",""1"",""2848""
","
","""event"",""trial"",""time""
""focus"",""0"",""1""
","""event"",""trial"",""time""
""fullscreenenter"",""1"",""2848""
","
","","","925","","","12","3374","2312","s","elianto","#3366ff99","-1"," ","0","0","[1775]","1","2","","","3374","80","4","2","win","no-go","0"
"pit-trial","202","1317848","0.0-85.0","battery-v0.2","","""event"",""trial"",""time""
""focus"",""0"",""1""
""fullscreenenter"",""1"",""2848""
","
","""event"",""trial"",""time""
""focus"",""0"",""1""
","""event"",""trial"",""time""
""fullscreenenter"",""1"",""2848""
","
","","","-1","","","12","3374","2312","g","elianto","#f73b6a7A","-1","-1","1","0","[]","0","2","","","3374","81","6","4","lose","no-go","0"
"pit-trial","203","1321581","0.0-86.0","battery-v0.2","","""event"",""trial"",""time""
""focus"",""0"",""1""
""fullscreenenter"",""1"",""2848""
","
","""event"",""trial"",""time""
""focus"",""0"",""1""
","""event"",""trial"",""time""
""fullscreenenter"",""1"",""2848""
","
","","","883","","","12","3374","2312","s","elianto","#3366ff99","-1"," ","0","0","[1734]","1","2","","","3374","82","4","2","win","no-go","0"
"pit-trial","204","1325841","0.0-87.0","battery-v0.2","","""event"",""trial"",""time""
""focus"",""0"",""1""
""fullscreenenter"",""1"",""2848""
","
","""event"",""trial"",""time""
""focus"",""0"",""1""
","""event"",""trial"",""time""
""fullscreenenter"",""1"",""2848""
","
","","","1402","","","12","3374","2312","p","elianto","#3366ff99"," "," ","1","+10","[2255]","1","2","","","3374","83","5","1","win","go","0"
"pit-trial","205","1330408","0.0-88.0","battery-v0.2","","""event"",""trial"",""time""
""focus"",""0"",""1""
""fullscreenenter"",""1"",""2848""
","
","""event"",""trial"",""time""
""focus"",""0"",""1""
","""event"",""trial"",""time""
""fullscreenenter"",""1"",""2848""
","
","","","1712","","","12","3374","2312","a","elianto","#f73b6a7A"," "," ","1","0","[2563]","1","2","","","3374","84","7","3","lose","go","0"
"pit-trial","206","1335265","0.0-89.0","battery-v0.2","","""event"",""trial"",""time""
""focus"",""0"",""1""
""fullscreenenter"",""1"",""2848""
","
","""event"",""trial"",""time""
""focus"",""0"",""1""
","""event"",""trial"",""time""
""fullscreenenter"",""1"",""2848""
","
","","","-1","","","12","3374","2312","g","elianto","#f73b6a7A","-1","-1","1","0","[]","0","2","","","3374","85","6","4","lose","no-go","0"
"pit-trial","207","1339870","0.0-90.0","battery-v0.2","","""event"",""trial"",""time""
""focus"",""0"",""1""
""fullscreenenter"",""1"",""2848""
","
","""event"",""trial"",""time""
""focus"",""0"",""1""
","""event"",""trial"",""time""
""fullscreenenter"",""1"",""2848""
","
","","","1750","","","12","3374","2312","p","elianto","#3366ff99"," "," ","1","+10","[2602]","1","2","","","3374","86","5","1","win","go","0"
"pit-trial","208","1344728","0.0-91.0","battery-v0.2","","""event"",""trial"",""time""
""focus"",""0"",""1""
""fullscreenenter"",""1"",""2848""
","
","""event"",""trial"",""time""
""focus"",""0"",""1""
","""event"",""trial"",""time""
""fullscreenenter"",""1"",""2848""
","
","","","-1","","","12","3374","2312","s","elianto","#3366ff99","-1","-1","1","0","[3421]","1","2","","","3374","87","4","2","win","no-go","1"
"pit-trial","209","1349583","0.0-92.0","battery-v0.2","","""event"",""trial"",""time""
""focus"",""0"",""1""
""fullscreenenter"",""1"",""2848""
","
","""event"",""trial"",""time""
""focus"",""0"",""1""
","""event"",""trial"",""time""
""fullscreenenter"",""1"",""2848""
","
","","","-1","","","12","3374","2312","a","elianto","#f73b6a7A"," ","-1","0","-10","[]","0","2","","","3374","88","7","3","lose","go","0"
"pit-trial","210","1353333","0.0-93.0","battery-v0.2","","""event"",""trial"",""time""
""focus"",""0"",""1""
""fullscreenenter"",""1"",""2848""
","
","""event"",""trial"",""time""
""focus"",""0"",""1""
","""event"",""trial"",""time""
""fullscreenenter"",""1"",""2848""
","
","","","897","","","12","3374","2312","p","elianto","#3366ff99"," "," ","1","+10","[1748]","1","2","","","3374","89","5","1","win","go","0"
"pit-trial","211","1357124","0.0-94.0","battery-v0.2","","""event"",""trial"",""time""
""focus"",""0"",""1""
""fullscreenenter"",""1"",""2848""
","
","""event"",""trial"",""time""
""focus"",""0"",""1""
","""event"",""trial"",""time""
""fullscreenenter"",""1"",""2848""
","
","","","939","","","12","3374","2312","a","elianto","#f73b6a7A"," "," ","1","0","[1789]","1","2","","","3374","90","7","3","lose","go","0"
"pit-trial","212","1361981","0.0-95.0","battery-v0.2","","""event"",""trial"",""time""
""focus"",""0"",""1""
""fullscreenenter"",""1"",""2848""
","
","""event"",""trial"",""time""
""focus"",""0"",""1""
","""event"",""trial"",""time""
""fullscreenenter"",""1"",""2848""
","
","","","-1","","","12","3374","2312","g","elianto","#f73b6a7A","-1","-1","1","0","[62]","1","2","","","3374","91","6","4","lose","no-go","0"
"pit-trial","213","1365867","0.0-96.0","battery-v0.2","","""event"",""trial"",""time""
""focus"",""0"",""1""
""fullscreenenter"",""1"",""2848""
","
","""event"",""trial"",""time""
""focus"",""0"",""1""
","""event"",""trial"",""time""
""fullscreenenter"",""1"",""2848""
","
","","","1035","","","12","3374","2312","s","elianto","#3366ff99","-1"," ","0","0","[1887]","1","2","","","3374","92","4","2","win","no-go","0"
"pit-trial","214","1370342","0.0-97.0","battery-v0.2","","""event"",""trial"",""time""
""focus"",""0"",""1""
""fullscreenenter"",""1"",""2848""
","
","""event"",""trial"",""time""
""focus"",""0"",""1""
","""event"",""trial"",""time""
""fullscreenenter"",""1"",""2848""
","
","","","1619","","","12","3374","2312","a","elianto","#f73b6a7A"," "," ","1","0","[2471]","1","2","","","3374","93","7","3","lose","go","0"
"pit-trial","215","1374268","0.0-98.0","battery-v0.2","","""event"",""trial"",""time""
""focus"",""0"",""1""
""fullscreenenter"",""1"",""2848""
","
","""event"",""trial"",""time""
""focus"",""0"",""1""
","""event"",""trial"",""time""
""fullscreenenter"",""1"",""2848""
","
","","","1075","","","12","3374","2312","p","elianto","#3366ff99"," "," ","1","+10","[1924]","1","2","","","3374","94","5","1","win","go","0"
"pit-trial","216","1378070","0.0-99.0","battery-v0.2","","""event"",""trial"",""time""
""focus"",""0"",""1""
""fullscreenenter"",""1"",""2848""
","
","""event"",""trial"",""time""
""focus"",""0"",""1""
","""event"",""trial"",""time""
""fullscreenenter"",""1"",""2848""
","
","","","947","","","12","3374","2312","l","elianto","#3366ff99","-1"," ","0","0","[1798]","1","2","","","3374","95","8","2","win","no-go","0"
"pit-trial","217","1382719","0.0-100.0","battery-v0.2","","""event"",""trial"",""time""
""focus"",""0"",""1""
""fullscreenenter"",""1"",""2848""
","
","""event"",""trial"",""time""
""focus"",""0"",""1""
","""event"",""trial"",""time""
""fullscreenenter"",""1"",""2848""
","
","","","1792","","","12","3374","2312","g","elianto","#f73b6a7A","-1"," ","0","0","[2644]","1","2","","","3374","96","6","4","lose","no-go","1"
"pit-trial","218","1387575","0.0-101.0","battery-v0.2","","""event"",""trial"",""time""
""focus"",""0"",""1""
""fullscreenenter"",""1"",""2848""
","
","""event"",""trial"",""time""
""focus"",""0"",""1""
","""event"",""trial"",""time""
""fullscreenenter"",""1"",""2848""
","
","","","-1","","","12","3374","2312","a","elianto","#f73b6a7A"," ","-1","0","-10","[3066]","1","2","","","3374","97","7","3","lose","go","0"
"pit-trial","219","1391143","0.0-102.0","battery-v0.2","","""event"",""trial"",""time""
""focus"",""0"",""1""
""fullscreenenter"",""1"",""2848""
","
","""event"",""trial"",""time""
""focus"",""0"",""1""
","""event"",""trial"",""time""
""fullscreenenter"",""1"",""2848""
","
","","","709","","","12","3374","2312","p","elianto","#3366ff99"," "," ","1","+10","[1563]","1","2","","","3374","98","5","1","win","go","0"
"pit-trial","220","1395038","0.0-103.0","battery-v0.2","","""event"",""trial"",""time""
""focus"",""0"",""1""
""fullscreenenter"",""1"",""2848""
","
","""event"",""trial"",""time""
""focus"",""0"",""1""
","""event"",""trial"",""time""
""fullscreenenter"",""1"",""2848""
","
","","","1038","","","12","3374","2312","l","elianto","#3366ff99","-1"," ","0","0","[1891]","1","2","","","3374","99","8","2","win","no-go","0"
"pit-trial","221","1398845","0.0-104.0","battery-v0.2","","""event"",""trial"",""time""
""focus"",""0"",""1""
""fullscreenenter"",""1"",""2848""
","
","""event"",""trial"",""time""
""focus"",""0"",""1""
","""event"",""trial"",""time""
""fullscreenenter"",""1"",""2848""
","
","","","952","","","12","3374","2312","g","elianto","#f73b6a7A","-1"," ","0","-10","[1803]","1","2","","","3374","100","6","4","lose","no-go","0"
"pit-trial","222","1402764","0.0-105.0","battery-v0.2","","""event"",""trial"",""time""
""focus"",""0"",""1""
""fullscreenenter"",""1"",""2848""
","
","""event"",""trial"",""time""
""focus"",""0"",""1""
","""event"",""trial"",""time""
""fullscreenenter"",""1"",""2848""
","
","","","1067","","","12","3374","2312","p","elianto","#3366ff99"," "," ","1","+10","[1917]","1","2","","","3374","101","5","1","win","go","0"
"pit-trial","223","1406597","0.0-106.0","battery-v0.2","","""event"",""trial"",""time""
""focus"",""0"",""1""
""fullscreenenter"",""1"",""2848""
","
","""event"",""trial"",""time""
""focus"",""0"",""1""
","""event"",""trial"",""time""
""fullscreenenter"",""1"",""2848""
","
","","","977","","","12","3374","2312","u","elianto","#3366ff99","-1"," ","0","0","[1828]","1","2","","","3374","102","9","2","win","no-go","0"
"pit-trial","224","1411451","0.0-107.0","battery-v0.2","","""event"",""trial"",""time""
""focus"",""0"",""1""
""fullscreenenter"",""1"",""2848""
","
","""event"",""trial"",""time""
""focus"",""0"",""1""
","""event"",""trial"",""time""
""fullscreenenter"",""1"",""2848""
","
","","","-1","","","12","3374","2312","g","elianto","#f73b6a7A","-1","-1","1","0","[]","0","2","","","3374","103","6","4","lose","no-go","0"
"pit-trial","225","1415108","0.0-108.0","battery-v0.2","","""event"",""trial"",""time""
""focus"",""0"",""1""
""fullscreenenter"",""1"",""2848""
","
","""event"",""trial"",""time""
""focus"",""0"",""1""
","""event"",""trial"",""time""
""fullscreenenter"",""1"",""2848""
","
","","","801","","","12","3374","2312","l","elianto","#3366ff99","-1"," ","0","0","[1653]","1","2","","","3374","104","8","2","win","no-go","0"
"pit-trial","226","1419965","0.0-109.0","battery-v0.2","","""event"",""trial"",""time""
""focus"",""0"",""1""
""fullscreenenter"",""1"",""2848""
","
","""event"",""trial"",""time""
""focus"",""0"",""1""
","""event"",""trial"",""time""
""fullscreenenter"",""1"",""2848""
","
","","","-1","","","12","3374","2312","l","elianto","#3366ff99","-1","-1","1","+10","[]","0","2","","","3374","105","8","2","win","no-go","0"
"pit-trial","227","1424090","0.0-110.0","battery-v0.2","","""event"",""trial"",""time""
""focus"",""0"",""1""
""fullscreenenter"",""1"",""2848""
","
","""event"",""trial"",""time""
""focus"",""0"",""1""
","""event"",""trial"",""time""
""fullscreenenter"",""1"",""2848""
","
","","","1273","","","12","3374","2312","u","elianto","#3366ff99","-1"," ","0","0","[2123]","1","2","","","3374","106","9","2","win","no-go","0"
"pit-trial","228","1428941","0.0-111.0","battery-v0.2","","""event"",""trial"",""time""
""focus"",""0"",""1""
""fullscreenenter"",""1"",""2848""
","
","""event"",""trial"",""time""
""focus"",""0"",""1""
","""event"",""trial"",""time""
""fullscreenenter"",""1"",""2848""
","
","","","-1","","","12","3374","2312","g","elianto","#f73b6a7A","-1","-1","1","0","[]","0","2","","","3374","107","6","4","lose","no-go","0"
"pit-trial","229","1433188","0.0-112.0","battery-v0.2","","""event"",""trial"",""time""
""focus"",""0"",""1""
""fullscreenenter"",""1"",""2848""
","
","""event"",""trial"",""time""
""focus"",""0"",""1""
","""event"",""trial"",""time""
""fullscreenenter"",""1"",""2848""
","
","","","1392","","","12","3374","2312","p","elianto","#3366ff99"," "," ","1","+10","[2242]","1","2","","","3374","108","5","1","win","go","0"
"pit-trial","230","1438041","0.0-113.0","battery-v0.2","","""event"",""trial"",""time""
""focus"",""0"",""1""
""fullscreenenter"",""1"",""2848""
","
","""event"",""trial"",""time""
""focus"",""0"",""1""
","""event"",""trial"",""time""
""fullscreenenter"",""1"",""2848""
","
