"trial_type","trial_index","time_elapsed","internal_node_id","task_version","subject_id","interactions","blur_events","focus_events","fullscreenenter_events","fullscreenexit_events","success","view_history","rt","responses","num_errors","age","subject","participantId","rune","rune_set","hex","correct","choice","accuracy","outcome","keys","total_keys","block","practice","value","sub","trial","stimulus","robot","valence","action","sham"
"pavlovia","0","7","0.0-0.0","battery-v0.2","","""event"",""trial"",""time""
""focus"",""0"",""1""
""fullscreenenter"",""1"",""2081""
","
","""event"",""trial"",""time""
""focus"",""0"",""1""
","""event"",""trial"",""time""
""fullscreenenter"",""1"",""2081""
","
","","","","","","","","","","","","","","","","","","","","","","","","","","",""
"fullscreen","1","2874","0.0-1.0","battery-v0.2","","""event"",""trial"",""time""
""focus"",""0"",""1""
""fullscreenenter"",""1"",""2081""
","
","""event"",""trial"",""time""
""focus"",""0"",""1""
","""event"",""trial"",""time""
""fullscreenenter"",""1"",""2081""
","
","true","","","","","","","","","","","","","","","","","","","","","","","","","",""
"pit-instructions","2","6050","0.0-2.0-0.0","battery-v0.2","","""event"",""trial"",""time""
""focus"",""0"",""1""
""fullscreenenter"",""1"",""2081""
","
","""event"",""trial"",""time""
""focus"",""0"",""1""
","""event"",""trial"",""time""
""fullscreenenter"",""1"",""2081""
","
","","[{""page_index"":0,""viewing_time"":3172}]","3172","","","","","","","","","","","","","","","","","","","","","","","",""
"pit-comprehension","3","10210","0.0-2.0-1.0-0.0","battery-v0.2","","""event"",""trial"",""time""
""focus"",""0"",""1""
""fullscreenenter"",""1"",""2081""
","
","""event"",""trial"",""time""
""focus"",""0"",""1""
","""event"",""trial"",""time""
""fullscreenenter"",""1"",""2081""
","
","","","4143","[""shark""]","0","11","20887","7657","","","","","","","","","","","","","","","","","","",""
"pit-instructions","4","11956","0.0-2.0-1.0-1.0","battery-v0.2","","""event"",""trial"",""time""
""focus"",""0"",""1""
""fullscreenenter"",""1"",""2081""
","
","""event"",""trial"",""time""
""focus"",""0"",""1""
","""event"",""trial"",""time""
""fullscreenenter"",""1"",""2081""
","
","","[{""page_index"":0,""viewing_time"":1740}]","1740","","","","","","","","","","","","","","","","","","","","","","","",""
"pit-comprehension","5","15123","0.0-2.0-2.0-0.0","battery-v0.2","","""event"",""trial"",""time""
""focus"",""0"",""1""
""fullscreenenter"",""1"",""2081""
","
","""event"",""trial"",""time""
""focus"",""0"",""1""
","""event"",""trial"",""time""
""fullscreenenter"",""1"",""2081""
","
","","","3163","[""tiger""]","0","11","20887","7657","","","","","","","","","","","","","","","","","","",""
"pit-instructions","6","15769","0.0-2.0-2.0-1.0","battery-v0.2","","""event"",""trial"",""time""
""focus"",""0"",""1""
""fullscreenenter"",""1"",""2081""
","
","""event"",""trial"",""time""
""focus"",""0"",""1""
","""event"",""trial"",""time""
""fullscreenenter"",""1"",""2081""
","
","","[{""page_index"":0,""viewing_time"":643}]","643","","","","","","","","","","","","","","","","","","","","","","","",""
"pit-instructions","7","106152","0.0-2.0-3.0","battery-v0.2","","""event"",""trial"",""time""
""focus"",""0"",""1""
""fullscreenenter"",""1"",""2081""
","
","""event"",""trial"",""time""
""focus"",""0"",""1""
","""event"",""trial"",""time""
""fullscreenenter"",""1"",""2081""
","
","","[{""page_index"":0,""viewing_time"":7956},{""page_index"":1,""viewing_time"":5679},{""page_index"":2,""viewing_time"":6117},{""page_index"":3,""viewing_time"":5333},{""page_index"":4,""viewing_time"":5465},{""page_index"":5,""viewing_time"":5829},{""page_index"":6,""viewing_time"":6965},{""page_index"":7,""viewing_time"":7225},{""page_index"":8,""viewing_time"":6670},{""page_index"":9,""viewing_time"":7887},{""page_index"":10,""viewing_time"":7521},{""page_index"":11,""viewing_time"":6720},{""page_index"":12,""viewing_time"":6317},{""page_index"":13,""viewing_time"":4698}]","90382","","","","","","","","","","","","","","","","","","","","","","","",""
"pit-trial","8","109685","0.0-2.0-4.0-0.0","battery-v0.2","","""event"",""trial"",""time""
""focus"",""0"",""1""
""fullscreenenter"",""1"",""2081""
","
","""event"",""trial"",""time""
""focus"",""0"",""1""
","""event"",""trial"",""time""
""fullscreenenter"",""1"",""2081""
","
","","","670","","","11","20887","7657","&#9784;","elianto","#FFFFF080"," "," ","1","&#10004","[1527]","1","0","0","","","","","","","",""
"pit-trial","9","113412","0.0-2.0-4.1-0.1","battery-v0.2","","""event"",""trial"",""time""
""focus"",""0"",""1""
""fullscreenenter"",""1"",""2081""
","
","""event"",""trial"",""time""
""focus"",""0"",""1""
","""event"",""trial"",""time""
""fullscreenenter"",""1"",""2081""
","
","","","668","","","11","20887","7657","&#9784;","elianto","#FFFFF080"," "," ","1","&#10004","[1546]","1","0","0","","","","","","","",""
"pit-trial","10","117218","0.0-2.0-4.2-0.2","battery-v0.2","","""event"",""trial"",""time""
""focus"",""0"",""1""
""fullscreenenter"",""1"",""2081""
","
","""event"",""trial"",""time""
""focus"",""0"",""1""
","""event"",""trial"",""time""
""fullscreenenter"",""1"",""2081""
","
","","","924","","","11","20887","7657","&#9784;","elianto","#FFFFF080"," "," ","1","&#10004","[1788]","1","0","0","","","","","","","",""
"pit-trial","11","121356","0.0-2.0-4.3-0.3","battery-v0.2","","""event"",""trial"",""time""
""focus"",""0"",""1""
""fullscreenenter"",""1"",""2081""
","
","""event"",""trial"",""time""
""focus"",""0"",""1""
","""event"",""trial"",""time""
""fullscreenenter"",""1"",""2081""
","
","","","1075","","","11","20887","7657","&#9784;","elianto","#FFFFF080"," "," ","1","&#10004","[1929]","1","0","0","","","","","","","",""
"pit-trial","12","125265","0.0-2.0-4.4-0.4","battery-v0.2","","""event"",""trial"",""time""
""focus"",""0"",""1""
""fullscreenenter"",""1"",""2081""
","
","""event"",""trial"",""time""
""focus"",""0"",""1""
","""event"",""trial"",""time""
""fullscreenenter"",""1"",""2081""
","
","","","1034","","","11","20887","7657","&#9784;","elianto","#FFFFF080"," "," ","1","&#10004","[1901]","1","0","0","","","","","","","",""
"pit-instructions","13","149625","0.0-2.0-5.0","battery-v0.2","","""event"",""trial"",""time""
""focus"",""0"",""1""
""fullscreenenter"",""1"",""2081""
","
","""event"",""trial"",""time""
""focus"",""0"",""1""
","""event"",""trial"",""time""
""fullscreenenter"",""1"",""2081""
","
","","[{""page_index"":0,""viewing_time"":8303},{""page_index"":1,""viewing_time"":5845},{""page_index"":2,""viewing_time"":4431},{""page_index"":3,""viewing_time"":5777}]","24356","","","","","","","","","","","","","","","","","","","","","","","",""
"pit-trial","14","154485","0.0-2.0-6.0-0.0","battery-v0.2","","""event"",""trial"",""time""
""focus"",""0"",""1""
""fullscreenenter"",""1"",""2081""
","
","""event"",""trial"",""time""
""focus"",""0"",""1""
","""event"",""trial"",""time""
""fullscreenenter"",""1"",""2081""
","
","","","-1","","","11","20887","7657","&#9854;","elianto","#FFFFF080","-1","-1","1","&#10004","[]","0","0","1","","","","","","","",""
"pit-trial","15","159355","0.0-2.0-6.1-0.1","battery-v0.2","","""event"",""trial"",""time""
""focus"",""0"",""1""
""fullscreenenter"",""1"",""2081""
","
","""event"",""trial"",""time""
""focus"",""0"",""1""
","""event"",""trial"",""time""
""fullscreenenter"",""1"",""2081""
","
","","","-1","","","11","20887","7657","&#9854;","elianto","#FFFFF080","-1","-1","1","&#10004","[]","0","0","1","","","","","","","",""
"pit-trial","16","164226","0.0-2.0-6.2-0.2","battery-v0.2","","""event"",""trial"",""time""
""focus"",""0"",""1""
""fullscreenenter"",""1"",""2081""
","
","""event"",""trial"",""time""
""focus"",""0"",""1""
","""event"",""trial"",""time""
""fullscreenenter"",""1"",""2081""
","
","","","-1","","","11","20887","7657","&#9854;","elianto","#FFFFF080","-1","-1","1","&#10004","[]","0","0","1","","","","","","","",""
"pit-trial","17","169105","0.0-2.0-6.3-0.3","battery-v0.2","","""event"",""trial"",""time""
""focus"",""0"",""1""
""fullscreenenter"",""1"",""2081""
","
","""event"",""trial"",""time""
""focus"",""0"",""1""
","""event"",""trial"",""time""
""fullscreenenter"",""1"",""2081""
","
","","","-1","","","11","20887","7657","&#9854;","elianto","#FFFFF080","-1","-1","1","&#10004","[]","0","0","1","","","","","","","",""
"pit-trial","18","173986","0.0-2.0-6.4-0.4","battery-v0.2","","""event"",""trial"",""time""
""focus"",""0"",""1""
""fullscreenenter"",""1"",""2081""
","
","""event"",""trial"",""time""
""focus"",""0"",""1""
","""event"",""trial"",""time""
""fullscreenenter"",""1"",""2081""
","
","","","-1","","","11","20887","7657","&#9854;","elianto","#FFFFF080","-1","-1","1","&#10004","[]","0","0","1","","","","","","","",""
"pit-instructions","19","290722","0.0-2.0-7.0","battery-v0.2","","""event"",""trial"",""time""
""focus"",""0"",""1""
""fullscreenenter"",""1"",""2081""
","
","""event"",""trial"",""time""
""focus"",""0"",""1""
","""event"",""trial"",""time""
""fullscreenenter"",""1"",""2081""
","
","","[{""page_index"":0,""viewing_time"":5065},{""page_index"":1,""viewing_time"":7377},{""page_index"":2,""viewing_time"":6690},{""page_index"":3,""viewing_time"":6320},{""page_index"":4,""viewing_time"":6051},{""page_index"":5,""viewing_time"":6263},{""page_index"":6,""viewing_time"":4699},{""page_index"":7,""viewing_time"":8205},{""page_index"":8,""viewing_time"":7620},{""page_index"":9,""viewing_time"":7156},{""page_index"":10,""viewing_time"":6934},{""page_index"":11,""viewing_time"":4980},{""page_index"":12,""viewing_time"":6204},{""page_index"":13,""viewing_time"":6437},{""page_index"":14,""viewing_time"":6902},{""page_index"":15,""viewing_time"":6317},{""page_index"":16,""viewing_time"":6725},{""page_index"":17,""viewing_time"":6787}]","116732","","","","","","","","","","","","","","","","","","","","","","","",""
"pit-trial","20","294745","0.0-2.0-8.0-0.0","battery-v0.2","","""event"",""trial"",""time""
""focus"",""0"",""1""
""fullscreenenter"",""1"",""2081""
","
","""event"",""trial"",""time""
""focus"",""0"",""1""
","""event"",""trial"",""time""
""fullscreenenter"",""1"",""2081""
","
","","","1147","","","11","20887","7657","&#9776;","elianto","#3366ff99"," "," ","1","+10","[2004]","1","0","1","","","","","","","",""
"pit-trial","21","298245","0.0-2.0-8.0-1.0","battery-v0.2","","""event"",""trial"",""time""
""focus"",""0"",""1""
""fullscreenenter"",""1"",""2081""
","
","""event"",""trial"",""time""
""focus"",""0"",""1""
","""event"",""trial"",""time""
""fullscreenenter"",""1"",""2081""
","
","","","622","","","11","20887","7657","&#9776;","elianto","#3366ff99"," "," ","1","+10","[1491]","1","0","1","","","","","","","",""
"pit-trial","22","301849","0.0-2.0-8.0-2.0","battery-v0.2","","""event"",""trial"",""time""
""focus"",""0"",""1""
""fullscreenenter"",""1"",""2081""
","
","""event"",""trial"",""time""
""focus"",""0"",""1""
","""event"",""trial"",""time""
""fullscreenenter"",""1"",""2081""
","
","","","746","","","11","20887","7657","&#9776;","elianto","#3366ff99"," "," ","1","+10","[1598]","1","0","1","","","","","","","",""
"pit-trial","23","305503","0.0-2.0-8.0-3.0","battery-v0.2","","""event"",""trial"",""time""
""focus"",""0"",""1""
""fullscreenenter"",""1"",""2081""
","
","""event"",""trial"",""time""
""focus"",""0"",""1""
","""event"",""trial"",""time""
""fullscreenenter"",""1"",""2081""
","
","","","547","","","11","20887","7657","&#9776;","elianto","#3366ff99"," "," ","1","0","[1413]","1","0","1","","","","","","","",""
"pit-trial","24","308834","0.0-2.0-8.0-4.0","battery-v0.2","","""event"",""trial"",""time""
""focus"",""0"",""1""
""fullscreenenter"",""1"",""2081""
","
","""event"",""trial"",""time""
""focus"",""0"",""1""
","""event"",""trial"",""time""
""fullscreenenter"",""1"",""2081""
","
","","","448","","","11","20887","7657","&#9776;","elianto","#3366ff99"," "," ","1","+10","[1314]","1","0","1","","","","","","","",""
"pit-trial","25","312177","0.0-2.0-8.1-0.1","battery-v0.2","","""event"",""trial"",""time""
""focus"",""0"",""1""
""fullscreenenter"",""1"",""2081""
","
","""event"",""trial"",""time""
""focus"",""0"",""1""
","""event"",""trial"",""time""
""fullscreenenter"",""1"",""2081""
","
","","","455","","","11","20887","7657","&#9776;","elianto","#3366ff99"," "," ","1","+10","[1305]","1","0","1","","","","","","","",""
"pit-trial","26","315430","0.0-2.0-8.1-1.1","battery-v0.2","","""event"",""trial"",""time""
""focus"",""0"",""1""
""fullscreenenter"",""1"",""2081""
","
","""event"",""trial"",""time""
""focus"",""0"",""1""
","""event"",""trial"",""time""
""fullscreenenter"",""1"",""2081""
","
","","","368","","","11","20887","7657","&#9776;","elianto","#3366ff99"," "," ","1","+10","[1237]","1","0","1","","","","","","","",""
"pit-trial","27","318660","0.0-2.0-8.1-2.1","battery-v0.2","","""event"",""trial"",""time""
""focus"",""0"",""1""
""fullscreenenter"",""1"",""2081""
","
","""event"",""trial"",""time""
""focus"",""0"",""1""
","""event"",""trial"",""time""
""fullscreenenter"",""1"",""2081""
","
","","","345","","","11","20887","7657","&#9776;","elianto","#3366ff99"," "," ","1","+10","[1212]","1","0","1","","","","","","","",""
"pit-trial","28","322185","0.0-2.0-8.1-3.1","battery-v0.2","","""event"",""trial"",""time""
""focus"",""0"",""1""
""fullscreenenter"",""1"",""2081""
","
","""event"",""trial"",""time""
""focus"",""0"",""1""
","""event"",""trial"",""time""
""fullscreenenter"",""1"",""2081""
","
","","","403","","","11","20887","7657","&#9776;","elianto","#3366ff99"," "," ","1","0","[1267]","1","0","1","","","","","","","",""
"pit-trial","29","325807","0.0-2.0-8.1-4.1","battery-v0.2","","""event"",""trial"",""time""
""focus"",""0"",""1""
""fullscreenenter"",""1"",""2081""
","
","""event"",""trial"",""time""
""focus"",""0"",""1""
","""event"",""trial"",""time""
""fullscreenenter"",""1"",""2081""
","
","","","592","","","11","20887","7657","&#9776;","elianto","#3366ff99"," "," ","1","+10","[1446]","1","0","1","","","","","","","",""
"pit-trial","30","329586","0.0-2.0-8.2-0.2","battery-v0.2","","""event"",""trial"",""time""
""focus"",""0"",""1""
""fullscreenenter"",""1"",""2081""
","
","""event"",""trial"",""time""
""focus"",""0"",""1""
","""event"",""trial"",""time""
""fullscreenenter"",""1"",""2081""
","
","","","726","","","11","20887","7657","&#9776;","elianto","#3366ff99"," "," ","1","+10","[1598]","1","0","1","","","","","","","",""
"pit-trial","31","333173","0.0-2.0-8.2-1.2","battery-v0.2","","""event"",""trial"",""time""
""focus"",""0"",""1""
""fullscreenenter"",""1"",""2081""
","
","""event"",""trial"",""time""
""focus"",""0"",""1""
","""event"",""trial"",""time""
""fullscreenenter"",""1"",""2081""
","
","","","486","","","11","20887","7657","&#9776;","elianto","#3366ff99"," "," ","1","+10","[1339]","1","0","1","","","","","","","",""
"pit-trial","32","337161","0.0-2.0-8.2-2.2","battery-v0.2","","""event"",""trial"",""time""
""focus"",""0"",""1""
""fullscreenenter"",""1"",""2081""
","
","""event"",""trial"",""time""
""focus"",""0"",""1""
","""event"",""trial"",""time""
""fullscreenenter"",""1"",""2081""
","
","","","1095","","","11","20887","7657","&#9776;","elianto","#3366ff99"," "," ","1","+10","[1978]","1","0","1","","","","","","","",""
"pit-trial","33","340632","0.0-2.0-8.2-3.2","battery-v0.2","","""event"",""trial"",""time""
""focus"",""0"",""1""
""fullscreenenter"",""1"",""2081""
","
","""event"",""trial"",""time""
""focus"",""0"",""1""
","""event"",""trial"",""time""
""fullscreenenter"",""1"",""2081""
","
","","","588","","","11","20887","7657","&#9776;","elianto","#3366ff99"," "," ","1","0","[1459]","1","0","1","","","","","","","",""
"pit-trial","34","344049","0.0-2.0-8.2-4.2","battery-v0.2","","""event"",""trial"",""time""
""focus"",""0"",""1""
""fullscreenenter"",""1"",""2081""
","
","""event"",""trial"",""time""
""focus"",""0"",""1""
","""event"",""trial"",""time""
""fullscreenenter"",""1"",""2081""
","
","","","450","","","11","20887","7657","&#9776;","elianto","#3366ff99"," "," ","1","+10","[1322]","1","0","1","","","","","","","",""
"call-function","35","344051","0.0-2.0-9.0","battery-v0.2","","""event"",""trial"",""time""
""focus"",""0"",""1""
""fullscreenenter"",""1"",""2081""
","
","""event"",""trial"",""time""
""focus"",""0"",""1""
","""event"",""trial"",""time""
""fullscreenenter"",""1"",""2081""
","
","","","","","","","","","","","","","","","","","","","","","","","","","","",""
"pit-instructions","36","389287","0.0-2.0-10.0","battery-v0.2","","""event"",""trial"",""time""
""focus"",""0"",""1""
""fullscreenenter"",""1"",""2081""
","
","""event"",""trial"",""time""
""focus"",""0"",""1""
","""event"",""trial"",""time""
""fullscreenenter"",""1"",""2081""
","
","","[{""page_index"":0,""viewing_time"":5486},{""page_index"":1,""viewing_time"":9743},{""page_index"":2,""viewing_time"":9278},{""page_index"":3,""viewing_time"":12493},{""page_index"":4,""viewing_time"":8236}]","45236","","","","","","","","","","","","","","","","","","","","","","","",""
"pit-trial","37","394159","0.0-2.0-11.0-0.0","battery-v0.2","","""event"",""trial"",""time""
""focus"",""0"",""1""
""fullscreenenter"",""1"",""2081""
","
","""event"",""trial"",""time""
""focus"",""0"",""1""
","""event"",""trial"",""time""
""fullscreenenter"",""1"",""2081""
","
","","","-1","","","11","20887","7657","&#9761;","elianto","#3366ff99","-1","-1","1","+10","[]","0","0","2","","","","","","","",""
"pit-trial","38","399017","0.0-2.0-11.0-1.0","battery-v0.2","","""event"",""trial"",""time""
""focus"",""0"",""1""
""fullscreenenter"",""1"",""2081""
","
","""event"",""trial"",""time""
""focus"",""0"",""1""
","""event"",""trial"",""time""
""fullscreenenter"",""1"",""2081""
","
","","","-1","","","11","20887","7657","&#9761;","elianto","#3366ff99","-1","-1","1","+10","[]","0","0","2","","","","","","","",""
"pit-trial","39","403894","0.0-2.0-11.0-2.0","battery-v0.2","","""event"",""trial"",""time""
""focus"",""0"",""1""
""fullscreenenter"",""1"",""2081""
","
","""event"",""trial"",""time""
""focus"",""0"",""1""
","""event"",""trial"",""time""
""fullscreenenter"",""1"",""2081""
","
","","","-1","","","11","20887","7657","&#9761;","elianto","#3366ff99","-1","-1","1","+10","[]","0","0","2","","","","","","","",""
"pit-trial","40","408763","0.0-2.0-11.0-3.0","battery-v0.2","","""event"",""trial"",""time""
""focus"",""0"",""1""
""fullscreenenter"",""1"",""2081""
","
","""event"",""trial"",""time""
""focus"",""0"",""1""
","""event"",""trial"",""time""
""fullscreenenter"",""1"",""2081""
","
","","","-1","","","11","20887","7657","&#9761;","elianto","#3366ff99","-1","-1","1","0","[]","0","0","2","","","","","","","",""
"pit-trial","41","413627","0.0-2.0-11.0-4.0","battery-v0.2","","""event"",""trial"",""time""
""focus"",""0"",""1""
""fullscreenenter"",""1"",""2081""
","
","""event"",""trial"",""time""
""focus"",""0"",""1""
","""event"",""trial"",""time""
""fullscreenenter"",""1"",""2081""
","
","","","-1","","","11","20887","7657","&#9761;","elianto","#3366ff99","-1","-1","1","+10","[]","0","0","2","","","","","","","",""
"pit-trial","42","418490","0.0-2.0-11.1-0.1","battery-v0.2","","""event"",""trial"",""time""
""focus"",""0"",""1""
""fullscreenenter"",""1"",""2081""
","
","""event"",""trial"",""time""
""focus"",""0"",""1""
","""event"",""trial"",""time""
""fullscreenenter"",""1"",""2081""
","
","","","-1","","","11","20887","7657","&#9761;","elianto","#3366ff99","-1","-1","1","+10","[]","0","0","2","","","","","","","",""
"pit-trial","43","423366","0.0-2.0-11.1-1.1","battery-v0.2","","""event"",""trial"",""time""
""focus"",""0"",""1""
""fullscreenenter"",""1"",""2081""
","
","""event"",""trial"",""time""
""focus"",""0"",""1""
","""event"",""trial"",""time""
""fullscreenenter"",""1"",""2081""
","
","","","-1","","","11","20887","7657","&#9761;","elianto","#3366ff99","-1","-1","1","+10","[]","0","0","2","","","","","","","",""
"pit-trial","44","428229","0.0-2.0-11.1-2.1","battery-v0.2","","""event"",""trial"",""time""
""focus"",""0"",""1""
""fullscreenenter"",""1"",""2081""
","
","""event"",""trial"",""time""
""focus"",""0"",""1""
","""event"",""trial"",""time""
""fullscreenenter"",""1"",""2081""
","
","","","-1","","","11","20887","7657","&#9761;","elianto","#3366ff99","-1","-1","1","+10","[]","0","0","2","","","","","","","",""
"pit-trial","45","433094","0.0-2.0-11.1-3.1","battery-v0.2","","""event"",""trial"",""time""
""focus"",""0"",""1""
""fullscreenenter"",""1"",""2081""
","
","""event"",""trial"",""time""
""focus"",""0"",""1""
","""event"",""trial"",""time""
""fullscreenenter"",""1"",""2081""
","
","","","-1","","","11","20887","7657","&#9761;","elianto","#3366ff99","-1","-1","1","0","[]","0","0","2","","","","","","","",""
"pit-trial","46","438144","0.0-2.0-11.1-4.1","battery-v0.2","","""event"",""trial"",""time""
""focus"",""0"",""1""
""fullscreenenter"",""1"",""2081""
","
","""event"",""trial"",""time""
""focus"",""0"",""1""
","""event"",""trial"",""time""
""fullscreenenter"",""1"",""2081""
","
","","","-1","","","11","20887","7657","&#9761;","elianto","#3366ff99","-1","-1","1","+10","[]","0","0","2","","","","","","","",""
"pit-trial","47","443214","0.0-2.0-11.2-0.2","battery-v0.2","","""event"",""trial"",""time""
""focus"",""0"",""1""
""fullscreenenter"",""1"",""2081""
","
","""event"",""trial"",""time""
""focus"",""0"",""1""
","""event"",""trial"",""time""
""fullscreenenter"",""1"",""2081""
","
","","","-1","","","11","20887","7657","&#9761;","elianto","#3366ff99","-1","-1","1","+10","[]","0","0","2","","","","","","","",""
"pit-trial","48","448072","0.0-2.0-11.2-1.2","battery-v0.2","","""event"",""trial"",""time""
""focus"",""0"",""1""
""fullscreenenter"",""1"",""2081""
","
","""event"",""trial"",""time""
""focus"",""0"",""1""
","""event"",""trial"",""time""
""fullscreenenter"",""1"",""2081""
","
","","","-1","","","11","20887","7657","&#9761;","elianto","#3366ff99","-1","-1","1","+10","[]","0","0","2","","","","","","","",""
"pit-trial","49","452939","0.0-2.0-11.2-2.2","battery-v0.2","","""event"",""trial"",""time""
""focus"",""0"",""1""
""fullscreenenter"",""1"",""2081""
","
","""event"",""trial"",""time""
""focus"",""0"",""1""
","""event"",""trial"",""time""
""fullscreenenter"",""1"",""2081""
","
","","","-1","","","11","20887","7657","&#9761;","elianto","#3366ff99","-1","-1","1","+10","[]","0","0","2","","","","","","","",""
"pit-trial","50","457934","0.0-2.0-11.2-3.2","battery-v0.2","","""event"",""trial"",""time""
""focus"",""0"",""1""
""fullscreenenter"",""1"",""2081""
","
","""event"",""trial"",""time""
""focus"",""0"",""1""
","""event"",""trial"",""time""
""fullscreenenter"",""1"",""2081""
","
","","","-1","","","11","20887","7657","&#9761;","elianto","#3366ff99","-1","-1","1","0","[]","0","0","2","","","","","","","",""
"pit-trial","51","462951","0.0-2.0-11.2-4.2","battery-v0.2","","""event"",""trial"",""time""
""focus"",""0"",""1""
""fullscreenenter"",""1"",""2081""
","
","""event"",""trial"",""time""
""focus"",""0"",""1""
","""event"",""trial"",""time""
""fullscreenenter"",""1"",""2081""
","
","","","-1","","","11","20887","7657","&#9761;","elianto","#3366ff99","-1","-1","1","+10","[]","0","0","2","","","","","","","",""
"pit-trial","52","467815","0.0-2.0-11.3-0.3","battery-v0.2","","""event"",""trial"",""time""
""focus"",""0"",""1""
""fullscreenenter"",""1"",""2081""
","
","""event"",""trial"",""time""
""focus"",""0"",""1""
","""event"",""trial"",""time""
""fullscreenenter"",""1"",""2081""
","
","","","-1","","","11","20887","7657","&#9761;","elianto","#3366ff99","-1","-1","1","+10","[]","0","0","2","","","","","","","",""
"pit-trial","53","472684","0.0-2.0-11.3-1.3","battery-v0.2","","""event"",""trial"",""time""
""focus"",""0"",""1""
""fullscreenenter"",""1"",""2081""
","
","""event"",""trial"",""time""
""focus"",""0"",""1""
","""event"",""trial"",""time""
""fullscreenenter"",""1"",""2081""
","
","","","-1","","","11","20887","7657","&#9761;","elianto","#3366ff99","-1","-1","1","+10","[]","0","0","2","","","","","","","",""
"pit-trial","54","477750","0.0-2.0-11.3-2.3","battery-v0.2","","""event"",""trial"",""time""
""focus"",""0"",""1""
""fullscreenenter"",""1"",""2081""
","
","""event"",""trial"",""time""
""focus"",""0"",""1""
","""event"",""trial"",""time""
""fullscreenenter"",""1"",""2081""
","
","","","-1","","","11","20887","7657","&#9761;","elianto","#3366ff99","-1","-1","1","+10","[]","0","0","2","","","","","","","",""
"pit-trial","55","482669","0.0-2.0-11.3-3.3","battery-v0.2","","""event"",""trial"",""time""
""focus"",""0"",""1""
""fullscreenenter"",""1"",""2081""
","
","""event"",""trial"",""time""
""focus"",""0"",""1""
","""event"",""trial"",""time""
""fullscreenenter"",""1"",""2081""
","
","","","-1","","","11","20887","7657","&#9761;","elianto","#3366ff99","-1","-1","1","0","[]","0","0","2","","","","","","","",""
"pit-trial","56","487736","0.0-2.0-11.3-4.3","battery-v0.2","","""event"",""trial"",""time""
""focus"",""0"",""1""
""fullscreenenter"",""1"",""2081""
","
","""event"",""trial"",""time""
""focus"",""0"",""1""
","""event"",""trial"",""time""
""fullscreenenter"",""1"",""2081""
","
","","","-1","","","11","20887","7657","&#9761;","elianto","#3366ff99","-1","-1","1","+10","[]","0","0","2","","","","","","","",""
"call-function","57","487737","0.0-2.0-12.0","battery-v0.2","","""event"",""trial"",""time""
""focus"",""0"",""1""
""fullscreenenter"",""1"",""2081""
","
","""event"",""trial"",""time""
""focus"",""0"",""1""
","""event"",""trial"",""time""
""fullscreenenter"",""1"",""2081""
","
","","","","","","","","","","","","","","","","","","","","","","","","","","",""
"pit-instructions","58","518353","0.0-2.0-13.0","battery-v0.2","","""event"",""trial"",""time""
""focus"",""0"",""1""
""fullscreenenter"",""1"",""2081""
","
","""event"",""trial"",""time""
""focus"",""0"",""1""
","""event"",""trial"",""time""
""fullscreenenter"",""1"",""2081""
","
","","[{""page_index"":0,""viewing_time"":5568},{""page_index"":1,""viewing_time"":6574},{""page_index"":2,""viewing_time"":3944},{""page_index"":3,""viewing_time"":10255},{""page_index"":4,""viewing_time"":4275}]","30616","","","","","","","","","","","","","","","","","","","","","","","",""
"pit-trial","59","522444","0.0-2.0-14.0-0.0","battery-v0.2","","""event"",""trial"",""time""
""focus"",""0"",""1""
""fullscreenenter"",""1"",""2081""
","
","""event"",""trial"",""time""
""focus"",""0"",""1""
","""event"",""trial"",""time""
""fullscreenenter"",""1"",""2081""
","
","","","1222","","","11","20887","7657","&#9826;","elianto","#f73b6a7A","-1"," ","0","-10","[2081]","1","0","3","","","","","","","",""
"pit-trial","60","527312","0.0-2.0-14.0-1.0","battery-v0.2","","""event"",""trial"",""time""
""focus"",""0"",""1""
""fullscreenenter"",""1"",""2081""
","
","""event"",""trial"",""time""
""focus"",""0"",""1""
","""event"",""trial"",""time""
""fullscreenenter"",""1"",""2081""
","
","","","-1","","","11","20887","7657","&#9826;","elianto","#f73b6a7A","-1","-1","1","0","[]","0","0","3","","","","","","","",""
"pit-trial","61","532176","0.0-2.0-14.0-2.0","battery-v0.2","","""event"",""trial"",""time""
""focus"",""0"",""1""
""fullscreenenter"",""1"",""2081""
","
","""event"",""trial"",""time""
""focus"",""0"",""1""
","""event"",""trial"",""time""
""fullscreenenter"",""1"",""2081""
","
","","","-1","","","11","20887","7657","&#9826;","elianto","#f73b6a7A","-1","-1","1","0","[]","0","0","3","","","","","","","",""
"pit-trial","62","537250","0.0-2.0-14.0-3.0","battery-v0.2","","""event"",""trial"",""time""
""focus"",""0"",""1""
""fullscreenenter"",""1"",""2081""
","
","""event"",""trial"",""time""
""focus"",""0"",""1""
","""event"",""trial"",""time""
""fullscreenenter"",""1"",""2081""
","
","","","-1","","","11","20887","7657","&#9826;","elianto","#f73b6a7A","-1","-1","1","-10","[]","0","0","3","","","","","","","",""
"pit-trial","63","540201","0.0-2.0-14.0-4.0","battery-v0.2","","""event"",""trial"",""time""
""focus"",""0"",""1""
""fullscreenenter"",""1"",""2081""
","
","""event"",""trial"",""time""
""focus"",""0"",""1""
","""event"",""trial"",""time""
""fullscreenenter"",""1"",""2081""
","
","","","42","","","11","20887","7657","&#9826;","elianto","#f73b6a7A","-1"," ","0","-10","[925]","1","0","3","","","","","","","",""
"pit-trial","64","545219","0.0-2.0-14.1-0.1","battery-v0.2","","""event"",""trial"",""time""
""focus"",""0"",""1""
""fullscreenenter"",""1"",""2081""
","
","""event"",""trial"",""time""
""focus"",""0"",""1""
","""event"",""trial"",""time""
""fullscreenenter"",""1"",""2081""
","
","","","-1","","","11","20887","7657","&#9826;","elianto","#f73b6a7A","-1","-1","1","0","[]","0","0","3","","","","","","","",""
"pit-trial","65","550235","0.0-2.0-14.1-1.1","battery-v0.2","","""event"",""trial"",""time""
""focus"",""0"",""1""
""fullscreenenter"",""1"",""2081""
","
","""event"",""trial"",""time""
""focus"",""0"",""1""
","""event"",""trial"",""time""
""fullscreenenter"",""1"",""2081""
","
","","","-1","","","11","20887","7657","&#9826;","elianto","#f73b6a7A","-1","-1","1","0","[]","0","0","3","","","","","","","",""
"pit-trial","66","555172","0.0-2.0-14.1-2.1","battery-v0.2","","""event"",""trial"",""time""
""focus"",""0"",""1""
""fullscreenenter"",""1"",""2081""
","
","""event"",""trial"",""time""
""focus"",""0"",""1""
","""event"",""trial"",""time""
""fullscreenenter"",""1"",""2081""
","
","","","-1","","","11","20887","7657","&#9826;","elianto","#f73b6a7A","-1","-1","1","0","[]","0","0","3","","","","","","","",""
"pit-trial","67","560029","0.0-2.0-14.1-3.1","battery-v0.2","","""event"",""trial"",""time""
""focus"",""0"",""1""
""fullscreenenter"",""1"",""2081""
","
","""event"",""trial"",""time""
""focus"",""0"",""1""
","""event"",""trial"",""time""
""fullscreenenter"",""1"",""2081""
","
","","","-1","","","11","20887","7657","&#9826;","elianto","#f73b6a7A","-1","-1","1","-10","[]","0","0","3","","","","","","","",""
"pit-trial","68","564904","0.0-2.0-14.1-4.1","battery-v0.2","","""event"",""trial"",""time""
""focus"",""0"",""1""
""fullscreenenter"",""1"",""2081""
","
","""event"",""trial"",""time""
""focus"",""0"",""1""
","""event"",""trial"",""time""
""fullscreenenter"",""1"",""2081""
","
","","","-1","","","11","20887","7657","&#9826;","elianto","#f73b6a7A","-1","-1","1","0","[]","0","0","3","","","","","","","",""
"pit-trial","69","569760","0.0-2.0-14.2-0.2","battery-v0.2","","""event"",""trial"",""time""
""focus"",""0"",""1""
""fullscreenenter"",""1"",""2081""
","
","""event"",""trial"",""time""
""focus"",""0"",""1""
","""event"",""trial"",""time""
""fullscreenenter"",""1"",""2081""
","
","","","-1","","","11","20887","7657","&#9826;","elianto","#f73b6a7A","-1","-1","1","0","[]","0","0","3","","","","","","","",""
"pit-trial","70","574634","0.0-2.0-14.2-1.2","battery-v0.2","","""event"",""trial"",""time""
""focus"",""0"",""1""
""fullscreenenter"",""1"",""2081""
","
","""event"",""trial"",""time""
""focus"",""0"",""1""
","""event"",""trial"",""time""
""fullscreenenter"",""1"",""2081""
","
","","","-1","","","11","20887","7657","&#9826;","elianto","#f73b6a7A","-1","-1","1","0","[]","0","0","3","","","","","","","",""
"pit-trial","71","579765","0.0-2.0-14.2-2.2","battery-v0.2","","""event"",""trial"",""time""
""focus"",""0"",""1""
""fullscreenenter"",""1"",""2081""
","
","""event"",""trial"",""time""
""focus"",""0"",""1""
","""event"",""trial"",""time""
""fullscreenenter"",""1"",""2081""
","
","","","-1","","","11","20887","7657","&#9826;","elianto","#f73b6a7A","-1","-1","1","0","[]","0","0","3","","","","","","","",""
"pit-trial","72","584724","0.0-2.0-14.2-3.2","battery-v0.2","","""event"",""trial"",""time""
""focus"",""0"",""1""
""fullscreenenter"",""1"",""2081""
","
","""event"",""trial"",""time""
""focus"",""0"",""1""
","""event"",""trial"",""time""
""fullscreenenter"",""1"",""2081""
","
","","","-1","","","11","20887","7657","&#9826;","elianto","#f73b6a7A","-1","-1","1","-10","[]","0","0","3","","","","","","","",""
"pit-trial","73","589585","0.0-2.0-14.2-4.2","battery-v0.2","","""event"",""trial"",""time""
""focus"",""0"",""1""
""fullscreenenter"",""1"",""2081""
","
","""event"",""trial"",""time""
""focus"",""0"",""1""
","""event"",""trial"",""time""
""fullscreenenter"",""1"",""2081""
","
","","","-1","","","11","20887","7657","&#9826;","elianto","#f73b6a7A","-1","-1","1","0","[]","0","0","3","","","","","","","",""
"pit-trial","74","594572","0.0-2.0-14.3-0.3","battery-v0.2","","""event"",""trial"",""time""
""focus"",""0"",""1""
""fullscreenenter"",""1"",""2081""
","
","""event"",""trial"",""time""
""focus"",""0"",""1""
","""event"",""trial"",""time""
""fullscreenenter"",""1"",""2081""
","
","","","-1","","","11","20887","7657","&#9826;","elianto","#f73b6a7A","-1","-1","1","0","[]","0","0","3","","","","","","","",""
"pit-trial","75","599444","0.0-2.0-14.3-1.3","battery-v0.2","","""event"",""trial"",""time""
""focus"",""0"",""1""
""fullscreenenter"",""1"",""2081""
","
","""event"",""trial"",""time""
""focus"",""0"",""1""
","""event"",""trial"",""time""
""fullscreenenter"",""1"",""2081""
","
","","","-1","","","11","20887","7657","&#9826;","elianto","#f73b6a7A","-1","-1","1","0","[]","0","0","3","","","","","","","",""
"pit-trial","76","604612","0.0-2.0-14.3-2.3","battery-v0.2","","""event"",""trial"",""time""
""focus"",""0"",""1""
""fullscreenenter"",""1"",""2081""
","
","""event"",""trial"",""time""
""focus"",""0"",""1""
","""event"",""trial"",""time""
""fullscreenenter"",""1"",""2081""
","
","","","-1","","","11","20887","7657","&#9826;","elianto","#f73b6a7A","-1","-1","1","0","[]","0","0","3","","","","","","","",""
"pit-trial","77","609909","0.0-2.0-14.3-3.3","battery-v0.2","","""event"",""trial"",""time""
""focus"",""0"",""1""
""fullscreenenter"",""1"",""2081""
","
","""event"",""trial"",""time""
""focus"",""0"",""1""
","""event"",""trial"",""time""
""fullscreenenter"",""1"",""2081""
","
","","","-1","","","11","20887","7657","&#9826;","elianto","#f73b6a7A","-1","-1","1","-10","[]","0","0","3","","","","","","","",""
"pit-trial","78","615058","0.0-2.0-14.3-4.3","battery-v0.2","","""event"",""trial"",""time""
""focus"",""0"",""1""
""fullscreenenter"",""1"",""2081""
","
","""event"",""trial"",""time""
""focus"",""0"",""1""
","""event"",""trial"",""time""
""fullscreenenter"",""1"",""2081""
","
","","","-1","","","11","20887","7657","&#9826;","elianto","#f73b6a7A","-1","-1","1","0","[]","0","0","3","","","","","","","",""
"call-function","79","615060","0.0-2.0-15.0","battery-v0.2","","""event"",""trial"",""time""
""focus"",""0"",""1""
""fullscreenenter"",""1"",""2081""
","
","""event"",""trial"",""time""
""focus"",""0"",""1""
","""event"",""trial"",""time""
""fullscreenenter"",""1"",""2081""
","
","","","","","","","","","","","","","","","","","","","","","","","","","","",""
"pit-instructions","80","638606","0.0-2.0-16.0","battery-v0.2","","""event"",""trial"",""time""
""focus"",""0"",""1""
""fullscreenenter"",""1"",""2081""
","
","""event"",""trial"",""time""
""focus"",""0"",""1""
","""event"",""trial"",""time""
""fullscreenenter"",""1"",""2081""
","
","","[{""page_index"":0,""viewing_time"":6398},{""page_index"":1,""viewing_time"":8660},{""page_index"":2,""viewing_time"":4064},{""page_index"":3,""viewing_time"":4424}]","23547","","","","","","","","","","","","","","","","","","","","","","","",""
"pit-trial","81","642267","0.0-2.0-17.0-0.0","battery-v0.2","","""event"",""trial"",""time""
""focus"",""0"",""1""
""fullscreenenter"",""1"",""2081""
","
","""event"",""trial"",""time""
""focus"",""0"",""1""
","""event"",""trial"",""time""
""fullscreenenter"",""1"",""2081""
","
","","","553","","","11","20887","7657","&#9789;","elianto","#f73b6a7A"," "," ","1","0","[1419]","1","0","4","","","","","","","",""
"pit-trial","82","645500","0.0-2.0-17.0-1.0","battery-v0.2","","""event"",""trial"",""time""
""focus"",""0"",""1""
""fullscreenenter"",""1"",""2081""
","
","""event"",""trial"",""time""
""focus"",""0"",""1""
","""event"",""trial"",""time""
""fullscreenenter"",""1"",""2081""
","
","","","336","","","11","20887","7657","&#9789;","elianto","#f73b6a7A"," "," ","1","0","[1220]","1","0","4","","","","","","","",""
"pit-trial","83","648826","0.0-2.0-17.0-2.0","battery-v0.2","","""event"",""trial"",""time""
""focus"",""0"",""1""
""fullscreenenter"",""1"",""2081""
","
","""event"",""trial"",""time""
""focus"",""0"",""1""
","""event"",""trial"",""time""
""fullscreenenter"",""1"",""2081""
","
","","","444","","","11","20887","7657","&#9789;","elianto","#f73b6a7A"," "," ","1","0","[1311]","1","0","4","","","","","","","",""
"pit-trial","84","652261","0.0-2.0-17.0-3.0","battery-v0.2","","""event"",""trial"",""time""
""focus"",""0"",""1""
""fullscreenenter"",""1"",""2081""
","
","""event"",""trial"",""time""
""focus"",""0"",""1""
","""event"",""trial"",""time""
""fullscreenenter"",""1"",""2081""
","
","","","560","","","11","20887","7657","&#9789;","elianto","#f73b6a7A"," "," ","1","-10","[1427]","1","0","4","","","","","","","",""
"pit-trial","85","655514","0.0-2.0-17.0-4.0","battery-v0.2","","""event"",""trial"",""time""
""focus"",""0"",""1""
""fullscreenenter"",""1"",""2081""
","
","""event"",""trial"",""time""
""focus"",""0"",""1""
","""event"",""trial"",""time""
""fullscreenenter"",""1"",""2081""
","
","","","231","","","11","20887","7657","&#9789;","elianto","#f73b6a7A"," "," ","1","0","[1113]","1","0","4","","","","","","","",""
"pit-trial","86","658701","0.0-2.0-17.1-0.1","battery-v0.2","","""event"",""trial"",""time""
""focus"",""0"",""1""
""fullscreenenter"",""1"",""2081""
","
","""event"",""trial"",""time""
""focus"",""0"",""1""
","""event"",""trial"",""time""
""fullscreenenter"",""1"",""2081""
","
","","","229","","","11","20887","7657","&#9789;","elianto","#f73b6a7A"," "," ","1","0","[1095]","1","0","4","","","","","","","",""
"pit-trial","87","662391","0.0-2.0-17.1-1.1","battery-v0.2","","""event"",""trial"",""time""
""focus"",""0"",""1""
""fullscreenenter"",""1"",""2081""
","
","""event"",""trial"",""time""
""focus"",""0"",""1""
","""event"",""trial"",""time""
""fullscreenenter"",""1"",""2081""
","
","","","807","","","11","20887","7657","&#9789;","elianto","#f73b6a7A"," "," ","1","0","[1676]","1","0","4","","","","","","","",""
"pit-trial","88","665817","0.0-2.0-17.1-2.1","battery-v0.2","","""event"",""trial"",""time""
""focus"",""0"",""1""
""fullscreenenter"",""1"",""2081""
","
","""event"",""trial"",""time""
""focus"",""0"",""1""
","""event"",""trial"",""time""
""fullscreenenter"",""1"",""2081""
","
","","","556","","","11","20887","7657","&#9789;","elianto","#f73b6a7A"," "," ","1","0","[1412]","1","0","4","","","","","","","",""
"pit-trial","89","669195","0.0-2.0-17.1-3.1","battery-v0.2","","""event"",""trial"",""time""
""focus"",""0"",""1""
""fullscreenenter"",""1"",""2081""
","
","""event"",""trial"",""time""
""focus"",""0"",""1""
","""event"",""trial"",""time""
""fullscreenenter"",""1"",""2081""
","
","","","500","","","11","20887","7657","&#9789;","elianto","#f73b6a7A"," "," ","1","-10","[1363]","1","0","4","","","","","","","",""
"pit-trial","90","672654","0.0-2.0-17.1-4.1","battery-v0.2","","""event"",""trial"",""time""
""focus"",""0"",""1""
""fullscreenenter"",""1"",""2081""
","
","""event"",""trial"",""time""
""focus"",""0"",""1""
","""event"",""trial"",""time""
""fullscreenenter"",""1"",""2081""
","
","","","593","","","11","20887","7657","&#9789;","elianto","#f73b6a7A"," "," ","1","0","[1448]","1","0","4","","","","","","","",""
"pit-trial","91","675901","0.0-2.0-17.2-0.2","battery-v0.2","","""event"",""trial"",""time""
""focus"",""0"",""1""
""fullscreenenter"",""1"",""2081""
","
","""event"",""trial"",""time""
""focus"",""0"",""1""
","""event"",""trial"",""time""
""fullscreenenter"",""1"",""2081""
","
","","","377","","","11","20887","7657","&#9789;","elianto","#f73b6a7A"," "," ","1","0","[1242]","1","0","4","","","","","","","",""
"pit-trial","92","679208","0.0-2.0-17.2-1.2","battery-v0.2","","""event"",""trial"",""time""
""focus"",""0"",""1""
""fullscreenenter"",""1"",""2081""
","
","""event"",""trial"",""time""
""focus"",""0"",""1""
","""event"",""trial"",""time""
""fullscreenenter"",""1"",""2081""
","
","","","235","","","11","20887","7657","&#9789;","elianto","#f73b6a7A"," "," ","1","0","[1099]","1","0","4","","","","","","","",""
"pit-trial","93","682171","0.0-2.0-17.2-2.2","battery-v0.2","","""event"",""trial"",""time""
""focus"",""0"",""1""
""fullscreenenter"",""1"",""2081""
","
","""event"",""trial"",""time""
""focus"",""0"",""1""
","""event"",""trial"",""time""
""fullscreenenter"",""1"",""2081""
","
","","","96","","","11","20887","7657","&#9789;","elianto","#f73b6a7A"," "," ","1","0","[956]","1","0","4","","","","","","","",""
"pit-trial","94","685263","0.0-2.0-17.2-3.2","battery-v0.2","","""event"",""trial"",""time""
""focus"",""0"",""1""
""fullscreenenter"",""1"",""2081""
","
","""event"",""trial"",""time""
""focus"",""0"",""1""
","""event"",""trial"",""time""
""fullscreenenter"",""1"",""2081""
","
","","","112","","","11","20887","7657","&#9789;","elianto","#f73b6a7A"," "," ","1","-10","[976]","1","0","4","","","","","","","",""
"pit-trial","95","688181","0.0-2.0-17.2-4.2","battery-v0.2","","""event"",""trial"",""time""
""focus"",""0"",""1""
""fullscreenenter"",""1"",""2081""
","
","""event"",""trial"",""time""
""focus"",""0"",""1""
","""event"",""trial"",""time""
""fullscreenenter"",""1"",""2081""
","
","","","50","","","11","20887","7657","&#9789;","elianto","#f73b6a7A"," "," ","1","0","[901]","1","0","4","","","","","","","",""
"pit-trial","96","691158","0.0-2.0-17.3-0.3","battery-v0.2","","""event"",""trial"",""time""
""focus"",""0"",""1""
""fullscreenenter"",""1"",""2081""
","
","""event"",""trial"",""time""
""focus"",""0"",""1""
","""event"",""trial"",""time""
""fullscreenenter"",""1"",""2081""
","
","","","111","","","11","20887","7657","&#9789;","elianto","#f73b6a7A"," "," ","1","0","[966]","1","0","4","","","","","","","",""
"pit-trial","97","694675","0.0-2.0-17.3-1.3","battery-v0.2","","""event"",""trial"",""time""
""focus"",""0"",""1""
""fullscreenenter"",""1"",""2081""
","
","""event"",""trial"",""time""
""focus"",""0"",""1""
","""event"",""trial"",""time""
""fullscreenenter"",""1"",""2081""
","
","","","633","","","11","20887","7657","&#9789;","elianto","#f73b6a7A"," "," ","1","0","[816,1506]","2","0","4","","","","","","","",""
"pit-trial","98","698157","0.0-2.0-17.3-2.3","battery-v0.2","","""event"",""trial"",""time""
""focus"",""0"",""1""
""fullscreenenter"",""1"",""2081""
","
","""event"",""trial"",""time""
""focus"",""0"",""1""
","""event"",""trial"",""time""
""fullscreenenter"",""1"",""2081""
","
","","","622","","","11","20887","7657","&#9789;","elianto","#f73b6a7A"," "," ","1","0","[1474]","1","0","4","","","","","","","",""
"pit-trial","99","701599","0.0-2.0-17.3-3.3","battery-v0.2","","""event"",""trial"",""time""
""focus"",""0"",""1""
""fullscreenenter"",""1"",""2081""
","
","""event"",""trial"",""time""
""focus"",""0"",""1""
","""event"",""trial"",""time""
""fullscreenenter"",""1"",""2081""
","
","","","558","","","11","20887","7657","&#9789;","elianto","#f73b6a7A"," "," ","1","-10","[1423]","1","0","4","","","","","","","",""
"pit-trial","100","704934","0.0-2.0-17.3-4.3","battery-v0.2","","""event"",""trial"",""time""
""focus"",""0"",""1""
""fullscreenenter"",""1"",""2081""
","
","""event"",""trial"",""time""
""focus"",""0"",""1""
","""event"",""trial"",""time""
""fullscreenenter"",""1"",""2081""
","
","","","470","","","11","20887","7657","&#9789;","elianto","#f73b6a7A"," "," ","1","0","[1328]","1","0","4","","","","","","","",""
"call-function","101","704935","0.0-2.0-18.0","battery-v0.2","","""event"",""trial"",""time""
""focus"",""0"",""1""
""fullscreenenter"",""1"",""2081""
","
","""event"",""trial"",""time""
""focus"",""0"",""1""
","""event"",""trial"",""time""
""fullscreenenter"",""1"",""2081""
","
","","","","","","","","","","","","","","","","","","","","","","","","","","",""
"pit-instructions","102","776798","0.0-2.0-19.0","battery-v0.2","","""event"",""trial"",""time""
""focus"",""0"",""1""
""fullscreenenter"",""1"",""2081""
","
","""event"",""trial"",""time""
""focus"",""0"",""1""
","""event"",""trial"",""time""
""fullscreenenter"",""1"",""2081""
","
","","[{""page_index"":0,""viewing_time"":7162},{""page_index"":1,""viewing_time"":5815},{""page_index"":2,""viewing_time"":13311},{""page_index"":3,""viewing_time"":7199},{""page_index"":4,""viewing_time"":10792},{""page_index"":5,""viewing_time"":8242},{""page_index"":6,""viewing_time"":8550},{""page_index"":7,""viewing_time"":7086},{""page_index"":8,""viewing_time"":3706}]","71863","","","","","","","","","","","","","","","","","","","","","","","",""
"pit-comprehension","103","781617","0.0-2.0-20.0-0.0","battery-v0.2","","""event"",""trial"",""time""
""focus"",""0"",""1""
""fullscreenenter"",""1"",""2081""
","
","""event"",""trial"",""time""
""focus"",""0"",""1""
","""event"",""trial"",""time""
""fullscreenenter"",""1"",""2081""
","
","","","4814","[""SPACE""]","0","11","20887","7657","","","","","","","","","","","","","","","","","","",""
"pit-instructions","104","787608","0.0-2.0-20.0-1.0","battery-v0.2","","""event"",""trial"",""time""
""focus"",""0"",""1""
""fullscreenenter"",""1"",""2081""
","
","""event"",""trial"",""time""
""focus"",""0"",""1""
","""event"",""trial"",""time""
""fullscreenenter"",""1"",""2081""
","
","","[{""page_index"":0,""viewing_time"":5958}]","5958","","","","","","","","","","","","","","","","","","","","","","","",""
"pit-comprehension","105","793223","0.0-2.0-21.0-0.0","battery-v0.2","","""event"",""trial"",""time""
""focus"",""0"",""1""
""fullscreenenter"",""1"",""2081""
","
","""event"",""trial"",""time""
""focus"",""0"",""1""
","""event"",""trial"",""time""
""fullscreenenter"",""1"",""2081""
","
","","","5611","[""10""]","0","11","20887","7657","","","","","","","","","","","","","","","","","","",""
"pit-instructions","106","795711","0.0-2.0-21.0-1.0","battery-v0.2","","""event"",""trial"",""time""
""focus"",""0"",""1""
""fullscreenenter"",""1"",""2081""
","
","""event"",""trial"",""time""
""focus"",""0"",""1""
","""event"",""trial"",""time""
""fullscreenenter"",""1"",""2081""
","
","","[{""page_index"":0,""viewing_time"":2465}]","2465","","","","","","","","","","","","","","","","","","","","","","","",""
"pit-comprehension","107","802395","0.0-2.0-22.0-0.0","battery-v0.2","","""event"",""trial"",""time""
""focus"",""0"",""1""
""fullscreenenter"",""1"",""2081""
","
","""event"",""trial"",""time""
""focus"",""0"",""1""
","""event"",""trial"",""time""
""fullscreenenter"",""1"",""2081""
","
","","","6681","[""0""]","0","11","20887","7657","","","","","","","","","","","","","","","","","","",""
"pit-instructions","108","804494","0.0-2.0-22.0-1.0","battery-v0.2","","""event"",""trial"",""time""
""focus"",""0"",""1""
""fullscreenenter"",""1"",""2081""
","
","""event"",""trial"",""time""
""focus"",""0"",""1""
","""event"",""trial"",""time""
""fullscreenenter"",""1"",""2081""
","
","","[{""page_index"":0,""viewing_time"":2066}]","2066","","","","","","","","","","","","","","","","","","","","","","","",""
"pit-comprehension","109","817283","0.0-2.0-23.0-0.0","battery-v0.2","","""event"",""trial"",""time""
""focus"",""0"",""1""
""fullscreenenter"",""1"",""2081""
","
","""event"",""trial"",""time""
""focus"",""0"",""1""
","""event"",""trial"",""time""
""fullscreenenter"",""1"",""2081""
","
","","","12784","[""True""]","0","11","20887","7657","","","","","","","","","","","","","","","","","","",""
"pit-instructions","110","818720","0.0-2.0-23.0-1.0","battery-v0.2","","""event"",""trial"",""time""
""focus"",""0"",""1""
""fullscreenenter"",""1"",""2081""
","
","""event"",""trial"",""time""
""focus"",""0"",""1""
","""event"",""trial"",""time""
""fullscreenenter"",""1"",""2081""
","
","","[{""page_index"":0,""viewing_time"":1417}]","1417","","","","","","","","","","","","","","","","","","","","","","","",""
"pit-comprehension","111","826914","0.0-2.0-24.0-0.0","battery-v0.2","","""event"",""trial"",""time""
""focus"",""0"",""1""
""fullscreenenter"",""1"",""2081""
","
","""event"",""trial"",""time""
""focus"",""0"",""1""
","""event"",""trial"",""time""
""fullscreenenter"",""1"",""2081""
","
","","","8191","[""True""]","0","11","20887","7657","","","","","","","","","","","","","","","","","","",""
"pit-instructions","112","828833","0.0-2.0-24.0-1.0","battery-v0.2","","""event"",""trial"",""time""
""focus"",""0"",""1""
""fullscreenenter"",""1"",""2081""
","
","""event"",""trial"",""time""
""focus"",""0"",""1""
","""event"",""trial"",""time""
""fullscreenenter"",""1"",""2081""
","
","","[{""page_index"":0,""viewing_time"":1890}]","1890","","","","","","","","","","","","","","","","","","","","","","","",""
"pit-comprehension","113","837091","0.0-2.0-25.0-0.0","battery-v0.2","","""event"",""trial"",""time""
""focus"",""0"",""1""
""fullscreenenter"",""1"",""2081""
","
","""event"",""trial"",""time""
""focus"",""0"",""1""
","""event"",""trial"",""time""
""fullscreenenter"",""1"",""2081""
","
","","","8254","[""True""]","0","11","20887","7657","","","","","","","","","","","","","","","","","","",""
"pit-instructions","114","838776","0.0-2.0-25.0-1.0","battery-v0.2","","""event"",""trial"",""time""
""focus"",""0"",""1""
""fullscreenenter"",""1"",""2081""
","
","""event"",""trial"",""time""
""focus"",""0"",""1""
","""event"",""trial"",""time""
""fullscreenenter"",""1"",""2081""
","
","","[{""page_index"":0,""viewing_time"":1663}]","1663","","","","","","","","","","","","","","","","","","","","","","","",""
"pit-comprehension","115","843956","0.0-2.0-26.0-0.0","battery-v0.2","","""event"",""trial"",""time""
""focus"",""0"",""1""
""fullscreenenter"",""1"",""2081""
","
","""event"",""trial"",""time""
""focus"",""0"",""1""
","""event"",""trial"",""time""
""fullscreenenter"",""1"",""2081""
","
","","","5175","[""False""]","0","11","20887","7657","","","","","","","","","","","","","","","","","","",""
"pit-instructions","116","846352","0.0-2.0-26.0-1.0","battery-v0.2","","""event"",""trial"",""time""
""focus"",""0"",""1""
""fullscreenenter"",""1"",""2081""
","
","""event"",""trial"",""time""
""focus"",""0"",""1""
","""event"",""trial"",""time""
""fullscreenenter"",""1"",""2081""
","
","","[{""page_index"":0,""viewing_time"":2362}]","2362","","","","","","","","","","","","","","","","","","","","","","","",""
"pit-instructions","117","863940","0.0-3.0","battery-v0.2","","""event"",""trial"",""time""
""focus"",""0"",""1""
""fullscreenenter"",""1"",""2081""
","
","""event"",""trial"",""time""
""focus"",""0"",""1""
","""event"",""trial"",""time""
""fullscreenenter"",""1"",""2081""
","
","","[{""page_index"":0,""viewing_time"":3464},{""page_index"":1,""viewing_time"":6665},{""page_index"":2,""viewing_time"":7456}]","17585","","","","","","","","","","","","","","","","","","","","","","","",""
"pit-trial","118","867277","0.0-4.0","battery-v0.2","","""event"",""trial"",""time""
""focus"",""0"",""1""
""fullscreenenter"",""1"",""2081""
","
","""event"",""trial"",""time""
""focus"",""0"",""1""
","""event"",""trial"",""time""
""fullscreenenter"",""1"",""2081""
","
","","","442","","","11","20887","7657","&#9728;","elianto","#f73b6a7A","-1"," ","0","-10","[1323]","1","1","","","20887","1","0","4","lose","no-go","0"
"pit-trial","119","870910","0.0-5.0","battery-v0.2","","""event"",""trial"",""time""
""focus"",""0"",""1""
""fullscreenenter"",""1"",""2081""
","
","""event"",""trial"",""time""
""focus"",""0"",""1""
","""event"",""trial"",""time""
""fullscreenenter"",""1"",""2081""
","
","","","731","","","11","20887","7657","&#9733;","elianto","#3366ff99","-1"," ","0","0","[1631]","1","1","","","20887","2","2","2","win","no-go","0"
"pit-trial","120","874795","0.0-6.0","battery-v0.2","","""event"",""trial"",""time""
""focus"",""0"",""1""
""fullscreenenter"",""1"",""2081""
","
","""event"",""trial"",""time""
""focus"",""0"",""1""
","""event"",""trial"",""time""
""fullscreenenter"",""1"",""2081""
","
","","","1009","","","11","20887","7657","&#9752;","elianto","#f73b6a7A"," "," ","1","0","[1876]","1","1","","","20887","3","3","3","lose","go","0"
"pit-trial","121","878383","0.0-7.0","battery-v0.2","","""event"",""trial"",""time""
""focus"",""0"",""1""
""fullscreenenter"",""1"",""2081""
","
","""event"",""trial"",""time""
""focus"",""0"",""1""
","""event"",""trial"",""time""
""fullscreenenter"",""1"",""2081""
","
","","","725","","","11","20887","7657","&#9730;","elianto","#3366ff99"," "," ","1","0","[1581]","1","1","","","20887","4","1","1","win","go","1"
"pit-trial","122","883476","0.0-8.0","battery-v0.2","","""event"",""trial"",""time""
""focus"",""0"",""1""
""fullscreenenter"",""1"",""2081""
","
","""event"",""trial"",""time""
""focus"",""0"",""1""
","""event"",""trial"",""time""
""fullscreenenter"",""1"",""2081""
","
","","","-1","","","11","20887","7657","&#9728;","elianto","#f73b6a7A","-1","-1","1","0","[]","0","1","","","20887","5","0","4","lose","no-go","0"
"pit-trial","123","888100","0.0-9.0","battery-v0.2","","""event"",""trial"",""time""
""focus"",""0"",""1""
""fullscreenenter"",""1"",""2081""
","
","""event"",""trial"",""time""
""focus"",""0"",""1""
","""event"",""trial"",""time""
""fullscreenenter"",""1"",""2081""
","
","","","1744","","","11","20887","7657","&#9752;","elianto","#f73b6a7A"," "," ","1","0","[2607]","1","1","","","20887","6","3","3","lose","go","0"
"pit-trial","124","891730","0.0-10.0","battery-v0.2","","""event"",""trial"",""time""
""focus"",""0"",""1""
""fullscreenenter"",""1"",""2081""
","
","""event"",""trial"",""time""
""focus"",""0"",""1""
","""event"",""trial"",""time""
""fullscreenenter"",""1"",""2081""
","
","","","761","","","11","20887","7657","&#9733;","elianto","#3366ff99","-1"," ","0","+10","[1624]","1","1","","","20887","7","2","2","win","no-go","1"
"pit-trial","125","895490","0.0-11.0","battery-v0.2","","""event"",""trial"",""time""
""focus"",""0"",""1""
""fullscreenenter"",""1"",""2081""
","
","""event"",""trial"",""time""
""focus"",""0"",""1""
","""event"",""trial"",""time""
""fullscreenenter"",""1"",""2081""
","
","","","905","","","11","20887","7657","&#9730;","elianto","#3366ff99"," "," ","1","0","[1757]","1","1","","","20887","8","1","1","win","go","1"
"pit-trial","126","900200","0.0-12.0","battery-v0.2","","""event"",""trial"",""time""
""focus"",""0"",""1""
""fullscreenenter"",""1"",""2081""
","
","""event"",""trial"",""time""
""focus"",""0"",""1""
","""event"",""trial"",""time""
""fullscreenenter"",""1"",""2081""
","
","","","1824","","","11","20887","7657","&#9752;","elianto","#f73b6a7A"," "," ","1","0","[2694]","1","1","","","20887","9","3","3","lose","go","0"
"pit-trial","127","905066","0.0-13.0","battery-v0.2","","""event"",""trial"",""time""
""focus"",""0"",""1""
""fullscreenenter"",""1"",""2081""
","
","""event"",""trial"",""time""
""focus"",""0"",""1""
","""event"",""trial"",""time""
""fullscreenenter"",""1"",""2081""
","
","","","-1","","","11","20887","7657","&#9730;","elianto","#3366ff99"," ","-1","0","0","[]","0","1","","","20887","10","1","1","win","go","0"
"pit-trial","128","909940","0.0-14.0","battery-v0.2","","""event"",""trial"",""time""
""focus"",""0"",""1""
""fullscreenenter"",""1"",""2081""
","
","""event"",""trial"",""time""
""focus"",""0"",""1""
","""event"",""trial"",""time""
""fullscreenenter"",""1"",""2081""
","
","","","-1","","","11","20887","7657","&#9728;","elianto","#f73b6a7A","-1","-1","1","0","[]","0","1","","","20887","11","0","4","lose","no-go","0"
"pit-trial","129","913649","0.0-15.0","battery-v0.2","","""event"",""trial"",""time""
""focus"",""0"",""1""
""fullscreenenter"",""1"",""2081""
","
","""event"",""trial"",""time""
""focus"",""0"",""1""
","""event"",""trial"",""time""
""fullscreenenter"",""1"",""2081""
","
","","","723","","","11","20887","7657","&#9733;","elianto","#3366ff99","-1"," ","0","+10","[1590]","1","1","","","20887","12","2","2","win","no-go","1"
"pit-trial","130","917692","0.0-16.0","battery-v0.2","","""event"",""trial"",""time""
""focus"",""0"",""1""
""fullscreenenter"",""1"",""2081""
","
","""event"",""trial"",""time""
""focus"",""0"",""1""
","""event"",""trial"",""time""
""fullscreenenter"",""1"",""2081""
","
","","","1173","","","11","20887","7657","&#9730;","elianto","#3366ff99"," "," ","1","+10","[2027]","1","1","","","20887","13","1","1","win","go","0"
"pit-trial","131","922565","0.0-17.0","battery-v0.2","","""event"",""trial"",""time""
""focus"",""0"",""1""
""fullscreenenter"",""1"",""2081""
","
","""event"",""trial"",""time""
""focus"",""0"",""1""
","""event"",""trial"",""time""
""fullscreenenter"",""1"",""2081""
","
","","","-1","","","11","20887","7657","&#9752;","elianto","#f73b6a7A"," ","-1","0","-10","[]","0","1","","","20887","14","3","3","lose","go","0"
"pit-trial","132","927429","0.0-18.0","battery-v0.2","","""event"",""trial"",""time""
""focus"",""0"",""1""
""fullscreenenter"",""1"",""2081""
","
","""event"",""trial"",""time""
""focus"",""0"",""1""
","""event"",""trial"",""time""
""fullscreenenter"",""1"",""2081""
","
","","","-1","","","11","20887","7657","&#9728;","elianto","#f73b6a7A","-1","-1","1","0","[]","0","1","","","20887","15","0","4","lose","no-go","0"
"pit-trial","133","931096","0.0-19.0","battery-v0.2","","""event"",""trial"",""time""
""focus"",""0"",""1""
""fullscreenenter"",""1"",""2081""
","
","""event"",""trial"",""time""
""focus"",""0"",""1""
","""event"",""trial"",""time""
""fullscreenenter"",""1"",""2081""
","
","","","801","","","11","20887","7657","&#9733;","elianto","#3366ff99","-1"," ","0","0","[1652]","1","1","","","20887","16","2","2","win","no-go","0"
"pit-trial","134","935432","0.0-20.0","battery-v0.2","","""event"",""trial"",""time""
""focus"",""0"",""1""
""fullscreenenter"",""1"",""2081""
","
","""event"",""trial"",""time""
""focus"",""0"",""1""
","""event"",""trial"",""time""
""fullscreenenter"",""1"",""2081""
","
","","","1475","","","11","20887","7657","&#9752;","elianto","#f73b6a7A"," "," ","1","0","[2327]","1","1","","","20887","17","3","3","lose","go","0"
"pit-trial","135","940596","0.0-21.0","battery-v0.2","","""event"",""trial"",""time""
""focus"",""0"",""1""
""fullscreenenter"",""1"",""2081""
","
","""event"",""trial"",""time""
""focus"",""0"",""1""
","""event"",""trial"",""time""
""fullscreenenter"",""1"",""2081""
","
","","","-1","","","11","20887","7657","&#9728;","elianto","#f73b6a7A","-1","-1","1","0","[]","0","1","","","20887","18","0","4","lose","no-go","0"
"pit-trial","136","944170","0.0-22.0","battery-v0.2","","""event"",""trial"",""time""
""focus"",""0"",""1""
""fullscreenenter"",""1"",""2081""
","
","""event"",""trial"",""time""
""focus"",""0"",""1""
","""event"",""trial"",""time""
""fullscreenenter"",""1"",""2081""
","
","","","700","","","11","20887","7657","&#9730;","elianto","#3366ff99"," "," ","1","+10","[1563]","1","1","","","20887","19","1","1","win","go","0"
"pit-trial","137","948679","0.0-23.0","battery-v0.2","","""event"",""trial"",""time""
""focus"",""0"",""1""
""fullscreenenter"",""1"",""2081""
","
","""event"",""trial"",""time""
""focus"",""0"",""1""
","""event"",""trial"",""time""
""fullscreenenter"",""1"",""2081""
","
","","","1588","","","11","20887","7657","&#9733;","elianto","#3366ff99","-1"," ","0","0","[2445]","1","1","","","20887","20","2","2","win","no-go","0"
"pit-instructions","138","961998","0.0-24.0","battery-v0.2","","""event"",""trial"",""time""
""focus"",""0"",""1""
""fullscreenenter"",""1"",""2081""
","
","""event"",""trial"",""time""
""focus"",""0"",""1""
","""event"",""trial"",""time""
""fullscreenenter"",""1"",""2081""
","
","","[{""page_index"":0,""viewing_time"":5826},{""page_index"":1,""viewing_time"":7492}]","13319","","","","","","","","","","","","","","","","","","","","","","","",""
"pit-trial","139","966874","0.0-25.0","battery-v0.2","","""event"",""trial"",""time""
""focus"",""0"",""1""
""fullscreenenter"",""1"",""2081""
","
","""event"",""trial"",""time""
""focus"",""0"",""1""
","""event"",""trial"",""time""
""fullscreenenter"",""1"",""2081""
","
","","","-1","","","11","20887","7657","h","elianto","#f73b6a7A","-1","-1","1","0","[]","0","2","","","20887","21","3","4","lose","no-go","0"
"pit-trial","140","971585","0.0-26.0","battery-v0.2","","""event"",""trial"",""time""
""focus"",""0"",""1""
""fullscreenenter"",""1"",""2081""
","
","""event"",""trial"",""time""
""focus"",""0"",""1""
","""event"",""trial"",""time""
""fullscreenenter"",""1"",""2081""
","
","","","1830","","","11","20887","7657","y","elianto","#f73b6a7A"," "," ","1","-10","[2698]","1","2","","","20887","22","2","3","lose","go","1"
"pit-trial","141","976604","0.0-27.0","battery-v0.2","","""event"",""trial"",""time""
""focus"",""0"",""1""
""fullscreenenter"",""1"",""2081""
","
","""event"",""trial"",""time""
""focus"",""0"",""1""
","""event"",""trial"",""time""
""fullscreenenter"",""1"",""2081""
","
","","","-1","","","11","20887","7657","r","elianto","#3366ff99","-1","-1","1","0","[]","0","2","","","20887","23","1","2","win","no-go","1"
"pit-trial","142","981567","0.0-28.0","battery-v0.2","","""event"",""trial"",""time""
""focus"",""0"",""1""
""fullscreenenter"",""1"",""2081""
","
","""event"",""trial"",""time""
""focus"",""0"",""1""
","""event"",""trial"",""time""
""fullscreenenter"",""1"",""2081""
","
","","","2081","","","11","20887","7657","m","elianto","#f73b6a7A"," "," ","1","0","[2951]","1","2","","","20887","24","0","3","lose","go","0"
"pit-trial","143","985014","0.0-29.0","battery-v0.2","","""event"",""trial"",""time""
""focus"",""0"",""1""
""fullscreenenter"",""1"",""2081""
","
","""event"",""trial"",""time""
""focus"",""0"",""1""
","""event"",""trial"",""time""
""fullscreenenter"",""1"",""2081""
","
","","","576","","","11","20887","7657","r","elianto","#3366ff99","-1"," ","0","0","[1438]","1","2","","","20887","25","1","2","win","no-go","0"
"pit-trial","144","990015","0.0-30.0","battery-v0.2","","""event"",""trial"",""time""
""focus"",""0"",""1""
""fullscreenenter"",""1"",""2081""
","
","""event"",""trial"",""time""
""focus"",""0"",""1""
","""event"",""trial"",""time""
""fullscreenenter"",""1"",""2081""
","
","","","-1","","","11","20887","7657","y","elianto","#f73b6a7A"," ","-1","0","-10","[]","0","2","","","20887","26","2","3","lose","go","0"
"pit-trial","145","994877","0.0-31.0","battery-v0.2","","""event"",""trial"",""time""
""focus"",""0"",""1""
""fullscreenenter"",""1"",""2081""
","
","""event"",""trial"",""time""
""focus"",""0"",""1""
","""event"",""trial"",""time""
""fullscreenenter"",""1"",""2081""
","
","","","-1","","","11","20887","7657","m","elianto","#f73b6a7A"," ","-1","0","-10","[]","0","2","","","20887","27","0","3","lose","go","0"
"pit-trial","146","998913","0.0-32.0","battery-v0.2","","""event"",""trial"",""time""
""focus"",""0"",""1""
""fullscreenenter"",""1"",""2081""
","
","""event"",""trial"",""time""
""focus"",""0"",""1""
","""event"",""trial"",""time""
""fullscreenenter"",""1"",""2081""
","
","","","1105","","","11","20887","7657","h","elianto","#f73b6a7A","-1"," ","0","0","[1955]","1","2","","","20887","28","3","4","lose","no-go","1"
"pit-trial","147","1003843","0.0-33.0","battery-v0.2","","""event"",""trial"",""time""
""focus"",""0"",""1""
""fullscreenenter"",""1"",""2081""
","
","""event"",""trial"",""time""
""focus"",""0"",""1""
","""event"",""trial"",""time""
""fullscreenenter"",""1"",""2081""
","
","","","-1","","","11","20887","7657","y","elianto","#f73b6a7A"," ","-1","0","-10","[]","0","2","","","20887","29","2","3","lose","go","0"
"pit-trial","148","1008203","0.0-34.0","battery-v0.2","","""event"",""trial"",""time""
""focus"",""0"",""1""
""fullscreenenter"",""1"",""2081""
","
","""event"",""trial"",""time""
""focus"",""0"",""1""
","""event"",""trial"",""time""
""fullscreenenter"",""1"",""2081""
","
","","","1478","","","11","20887","7657","m","elianto","#f73b6a7A"," "," ","1","0","[2348]","1","2","","","20887","30","0","3","lose","go","0"
"pit-trial","149","1012248","0.0-35.0","battery-v0.2","","""event"",""trial"",""time""
""focus"",""0"",""1""
""fullscreenenter"",""1"",""2081""
","
","""event"",""trial"",""time""
""focus"",""0"",""1""
","""event"",""trial"",""time""
""fullscreenenter"",""1"",""2081""
","
","","","1162","","","11","20887","7657","h","elianto","#f73b6a7A","-1"," ","0","-10","[2031]","1","2","","","20887","31","3","4","lose","no-go","0"
"pit-trial","150","1016134","0.0-36.0","battery-v0.2","","""event"",""trial"",""time""
""focus"",""0"",""1""
""fullscreenenter"",""1"",""2081""
","
","""event"",""trial"",""time""
""focus"",""0"",""1""
","""event"",""trial"",""time""
""fullscreenenter"",""1"",""2081""
","
","","","902","","","11","20887","7657","r","elianto","#3366ff99","-1"," ","0","0","[1752]","1","2","","","20887","32","1","2","win","no-go","0"
"pit-trial","151","1021007","0.0-37.0","battery-v0.2","","""event"",""trial"",""time""
""focus"",""0"",""1""
""fullscreenenter"",""1"",""2081""
","
","""event"",""trial"",""time""
""focus"",""0"",""1""
","""event"",""trial"",""time""
""fullscreenenter"",""1"",""2081""
","
","","","-1","","","11","20887","7657","m","elianto","#f73b6a7A"," ","-1","0","-10","[]","0","2","","","20887","33","0","3","lose","go","0"
"pit-trial","152","1025888","0.0-38.0","battery-v0.2","","""event"",""trial"",""time""
""focus"",""0"",""1""
""fullscreenenter"",""1"",""2081""
","
","""event"",""trial"",""time""
""focus"",""0"",""1""
","""event"",""trial"",""time""
""fullscreenenter"",""1"",""2081""
","
","","","-1","","","11","20887","7657","r","elianto","#3366ff99","-1","-1","1","+10","[]","0","2","","","20887","34","1","2","win","no-go","0"
"pit-trial","153","1030763","0.0-39.0","battery-v0.2","","""event"",""trial"",""time""
""focus"",""0"",""1""
""fullscreenenter"",""1"",""2081""
","
","""event"",""trial"",""time""
""focus"",""0"",""1""
","""event"",""trial"",""time""
""fullscreenenter"",""1"",""2081""
","
","","","-1","","","11","20887","7657","h","elianto","#f73b6a7A","-1","-1","1","0","[]","0","2","","","20887","35","3","4","lose","no-go","0"
"pit-trial","154","1035631","0.0-40.0","battery-v0.2","","""event"",""trial"",""time""
""focus"",""0"",""1""
""fullscreenenter"",""1"",""2081""
","
","""event"",""trial"",""time""
""focus"",""0"",""1""
","""event"",""trial"",""time""
""fullscreenenter"",""1"",""2081""
","
","","","-1","","","11","20887","7657","y","elianto","#f73b6a7A"," ","-1","0","-10","[]","0","2","","","20887","36","2","3","lose","go","0"
"pit-trial","155","1039902","0.0-41.0","battery-v0.2","","""event"",""trial"",""time""
""focus"",""0"",""1""
""fullscreenenter"",""1"",""2081""
","
","""event"",""trial"",""time""
""focus"",""0"",""1""
","""event"",""trial"",""time""
""fullscreenenter"",""1"",""2081""
","
","","","1317","","","11","20887","7657","y","elianto","#f73b6a7A"," "," ","1","0","[2184]","1","2","","","20887","37","2","3","lose","go","0"
"pit-trial","156","1044825","0.0-42.0","battery-v0.2","","""event"",""trial"",""time""
""focus"",""0"",""1""
""fullscreenenter"",""1"",""2081""
","
","""event"",""trial"",""time""
""focus"",""0"",""1""
","""event"",""trial"",""time""
""fullscreenenter"",""1"",""2081""
","
","","","-1","","","11","20887","7657","m","elianto","#f73b6a7A"," ","-1","0","-10","[]","0","2","","","20887","38","0","3","lose","go","0"
"pit-trial","157","1048987","0.0-43.0","battery-v0.2","","""event"",""trial"",""time""
""focus"",""0"",""1""
""fullscreenenter"",""1"",""2081""
","
","""event"",""trial"",""time""
""focus"",""0"",""1""
","""event"",""trial"",""time""
""fullscreenenter"",""1"",""2081""
","
","","","1281","","","11","20887","7657","h","elianto","#f73b6a7A","-1"," ","0","-10","[2146]","1","2","","","20887","39","3","4","lose","no-go","0"
"pit-trial","158","1053854","0.0-44.0","battery-v0.2","","""event"",""trial"",""time""
""focus"",""0"",""1""
""fullscreenenter"",""1"",""2081""
","
","""event"",""trial"",""time""
""focus"",""0"",""1""
","""event"",""trial"",""time""
""fullscreenenter"",""1"",""2081""
","
","","","-1","","","11","20887","7657","r","elianto","#3366ff99","-1","-1","1","0","[]","0","2","","","20887","40","1","2","win","no-go","1"
"pit-trial","159","1058727","0.0-45.0","battery-v0.2","","""event"",""trial"",""time""
""focus"",""0"",""1""
""fullscreenenter"",""1"",""2081""
","
","""event"",""trial"",""time""
""focus"",""0"",""1""
","""event"",""trial"",""time""
""fullscreenenter"",""1"",""2081""
","
","","","-1","","","11","20887","7657","y","elianto","#f73b6a7A"," ","-1","0","-10","[3089]","1","2","","","20887","41","2","3","lose","go","0"
"pit-trial","160","1063644","0.0-46.0","battery-v0.2","","""event"",""trial"",""time""
""focus"",""0"",""1""
""fullscreenenter"",""1"",""2081""
","
","""event"",""trial"",""time""
""focus"",""0"",""1""
","""event"",""trial"",""time""
""fullscreenenter"",""1"",""2081""
","
","","","-1","","","11","20887","7657","m","elianto","#f73b6a7A"," ","-1","0","0","[3089]","1","2","","","20887","42","0","3","lose","go","1"
"pit-trial","161","1068158","0.0-47.0","battery-v0.2","","""event"",""trial"",""time""
""focus"",""0"",""1""
""fullscreenenter"",""1"",""2081""
","
","""event"",""trial"",""time""
""focus"",""0"",""1""
","""event"",""trial"",""time""
""fullscreenenter"",""1"",""2081""
","
","","","1628","","","11","20887","7657","r","elianto","#3366ff99","-1"," ","0","0","[2499,3576,4164]","3","2","","","20887","43","1","2","win","no-go","0"
"pit-trial","162","1073039","0.0-48.0","battery-v0.2","","""event"",""trial"",""time""
""focus"",""0"",""1""
""fullscreenenter"",""1"",""2081""
","
","""event"",""trial"",""time""
""focus"",""0"",""1""
","""event"",""trial"",""time""
""fullscreenenter"",""1"",""2081""
","
","","","-1","","","11","20887","7657","h","elianto","#f73b6a7A","-1","-1","1","0","[]","0","2","","","20887","44","3","4","lose","no-go","0"
"pit-trial","163","1077904","0.0-49.0","battery-v0.2","","""event"",""trial"",""time""
""focus"",""0"",""1""
""fullscreenenter"",""1"",""2081""
","
","""event"",""trial"",""time""
""focus"",""0"",""1""
","""event"",""trial"",""time""
""fullscreenenter"",""1"",""2081""
","
","","","-1","","","11","20887","7657","h","elianto","#f73b6a7A","-1","-1","1","0","[]","0","2","","","20887","45","3","4","lose","no-go","0"
"pit-trial","164","1082562","0.0-50.0","battery-v0.2","","""event"",""trial"",""time""
""focus"",""0"",""1""
""fullscreenenter"",""1"",""2081""
","
","""event"",""trial"",""time""
""focus"",""0"",""1""
","""event"",""trial"",""time""
""fullscreenenter"",""1"",""2081""
","
","","","1779","","","11","20887","7657","y","elianto","#f73b6a7A"," "," ","1","0","[2647]","1","2","","","20887","46","2","3","lose","go","0"
"pit-trial","165","1086715","0.0-51.0","battery-v0.2","","""event"",""trial"",""time""
""focus"",""0"",""1""
""fullscreenenter"",""1"",""2081""
","
","""event"",""trial"",""time""
""focus"",""0"",""1""
","""event"",""trial"",""time""
""fullscreenenter"",""1"",""2081""
","
","","","1294","","","11","20887","7657","r","elianto","#3366ff99","-1"," ","0","0","[2147]","1","2","","","20887","47","1","2","win","no-go","0"
"pit-trial","166","1091365","0.0-52.0","battery-v0.2","","""event"",""trial"",""time""
""focus"",""0"",""1""
""fullscreenenter"",""1"",""2081""
","
","""event"",""trial"",""time""
""focus"",""0"",""1""
","""event"",""trial"",""time""
""fullscreenenter"",""1"",""2081""
","
","","","1769","","","11","20887","7657","m","elianto","#f73b6a7A"," "," ","1","0","[2638]","1","2","","","20887","48","0","3","lose","go","0"
"pit-trial","167","1096243","0.0-53.0","battery-v0.2","","""event"",""trial"",""time""
""focus"",""0"",""1""
""fullscreenenter"",""1"",""2081""
","
","""event"",""trial"",""time""
""focus"",""0"",""1""
","""event"",""trial"",""time""
""fullscreenenter"",""1"",""2081""
","
","","","-1","","","11","20887","7657","h","elianto","#f73b6a7A","-1","-1","1","-10","[2993,4021,4277]","3","2","","","20887","49","3","4","lose","no-go","1"
"pit-trial","168","1101230","0.0-54.0","battery-v0.2","","""event"",""trial"",""time""
""focus"",""0"",""1""
""fullscreenenter"",""1"",""2081""
","
","""event"",""trial"",""time""
""focus"",""0"",""1""
","""event"",""trial"",""time""
""fullscreenenter"",""1"",""2081""
","
","","","-1","","","11","20887","7657","m","elianto","#f73b6a7A"," ","-1","0","-10","[2902,3463,3611,3762,3908,4046]","6","2","","","20887","50","0","3","lose","go","0"
"pit-trial","169","1106249","0.0-55.0","battery-v0.2","","""event"",""trial"",""time""
""focus"",""0"",""1""
""fullscreenenter"",""1"",""2081""
","
","""event"",""trial"",""time""
""focus"",""0"",""1""
","""event"",""trial"",""time""
""fullscreenenter"",""1"",""2081""
","
","","","-1","","","11","20887","7657","y","elianto","#f73b6a7A"," ","-1","0","0","[]","0","2","","","20887","51","2","3","lose","go","1"
"pit-trial","170","1111265","0.0-56.0","battery-v0.2","","""event"",""trial"",""time""
""focus"",""0"",""1""
""fullscreenenter"",""1"",""2081""
","
","""event"",""trial"",""time""
""focus"",""0"",""1""
","""event"",""trial"",""time""
""fullscreenenter"",""1"",""2081""
","
","","","-1","","","11","20887","7657","r","elianto","#3366ff99","-1","-1","1","+10","[]","0","2","","","20887","52","1","2","win","no-go","0"
"pit-trial","171","1115564","0.0-57.0","battery-v0.2","","""event"",""trial"",""time""
""focus"",""0"",""1""
""fullscreenenter"",""1"",""2081""
","
","""event"",""trial"",""time""
""focus"",""0"",""1""
","""event"",""trial"",""time""
""fullscreenenter"",""1"",""2081""
","
","","","1423","","","11","20887","7657","m","elianto","#f73b6a7A"," "," ","1","0","[2292]","1","2","","","20887","53","0","3","lose","go","0"
"pit-trial","172","1120428","0.0-58.0","battery-v0.2","","""event"",""trial"",""time""
""focus"",""0"",""1""
""fullscreenenter"",""1"",""2081""
","
","""event"",""trial"",""time""
""focus"",""0"",""1""
","""event"",""trial"",""time""
""fullscreenenter"",""1"",""2081""
","
","","","-1","","","11","20887","7657","r","elianto","#3366ff99","-1","-1","1","+10","[]","0","2","","","20887","54","1","2","win","no-go","0"
"pit-trial","173","1125294","0.0-59.0","battery-v0.2","","""event"",""trial"",""time""
""focus"",""0"",""1""
""fullscreenenter"",""1"",""2081""
","
","""event"",""trial"",""time""
""focus"",""0"",""1""
","""event"",""trial"",""time""
""fullscreenenter"",""1"",""2081""
","
","","","-1","","","11","20887","7657","h","elianto","#f73b6a7A","-1","-1","1","0","[]","0","2","","","20887","55","3","4","lose","no-go","0"
"pit-trial","174","1128860","0.0-60.0","battery-v0.2","","""event"",""trial"",""time""
""focus"",""0"",""1""
""fullscreenenter"",""1"",""2081""
","
","""event"",""trial"",""time""
""focus"",""0"",""1""
","""event"",""trial"",""time""
""fullscreenenter"",""1"",""2081""
","
","","","693","","","11","20887","7657","y","elianto","#f73b6a7A"," "," ","1","0","[1557]","1","2","","","20887","56","2","3","lose","go","0"
"pit-trial","175","1133383","0.0-61.0","battery-v0.2","","""event"",""trial"",""time""
""focus"",""0"",""1""
""fullscreenenter"",""1"",""2081""
","
","""event"",""trial"",""time""
""focus"",""0"",""1""
","""event"",""trial"",""time""
""fullscreenenter"",""1"",""2081""
","
","","","1584","","","11","20887","7657","h","elianto","#f73b6a7A","-1"," ","0","-10","[2449]","1","2","","","20887","57","3","4","lose","no-go","0"
"pit-trial","176","1138252","0.0-62.0","battery-v0.2","","""event"",""trial"",""time""
""focus"",""0"",""1""
""fullscreenenter"",""1"",""2081""
","
","""event"",""trial"",""time""
""focus"",""0"",""1""
","""event"",""trial"",""time""
""fullscreenenter"",""1"",""2081""
","
","","","-1","","","11","20887","7657","y","elianto","#f73b6a7A"," ","-1","0","-10","[]","0","2","","","20887","58","2","3","lose","go","0"
"pit-trial","177","1142626","0.0-63.0","battery-v0.2","","""event"",""trial"",""time""
""focus"",""0"",""1""
""fullscreenenter"",""1"",""2081""
","
","""event"",""trial"",""time""
""focus"",""0"",""1""
","""event"",""trial"",""time""
""fullscreenenter"",""1"",""2081""
","
","","","1512","","","11","20887","7657","m","elianto","#f73b6a7A"," "," ","1","0","[2364]","1","2","","","20887","59","0","3","lose","go","0"
"pit-trial","178","1147623","0.0-64.0","battery-v0.2","","""event"",""trial"",""time""
""focus"",""0"",""1""
""fullscreenenter"",""1"",""2081""
","
","""event"",""trial"",""time""
""focus"",""0"",""1""
","""event"",""trial"",""time""
""fullscreenenter"",""1"",""2081""
","
","","","-1","","","11","20887","7657","z","elianto","#3366ff99"," ","-1","0","0","[]","0","2","","","20887","60","4","1","win","go","0"
"pit-trial","179","1152232","0.0-65.0","battery-v0.2","","""event"",""trial"",""time""
""focus"",""0"",""1""
""fullscreenenter"",""1"",""2081""
","
","""event"",""trial"",""time""
""focus"",""0"",""1""
","""event"",""trial"",""time""
""fullscreenenter"",""1"",""2081""
","
","","","1732","","","11","20887","7657","z","elianto","#3366ff99"," "," ","1","+10","[2596]","1","2","","","20887","61","4","1","win","go","0"
"pit-trial","180","1157094","0.0-66.0","battery-v0.2","","""event"",""trial"",""time""
""focus"",""0"",""1""
""fullscreenenter"",""1"",""2081""
","
","""event"",""trial"",""time""
""focus"",""0"",""1""
","""event"",""trial"",""time""
""fullscreenenter"",""1"",""2081""
","
","","","-1","","","11","20887","7657","r","elianto","#3366ff99","-1","-1","1","0","[]","0","2","","","20887","62","1","2","win","no-go","1"
"pit-trial","181","1161960","0.0-67.0","battery-v0.2","","""event"",""trial"",""time""
""focus"",""0"",""1""
""fullscreenenter"",""1"",""2081""
","
","""event"",""trial"",""time""
""focus"",""0"",""1""
","""event"",""trial"",""time""
""fullscreenenter"",""1"",""2081""
","
","","","-1","","","11","20887","7657","y","elianto","#f73b6a7A"," ","-1","0","-10","[]","0","2","","","20887","63","2","3","lose","go","0"
"pit-trial","182","1166003","0.0-68.0","battery-v0.2","","""event"",""trial"",""time""
""focus"",""0"",""1""
""fullscreenenter"",""1"",""2081""
","
","""event"",""trial"",""time""
""focus"",""0"",""1""
","""event"",""trial"",""time""
""fullscreenenter"",""1"",""2081""
","
","","","1028","","","11","20887","7657","h","elianto","#f73b6a7A","-1"," ","0","-10","[1880]","1","2","","","20887","64","3","4","lose","no-go","0"
"pit-trial","183","1170038","0.0-69.0","battery-v0.2","","""event"",""trial"",""time""
""focus"",""0"",""1""
""fullscreenenter"",""1"",""2081""
","
","""event"",""trial"",""time""
""focus"",""0"",""1""
","""event"",""trial"",""time""
""fullscreenenter"",""1"",""2081""
","
","","","1176","","","11","20887","7657","z","elianto","#3366ff99"," "," ","1","+10","[2027]","1","2","","","20887","65","4","1","win","go","0"
"pit-trial","184","1173425","0.0-70.0","battery-v0.2","","""event"",""trial"",""time""
""focus"",""0"",""1""
""fullscreenenter"",""1"",""2081""
","
","""event"",""trial"",""time""
""focus"",""0"",""1""
","""event"",""trial"",""time""
""fullscreenenter"",""1"",""2081""
","
","","","520","","","11","20887","7657","r","elianto","#3366ff99","-1"," ","0","0","[1376]","1","2","","","20887","66","1","2","win","no-go","0"
"pit-trial","185","1178304","0.0-71.0","battery-v0.2","","""event"",""trial"",""time""
""focus"",""0"",""1""
""fullscreenenter"",""1"",""2081""
","
","""event"",""trial"",""time""
""focus"",""0"",""1""
","""event"",""trial"",""time""
""fullscreenenter"",""1"",""2081""
","
","","","-1","","","11","20887","7657","h","elianto","#f73b6a7A","-1","-1","1","0","[]","0","2","","","20887","67","3","4","lose","no-go","0"
"pit-trial","186","1182349","0.0-72.0","battery-v0.2","","""event"",""trial"",""time""
""focus"",""0"",""1""
""fullscreenenter"",""1"",""2081""
","
","""event"",""trial"",""time""
""focus"",""0"",""1""
","""event"",""trial"",""time""
""fullscreenenter"",""1"",""2081""
","
","","","1162","","","11","20887","7657","c","elianto","#3366ff99","-1"," ","0","0","[2027]","1","2","","","20887","68","5","2","win","no-go","0"
"pit-trial","187","1186523","0.0-73.0","battery-v0.2","","""event"",""trial"",""time""
""focus"",""0"",""1""
""fullscreenenter"",""1"",""2081""
","
","""event"",""trial"",""time""
""focus"",""0"",""1""
","""event"",""trial"",""time""
""fullscreenenter"",""1"",""2081""
","
","","","1294","","","11","20887","7657","r","elianto","#3366ff99","-1"," ","0","0","[2165]","1","2","","","20887","69","1","2","win","no-go","0"
"pit-trial","188","1190408","0.0-74.0","battery-v0.2","","""event"",""trial"",""time""
""focus"",""0"",""1""
""fullscreenenter"",""1"",""2081""
","
","""event"",""trial"",""time""
""focus"",""0"",""1""
","""event"",""trial"",""time""
""fullscreenenter"",""1"",""2081""
","
","","","939","","","11","20887","7657","y","elianto","#f73b6a7A"," "," ","1","0","[1805]","1","2","","","20887","70","2","3","lose","go","0"
"pit-trial","189","1195419","0.0-75.0","battery-v0.2","","""event"",""trial"",""time""
""focus"",""0"",""1""
""fullscreenenter"",""1"",""2081""
","
","""event"",""trial"",""time""
""focus"",""0"",""1""
","""event"",""trial"",""time""
""fullscreenenter"",""1"",""2081""
","
","","","-1","","","11","20887","7657","c","elianto","#3366ff99","-1","-1","1","+10","[]","0","2","","","20887","71","5","2","win","no-go","0"
"pit-trial","190","1200293","0.0-76.0","battery-v0.2","","""event"",""trial"",""time""
""focus"",""0"",""1""
""fullscreenenter"",""1"",""2081""
","
","""event"",""trial"",""time""
""focus"",""0"",""1""
","""event"",""trial"",""time""
""fullscreenenter"",""1"",""2081""
","
","","","-1","","","11","20887","7657","z","elianto","#3366ff99"," ","-1","0","0","[]","0","2","","","20887","72","4","1","win","go","0"
"pit-trial","191","1204334","0.0-77.0","battery-v0.2","","""event"",""trial"",""time""
""focus"",""0"",""1""
""fullscreenenter"",""1"",""2081""
","
","""event"",""trial"",""time""
""focus"",""0"",""1""
","""event"",""trial"",""time""
""fullscreenenter"",""1"",""2081""
","
","","","957","","","11","20887","7657","z","elianto","#3366ff99"," "," ","1","+10","[1822]","1","2","","","20887","73","4","1","win","go","0"
"pit-trial","192","1209205","0.0-78.0","battery-v0.2","","""event"",""trial"",""time""
""focus"",""0"",""1""
""fullscreenenter"",""1"",""2081""
","
","""event"",""trial"",""time""
""focus"",""0"",""1""
","""event"",""trial"",""time""
""fullscreenenter"",""1"",""2081""
","
","","","-1","","","11","20887","7657","c","elianto","#3366ff99","-1","-1","1","+10","[]","0","2","","","20887","74","5","2","win","no-go","0"
"pit-trial","193","1214219","0.0-79.0","battery-v0.2","","""event"",""trial"",""time""
""focus"",""0"",""1""
""fullscreenenter"",""1"",""2081""
","
","""event"",""trial"",""time""
""focus"",""0"",""1""
","""event"",""trial"",""time""
""fullscreenenter"",""1"",""2081""
","
","","","-1","","","11","20887","7657","r","elianto","#3366ff99","-1","-1","1","+10","[]","0","2","","","20887","75","1","2","win","no-go","0"
"pit-trial","194","1219278","0.0-80.0","battery-v0.2","","""event"",""trial"",""time""
""focus"",""0"",""1""
""fullscreenenter"",""1"",""2081""
","
","""event"",""trial"",""time""
""focus"",""0"",""1""
","""event"",""trial"",""time""
""fullscreenenter"",""1"",""2081""
","
","","","-1","","","11","20887","7657","h","elianto","#f73b6a7A","-1","-1","1","0","[]","0","2","","","20887","76","3","4","lose","no-go","0"
"pit-trial","195","1224138","0.0-81.0","battery-v0.2","","""event"",""trial"",""time""
""focus"",""0"",""1""
""fullscreenenter"",""1"",""2081""
","
","""event"",""trial"",""time""
""focus"",""0"",""1""
","""event"",""trial"",""time""
""fullscreenenter"",""1"",""2081""
","
","","","-1","","","11","20887","7657","z","elianto","#3366ff99"," ","-1","0","0","[]","0","2","","","20887","77","4","1","win","go","0"
"pit-trial","196","1228615","0.0-82.0","battery-v0.2","","""event"",""trial"",""time""
""focus"",""0"",""1""
""fullscreenenter"",""1"",""2081""
","
","""event"",""trial"",""time""
""focus"",""0"",""1""
","""event"",""trial"",""time""
""fullscreenenter"",""1"",""2081""
","
","","","1590","","","11","20887","7657","h","elianto","#f73b6a7A","-1"," ","0","-10","[2459]","1","2","","","20887","78","3","4","lose","no-go","0"
"pit-trial","197","1233619","0.0-83.0","battery-v0.2","","""event"",""trial"",""time""
""focus"",""0"",""1""
""fullscreenenter"",""1"",""2081""
","
","""event"",""trial"",""time""
""focus"",""0"",""1""
","""event"",""trial"",""time""
""fullscreenenter"",""1"",""2081""
","
","","","-1","","","11","20887","7657","z","elianto","#3366ff99"," ","-1","0","0","[]","0","2","","","20887","79","4","1","win","go","0"
"pit-trial","198","1238635","0.0-84.0","battery-v0.2","","""event"",""trial"",""time""
""focus"",""0"",""1""
""fullscreenenter"",""1"",""2081""
","
","""event"",""trial"",""time""
""focus"",""0"",""1""
","""event"",""trial"",""time""
""fullscreenenter"",""1"",""2081""
","
","","","-1","","","11","20887","7657","c","elianto","#3366ff99","-1","-1","1","+10","[]","0","2","","","20887","80","5","2","win","no-go","0"
"pit-trial","199","1242933","0.0-85.0","battery-v0.2","","""event"",""trial"",""time""
""focus"",""0"",""1""
""fullscreenenter"",""1"",""2081""
","
","""event"",""trial"",""time""
""focus"",""0"",""1""
","""event"",""trial"",""time""
""fullscreenenter"",""1"",""2081""
","
","","","1429","","","11","20887","7657","h","elianto","#f73b6a7A","-1"," ","0","-10","[2284]","1","2","","","20887","81","3","4","lose","no-go","0"
"pit-trial","200","1247542","0.0-86.0","battery-v0.2","","""event"",""trial"",""time""
""focus"",""0"",""1""
""fullscreenenter"",""1"",""2081""
","
","""event"",""trial"",""time""
""focus"",""0"",""1""
","""event"",""trial"",""time""
""fullscreenenter"",""1"",""2081""
","
","","","1731","","","11","20887","7657","c","elianto","#3366ff99","-1"," ","0","0","[2602,3613]","2","2","","","20887","82","5","2","win","no-go","0"
"pit-trial","201","1251297","0.0-87.0","battery-v0.2","","""event"",""trial"",""time""
""focus"",""0"",""1""
""fullscreenenter"",""1"",""2081""
","
","""event"",""trial"",""time""
""focus"",""0"",""1""
","""event"",""trial"",""time""
""fullscreenenter"",""1"",""2081""
","
","","","886","","","11","20887","7657","t","elianto","#f73b6a7A","-1"," ","0","-10","[1752]","1","2","","","20887","83","7","4","lose","no-go","0"
"pit-trial","202","1256298","0.0-88.0","battery-v0.2","","""event"",""trial"",""time""
""focus"",""0"",""1""
""fullscreenenter"",""1"",""2081""
","
","""event"",""trial"",""time""
""focus"",""0"",""1""
","""event"",""trial"",""time""
""fullscreenenter"",""1"",""2081""
","
","","","-1","","","11","20887","7657","z","elianto","#3366ff99"," ","-1","0","0","[]","0","2","","","20887","84","4","1","win","go","0"
"pit-trial","203","1260679","0.0-89.0","battery-v0.2","","""event"",""trial"",""time""
""focus"",""0"",""1""
""fullscreenenter"",""1"",""2081""
","
","""event"",""trial"",""time""
""focus"",""0"",""1""
","""event"",""trial"",""time""
""fullscreenenter"",""1"",""2081""
","
","","","1519","","","11","20887","7657","z","elianto","#3366ff99"," "," ","1","0","[2372]","1","2","","","20887","85","4","1","win","go","1"
"pit-trial","204","1265690","0.0-90.0","battery-v0.2","","""event"",""trial"",""time""
""focus"",""0"",""1""
""fullscreenenter"",""1"",""2081""
","
","""event"",""trial"",""time""
""focus"",""0"",""1""
","""event"",""trial"",""time""
""fullscreenenter"",""1"",""2081""
","
","","","-1","","","11","20887","7657","c","elianto","#3366ff99","-1","-1","1","0","[]","0","2","","","20887","86","5","2","win","no-go","1"
"pit-trial","205","1269720","0.0-91.0","battery-v0.2","","""event"",""trial"",""time""
""focus"",""0"",""1""
""fullscreenenter"",""1"",""2081""
","
","""event"",""trial"",""time""
""focus"",""0"",""1""
","""event"",""trial"",""time""
""fullscreenenter"",""1"",""2081""
","
","","","1171","","","11","20887","7657","b","elianto","#f73b6a7A"," "," ","1","0","[2021]","1","2","","","20887","87","6","3","lose","go","0"
"pit-trial","206","1274595","0.0-92.0","battery-v0.2","","""event"",""trial"",""time""
""focus"",""0"",""1""
""fullscreenenter"",""1"",""2081""
","
","""event"",""trial"",""time""
""focus"",""0"",""1""
","""event"",""trial"",""time""
""fullscreenenter"",""1"",""2081""
","
","","","-1","","","11","20887","7657","t","elianto","#f73b6a7A","-1","-1","1","-10","[]","0","2","","","20887","88","7","4","lose","no-go","1"
"pit-trial","207","1278671","0.0-93.0","battery-v0.2","","""event"",""trial"",""time""
""focus"",""0"",""1""
""fullscreenenter"",""1"",""2081""
","
","""event"",""trial"",""time""
""focus"",""0"",""1""
","""event"",""trial"",""time""
""fullscreenenter"",""1"",""2081""
","
","","","1204","","","11","20887","7657","b","elianto","#f73b6a7A"," "," ","1","0","[2069]","1","2","","","20887","89","6","3","lose","go","0"
"pit-trial","208","1283686","0.0-94.0","battery-v0.2","","""event"",""trial"",""time""
""focus"",""0"",""1""
""fullscreenenter"",""1"",""2081""
","
","""event"",""trial"",""time""
""focus"",""0"",""1""
","""event"",""trial"",""time""
""fullscreenenter"",""1"",""2081""
","
","","","-1","","","11","20887","7657","t","elianto","#f73b6a7A","-1","-1","1","0","[]","0","2","","","20887","90","7","4","lose","no-go","0"
"pit-trial","209","1288749","0.0-95.0","battery-v0.2","","""event"",""trial"",""time""
""focus"",""0"",""1""
""fullscreenenter"",""1"",""2081""
","
","""event"",""trial"",""time""
""focus"",""0"",""1""
","""event"",""trial"",""time""
""fullscreenenter"",""1"",""2081""
","
","","","-1","","","11","20887","7657","z","elianto","#3366ff99"," ","-1","0","0","[3748]","1","2","","","20887","91","4","1","win","go","0"
"pit-trial","210","1292471","0.0-96.0","battery-v0.2","","""event"",""trial"",""time""
""focus"",""0"",""1""
""fullscreenenter"",""1"",""2081""
","
","""event"",""trial"",""time""
""focus"",""0"",""1""
","""event"",""trial"",""time""
""fullscreenenter"",""1"",""2081""
","
","","","862","","","11","20887","7657","c","elianto","#3366ff99","-1"," ","0","+10","[1718]","1","2","","","20887","92","5","2","win","no-go","1"
"pit-trial","211","1296053","0.0-97.0","battery-v0.2","","""event"",""trial"",""time""
""focus"",""0"",""1""
""fullscreenenter"",""1"",""2081""
","
","""event"",""trial"",""time""
""focus"",""0"",""1""
","""event"",""trial"",""time""
""fullscreenenter"",""1"",""2081""
","
","","","701","","","11","20887","7657","c","elianto","#3366ff99","-1"," ","0","0","[1566]","1","2","","","20887","93","5","2","win","no-go","0"
"pit-trial","212","1300929","0.0-98.0","battery-v0.2","","""event"",""trial"",""time""
""focus"",""0"",""1""
""fullscreenenter"",""1"",""2081""
","
","""event"",""trial"",""time""
""focus"",""0"",""1""
","""event"",""trial"",""time""
""fullscreenenter"",""1"",""2081""
","
","","","-1","","","11","20887","7657","b","elianto","#f73b6a7A"," ","-1","0","0","[]","0","2","","","20887","94","6","3","lose","go","1"
"pit-trial","213","1305188","0.0-99.0","battery-v0.2","","""event"",""trial"",""time""
""focus"",""0"",""1""
""fullscreenenter"",""1"",""2081""
","
","""event"",""trial"",""time""
""focus"",""0"",""1""
","""event"",""trial"",""time""
""fullscreenenter"",""1"",""2081""
","
","","","1393","","","11","20887","7657","f","elianto","#3366ff99"," "," ","1","+10","[2257]","1","2","","","20887","95","8","1","win","go","0"
"pit-trial","214","1310204","0.0-100.0","battery-v0.2","","""event"",""trial"",""time""
""focus"",""0"",""1""
""fullscreenenter"",""1"",""2081""
","
","""event"",""trial"",""time""
""focus"",""0"",""1""
","""event"",""trial"",""time""
""fullscreenenter"",""1"",""2081""
","
","","","-1","","","11","20887","7657","t","elianto","#f73b6a7A","-1","-1","1","0","[]","0","2","","","20887","96","7","4","lose","no-go","0"
"pit-trial","215","1315220","0.0-101.0","battery-v0.2","","""event"",""trial"",""time""
""focus"",""0"",""1""
""fullscreenenter"",""1"",""2081""
","
","""event"",""trial"",""time""
""focus"",""0"",""1""
","""event"",""trial"",""time""
""fullscreenenter"",""1"",""2081""
","
","","","-1","","","11","20887","7657","t","elianto","#f73b6a7A","-1","-1","1","-10","[]","0","2","","","20887","97","7","4","lose","no-go","1"
"pit-trial","216","1319613","0.0-102.0","battery-v0.2","","""event"",""trial"",""time""
""focus"",""0"",""1""
""fullscreenenter"",""1"",""2081""
","
","""event"",""trial"",""time""
""focus"",""0"",""1""
","""event"",""trial"",""time""
""fullscreenenter"",""1"",""2081""
","
","","","1508","","","11","20887","7657","b","elianto","#f73b6a7A"," "," ","1","0","[2378]","1","2","","","20887","98","6","3","lose","go","0"
"pit-trial","217","1324486","0.0-103.0","battery-v0.2","","""event"",""trial"",""time""
""focus"",""0"",""1""
""fullscreenenter"",""1"",""2081""
","
","""event"",""trial"",""time""
""focus"",""0"",""1""
","""event"",""trial"",""time""
""fullscreenenter"",""1"",""2081""
","
","","","-1","","","11","20887","7657","c","elianto","#3366ff99","-1","-1","1","+10","[]","0","2","","","20887","99","5","2","win","no-go","0"
"pit-trial","218","1328653","0.0-104.0","battery-v0.2","","""event"",""trial"",""time""
""focus"",""0"",""1""
""fullscreenenter"",""1"",""2081""
","
","""event"",""trial"",""time""
""focus"",""0"",""1""
","""event"",""trial"",""time""
""fullscreenenter"",""1"",""2081""
","
","","","1292","","","11","20887","7657","f","elianto","#3366ff99"," "," ","1","+10","[2149]","1","2","","","20887","100","8","1","win","go","0"
"pit-trial","219","1333650","0.0-105.0","battery-v0.2","","""event"",""trial"",""time""
""focus"",""0"",""1""
""fullscreenenter"",""1"",""2081""
","
","""event"",""trial"",""time""
""focus"",""0"",""1""
","""event"",""trial"",""time""
""fullscreenenter"",""1"",""2081""
","
","","","-1","","","11","20887","7657","t","elianto","#f73b6a7A","-1","-1","1","0","[]","0","2","","","20887","101","7","4","lose","no-go","0"
"pit-trial","220","1338007","0.0-106.0","battery-v0.2","","""event"",""trial"",""time""
""focus"",""0"",""1""
""fullscreenenter"",""1"",""2081""
","
","""event"",""trial"",""time""
""focus"",""0"",""1""
","""event"",""trial"",""time""
""fullscreenenter"",""1"",""2081""
","
","","","1474","","","11","20887","7657","f","elianto","#3366ff99"," "," ","1","0","[2339]","1","2","","","20887","102","8","1","win","go","1"
"pit-trial","221","1342073","0.0-107.0","battery-v0.2","","""event"",""trial"",""time""
""focus"",""0"",""1""
""fullscreenenter"",""1"",""2081""
","
","""event"",""trial"",""time""
""focus"",""0"",""1""
","""event"",""trial"",""time""
""fullscreenenter"",""1"",""2081""
","
","","","1207","","","11","20887","7657","c","elianto","#3366ff99","-1"," ","0","0","[2058]","1","2","","","20887","103","5","2","win","no-go","0"
"pit-trial","222","1347072","0.0-108.0","battery-v0.2","","""event"",""trial"",""time""
""focus"",""0"",""1""
""fullscreenenter"",""1"",""2081""
","
","""event"",""trial"",""time""
""focus"",""0"",""1""
","""event"",""trial"",""time""
""fullscreenenter"",""1"",""2081""
","
","","","-1","","","11","20887","7657","n","elianto","#3366ff99"," ","-1","0","0","[]","0","2","","","20887","104","9","1","win","go","0"
"pit-trial","223","1351210","0.0-109.0","battery-v0.2","","""event"",""trial"",""time""
""focus"",""0"",""1""
""fullscreenenter"",""1"",""2081""
","
","""event"",""trial"",""time""
""focus"",""0"",""1""
","""event"",""trial"",""time""
""fullscreenenter"",""1"",""2081""
","
","","","1268","","","11","20887","7657","z","elianto","#3366ff99"," "," ","1","+10","[2132]","1","2","","","20887","105","4","1","win","go","0"
"pit-trial","224","1355414","0.0-110.0","battery-v0.2","","""event"",""trial"",""time""
""focus"",""0"",""1""
""fullscreenenter"",""1"",""2081""
","
","""event"",""trial"",""time""
""focus"",""0"",""1""
","""event"",""trial"",""time""
""fullscreenenter"",""1"",""2081""
","
","","","1329","","","11","20887","7657","b","elianto","#f73b6a7A"," "," ","1","0","[2192]","1","2","","","20887","106","6","3","lose","go","0"
"pit-trial","225","1359427","0.0-111.0","battery-v0.2","","""event"",""trial"",""time""
""focus"",""0"",""1""
""fullscreenenter"",""1"",""2081""
","
","""event"",""trial"",""time""
""focus"",""0"",""1""
","""event"",""trial"",""time""
""fullscreenenter"",""1"",""2081""
","
","","","1150","","","11","20887","7657","n","elianto","#3366ff99"," "," ","1","+10","[2006]","1","2","","","20887","107","9","1","win","go","0"
"pit-trial","226","1364291","0.0-112.0","battery-v0.2","","""event"",""trial"",""time""
""focus"",""0"",""1""
""fullscreenenter"",""1"",""2081""
","
","""event"",""trial"",""time""
""focus"",""0"",""1""
","""event"",""trial"",""time""
""fullscreenenter"",""1"",""2081""
","
","","","-1","","","11","20887","7657","f","elianto","#3366ff99"," ","-1","0","0","[3749,4270,4646]","3","2","","","20887","108","8","1","win","go","0"
"pit-trial","227","1368382","0.0-113.0","battery-v0.2","","""event"",""trial"",""time""
""focus"",""0"",""1""
""fullscreenenter"",""1"",""2081""
","
","""event"",""trial"",""time""
""focus"",""0"",""1""
","""event"",""trial"",""time""
""fullscreenenter"",""1"",""2081""
","
","","","1229","","","11","20887","7657","b","elianto","#f73b6a7A"," "," ","1","0","[99,400,2081]","3","2","","","20887","109","6","3","lose","go","0"
"pit-trial","228","1372193","0.0-114.0","battery-v0.2","","""event"",""trial"",""time""
""focus"",""0"",""1""
""fullscreenenter"",""1"",""2081""
","
","""event"",""trial"",""time""
""focus"",""0"",""1""
","""event"",""trial"",""time""
""fullscreenenter"",""1"",""2081""
","
","","","939","","","11","20887","7657","f","elianto","#3366ff99"," "," ","1","+10","[1809]","1","2","","","20887","110","8","1","win","go","0"
"pit-trial","229","1375828","0.0-115.0","battery-v0.2","","""event"",""trial"",""time""
""focus"",""0"",""1""
""fullscreenenter"",""1"",""2081""
","
","""event"",""trial"",""time""
""focus"",""0"",""1""
","""event"",""trial"",""time""
""fullscreenenter"",""1"",""2081""
","
","","","764","","","11","20887","7657","n","elianto","#3366ff99"," "," ","1","+10","[1627]","1","2","","","20887","111","9","1","win","go","0"
