"trial_type","trial_index","time_elapsed","internal_node_id","task_version","subject_id","interactions","blur_events","focus_events","fullscreenenter_events","fullscreenexit_events","success","view_history","rt","responses","num_errors","age","subject","participantId","rune","rune_set","hex","correct","choice","accuracy","outcome","keys","total_keys","block","practice","value","sub","trial","stimulus","robot","valence","action","sham"
"pavlovia","0","15","0.0-0.0","battery-v0.2","","""event"",""trial"",""time""
""fullscreenenter"",""1"",""138540""
","
","
","""event"",""trial"",""time""
""fullscreenenter"",""1"",""138540""
","
","","","","","","","","","","","","","","","","","","","","","","","","","","",""
"fullscreen","1","139526","0.0-1.0","battery-v0.2","","""event"",""trial"",""time""
""fullscreenenter"",""1"",""138540""
","
","
","""event"",""trial"",""time""
""fullscreenenter"",""1"",""138540""
","
","true","","","","","","","","","","","","","","","","","","","","","","","","","",""
"pit-instructions","2","149502","0.0-2.0-0.0","battery-v0.2","","""event"",""trial"",""time""
""fullscreenenter"",""1"",""138540""
","
","
","""event"",""trial"",""time""
""fullscreenenter"",""1"",""138540""
","
","","[{""page_index"":0,""viewing_time"":9962.899999856949}]","9963.599999904633","","","","","","","","","","","","","","","","","","","","","","","",""
"pit-comprehension","3","154304","0.0-2.0-1.0-0.0","battery-v0.2","","""event"",""trial"",""time""
""fullscreenenter"",""1"",""138540""
","
","
","""event"",""trial"",""time""
""fullscreenenter"",""1"",""138540""
","
","","","4787.100000143051","[""shark""]","0","11","3752","661","","","","","","","","","","","","","","","","","","",""
"pit-instructions","4","157550","0.0-2.0-1.0-1.0","battery-v0.2","","""event"",""trial"",""time""
""fullscreenenter"",""1"",""138540""
","
","
","""event"",""trial"",""time""
""fullscreenenter"",""1"",""138540""
","
","","[{""page_index"":0,""viewing_time"":3178}]","3178.9000000953674","","","","","","","","","","","","","","","","","","","","","","","",""
"pit-comprehension","5","162236","0.0-2.0-2.0-0.0","battery-v0.2","","""event"",""trial"",""time""
""fullscreenenter"",""1"",""138540""
","
","
","""event"",""trial"",""time""
""fullscreenenter"",""1"",""138540""
","
","","","4675.600000143051","[""tiger""]","0","11","3752","661","","","","","","","","","","","","","","","","","","",""
"pit-instructions","6","166683","0.0-2.0-2.0-1.0","battery-v0.2","","""event"",""trial"",""time""
""fullscreenenter"",""1"",""138540""
","
","
","""event"",""trial"",""time""
""fullscreenenter"",""1"",""138540""
","
","","[{""page_index"":0,""viewing_time"":4438.400000095367}]","4438.900000095367","","","","","","","","","","","","","","","","","","","","","","","",""
"pit-instructions","7","274873","0.0-2.0-3.0","battery-v0.2","","""event"",""trial"",""time""
""fullscreenenter"",""1"",""138540""
","
","
","""event"",""trial"",""time""
""fullscreenenter"",""1"",""138540""
","
","","[{""page_index"":0,""viewing_time"":8681.700000047684},{""page_index"":1,""viewing_time"":9207.200000047684},{""page_index"":2,""viewing_time"":7029.599999904633},{""page_index"":3,""viewing_time"":5643.700000047684},{""page_index"":4,""viewing_time"":6444.600000143051},{""page_index"":5,""viewing_time"":5994.199999809265},{""page_index"":6,""viewing_time"":7987.800000190735},{""page_index"":7,""viewing_time"":7782.899999856949},{""page_index"":8,""viewing_time"":6131.400000095367},{""page_index"":9,""viewing_time"":9308.200000047684},{""page_index"":10,""viewing_time"":13171.099999904633},{""page_index"":11,""viewing_time"":9122.900000095367},{""page_index"":12,""viewing_time"":6425.5},{""page_index"":13,""viewing_time"":5247.899999856949}]","108179.20000004768","","","","","","","","","","","","","","","","","","","","","","","",""
"pit-trial","8","278683","0.0-2.0-4.0-0.0","battery-v0.2","","""event"",""trial"",""time""
""fullscreenenter"",""1"",""138540""
","
","
","""event"",""trial"",""time""
""fullscreenenter"",""1"",""138540""
","
","","","945.7999999523163","","","11","3752","661","&#9784;","elianto","#FFFFF080"," "," ","1","&#10004","[1799.9000000953674]","1","0","0","","","","","","","",""
"pit-trial","9","282532","0.0-2.0-4.1-0.1","battery-v0.2","","""event"",""trial"",""time""
""fullscreenenter"",""1"",""138540""
","
","
","""event"",""trial"",""time""
""fullscreenenter"",""1"",""138540""
","
","","","982.5","","","11","3752","661","&#9784;","elianto","#FFFFF080"," "," ","1","&#10004","[1834.7000000476837]","1","0","0","","","","","","","",""
"pit-trial","10","286516","0.0-2.0-4.2-0.2","battery-v0.2","","""event"",""trial"",""time""
""fullscreenenter"",""1"",""138540""
","
","
","""event"",""trial"",""time""
""fullscreenenter"",""1"",""138540""
","
","","","1119.0999999046326","","","11","3752","661","&#9784;","elianto","#FFFFF080"," "," ","1","&#10004","[1971.2000000476837]","1","0","0","","","","","","","",""
"pit-trial","11","289939","0.0-2.0-4.3-0.3","battery-v0.2","","""event"",""trial"",""time""
""fullscreenenter"",""1"",""138540""
","
","
","""event"",""trial"",""time""
""fullscreenenter"",""1"",""138540""
","
","","","562.2000000476837","","","11","3752","661","&#9784;","elianto","#FFFFF080"," "," ","1","&#10004","[1413]","1","0","0","","","","","","","",""
"pit-trial","12","293411","0.0-2.0-4.4-0.4","battery-v0.2","","""event"",""trial"",""time""
""fullscreenenter"",""1"",""138540""
","
","
","""event"",""trial"",""time""
""fullscreenenter"",""1"",""138540""
","
","","","613.7999999523163","","","11","3752","661","&#9784;","elianto","#FFFFF080"," "," ","1","&#10004","[1465.1000001430511]","1","0","0","","","","","","","",""
"pit-instructions","13","316617","0.0-2.0-5.0","battery-v0.2","","""event"",""trial"",""time""
""fullscreenenter"",""1"",""138540""
","
","
","""event"",""trial"",""time""
""fullscreenenter"",""1"",""138540""
","
","","[{""page_index"":0,""viewing_time"":5441.899999856949},{""page_index"":1,""viewing_time"":6903.200000047684},{""page_index"":2,""viewing_time"":5309.5},{""page_index"":3,""viewing_time"":5544.400000095367}]","23199.5","","","","","","","","","","","","","","","","","","","","","","","",""
"pit-trial","14","321483","0.0-2.0-6.0-0.0","battery-v0.2","","""event"",""trial"",""time""
""fullscreenenter"",""1"",""138540""
","
","
","""event"",""trial"",""time""
""fullscreenenter"",""1"",""138540""
","
","","","-1","","","11","3752","661","&#9854;","elianto","#FFFFF080","-1","-1","1","&#10004","[]","0","0","1","","","","","","","",""
"pit-trial","15","326347","0.0-2.0-6.1-0.1","battery-v0.2","","""event"",""trial"",""time""
""fullscreenenter"",""1"",""138540""
","
","
","""event"",""trial"",""time""
""fullscreenenter"",""1"",""138540""
","
","","","-1","","","11","3752","661","&#9854;","elianto","#FFFFF080","-1","-1","1","&#10004","[]","0","0","1","","","","","","","",""
"pit-trial","16","331211","0.0-2.0-6.2-0.2","battery-v0.2","","""event"",""trial"",""time""
""fullscreenenter"",""1"",""138540""
","
","
","""event"",""trial"",""time""
""fullscreenenter"",""1"",""138540""
","
","","","-1","","","11","3752","661","&#9854;","elianto","#FFFFF080","-1","-1","1","&#10004","[]","0","0","1","","","","","","","",""
"pit-trial","17","336076","0.0-2.0-6.3-0.3","battery-v0.2","","""event"",""trial"",""time""
""fullscreenenter"",""1"",""138540""
","
","
","""event"",""trial"",""time""
""fullscreenenter"",""1"",""138540""
","
","","","-1","","","11","3752","661","&#9854;","elianto","#FFFFF080","-1","-1","1","&#10004","[]","0","0","1","","","","","","","",""
"pit-trial","18","340940","0.0-2.0-6.4-0.4","battery-v0.2","","""event"",""trial"",""time""
""fullscreenenter"",""1"",""138540""
","
","
","""event"",""trial"",""time""
""fullscreenenter"",""1"",""138540""
","
","","","-1","","","11","3752","661","&#9854;","elianto","#FFFFF080","-1","-1","1","&#10004","[]","0","0","1","","","","","","","",""
"pit-instructions","19","467942","0.0-2.0-7.0","battery-v0.2","","""event"",""trial"",""time""
""fullscreenenter"",""1"",""138540""
","
","
","""event"",""trial"",""time""
""fullscreenenter"",""1"",""138540""
","
","","[{""page_index"":0,""viewing_time"":5715.5},{""page_index"":1,""viewing_time"":7391.800000190735},{""page_index"":2,""viewing_time"":6238},{""page_index"":3,""viewing_time"":6346.699999809265},{""page_index"":4,""viewing_time"":5513.700000047684},{""page_index"":5,""viewing_time"":5807.400000095367},{""page_index"":6,""viewing_time"":5027.099999904633},{""page_index"":7,""viewing_time"":9082.900000095367},{""page_index"":8,""viewing_time"":7324.299999952316},{""page_index"":9,""viewing_time"":6150.5},{""page_index"":10,""viewing_time"":7380.099999904633},{""page_index"":11,""viewing_time"":5202.100000143051},{""page_index"":12,""viewing_time"":8732.399999856949},{""page_index"":13,""viewing_time"":8720.300000190735},{""page_index"":14,""viewing_time"":8057.699999809265},{""page_index"":15,""viewing_time"":8436.200000047684},{""page_index"":16,""viewing_time"":7284.100000143051},{""page_index"":17,""viewing_time"":8578.899999856949}]","126990.30000019073","","","","","","","","","","","","","","","","","","","","","","","",""
"pit-trial","20","472807","0.0-2.0-8.0-0.0","battery-v0.2","","""event"",""trial"",""time""
""fullscreenenter"",""1"",""138540""
","
","
","""event"",""trial"",""time""
""fullscreenenter"",""1"",""138540""
","
","","","-1","","","11","3752","661","&#9776;","elianto","#3366ff99"," ","-1","0","0","[2993]","1","0","1","","","","","","","",""
"pit-trial","21","475976","0.0-2.0-8.0-1.0","battery-v0.2","","""event"",""trial"",""time""
""fullscreenenter"",""1"",""138540""
","
","
","""event"",""trial"",""time""
""fullscreenenter"",""1"",""138540""
","
","","","310.69999980926514","","","11","3752","661","&#9776;","elianto","#3366ff99"," "," ","1","+10","[1162.5]","1","0","1","","","","","","","",""
"pit-trial","22","478863","0.0-2.0-8.0-2.0","battery-v0.2","","""event"",""trial"",""time""
""fullscreenenter"",""1"",""138540""
","
","
","""event"",""trial"",""time""
""fullscreenenter"",""1"",""138540""
","
","","","26.600000143051147","","","11","3752","661","&#9776;","elianto","#3366ff99"," "," ","1","+10","[878.0999999046326]","1","0","1","","","","","","","",""
"pit-trial","23","482095","0.0-2.0-8.0-3.0","battery-v0.2","","""event"",""trial"",""time""
""fullscreenenter"",""1"",""138540""
","
","
","""event"",""trial"",""time""
""fullscreenenter"",""1"",""138540""
","
","","","373.30000019073486","","","11","3752","661","&#9776;","elianto","#3366ff99"," "," ","1","0","[1226.6000001430511]","1","0","1","","","","","","","",""
"pit-trial","24","485079","0.0-2.0-8.0-4.0","battery-v0.2","","""event"",""trial"",""time""
""fullscreenenter"",""1"",""138540""
","
","
","""event"",""trial"",""time""
""fullscreenenter"",""1"",""138540""
","
","","","122.09999990463257","","","11","3752","661","&#9776;","elianto","#3366ff99"," "," ","1","+10","[978]","1","0","1","","","","","","","",""
"pit-trial","25","488831","0.0-2.0-8.1-0.1","battery-v0.2","","""event"",""trial"",""time""
""fullscreenenter"",""1"",""138540""
","
","
","""event"",""trial"",""time""
""fullscreenenter"",""1"",""138540""
","
","","","885.8999998569489","","","11","3752","661","&#9776;","elianto","#3366ff99"," "," ","1","+10","[761.1000001430511,1743.9000000953674]","2","0","1","","","","","","","",""
"pit-trial","26","492112","0.0-2.0-8.1-1.1","battery-v0.2","","""event"",""trial"",""time""
""fullscreenenter"",""1"",""138540""
","
","
","""event"",""trial"",""time""
""fullscreenenter"",""1"",""138540""
","
","","","416","","","11","3752","661","&#9776;","elianto","#3366ff99"," "," ","1","+10","[1269.2000000476837]","1","0","1","","","","","","","",""
"pit-trial","27","495713","0.0-2.0-8.1-2.1","battery-v0.2","","""event"",""trial"",""time""
""fullscreenenter"",""1"",""138540""
","
","
","""event"",""trial"",""time""
""fullscreenenter"",""1"",""138540""
","
","","","742.1999998092651","","","11","3752","661","&#9776;","elianto","#3366ff99"," "," ","1","+10","[1593.1999998092651]","1","0","1","","","","","","","",""
"pit-trial","28","499615","0.0-2.0-8.1-3.1","battery-v0.2","","""event"",""trial"",""time""
""fullscreenenter"",""1"",""138540""
","
","
","""event"",""trial"",""time""
""fullscreenenter"",""1"",""138540""
","
","","","1046.5","","","11","3752","661","&#9776;","elianto","#3366ff99"," "," ","1","0","[791.5999999046326,1898.0999999046326]","2","0","1","","","","","","","",""
"pit-trial","29","502854","0.0-2.0-8.1-4.1","battery-v0.2","","""event"",""trial"",""time""
""fullscreenenter"",""1"",""138540""
","
","
","""event"",""trial"",""time""
""fullscreenenter"",""1"",""138540""
","
","","","376.09999990463257","","","11","3752","661","&#9776;","elianto","#3366ff99"," "," ","1","+10","[1229.2999999523163]","1","0","1","","","","","","","",""
"pit-trial","30","507290","0.0-2.0-8.2-0.2","battery-v0.2","","""event"",""trial"",""time""
""fullscreenenter"",""1"",""138540""
","
","
","""event"",""trial"",""time""
""fullscreenenter"",""1"",""138540""
","
","","","1569.4000000953674","","","11","3752","661","&#9776;","elianto","#3366ff99"," "," ","1","+10","[2421.4000000953674]","1","0","1","","","","","","","",""
"pit-trial","31","512153","0.0-2.0-8.2-1.2","battery-v0.2","","""event"",""trial"",""time""
""fullscreenenter"",""1"",""138540""
","
","
","""event"",""trial"",""time""
""fullscreenenter"",""1"",""138540""
","
","","","-1","","","11","3752","661","&#9776;","elianto","#3366ff99"," ","-1","0","0","[]","0","0","1","","","","","","","",""
"pit-trial","32","515522","0.0-2.0-8.2-2.2","battery-v0.2","","""event"",""trial"",""time""
""fullscreenenter"",""1"",""138540""
","
","
","""event"",""trial"",""time""
""fullscreenenter"",""1"",""138540""
","
","","","505.89999985694885","","","11","3752","661","&#9776;","elianto","#3366ff99"," "," ","1","+10","[1356.5999999046326]","1","0","1","","","","","","","",""
"pit-trial","33","518673","0.0-2.0-8.2-3.2","battery-v0.2","","""event"",""trial"",""time""
""fullscreenenter"",""1"",""138540""
","
","
","""event"",""trial"",""time""
""fullscreenenter"",""1"",""138540""
","
","","","292.7000000476837","","","11","3752","661","&#9776;","elianto","#3366ff99"," "," ","1","0","[1144.4000000953674]","1","0","1","","","","","","","",""
"pit-trial","34","522169","0.0-2.0-8.2-4.2","battery-v0.2","","""event"",""trial"",""time""
""fullscreenenter"",""1"",""138540""
","
","
","""event"",""trial"",""time""
""fullscreenenter"",""1"",""138540""
","
","","","638.0999999046326","","","11","3752","661","&#9776;","elianto","#3366ff99"," "," ","1","+10","[1488.2000000476837]","1","0","1","","","","","","","",""
"call-function","35","522173","0.0-2.0-9.0","battery-v0.2","","""event"",""trial"",""time""
""fullscreenenter"",""1"",""138540""
","
","
","""event"",""trial"",""time""
""fullscreenenter"",""1"",""138540""
","
","","","","","","","","","","","","","","","","","","","","","","","","","","",""
"pit-instructions","36","569119","0.0-2.0-10.0","battery-v0.2","","""event"",""trial"",""time""
""fullscreenenter"",""1"",""138540""
","
","
","""event"",""trial"",""time""
""fullscreenenter"",""1"",""138540""
","
","","[{""page_index"":0,""viewing_time"":8985.300000190735},{""page_index"":1,""viewing_time"":8016.099999904633},{""page_index"":2,""viewing_time"":10725.200000047684},{""page_index"":3,""viewing_time"":9600.799999952316},{""page_index"":4,""viewing_time"":9614.900000095367}]","46943","","","","","","","","","","","","","","","","","","","","","","","",""
"pit-trial","37","573316","0.0-2.0-11.0-0.0","battery-v0.2","","""event"",""trial"",""time""
""fullscreenenter"",""1"",""138540""
","
","
","""event"",""trial"",""time""
""fullscreenenter"",""1"",""138540""
","
","","","1333","","","11","3752","661","&#9761;","elianto","#3366ff99","-1"," ","0","0","[2189]","1","0","2","","","","","","","",""
"pit-trial","38","576459","0.0-2.0-11.0-1.0","battery-v0.2","","""event"",""trial"",""time""
""fullscreenenter"",""1"",""138540""
","
","
","""event"",""trial"",""time""
""fullscreenenter"",""1"",""138540""
","
","","","282.89999985694885","","","11","3752","661","&#9761;","elianto","#3366ff99","-1"," ","0","0","[1134.0999999046326]","1","0","2","","","","","","","",""
"pit-trial","39","581323","0.0-2.0-11.0-2.0","battery-v0.2","","""event"",""trial"",""time""
""fullscreenenter"",""1"",""138540""
","
","
","""event"",""trial"",""time""
""fullscreenenter"",""1"",""138540""
","
","","","-1","","","11","3752","661","&#9761;","elianto","#3366ff99","-1","-1","1","+10","[]","0","0","2","","","","","","","",""
"pit-trial","40","586187","0.0-2.0-11.0-3.0","battery-v0.2","","""event"",""trial"",""time""
""fullscreenenter"",""1"",""138540""
","
","
","""event"",""trial"",""time""
""fullscreenenter"",""1"",""138540""
","
","","","-1","","","11","3752","661","&#9761;","elianto","#3366ff99","-1","-1","1","0","[]","0","0","2","","","","","","","",""
"pit-trial","41","591074","0.0-2.0-11.0-4.0","battery-v0.2","","""event"",""trial"",""time""
""fullscreenenter"",""1"",""138540""
","
","
","""event"",""trial"",""time""
""fullscreenenter"",""1"",""138540""
","
","","","-1","","","11","3752","661","&#9761;","elianto","#3366ff99","-1","-1","1","+10","[]","0","0","2","","","","","","","",""
"pit-trial","42","594643","0.0-2.0-11.1-0.1","battery-v0.2","","""event"",""trial"",""time""
""fullscreenenter"",""1"",""138540""
","
","
","""event"",""trial"",""time""
""fullscreenenter"",""1"",""138540""
","
","","","706.7999999523163","","","11","3752","661","&#9761;","elianto","#3366ff99","-1"," ","0","0","[1558.6000001430511]","1","0","2","","","","","","","",""
"pit-trial","43","599508","0.0-2.0-11.1-1.1","battery-v0.2","","""event"",""trial"",""time""
""fullscreenenter"",""1"",""138540""
","
","
","""event"",""trial"",""time""
""fullscreenenter"",""1"",""138540""
","
","","","-1","","","11","3752","661","&#9761;","elianto","#3366ff99","-1","-1","1","+10","[]","0","0","2","","","","","","","",""
"pit-trial","44","603628","0.0-2.0-11.1-2.1","battery-v0.2","","""event"",""trial"",""time""
""fullscreenenter"",""1"",""138540""
","
","
","""event"",""trial"",""time""
""fullscreenenter"",""1"",""138540""
","
","","","1256.5999999046326","","","11","3752","661","&#9761;","elianto","#3366ff99","-1"," ","0","0","[2108.600000143051]","1","0","2","","","","","","","",""
"pit-trial","45","607019","0.0-2.0-11.1-3.1","battery-v0.2","","""event"",""trial"",""time""
""fullscreenenter"",""1"",""138540""
","
","
","""event"",""trial"",""time""
""fullscreenenter"",""1"",""138540""
","
","","","534.0999999046326","","","11","3752","661","&#9761;","elianto","#3366ff99","-1"," ","0","+10","[1385.7999999523163]","1","0","2","","","","","","","",""
"pit-trial","46","610419","0.0-2.0-11.1-4.1","battery-v0.2","","""event"",""trial"",""time""
""fullscreenenter"",""1"",""138540""
","
","
","""event"",""trial"",""time""
""fullscreenenter"",""1"",""138540""
","
","","","537.8999998569489","","","11","3752","661","&#9761;","elianto","#3366ff99","-1"," ","0","0","[1389.9000000953674]","1","0","2","","","","","","","",""
"pit-trial","47","613363","0.0-2.0-11.2-0.2","battery-v0.2","","""event"",""trial"",""time""
""fullscreenenter"",""1"",""138540""
","
","
","""event"",""trial"",""time""
""fullscreenenter"",""1"",""138540""
","
","","","84.5","","","11","3752","661","&#9761;","elianto","#3366ff99","-1"," ","0","0","[638,935.7999999523163,1198.6999998092651]","3","0","2","","","","","","","",""
"pit-trial","48","618227","0.0-2.0-11.2-1.2","battery-v0.2","","""event"",""trial"",""time""
""fullscreenenter"",""1"",""138540""
","
","
","""event"",""trial"",""time""
""fullscreenenter"",""1"",""138540""
","
","","","-1","","","11","3752","661","&#9761;","elianto","#3366ff99","-1","-1","1","+10","[]","0","0","2","","","","","","","",""
"pit-trial","49","622379","0.0-2.0-11.2-2.2","battery-v0.2","","""event"",""trial"",""time""
""fullscreenenter"",""1"",""138540""
","
","
","""event"",""trial"",""time""
""fullscreenenter"",""1"",""138540""
","
","","","1290.8999998569489","","","11","3752","661","&#9761;","elianto","#3366ff99","-1"," ","0","0","[2144.7000000476837]","1","0","2","","","","","","","",""
"pit-trial","50","627243","0.0-2.0-11.2-3.2","battery-v0.2","","""event"",""trial"",""time""
""fullscreenenter"",""1"",""138540""
","
","
","""event"",""trial"",""time""
""fullscreenenter"",""1"",""138540""
","
","","","-1","","","11","3752","661","&#9761;","elianto","#3366ff99","-1","-1","1","0","[]","0","0","2","","","","","","","",""
"pit-trial","51","632108","0.0-2.0-11.2-4.2","battery-v0.2","","""event"",""trial"",""time""
""fullscreenenter"",""1"",""138540""
","
","
","""event"",""trial"",""time""
""fullscreenenter"",""1"",""138540""
","
","","","-1","","","11","3752","661","&#9761;","elianto","#3366ff99","-1","-1","1","+10","[]","0","0","2","","","","","","","",""
"pit-trial","52","636165","0.0-2.0-11.3-0.3","battery-v0.2","","""event"",""trial"",""time""
""fullscreenenter"",""1"",""138540""
","
","
","""event"",""trial"",""time""
""fullscreenenter"",""1"",""138540""
","
","","","1196.2999999523163","","","11","3752","661","&#9761;","elianto","#3366ff99","-1"," ","0","0","[2047.3999998569489]","1","0","2","","","","","","","",""
"pit-trial","53","639957","0.0-2.0-11.3-1.3","battery-v0.2","","""event"",""trial"",""time""
""fullscreenenter"",""1"",""138540""
","
","
","""event"",""trial"",""time""
""fullscreenenter"",""1"",""138540""
","
","","","932.7000000476837","","","11","3752","661","&#9761;","elianto","#3366ff99","-1"," ","0","0","[1784.7000000476837]","1","0","2","","","","","","","",""
"pit-trial","54","644820","0.0-2.0-11.3-2.3","battery-v0.2","","""event"",""trial"",""time""
""fullscreenenter"",""1"",""138540""
","
","
","""event"",""trial"",""time""
""fullscreenenter"",""1"",""138540""
","
","","","-1","","","11","3752","661","&#9761;","elianto","#3366ff99","-1","-1","1","+10","[]","0","0","2","","","","","","","",""
"pit-trial","55","649684","0.0-2.0-11.3-3.3","battery-v0.2","","""event"",""trial"",""time""
""fullscreenenter"",""1"",""138540""
","
","
","""event"",""trial"",""time""
""fullscreenenter"",""1"",""138540""
","
","","","-1","","","11","3752","661","&#9761;","elianto","#3366ff99","-1","-1","1","0","[]","0","0","2","","","","","","","",""
"pit-trial","56","654548","0.0-2.0-11.3-4.3","battery-v0.2","","""event"",""trial"",""time""
""fullscreenenter"",""1"",""138540""
","
","
","""event"",""trial"",""time""
""fullscreenenter"",""1"",""138540""
","
","","","-1","","","11","3752","661","&#9761;","elianto","#3366ff99","-1","-1","1","+10","[]","0","0","2","","","","","","","",""
"call-function","57","654552","0.0-2.0-12.0","battery-v0.2","","""event"",""trial"",""time""
""fullscreenenter"",""1"",""138540""
","
","
","""event"",""trial"",""time""
""fullscreenenter"",""1"",""138540""
","
","","","","","","","","","","","","","","","","","","","","","","","","","","",""
"pit-instructions","58","694514","0.0-2.0-13.0","battery-v0.2","","""event"",""trial"",""time""
""fullscreenenter"",""1"",""138540""
","
","
","""event"",""trial"",""time""
""fullscreenenter"",""1"",""138540""
","
","","[{""page_index"":0,""viewing_time"":6520.900000095367},{""page_index"":1,""viewing_time"":8359.099999904633},{""page_index"":2,""viewing_time"":8147},{""page_index"":3,""viewing_time"":11593},{""page_index"":4,""viewing_time"":5337.700000047684}]","39958.5","","","","","","","","","","","","","","","","","","","","","","","",""
"pit-trial","59","699383","0.0-2.0-14.0-0.0","battery-v0.2","","""event"",""trial"",""time""
""fullscreenenter"",""1"",""138540""
","
","
","""event"",""trial"",""time""
""fullscreenenter"",""1"",""138540""
","
","","","-1","","","11","3752","661","&#9826;","elianto","#f73b6a7A","-1","-1","1","0","[]","0","0","3","","","","","","","",""
"pit-trial","60","702727","0.0-2.0-14.0-1.0","battery-v0.2","","""event"",""trial"",""time""
""fullscreenenter"",""1"",""138540""
","
","
","""event"",""trial"",""time""
""fullscreenenter"",""1"",""138540""
","
","","","481.09999990463257","","","11","3752","661","&#9826;","elianto","#f73b6a7A","-1"," ","0","-10","[1333.6000001430511]","1","0","3","","","","","","","",""
"pit-trial","61","707591","0.0-2.0-14.0-2.0","battery-v0.2","","""event"",""trial"",""time""
""fullscreenenter"",""1"",""138540""
","
","
","""event"",""trial"",""time""
""fullscreenenter"",""1"",""138540""
","
","","","-1","","","11","3752","661","&#9826;","elianto","#f73b6a7A","-1","-1","1","0","[]","0","0","3","","","","","","","",""
"pit-trial","62","712454","0.0-2.0-14.0-3.0","battery-v0.2","","""event"",""trial"",""time""
""fullscreenenter"",""1"",""138540""
","
","
","""event"",""trial"",""time""
""fullscreenenter"",""1"",""138540""
","
","","","-1","","","11","3752","661","&#9826;","elianto","#f73b6a7A","-1","-1","1","-10","[3844.7000000476837]","1","0","3","","","","","","","",""
"pit-trial","63","717318","0.0-2.0-14.0-4.0","battery-v0.2","","""event"",""trial"",""time""
""fullscreenenter"",""1"",""138540""
","
","
","""event"",""trial"",""time""
""fullscreenenter"",""1"",""138540""
","
","","","-1","","","11","3752","661","&#9826;","elianto","#f73b6a7A","-1","-1","1","0","[]","0","0","3","","","","","","","",""
"pit-trial","64","722183","0.0-2.0-14.1-0.1","battery-v0.2","","""event"",""trial"",""time""
""fullscreenenter"",""1"",""138540""
","
","
","""event"",""trial"",""time""
""fullscreenenter"",""1"",""138540""
","
","","","-1","","","11","3752","661","&#9826;","elianto","#f73b6a7A","-1","-1","1","0","[]","0","0","3","","","","","","","",""
"pit-trial","65","727047","0.0-2.0-14.1-1.1","battery-v0.2","","""event"",""trial"",""time""
""fullscreenenter"",""1"",""138540""
","
","
","""event"",""trial"",""time""
""fullscreenenter"",""1"",""138540""
","
","","","-1","","","11","3752","661","&#9826;","elianto","#f73b6a7A","-1","-1","1","0","[]","0","0","3","","","","","","","",""
"pit-trial","66","731911","0.0-2.0-14.1-2.1","battery-v0.2","","""event"",""trial"",""time""
""fullscreenenter"",""1"",""138540""
","
","
","""event"",""trial"",""time""
""fullscreenenter"",""1"",""138540""
","
","","","-1","","","11","3752","661","&#9826;","elianto","#f73b6a7A","-1","-1","1","0","[]","0","0","3","","","","","","","",""
"pit-trial","67","736768","0.0-2.0-14.1-3.1","battery-v0.2","","""event"",""trial"",""time""
""fullscreenenter"",""1"",""138540""
","
","
","""event"",""trial"",""time""
""fullscreenenter"",""1"",""138540""
","
","","","-1","","","11","3752","661","&#9826;","elianto","#f73b6a7A","-1","-1","1","-10","[]","0","0","3","","","","","","","",""
"pit-trial","68","741631","0.0-2.0-14.1-4.1","battery-v0.2","","""event"",""trial"",""time""
""fullscreenenter"",""1"",""138540""
","
","
","""event"",""trial"",""time""
""fullscreenenter"",""1"",""138540""
","
","","","-1","","","11","3752","661","&#9826;","elianto","#f73b6a7A","-1","-1","1","0","[]","0","0","3","","","","","","","",""
"pit-trial","69","746495","0.0-2.0-14.2-0.2","battery-v0.2","","""event"",""trial"",""time""
""fullscreenenter"",""1"",""138540""
","
","
","""event"",""trial"",""time""
""fullscreenenter"",""1"",""138540""
","
","","","-1","","","11","3752","661","&#9826;","elianto","#f73b6a7A","-1","-1","1","0","[]","0","0","3","","","","","","","",""
"pit-trial","70","751359","0.0-2.0-14.2-1.2","battery-v0.2","","""event"",""trial"",""time""
""fullscreenenter"",""1"",""138540""
","
","
","""event"",""trial"",""time""
""fullscreenenter"",""1"",""138540""
","
","","","-1","","","11","3752","661","&#9826;","elianto","#f73b6a7A","-1","-1","1","0","[]","0","0","3","","","","","","","",""
"pit-trial","71","756224","0.0-2.0-14.2-2.2","battery-v0.2","","""event"",""trial"",""time""
""fullscreenenter"",""1"",""138540""
","
","
","""event"",""trial"",""time""
""fullscreenenter"",""1"",""138540""
","
","","","-1","","","11","3752","661","&#9826;","elianto","#f73b6a7A","-1","-1","1","0","[]","0","0","3","","","","","","","",""
"pit-trial","72","761088","0.0-2.0-14.2-3.2","battery-v0.2","","""event"",""trial"",""time""
""fullscreenenter"",""1"",""138540""
","
","
","""event"",""trial"",""time""
""fullscreenenter"",""1"",""138540""
","
","","","-1","","","11","3752","661","&#9826;","elianto","#f73b6a7A","-1","-1","1","-10","[]","0","0","3","","","","","","","",""
"pit-trial","73","765952","0.0-2.0-14.2-4.2","battery-v0.2","","""event"",""trial"",""time""
""fullscreenenter"",""1"",""138540""
","
","
","""event"",""trial"",""time""
""fullscreenenter"",""1"",""138540""
","
","","","-1","","","11","3752","661","&#9826;","elianto","#f73b6a7A","-1","-1","1","0","[]","0","0","3","","","","","","","",""
"pit-trial","74","770816","0.0-2.0-14.3-0.3","battery-v0.2","","""event"",""trial"",""time""
""fullscreenenter"",""1"",""138540""
","
","
","""event"",""trial"",""time""
""fullscreenenter"",""1"",""138540""
","
","","","-1","","","11","3752","661","&#9826;","elianto","#f73b6a7A","-1","-1","1","0","[]","0","0","3","","","","","","","",""
"pit-trial","75","775680","0.0-2.0-14.3-1.3","battery-v0.2","","""event"",""trial"",""time""
""fullscreenenter"",""1"",""138540""
","
","
","""event"",""trial"",""time""
""fullscreenenter"",""1"",""138540""
","
","","","-1","","","11","3752","661","&#9826;","elianto","#f73b6a7A","-1","-1","1","0","[]","0","0","3","","","","","","","",""
"pit-trial","76","780544","0.0-2.0-14.3-2.3","battery-v0.2","","""event"",""trial"",""time""
""fullscreenenter"",""1"",""138540""
","
","
","""event"",""trial"",""time""
""fullscreenenter"",""1"",""138540""
","
","","","-1","","","11","3752","661","&#9826;","elianto","#f73b6a7A","-1","-1","1","0","[]","0","0","3","","","","","","","",""
"pit-trial","77","785409","0.0-2.0-14.3-3.3","battery-v0.2","","""event"",""trial"",""time""
""fullscreenenter"",""1"",""138540""
","
","
","""event"",""trial"",""time""
""fullscreenenter"",""1"",""138540""
","
","","","-1","","","11","3752","661","&#9826;","elianto","#f73b6a7A","-1","-1","1","-10","[]","0","0","3","","","","","","","",""
"pit-trial","78","790272","0.0-2.0-14.3-4.3","battery-v0.2","","""event"",""trial"",""time""
""fullscreenenter"",""1"",""138540""
","
","
","""event"",""trial"",""time""
""fullscreenenter"",""1"",""138540""
","
","","","-1","","","11","3752","661","&#9826;","elianto","#f73b6a7A","-1","-1","1","0","[]","0","0","3","","","","","","","",""
"call-function","79","790275","0.0-2.0-15.0","battery-v0.2","","""event"",""trial"",""time""
""fullscreenenter"",""1"",""138540""
","
","
","""event"",""trial"",""time""
""fullscreenenter"",""1"",""138540""
","
","","","","","","","","","","","","","","","","","","","","","","","","","","",""
"pit-instructions","80","818915","0.0-2.0-16.0","battery-v0.2","","""event"",""trial"",""time""
""fullscreenenter"",""1"",""138540""
","
","
","""event"",""trial"",""time""
""fullscreenenter"",""1"",""138540""
","
","","[{""page_index"":0,""viewing_time"":7069.700000047684},{""page_index"":1,""viewing_time"":10558.100000143051},{""page_index"":2,""viewing_time"":5023.699999809265},{""page_index"":3,""viewing_time"":5986}]","28638.300000190735","","","","","","","","","","","","","","","","","","","","","","","",""
"pit-trial","81","823097","0.0-2.0-17.0-0.0","battery-v0.2","","""event"",""trial"",""time""
""fullscreenenter"",""1"",""138540""
","
","
","""event"",""trial"",""time""
""fullscreenenter"",""1"",""138540""
","
","","","1320","","","11","3752","661","&#9789;","elianto","#f73b6a7A"," "," ","1","0","[2171.0999999046326]","1","0","4","","","","","","","",""
"pit-trial","82","826088","0.0-2.0-17.0-1.0","battery-v0.2","","""event"",""trial"",""time""
""fullscreenenter"",""1"",""138540""
","
","
","""event"",""trial"",""time""
""fullscreenenter"",""1"",""138540""
","
","","","123.20000004768372","","","11","3752","661","&#9789;","elianto","#f73b6a7A"," "," ","1","0","[977]","1","0","4","","","","","","","",""
"pit-trial","83","828961","0.0-2.0-17.0-2.0","battery-v0.2","","""event"",""trial"",""time""
""fullscreenenter"",""1"",""138540""
","
","
","""event"",""trial"",""time""
""fullscreenenter"",""1"",""138540""
","
","","","12.399999856948853","","","11","3752","661","&#9789;","elianto","#f73b6a7A"," "," ","1","0","[866.5999999046326]","1","0","4","","","","","","","",""
"pit-trial","84","831969","0.0-2.0-17.0-3.0","battery-v0.2","","""event"",""trial"",""time""
""fullscreenenter"",""1"",""138540""
","
","
","""event"",""trial"",""time""
""fullscreenenter"",""1"",""138540""
","
","","","149.60000014305115","","","11","3752","661","&#9789;","elianto","#f73b6a7A"," "," ","1","-10","[1003]","1","0","4","","","","","","","",""
"pit-trial","85","834849","0.0-2.0-17.0-4.0","battery-v0.2","","""event"",""trial"",""time""
""fullscreenenter"",""1"",""138540""
","
","
","""event"",""trial"",""time""
""fullscreenenter"",""1"",""138540""
","
","","","23.09999990463257","","","11","3752","661","&#9789;","elianto","#f73b6a7A"," "," ","1","0","[876.0999999046326]","1","0","4","","","","","","","",""
"pit-trial","86","837898","0.0-2.0-17.1-0.1","battery-v0.2","","""event"",""trial"",""time""
""fullscreenenter"",""1"",""138540""
","
","
","""event"",""trial"",""time""
""fullscreenenter"",""1"",""138540""
","
","","","184.5","","","11","3752","661","&#9789;","elianto","#f73b6a7A"," "," ","1","0","[1037.5]","1","0","4","","","","","","","",""
"pit-trial","87","841378","0.0-2.0-17.1-1.1","battery-v0.2","","""event"",""trial"",""time""
""fullscreenenter"",""1"",""138540""
","
","
","""event"",""trial"",""time""
""fullscreenenter"",""1"",""138540""
","
","","","616.2000000476837","","","11","3752","661","&#9789;","elianto","#f73b6a7A"," "," ","1","0","[721.7000000476837,1469.0999999046326]","2","0","4","","","","","","","",""
"pit-trial","88","844330","0.0-2.0-17.1-2.1","battery-v0.2","","""event"",""trial"",""time""
""fullscreenenter"",""1"",""138540""
","
","
","""event"",""trial"",""time""
""fullscreenenter"",""1"",""138540""
","
","","","89.20000004768372","","","11","3752","661","&#9789;","elianto","#f73b6a7A"," "," ","1","0","[943.0999999046326]","1","0","4","","","","","","","",""
"pit-trial","89","847346","0.0-2.0-17.1-3.1","battery-v0.2","","""event"",""trial"",""time""
""fullscreenenter"",""1"",""138540""
","
","
","""event"",""trial"",""time""
""fullscreenenter"",""1"",""138540""
","
","","","154.5","","","11","3752","661","&#9789;","elianto","#f73b6a7A"," "," ","1","-10","[1007.0999999046326]","1","0","4","","","","","","","",""
"pit-trial","90","850298","0.0-2.0-17.1-4.1","battery-v0.2","","""event"",""trial"",""time""
""fullscreenenter"",""1"",""138540""
","
","
","""event"",""trial"",""time""
""fullscreenenter"",""1"",""138540""
","
","","","87.09999990463257","","","11","3752","661","&#9789;","elianto","#f73b6a7A"," "," ","1","0","[940.3999998569489]","1","0","4","","","","","","","",""
"pit-trial","91","853346","0.0-2.0-17.2-0.2","battery-v0.2","","""event"",""trial"",""time""
""fullscreenenter"",""1"",""138540""
","
","
","""event"",""trial"",""time""
""fullscreenenter"",""1"",""138540""
","
","","","186.80000019073486","","","11","3752","661","&#9789;","elianto","#f73b6a7A"," "," ","1","0","[324.5,695,1039]","3","0","4","","","","","","","",""
"pit-trial","92","856233","0.0-2.0-17.2-1.2","battery-v0.2","","""event"",""trial"",""time""
""fullscreenenter"",""1"",""138540""
","
","
","""event"",""trial"",""time""
""fullscreenenter"",""1"",""138540""
","
","","","29.300000190734863","","","11","3752","661","&#9789;","elianto","#f73b6a7A"," "," ","1","0","[882]","1","0","4","","","","","","","",""
"pit-trial","93","859521","0.0-2.0-17.2-2.2","battery-v0.2","","""event"",""trial"",""time""
""fullscreenenter"",""1"",""138540""
","
","
","""event"",""trial"",""time""
""fullscreenenter"",""1"",""138540""
","
","","","422.59999990463257","","","11","3752","661","&#9789;","elianto","#f73b6a7A"," "," ","1","0","[849.7000000476837,1277.7999999523163]","2","0","4","","","","","","","",""
"pit-trial","94","862759","0.0-2.0-17.2-3.2","battery-v0.2","","""event"",""trial"",""time""
""fullscreenenter"",""1"",""138540""
","
","
","""event"",""trial"",""time""
""fullscreenenter"",""1"",""138540""
","
","","","367.7000000476837","","","11","3752","661","&#9789;","elianto","#f73b6a7A"," "," ","1","-10","[194,781.9000000953674,1221.1000001430511]","3","0","4","","","","","","","",""
"pit-trial","95","866138","0.0-2.0-17.2-4.2","battery-v0.2","","""event"",""trial"",""time""
""fullscreenenter"",""1"",""138540""
","
","
","""event"",""trial"",""time""
""fullscreenenter"",""1"",""138540""
","
","","","520.7999999523163","","","11","3752","661","&#9789;","elianto","#f73b6a7A"," "," ","1","0","[1374.5]","1","0","4","","","","","","","",""
"pit-trial","96","869546","0.0-2.0-17.3-0.3","battery-v0.2","","""event"",""trial"",""time""
""fullscreenenter"",""1"",""138540""
","
","
","""event"",""trial"",""time""
""fullscreenenter"",""1"",""138540""
","
","","","550.7000000476837","","","11","3752","661","&#9789;","elianto","#f73b6a7A"," "," ","1","0","[1401.6999998092651]","1","0","4","","","","","","","",""
"pit-trial","97","872659","0.0-2.0-17.3-1.3","battery-v0.2","","""event"",""trial"",""time""
""fullscreenenter"",""1"",""138540""
","
","
","""event"",""trial"",""time""
""fullscreenenter"",""1"",""138540""
","
","","","251.59999990463257","","","11","3752","661","&#9789;","elianto","#f73b6a7A"," "," ","1","0","[1103.5]","1","0","4","","","","","","","",""
"pit-trial","98","876682","0.0-2.0-17.3-2.3","battery-v0.2","","""event"",""trial"",""time""
""fullscreenenter"",""1"",""138540""
","
","
","""event"",""trial"",""time""
""fullscreenenter"",""1"",""138540""
","
","","","1163.2000000476837","","","11","3752","661","&#9789;","elianto","#f73b6a7A"," "," ","1","0","[2016.0999999046326]","1","0","4","","","","","","","",""
"pit-trial","99","880285","0.0-2.0-17.3-3.3","battery-v0.2","","""event"",""trial"",""time""
""fullscreenenter"",""1"",""138540""
","
","
","""event"",""trial"",""time""
""fullscreenenter"",""1"",""138540""
","
","","","738.7000000476837","","","11","3752","661","&#9789;","elianto","#f73b6a7A"," "," ","1","-10","[1593.7999999523163]","1","0","4","","","","","","","",""
"pit-trial","100","883604","0.0-2.0-17.3-4.3","battery-v0.2","","""event"",""trial"",""time""
""fullscreenenter"",""1"",""138540""
","
","
","""event"",""trial"",""time""
""fullscreenenter"",""1"",""138540""
","
","","","462.2999999523163","","","11","3752","661","&#9789;","elianto","#f73b6a7A"," "," ","1","0","[1314.7999999523163]","1","0","4","","","","","","","",""
"call-function","101","883607","0.0-2.0-18.0","battery-v0.2","","""event"",""trial"",""time""
""fullscreenenter"",""1"",""138540""
","
","
","""event"",""trial"",""time""
""fullscreenenter"",""1"",""138540""
","
","","","","","","","","","","","","","","","","","","","","","","","","","","",""
"pit-instructions","102","960645","0.0-2.0-19.0","battery-v0.2","","""event"",""trial"",""time""
""fullscreenenter"",""1"",""138540""
","
","
","""event"",""trial"",""time""
""fullscreenenter"",""1"",""138540""
","
","","[{""page_index"":0,""viewing_time"":7016.5},{""page_index"":1,""viewing_time"":7068.799999952316},{""page_index"":2,""viewing_time"":14977.900000095367},{""page_index"":3,""viewing_time"":10186.700000047684},{""page_index"":4,""viewing_time"":9501.399999856949},{""page_index"":5,""viewing_time"":8125},{""page_index"":6,""viewing_time"":8701},{""page_index"":7,""viewing_time"":6980.600000143051},{""page_index"":8,""viewing_time"":4477.599999904633}]","77036.10000014305","","","","","","","","","","","","","","","","","","","","","","","",""
"pit-comprehension","103","967001","0.0-2.0-20.0-0.0","battery-v0.2","","""event"",""trial"",""time""
""fullscreenenter"",""1"",""138540""
","
","
","""event"",""trial"",""time""
""fullscreenenter"",""1"",""138540""
","
","","","6349.700000047684","[""SPACE""]","0","11","3752","661","","","","","","","","","","","","","","","","","","",""
"pit-instructions","104","971625","0.0-2.0-20.0-1.0","battery-v0.2","","""event"",""trial"",""time""
""fullscreenenter"",""1"",""138540""
","
","
","""event"",""trial"",""time""
""fullscreenenter"",""1"",""138540""
","
","","[{""page_index"":0,""viewing_time"":4537.599999904633}]","4538.099999904633","","","","","","","","","","","","","","","","","","","","","","","",""
"pit-comprehension","105","980984","0.0-2.0-21.0-0.0","battery-v0.2","","""event"",""trial"",""time""
""fullscreenenter"",""1"",""138540""
","
","
","""event"",""trial"",""time""
""fullscreenenter"",""1"",""138540""
","
","","","9352.699999809265","[""10""]","0","11","3752","661","","","","","","","","","","","","","","","","","","",""
"pit-instructions","106","983328","0.0-2.0-21.0-1.0","battery-v0.2","","""event"",""trial"",""time""
""fullscreenenter"",""1"",""138540""
","
","
","""event"",""trial"",""time""
""fullscreenenter"",""1"",""138540""
","
","","[{""page_index"":0,""viewing_time"":2239.4000000953674}]","2240","","","","","","","","","","","","","","","","","","","","","","","",""
"pit-comprehension","107","990635","0.0-2.0-22.0-0.0","battery-v0.2","","""event"",""trial"",""time""
""fullscreenenter"",""1"",""138540""
","
","
","""event"",""trial"",""time""
""fullscreenenter"",""1"",""138540""
","
","","","7297.599999904633","[""0""]","0","11","3752","661","","","","","","","","","","","","","","","","","","",""
"pit-instructions","108","994436","0.0-2.0-22.0-1.0","battery-v0.2","","""event"",""trial"",""time""
""fullscreenenter"",""1"",""138540""
","
","
","""event"",""trial"",""time""
""fullscreenenter"",""1"",""138540""
","
","","[{""page_index"":0,""viewing_time"":3700.600000143051}]","3701","","","","","","","","","","","","","","","","","","","","","","","",""
"pit-comprehension","109","1007384","0.0-2.0-23.0-0.0","battery-v0.2","","""event"",""trial"",""time""
""fullscreenenter"",""1"",""138540""
","
","
","""event"",""trial"",""time""
""fullscreenenter"",""1"",""138540""
","
","","","12938.899999856949","[""False""]","1","11","3752","661","","","","","","","","","","","","","","","","","","",""
"pit-instructions","110","1012046","0.0-2.0-23.0-1.0","battery-v0.2","","""event"",""trial"",""time""
""fullscreenenter"",""1"",""138540""
","
","
","""event"",""trial"",""time""
""fullscreenenter"",""1"",""138540""
","
","","[{""page_index"":0,""viewing_time"":4563.399999856949}]","4564","","","","","","","","","","","","","","","","","","","","","","","",""
"pit-instructions","111","1013230","0.0-2.0-23.0-2.0-0.0","battery-v0.2","","""event"",""trial"",""time""
""fullscreenenter"",""1"",""138540""
","
","
","""event"",""trial"",""time""
""fullscreenenter"",""1"",""138540""
","
","","[{""page_index"":0,""viewing_time"":1177.3999998569489}]","1179.5","","","","","","","","","","","","","","","","","","","","","","","",""
"pit-comprehension","112","1022109","0.0-2.0-23.1-0.1","battery-v0.2","","""event"",""trial"",""time""
""fullscreenenter"",""1"",""138540""
","
","
","""event"",""trial"",""time""
""fullscreenenter"",""1"",""138540""
","
","","","8872.200000047684","[""True""]","0","11","3752","661","","","","","","","","","","","","","","","","","","",""
"pit-instructions","113","1024903","0.0-2.0-23.1-1.1","battery-v0.2","","""event"",""trial"",""time""
""fullscreenenter"",""1"",""138540""
","
","
","""event"",""trial"",""time""
""fullscreenenter"",""1"",""138540""
","
","","[{""page_index"":0,""viewing_time"":2675.5999999046326}]","2676.5999999046326","","","","","","","","","","","","","","","","","","","","","","","",""
"pit-comprehension","114","1033028","0.0-2.0-24.0-0.0","battery-v0.2","","""event"",""trial"",""time""
""fullscreenenter"",""1"",""138540""
","
","
","""event"",""trial"",""time""
""fullscreenenter"",""1"",""138540""
","
","","","8117.400000095367","[""False""]","1","11","3752","661","","","","","","","","","","","","","","","","","","",""
"pit-instructions","115","1038787","0.0-2.0-24.0-1.0","battery-v0.2","","""event"",""trial"",""time""
""fullscreenenter"",""1"",""138540""
","
","
","""event"",""trial"",""time""
""fullscreenenter"",""1"",""138540""
","
","","[{""page_index"":0,""viewing_time"":5665.100000143051}]","5665.600000143051","","","","","","","","","","","","","","","","","","","","","","","",""
"pit-instructions","116","1040205","0.0-2.0-24.0-2.0-0.0","battery-v0.2","","""event"",""trial"",""time""
""fullscreenenter"",""1"",""138540""
","
","
","""event"",""trial"",""time""
""fullscreenenter"",""1"",""138540""
","
","","[{""page_index"":0,""viewing_time"":1413.1000001430511}]","1413.7000000476837","","","","","","","","","","","","","","","","","","","","","","","",""
"pit-comprehension","117","1048056","0.0-2.0-24.1-0.1","battery-v0.2","","""event"",""trial"",""time""
""fullscreenenter"",""1"",""138540""
","
","
","""event"",""trial"",""time""
""fullscreenenter"",""1"",""138540""
","
","","","7845.199999809265","[""True""]","0","11","3752","661","","","","","","","","","","","","","","","","","","",""
"pit-instructions","118","1050256","0.0-2.0-24.1-1.1","battery-v0.2","","""event"",""trial"",""time""
""fullscreenenter"",""1"",""138540""
","
","
","""event"",""trial"",""time""
""fullscreenenter"",""1"",""138540""
","
","","[{""page_index"":0,""viewing_time"":2092.2999999523163}]","2093.399999856949","","","","","","","","","","","","","","","","","","","","","","","",""
"pit-comprehension","119","1059605","0.0-2.0-25.0-0.0","battery-v0.2","","""event"",""trial"",""time""
""fullscreenenter"",""1"",""138540""
","
","
","""event"",""trial"",""time""
""fullscreenenter"",""1"",""138540""
","
","","","9340.599999904633","[""True""]","0","11","3752","661","","","","","","","","","","","","","","","","","","",""
"pit-instructions","120","1064669","0.0-2.0-25.0-1.0","battery-v0.2","","""event"",""trial"",""time""
""fullscreenenter"",""1"",""138540""
","
","
","""event"",""trial"",""time""
""fullscreenenter"",""1"",""138540""
","
","","[{""page_index"":0,""viewing_time"":4966.700000047684}]","4967.5","","","","","","","","","","","","","","","","","","","","","","","",""
"pit-comprehension","121","1073334","0.0-2.0-26.0-0.0","battery-v0.2","","""event"",""trial"",""time""
""fullscreenenter"",""1"",""138540""
","
","
","""event"",""trial"",""time""
""fullscreenenter"",""1"",""138540""
","
","","","8656","[""False""]","0","11","3752","661","","","","","","","","","","","","","","","","","","",""
"pit-instructions","122","1076061","0.0-2.0-26.0-1.0","battery-v0.2","","""event"",""trial"",""time""
""fullscreenenter"",""1"",""138540""
","
","
","""event"",""trial"",""time""
""fullscreenenter"",""1"",""138540""
","
","","[{""page_index"":0,""viewing_time"":2626.899999856949}]","2628.5","","","","","","","","","","","","","","","","","","","","","","","",""
"pit-instructions","123","1095018","0.0-3.0","battery-v0.2","","""event"",""trial"",""time""
""fullscreenenter"",""1"",""138540""
","
","
","""event"",""trial"",""time""
""fullscreenenter"",""1"",""138540""
","
","","[{""page_index"":0,""viewing_time"":4461.799999952316},{""page_index"":1,""viewing_time"":5934.5},{""page_index"":2,""viewing_time"":8554.600000143051}]","18951.60000014305","","","","","","","","","","","","","","","","","","","","","","","",""
"pit-trial","124","1098618","0.0-4.0","battery-v0.2","","""event"",""trial"",""time""
""fullscreenenter"",""1"",""138540""
","
","
","""event"",""trial"",""time""
""fullscreenenter"",""1"",""138540""
","
","","","721.2999999523163","","","11","3752","661","&#9733;","elianto","#3366ff99","-1"," ","0","0","[1577.9000000953674]","1","1","","","3752","1","2","2","win","no-go","0"
"pit-trial","125","1102168","0.0-5.0","battery-v0.2","","""event"",""trial"",""time""
""fullscreenenter"",""1"",""138540""
","
","
","""event"",""trial"",""time""
""fullscreenenter"",""1"",""138540""
","
","","","686.7000000476837","","","11","3752","661","&#9730;","elianto","#3366ff99"," "," ","1","+10","[1538.7000000476837]","1","1","","","3752","2","1","1","win","go","0"
"pit-trial","126","1106033","0.0-6.0","battery-v0.2","","""event"",""trial"",""time""
""fullscreenenter"",""1"",""138540""
","
","
","""event"",""trial"",""time""
""fullscreenenter"",""1"",""138540""
","
","","","1005.2999999523163","","","11","3752","661","&#9752;","elianto","#f73b6a7A"," "," ","1","0","[1858.1000001430511]","1","1","","","3752","3","3","3","lose","go","0"
"pit-trial","127","1109593","0.0-7.0","battery-v0.2","","""event"",""trial"",""time""
""fullscreenenter"",""1"",""138540""
","
","
","""event"",""trial"",""time""
""fullscreenenter"",""1"",""138540""
","
","","","697.2999999523163","","","11","3752","661","&#9728;","elianto","#f73b6a7A","-1"," ","0","-10","[1549.4000000953674]","1","1","","","3752","4","0","4","lose","no-go","0"
"pit-trial","128","1113456","0.0-8.0","battery-v0.2","","""event"",""trial"",""time""
""fullscreenenter"",""1"",""138540""
","
","
","""event"",""trial"",""time""
""fullscreenenter"",""1"",""138540""
","
","","","1002.1000001430511","","","11","3752","661","&#9728;","elianto","#f73b6a7A","-1"," ","0","-10","[1853.7999999523163]","1","1","","","3752","5","0","4","lose","no-go","0"
"pit-trial","129","1117905","0.0-9.0","battery-v0.2","","""event"",""trial"",""time""
""fullscreenenter"",""1"",""138540""
","
","
","""event"",""trial"",""time""
""fullscreenenter"",""1"",""138540""
","
","","","1585.7000000476837","","","11","3752","661","&#9752;","elianto","#f73b6a7A"," "," ","1","0","[2438.600000143051]","1","1","","","3752","6","3","3","lose","go","0"
"pit-trial","130","1121955","0.0-10.0","battery-v0.2","","""event"",""trial"",""time""
""fullscreenenter"",""1"",""138540""
","
","
","""event"",""trial"",""time""
""fullscreenenter"",""1"",""138540""
","
","","","1190.5","","","11","3752","661","&#9730;","elianto","#3366ff99"," "," ","1","+10","[2043.5]","1","1","","","3752","7","1","1","win","go","0"
"pit-trial","131","1126819","0.0-11.0","battery-v0.2","","""event"",""trial"",""time""
""fullscreenenter"",""1"",""138540""
","
","
","""event"",""trial"",""time""
""fullscreenenter"",""1"",""138540""
","
","","","-1","","","11","3752","661","&#9733;","elianto","#3366ff99","-1","-1","1","+10","[]","0","1","","","3752","8","2","2","win","no-go","0"
"pit-trial","132","1130275","0.0-12.0","battery-v0.2","","""event"",""trial"",""time""
""fullscreenenter"",""1"",""138540""
","
","
","""event"",""trial"",""time""
""fullscreenenter"",""1"",""138540""
","
","","","597.7999999523163","","","11","3752","661","&#9733;","elianto","#3366ff99","-1"," ","0","0","[1449.7999999523163]","1","1","","","3752","9","2","2","win","no-go","0"
"pit-trial","133","1134555","0.0-13.0","battery-v0.2","","""event"",""trial"",""time""
""fullscreenenter"",""1"",""138540""
","
","
","""event"",""trial"",""time""
""fullscreenenter"",""1"",""138540""
","
","","","1420.7000000476837","","","11","3752","661","&#9752;","elianto","#f73b6a7A"," "," ","1","0","[2273.4000000953674]","1","1","","","3752","10","3","3","lose","go","0"
"pit-trial","134","1139418","0.0-14.0","battery-v0.2","","""event"",""trial"",""time""
""fullscreenenter"",""1"",""138540""
","
","
","""event"",""trial"",""time""
""fullscreenenter"",""1"",""138540""
","
","","","-1","","","11","3752","661","&#9728;","elianto","#f73b6a7A","-1","-1","1","0","[]","0","1","","","3752","11","0","4","lose","no-go","0"
"pit-trial","135","1143074","0.0-15.0","battery-v0.2","","""event"",""trial"",""time""
""fullscreenenter"",""1"",""138540""
","
","
","""event"",""trial"",""time""
""fullscreenenter"",""1"",""138540""
","
","","","795.5","","","11","3752","661","&#9730;","elianto","#3366ff99"," "," ","1","+10","[1647.3999998569489]","1","1","","","3752","12","1","1","win","go","0"
"pit-trial","136","1147419","0.0-16.0","battery-v0.2","","""event"",""trial"",""time""
""fullscreenenter"",""1"",""138540""
","
","
","""event"",""trial"",""time""
""fullscreenenter"",""1"",""138540""
","
","","","1480.1000001430511","","","11","3752","661","&#9752;","elianto","#f73b6a7A"," "," ","1","0","[2333]","1","1","","","3752","13","3","3","lose","go","0"
"pit-trial","137","1152283","0.0-17.0","battery-v0.2","","""event"",""trial"",""time""
""fullscreenenter"",""1"",""138540""
","
","
","""event"",""trial"",""time""
""fullscreenenter"",""1"",""138540""
","
","","","-1","","","11","3752","661","&#9728;","elianto","#f73b6a7A","-1","-1","1","-10","[]","0","1","","","3752","14","0","4","lose","no-go","1"
"pit-trial","138","1157147","0.0-18.0","battery-v0.2","","""event"",""trial"",""time""
""fullscreenenter"",""1"",""138540""
","
","
","""event"",""trial"",""time""
""fullscreenenter"",""1"",""138540""
","
","","","-1","","","11","3752","661","&#9733;","elianto","#3366ff99","-1","-1","1","+10","[]","0","1","","","3752","15","2","2","win","no-go","0"
"pit-trial","139","1160963","0.0-19.0","battery-v0.2","","""event"",""trial"",""time""
""fullscreenenter"",""1"",""138540""
","
","
","""event"",""trial"",""time""
""fullscreenenter"",""1"",""138540""
","
","","","942.5","","","11","3752","661","&#9730;","elianto","#3366ff99"," "," ","1","+10","[1808.2000000476837]","1","1","","","3752","16","1","1","win","go","0"
"pit-trial","140","1164723","0.0-20.0","battery-v0.2","","""event"",""trial"",""time""
""fullscreenenter"",""1"",""138540""
","
","
","""event"",""trial"",""time""
""fullscreenenter"",""1"",""138540""
","
","","","892.7999999523163","","","11","3752","661","&#9752;","elianto","#f73b6a7A"," "," ","1","0","[1748.5]","1","1","","","3752","17","3","3","lose","go","0"
"pit-trial","141","1169587","0.0-21.0","battery-v0.2","","""event"",""trial"",""time""
""fullscreenenter"",""1"",""138540""
","
","
","""event"",""trial"",""time""
""fullscreenenter"",""1"",""138540""
","
","","","-1","","","11","3752","661","&#9733;","elianto","#3366ff99","-1","-1","1","+10","[]","0","1","","","3752","18","2","2","win","no-go","0"
"pit-trial","142","1173490","0.0-22.0","battery-v0.2","","""event"",""trial"",""time""
""fullscreenenter"",""1"",""138540""
","
","
","""event"",""trial"",""time""
""fullscreenenter"",""1"",""138540""
","
","","","1041.5999999046326","","","11","3752","661","&#9730;","elianto","#3366ff99"," "," ","1","+10","[1894.0999999046326]","1","1","","","3752","19","1","1","win","go","0"
"pit-trial","143","1178355","0.0-23.0","battery-v0.2","","""event"",""trial"",""time""
""fullscreenenter"",""1"",""138540""
","
","
","""event"",""trial"",""time""
""fullscreenenter"",""1"",""138540""
","
","","","-1","","","11","3752","661","&#9728;","elianto","#f73b6a7A","-1","-1","1","0","[]","0","1","","","3752","20","0","4","lose","no-go","0"
"pit-instructions","144","1192172","0.0-24.0","battery-v0.2","","""event"",""trial"",""time""
""fullscreenenter"",""1"",""138540""
","
","
","""event"",""trial"",""time""
""fullscreenenter"",""1"",""138540""
","
","","[{""page_index"":0,""viewing_time"":6536.5},{""page_index"":1,""viewing_time"":7274.400000095367}]","13811.5","","","","","","","","","","","","","","","","","","","","","","","",""
"pit-trial","145","1195621","0.0-25.0","battery-v0.2","","""event"",""trial"",""time""
""fullscreenenter"",""1"",""138540""
","
","
","""event"",""trial"",""time""
""fullscreenenter"",""1"",""138540""
","
","","","578.9000000953674","","","11","3752","661","r","elianto","#3366ff99","-1"," ","0","0","[1433.7999999523163]","1","2","","","3752","21","1","2","win","no-go","0"
"pit-trial","146","1199564","0.0-26.0","battery-v0.2","","""event"",""trial"",""time""
""fullscreenenter"",""1"",""138540""
","
","
","""event"",""trial"",""time""
""fullscreenenter"",""1"",""138540""
","
","","","1087.3999998569489","","","11","3752","661","y","elianto","#f73b6a7A"," "," ","1","0","[1938.2999999523163]","1","2","","","3752","22","2","3","lose","go","0"
"pit-trial","147","1203412","0.0-27.0","battery-v0.2","","""event"",""trial"",""time""
""fullscreenenter"",""1"",""138540""
","
","
","""event"",""trial"",""time""
""fullscreenenter"",""1"",""138540""
","
","","","987.5999999046326","","","11","3752","661","h","elianto","#f73b6a7A","-1"," ","0","-10","[1839.5999999046326]","1","2","","","3752","23","3","4","lose","no-go","0"
"pit-trial","148","1207101","0.0-28.0","battery-v0.2","","""event"",""trial"",""time""
""fullscreenenter"",""1"",""138540""
","
","
","""event"",""trial"",""time""
""fullscreenenter"",""1"",""138540""
","
","","","830.6000001430511","","","11","3752","661","m","elianto","#f73b6a7A"," "," ","1","0","[1683.6999998092651]","1","2","","","3752","24","0","3","lose","go","0"
"pit-trial","149","1210884","0.0-29.0","battery-v0.2","","""event"",""trial"",""time""
""fullscreenenter"",""1"",""138540""
","
","
","""event"",""trial"",""time""
""fullscreenenter"",""1"",""138540""
","
","","","920.4000000953674","","","11","3752","661","m","elianto","#f73b6a7A"," "," ","1","-10","[1771.2000000476837]","1","2","","","3752","25","0","3","lose","go","1"
"pit-trial","150","1214388","0.0-30.0","battery-v0.2","","""event"",""trial"",""time""
""fullscreenenter"",""1"",""138540""
","
","
","""event"",""trial"",""time""
""fullscreenenter"",""1"",""138540""
","
","","","645.8999998569489","","","11","3752","661","h","elianto","#f73b6a7A","-1"," ","0","0","[1498.4000000953674]","1","2","","","3752","26","3","4","lose","no-go","1"
"pit-trial","151","1219252","0.0-31.0","battery-v0.2","","""event"",""trial"",""time""
""fullscreenenter"",""1"",""138540""
","
","
","""event"",""trial"",""time""
""fullscreenenter"",""1"",""138540""
","
","","","-1","","","11","3752","661","y","elianto","#f73b6a7A"," ","-1","0","-10","[]","0","2","","","3752","27","2","3","lose","go","0"
"pit-trial","152","1222644","0.0-32.0","battery-v0.2","","""event"",""trial"",""time""
""fullscreenenter"",""1"",""138540""
","
","
","""event"",""trial"",""time""
""fullscreenenter"",""1"",""138540""
","
","","","533.4000000953674","","","11","3752","661","r","elianto","#3366ff99","-1"," ","0","0","[1385.1000001430511]","1","2","","","3752","28","1","2","win","no-go","0"
"pit-trial","153","1226733","0.0-33.0","battery-v0.2","","""event"",""trial"",""time""
""fullscreenenter"",""1"",""138540""
","
","
","""event"",""trial"",""time""
""fullscreenenter"",""1"",""138540""
","
","","","1227.4000000953674","","","11","3752","661","y","elianto","#f73b6a7A"," "," ","1","0","[2079.300000190735]","1","2","","","3752","29","2","3","lose","go","0"
"pit-trial","154","1230676","0.0-34.0","battery-v0.2","","""event"",""trial"",""time""
""fullscreenenter"",""1"",""138540""
","
","
","""event"",""trial"",""time""
""fullscreenenter"",""1"",""138540""
","
","","","1081.7000000476837","","","11","3752","661","m","elianto","#f73b6a7A"," "," ","1","0","[1934.5]","1","2","","","3752","30","0","3","lose","go","0"
"pit-trial","155","1234492","0.0-35.0","battery-v0.2","","""event"",""trial"",""time""
""fullscreenenter"",""1"",""138540""
","
","
","""event"",""trial"",""time""
""fullscreenenter"",""1"",""138540""
","
","","","955","","","11","3752","661","h","elianto","#f73b6a7A","-1"," ","0","-10","[1807.5999999046326]","1","2","","","3752","31","3","4","lose","no-go","0"
"pit-trial","156","1237965","0.0-36.0","battery-v0.2","","""event"",""trial"",""time""
""fullscreenenter"",""1"",""138540""
","
","
","""event"",""trial"",""time""
""fullscreenenter"",""1"",""138540""
","
","","","609.2999999523163","","","11","3752","661","r","elianto","#3366ff99","-1"," ","0","0","[1461]","1","2","","","3752","32","1","2","win","no-go","0"
"pit-trial","157","1241501","0.0-37.0","battery-v0.2","","""event"",""trial"",""time""
""fullscreenenter"",""1"",""138540""
","
","
","""event"",""trial"",""time""
""fullscreenenter"",""1"",""138540""
","
","","","674.4000000953674","","","11","3752","661","r","elianto","#3366ff99","-1"," ","0","0","[1526.6000001430511]","1","2","","","3752","33","1","2","win","no-go","0"
"pit-trial","158","1245199","0.0-38.0","battery-v0.2","","""event"",""trial"",""time""
""fullscreenenter"",""1"",""138540""
","
","
","""event"",""trial"",""time""
""fullscreenenter"",""1"",""138540""
","
","","","831.4000000953674","","","11","3752","661","h","elianto","#f73b6a7A","-1"," ","0","-10","[1683.9000000953674]","1","2","","","3752","34","3","4","lose","no-go","0"
"pit-trial","159","1249342","0.0-39.0","battery-v0.2","","""event"",""trial"",""time""
""fullscreenenter"",""1"",""138540""
","
","
","""event"",""trial"",""time""
""fullscreenenter"",""1"",""138540""
","
","","","1277.5","","","11","3752","661","y","elianto","#f73b6a7A"," "," ","1","0","[2130.7000000476837]","1","2","","","3752","35","2","3","lose","go","0"
"pit-trial","160","1253174","0.0-40.0","battery-v0.2","","""event"",""trial"",""time""
""fullscreenenter"",""1"",""138540""
","
","
","""event"",""trial"",""time""
""fullscreenenter"",""1"",""138540""
","
","","","966.8999998569489","","","11","3752","661","m","elianto","#f73b6a7A"," "," ","1","0","[1822.0999999046326]","1","2","","","3752","36","0","3","lose","go","0"
"pit-trial","161","1258038","0.0-41.0","battery-v0.2","","""event"",""trial"",""time""
""fullscreenenter"",""1"",""138540""
","
","
","""event"",""trial"",""time""
""fullscreenenter"",""1"",""138540""
","
","","","-1","","","11","3752","661","h","elianto","#f73b6a7A","-1","-1","1","-10","[]","0","2","","","3752","37","3","4","lose","no-go","1"
"pit-trial","162","1261831","0.0-42.0","battery-v0.2","","""event"",""trial"",""time""
""fullscreenenter"",""1"",""138540""
","
","
","""event"",""trial"",""time""
""fullscreenenter"",""1"",""138540""
","
","","","929.7000000476837","","","11","3752","661","r","elianto","#3366ff99","-1"," ","0","+10","[1782.1999998092651]","1","2","","","3752","38","1","2","win","no-go","1"
"pit-trial","163","1265511","0.0-43.0","battery-v0.2","","""event"",""trial"",""time""
""fullscreenenter"",""1"",""138540""
","
","
","""event"",""trial"",""time""
""fullscreenenter"",""1"",""138540""
","
","","","819.1000001430511","","","11","3752","661","m","elianto","#f73b6a7A"," "," ","1","0","[1670.7999999523163]","1","2","","","3752","39","0","3","lose","go","0"
"pit-trial","164","1269671","0.0-44.0","battery-v0.2","","""event"",""trial"",""time""
""fullscreenenter"",""1"",""138540""
","
","
","""event"",""trial"",""time""
""fullscreenenter"",""1"",""138540""
","
","","","1298.5999999046326","","","11","3752","661","y","elianto","#f73b6a7A"," "," ","1","0","[2149.7999999523163]","1","2","","","3752","40","2","3","lose","go","0"
"pit-trial","165","1274535","0.0-45.0","battery-v0.2","","""event"",""trial"",""time""
""fullscreenenter"",""1"",""138540""
","
","
","""event"",""trial"",""time""
""fullscreenenter"",""1"",""138540""
","
","","","-1","","","11","3752","661","r","elianto","#3366ff99","-1","-1","1","+10","[]","0","2","","","3752","41","1","2","win","no-go","0"
"pit-trial","166","1278199","0.0-46.0","battery-v0.2","","""event"",""trial"",""time""
""fullscreenenter"",""1"",""138540""
","
","
","""event"",""trial"",""time""
""fullscreenenter"",""1"",""138540""
","
","","","805.5","","","11","3752","661","y","elianto","#f73b6a7A"," "," ","1","0","[1658.2999999523163]","1","2","","","3752","42","2","3","lose","go","0"
"pit-trial","167","1281950","0.0-47.0","battery-v0.2","","""event"",""trial"",""time""
""fullscreenenter"",""1"",""138540""
","
","
","""event"",""trial"",""time""
""fullscreenenter"",""1"",""138540""
","
","","","889.1000001430511","","","11","3752","661","h","elianto","#f73b6a7A","-1"," ","0","-10","[1740.7999999523163]","1","2","","","3752","43","3","4","lose","no-go","0"
"pit-trial","168","1285966","0.0-48.0","battery-v0.2","","""event"",""trial"",""time""
""fullscreenenter"",""1"",""138540""
","
","
","""event"",""trial"",""time""
""fullscreenenter"",""1"",""138540""
","
","","","1158.5","","","11","3752","661","m","elianto","#f73b6a7A"," "," ","1","0","[2010.5]","1","2","","","3752","44","0","3","lose","go","0"
"pit-trial","169","1289838","0.0-49.0","battery-v0.2","","""event"",""trial"",""time""
""fullscreenenter"",""1"",""138540""
","
","
","""event"",""trial"",""time""
""fullscreenenter"",""1"",""138540""
","
","","","1009.7999999523163","","","11","3752","661","r","elianto","#3366ff99","-1"," ","0","+10","[1865.3999998569489]","1","2","","","3752","45","1","2","win","no-go","1"
"pit-trial","170","1293502","0.0-50.0","battery-v0.2","","""event"",""trial"",""time""
""fullscreenenter"",""1"",""138540""
","
","
","""event"",""trial"",""time""
""fullscreenenter"",""1"",""138540""
","
","","","804.7000000476837","","","11","3752","661","m","elianto","#f73b6a7A"," "," ","1","0","[1657.6999998092651]","1","2","","","3752","46","0","3","lose","go","0"
"pit-trial","171","1297350","0.0-51.0","battery-v0.2","","""event"",""trial"",""time""
""fullscreenenter"",""1"",""138540""
","
","
","""event"",""trial"",""time""
""fullscreenenter"",""1"",""138540""
","
","","","987.9000000953674","","","11","3752","661","y","elianto","#f73b6a7A"," "," ","1","0","[1839.7000000476837]","1","2","","","3752","47","2","3","lose","go","0"
"pit-trial","172","1302215","0.0-52.0","battery-v0.2","","""event"",""trial"",""time""
""fullscreenenter"",""1"",""138540""
","
","
","""event"",""trial"",""time""
""fullscreenenter"",""1"",""138540""
","
","","","-1","","","11","3752","661","h","elianto","#f73b6a7A","-1","-1","1","0","[]","0","2","","","3752","48","3","4","lose","no-go","0"
"pit-trial","173","1307080","0.0-53.0","battery-v0.2","","""event"",""trial"",""time""
""fullscreenenter"",""1"",""138540""
","
","
","""event"",""trial"",""time""
""fullscreenenter"",""1"",""138540""
","
","","","-1","","","11","3752","661","h","elianto","#f73b6a7A","-1","-1","1","0","[]","0","2","","","3752","49","3","4","lose","no-go","0"
"pit-trial","174","1310817","0.0-54.0","battery-v0.2","","""event"",""trial"",""time""
""fullscreenenter"",""1"",""138540""
","
","
","""event"",""trial"",""time""
""fullscreenenter"",""1"",""138540""
","
","","","878","","","11","3752","661","r","elianto","#3366ff99","-1"," ","0","0","[1730.7000000476837]","1","2","","","3752","50","1","2","win","no-go","0"
"pit-trial","175","1314344","0.0-55.0","battery-v0.2","","""event"",""trial"",""time""
""fullscreenenter"",""1"",""138540""
","
","
","""event"",""trial"",""time""
""fullscreenenter"",""1"",""138540""
","
","","","666","","","11","3752","661","m","elianto","#f73b6a7A"," "," ","1","0","[1517.5999999046326]","1","2","","","3752","51","0","3","lose","go","0"
"pit-trial","176","1318160","0.0-56.0","battery-v0.2","","""event"",""trial"",""time""
""fullscreenenter"",""1"",""138540""
","
","
","""event"",""trial"",""time""
""fullscreenenter"",""1"",""138540""
","
","","","956.2000000476837","","","11","3752","661","y","elianto","#f73b6a7A"," "," ","1","0","[1807.5]","1","2","","","3752","52","2","3","lose","go","0"
"pit-trial","177","1321879","0.0-57.0","battery-v0.2","","""event"",""trial"",""time""
""fullscreenenter"",""1"",""138540""
","
","
","""event"",""trial"",""time""
""fullscreenenter"",""1"",""138540""
","
","","","854.7000000476837","","","11","3752","661","r","elianto","#3366ff99","-1"," ","0","0","[1707.2000000476837]","1","2","","","3752","53","1","2","win","no-go","0"
"pit-trial","178","1325336","0.0-58.0","battery-v0.2","","""event"",""trial"",""time""
""fullscreenenter"",""1"",""138540""
","
","
","""event"",""trial"",""time""
""fullscreenenter"",""1"",""138540""
","
","","","593.0999999046326","","","11","3752","661","m","elianto","#f73b6a7A"," "," ","1","0","[1446.9000000953674,1774]","2","2","","","3752","54","0","3","lose","go","0"
"pit-trial","179","1328584","0.0-59.0","battery-v0.2","","""event"",""trial"",""time""
""fullscreenenter"",""1"",""138540""
","
","
","""event"",""trial"",""time""
""fullscreenenter"",""1"",""138540""
","
","","","383.59999990463257","","","11","3752","661","y","elianto","#f73b6a7A"," "," ","1","-10","[1235.5999999046326]","1","2","","","3752","55","2","3","lose","go","1"
"pit-trial","180","1333448","0.0-60.0","battery-v0.2","","""event"",""trial"",""time""
""fullscreenenter"",""1"",""138540""
","
","
","""event"",""trial"",""time""
""fullscreenenter"",""1"",""138540""
","
","","","-1","","","11","3752","661","h","elianto","#f73b6a7A","-1","-1","1","0","[]","0","2","","","3752","56","3","4","lose","no-go","0"
"pit-trial","181","1338312","0.0-61.0","battery-v0.2","","""event"",""trial"",""time""
""fullscreenenter"",""1"",""138540""
","
","
","""event"",""trial"",""time""
""fullscreenenter"",""1"",""138540""
","
","","","-1","","","11","3752","661","h","elianto","#f73b6a7A","-1","-1","1","0","[]","0","2","","","3752","57","3","4","lose","no-go","0"
"pit-trial","182","1342184","0.0-62.0","battery-v0.2","","""event"",""trial"",""time""
""fullscreenenter"",""1"",""138540""
","
","
","""event"",""trial"",""time""
""fullscreenenter"",""1"",""138540""
","
","","","1008.9000000953674","","","11","3752","661","m","elianto","#f73b6a7A"," "," ","1","0","[1861.3999998569489]","1","2","","","3752","58","0","3","lose","go","0"
"pit-trial","183","1346264","0.0-63.0","battery-v0.2","","""event"",""trial"",""time""
""fullscreenenter"",""1"",""138540""
","
","
","""event"",""trial"",""time""
""fullscreenenter"",""1"",""138540""
","
","","","1216.9000000953674","","","11","3752","661","z","elianto","#3366ff99"," "," ","1","0","[2070.300000190735]","1","2","","","3752","59","4","1","win","go","1"
"pit-trial","184","1350120","0.0-64.0","battery-v0.2","","""event"",""trial"",""time""
""fullscreenenter"",""1"",""138540""
","
","
","""event"",""trial"",""time""
""fullscreenenter"",""1"",""138540""
","
","","","992.8000001907349","","","11","3752","661","y","elianto","#f73b6a7A"," "," ","1","0","[1844.0999999046326]","1","2","","","3752","60","2","3","lose","go","0"
"pit-trial","185","1354303","0.0-65.0","battery-v0.2","","""event"",""trial"",""time""
""fullscreenenter"",""1"",""138540""
","
","
","""event"",""trial"",""time""
""fullscreenenter"",""1"",""138540""
","
","","","1318","","","11","3752","661","r","elianto","#3366ff99","-1"," ","0","0","[2172.7999999523163]","1","2","","","3752","61","1","2","win","no-go","0"
"pit-trial","186","1359168","0.0-66.0","battery-v0.2","","""event"",""trial"",""time""
""fullscreenenter"",""1"",""138540""
","
","
","""event"",""trial"",""time""
""fullscreenenter"",""1"",""138540""
","
","","","-1","","","11","3752","661","h","elianto","#f73b6a7A","-1","-1","1","0","[]","0","2","","","3752","62","3","4","lose","no-go","0"
"pit-trial","187","1363488","0.0-67.0","battery-v0.2","","""event"",""trial"",""time""
""fullscreenenter"",""1"",""138540""
","
","
","""event"",""trial"",""time""
""fullscreenenter"",""1"",""138540""
","
","","","1455.7999999523163","","","11","3752","661","z","elianto","#3366ff99"," "," ","1","+10","[2313.5999999046326]","1","2","","","3752","63","4","1","win","go","0"
"pit-trial","188","1368354","0.0-68.0","battery-v0.2","","""event"",""trial"",""time""
""fullscreenenter"",""1"",""138540""
","
","
","""event"",""trial"",""time""
""fullscreenenter"",""1"",""138540""
","
","","","-1","","","11","3752","661","y","elianto","#f73b6a7A"," ","-1","0","-10","[2935.5]","1","2","","","3752","64","2","3","lose","go","0"
"pit-trial","189","1372907","0.0-69.0","battery-v0.2","","""event"",""trial"",""time""
""fullscreenenter"",""1"",""138540""
","
","
","""event"",""trial"",""time""
""fullscreenenter"",""1"",""138540""
","
","","","1691","","","11","3752","661","c","elianto","#3366ff99","-1"," ","0","+10","[2543.899999856949]","1","2","","","3752","65","5","2","win","no-go","1"
"pit-trial","190","1377770","0.0-70.0","battery-v0.2","","""event"",""trial"",""time""
""fullscreenenter"",""1"",""138540""
","
","
","""event"",""trial"",""time""
""fullscreenenter"",""1"",""138540""
","
","","","-1","","","11","3752","661","h","elianto","#f73b6a7A","-1","-1","1","-10","[3678.5999999046326]","1","2","","","3752","66","3","4","lose","no-go","1"
"pit-trial","191","1381426","0.0-71.0","battery-v0.2","","""event"",""trial"",""time""
""fullscreenenter"",""1"",""138540""
","
","
","""event"",""trial"",""time""
""fullscreenenter"",""1"",""138540""
","
","","","795.7000000476837","","","11","3752","661","z","elianto","#3366ff99"," "," ","1","0","[1647.5]","1","2","","","3752","67","4","1","win","go","1"
"pit-trial","192","1385153","0.0-72.0","battery-v0.2","","""event"",""trial"",""time""
""fullscreenenter"",""1"",""138540""
","
","
","""event"",""trial"",""time""
""fullscreenenter"",""1"",""138540""
","
","","","871.7000000476837","","","11","3752","661","r","elianto","#3366ff99","-1"," ","0","0","[1722.8999998569489]","1","2","","","3752","68","1","2","win","no-go","0"
"pit-trial","193","1389009","0.0-73.0","battery-v0.2","","""event"",""trial"",""time""
""fullscreenenter"",""1"",""138540""
","
","
","""event"",""trial"",""time""
""fullscreenenter"",""1"",""138540""
","
","","","997.0999999046326","","","11","3752","661","y","elianto","#f73b6a7A"," "," ","1","0","[1850]","1","2","","","3752","69","2","3","lose","go","0"
"pit-trial","194","1393874","0.0-74.0","battery-v0.2","","""event"",""trial"",""time""
""fullscreenenter"",""1"",""138540""
","
","
","""event"",""trial"",""time""
""fullscreenenter"",""1"",""138540""
","
","","","-1","","","11","3752","661","r","elianto","#3366ff99","-1","-1","1","+10","[]","0","2","","","3752","70","1","2","win","no-go","0"
"pit-trial","195","1397690","0.0-75.0","battery-v0.2","","""event"",""trial"",""time""
""fullscreenenter"",""1"",""138540""
","
","
","""event"",""trial"",""time""
""fullscreenenter"",""1"",""138540""
","
","","","955.5","","","11","3752","661","z","elianto","#3366ff99"," "," ","1","+10","[1807.5999999046326]","1","2","","","3752","71","4","1","win","go","0"
"pit-trial","196","1401186","0.0-76.0","battery-v0.2","","""event"",""trial"",""time""
""fullscreenenter"",""1"",""138540""
","
","
","""event"",""trial"",""time""
""fullscreenenter"",""1"",""138540""
","
","","","632.4000000953674","","","11","3752","661","c","elianto","#3366ff99","-1"," ","0","0","[1484.4000000953674]","1","2","","","3752","72","5","2","win","no-go","0"
"pit-trial","197","1404770","0.0-77.0","battery-v0.2","","""event"",""trial"",""time""
""fullscreenenter"",""1"",""138540""
","
","
","""event"",""trial"",""time""
""fullscreenenter"",""1"",""138540""
","
","","","724","","","11","3752","661","z","elianto","#3366ff99"," "," ","1","+10","[1576.7000000476837]","1","2","","","3752","73","4","1","win","go","0"
"pit-trial","198","1408394","0.0-78.0","battery-v0.2","","""event"",""trial"",""time""
""fullscreenenter"",""1"",""138540""
","
","
","""event"",""trial"",""time""
""fullscreenenter"",""1"",""138540""
","
","","","765.2999999523163","","","11","3752","661","c","elianto","#3366ff99","-1"," ","0","0","[1616.5999999046326]","1","2","","","3752","74","5","2","win","no-go","0"
"pit-trial","199","1412330","0.0-79.0","battery-v0.2","","""event"",""trial"",""time""
""fullscreenenter"",""1"",""138540""
","
","
","""event"",""trial"",""time""
""fullscreenenter"",""1"",""138540""
","
","","","1073.7999999523163","","","11","3752","661","h","elianto","#f73b6a7A","-1"," ","0","0","[1926.3999998569489]","1","2","","","3752","75","3","4","lose","no-go","1"
"pit-trial","200","1416282","0.0-80.0","battery-v0.2","","""event"",""trial"",""time""
""fullscreenenter"",""1"",""138540""
","
","
","""event"",""trial"",""time""
""fullscreenenter"",""1"",""138540""
","
","","","1091.2000000476837","","","11","3752","661","r","elianto","#3366ff99","-1"," ","0","0","[1944.5]","1","2","","","3752","76","1","2","win","no-go","0"
"pit-trial","201","1420145","0.0-81.0","battery-v0.2","","""event"",""trial"",""time""
""fullscreenenter"",""1"",""138540""
","
","
","""event"",""trial"",""time""
""fullscreenenter"",""1"",""138540""
","
","","","1001.1000001430511","","","11","3752","661","z","elianto","#3366ff99"," "," ","1","0","[1852.7999999523163]","1","2","","","3752","77","4","1","win","go","1"
"pit-trial","202","1423497","0.0-82.0","battery-v0.2","","""event"",""trial"",""time""
""fullscreenenter"",""1"",""138540""
","
","
","""event"",""trial"",""time""
""fullscreenenter"",""1"",""138540""
","
","","","488.2999999523163","","","11","3752","661","c","elianto","#3366ff99","-1"," ","0","0","[1340]","1","2","","","3752","78","5","2","win","no-go","0"
"pit-trial","203","1427714","0.0-83.0","battery-v0.2","","""event"",""trial"",""time""
""fullscreenenter"",""1"",""138540""
","
","
","""event"",""trial"",""time""
""fullscreenenter"",""1"",""138540""
","
","","","1355.0999999046326","","","11","3752","661","h","elianto","#f73b6a7A","-1"," ","0","-10","[2206.5999999046326]","1","2","","","3752","79","3","4","lose","no-go","0"
"pit-trial","204","1431492","0.0-84.0","battery-v0.2","","""event"",""trial"",""time""
""fullscreenenter"",""1"",""138540""
","
","
","""event"",""trial"",""time""
""fullscreenenter"",""1"",""138540""
","
","","","919.1000001430511","","","11","3752","661","z","elianto","#3366ff99"," "," ","1","+10","[1770.6000001430511]","1","2","","","3752","80","4","1","win","go","0"
"pit-trial","205","1436357","0.0-85.0","battery-v0.2","","""event"",""trial"",""time""
""fullscreenenter"",""1"",""138540""
","
","
","""event"",""trial"",""time""
""fullscreenenter"",""1"",""138540""
","
","","","-1","","","11","3752","661","h","elianto","#f73b6a7A","-1","-1","1","-10","[]","0","2","","","3752","81","3","4","lose","no-go","1"
"pit-trial","206","1440212","0.0-86.0","battery-v0.2","","""event"",""trial"",""time""
""fullscreenenter"",""1"",""138540""
","
","
","""event"",""trial"",""time""
""fullscreenenter"",""1"",""138540""
","
","","","991.2000000476837","","","11","3752","661","z","elianto","#3366ff99"," "," ","1","+10","[1842.7999999523163]","1","2","","","3752","82","4","1","win","go","0"
"pit-trial","207","1444612","0.0-87.0","battery-v0.2","","""event"",""trial"",""time""
""fullscreenenter"",""1"",""138540""
","
","
","""event"",""trial"",""time""
""fullscreenenter"",""1"",""138540""
","
","","","1534.8999998569489","","","11","3752","661","c","elianto","#3366ff99","-1"," ","0","0","[2386.5]","1","2","","","3752","83","5","2","win","no-go","0"
"pit-trial","208","1448612","0.0-88.0","battery-v0.2","","""event"",""trial"",""time""
""fullscreenenter"",""1"",""138540""
","
","
","""event"",""trial"",""time""
""fullscreenenter"",""1"",""138540""
","
","","","1134.7999999523163","","","11","3752","661","t","elianto","#f73b6a7A","-1"," ","0","0","[1987.6999998092651]","1","2","","","3752","84","7","4","lose","no-go","1"
"pit-trial","209","1452404","0.0-89.0","battery-v0.2","","""event"",""trial"",""time""
""fullscreenenter"",""1"",""138540""
","
","
","""event"",""trial"",""time""
""fullscreenenter"",""1"",""138540""
","
","","","927.0999999046326","","","11","3752","661","z","elianto","#3366ff99"," "," ","1","+10","[1779.5]","1","2","","","3752","85","4","1","win","go","0"
"pit-trial","210","1456140","0.0-90.0","battery-v0.2","","""event"",""trial"",""time""
""fullscreenenter"",""1"",""138540""
","
","
","""event"",""trial"",""time""
""fullscreenenter"",""1"",""138540""
","
","","","873.2000000476837","","","11","3752","661","t","elianto","#f73b6a7A","-1"," ","0","-10","[1725.2999999523163]","1","2","","","3752","86","7","4","lose","no-go","0"
"pit-trial","211","1460148","0.0-91.0","battery-v0.2","","""event"",""trial"",""time""
""fullscreenenter"",""1"",""138540""
","
","
","""event"",""trial"",""time""
""fullscreenenter"",""1"",""138540""
","
","","","1143.8999998569489","","","11","3752","661","b","elianto","#f73b6a7A"," "," ","1","0","[1996.5]","1","2","","","3752","87","6","3","lose","go","0"
"pit-trial","212","1463876","0.0-92.0","battery-v0.2","","""event"",""trial"",""time""
""fullscreenenter"",""1"",""138540""
","
","
","""event"",""trial"",""time""
""fullscreenenter"",""1"",""138540""
","
","","","867.2000000476837","","","11","3752","661","c","elianto","#3366ff99","-1"," ","0","+10","[1722.2000000476837]","1","2","","","3752","88","5","2","win","no-go","1"
"pit-trial","213","1468012","0.0-93.0","battery-v0.2","","""event"",""trial"",""time""
""fullscreenenter"",""1"",""138540""
","
","
","""event"",""trial"",""time""
""fullscreenenter"",""1"",""138540""
","
","","","1274.7000000476837","","","11","3752","661","c","elianto","#3366ff99","-1"," ","0","0","[2125.899999856949]","1","2","","","3752","89","5","2","win","no-go","0"
"pit-trial","214","1471853","0.0-94.0","battery-v0.2","","""event"",""trial"",""time""
""fullscreenenter"",""1"",""138540""
","
","
","""event"",""trial"",""time""
""fullscreenenter"",""1"",""138540""
","
","","","976.4000000953674","","","11","3752","661","z","elianto","#3366ff99"," "," ","1","+10","[1828.2999999523163]","1","2","","","3752","90","4","1","win","go","0"
"pit-trial","215","1476716","0.0-95.0","battery-v0.2","","""event"",""trial"",""time""
""fullscreenenter"",""1"",""138540""
","
","
","""event"",""trial"",""time""
""fullscreenenter"",""1"",""138540""
","
","","","-1","","","11","3752","661","t","elianto","#f73b6a7A","-1","-1","1","0","[]","0","2","","","3752","91","7","4","lose","no-go","0"
"pit-trial","216","1480708","0.0-96.0","battery-v0.2","","""event"",""trial"",""time""
""fullscreenenter"",""1"",""138540""
","
","
","""event"",""trial"",""time""
""fullscreenenter"",""1"",""138540""
","
","","","1132.8999998569489","","","11","3752","661","b","elianto","#f73b6a7A"," "," ","1","0","[1985.5999999046326]","1","2","","","3752","92","6","3","lose","go","0"
"pit-trial","217","1485269","0.0-97.0","battery-v0.2","","""event"",""trial"",""time""
""fullscreenenter"",""1"",""138540""
","
","
","""event"",""trial"",""time""
""fullscreenenter"",""1"",""138540""
","
","","","1698.7999999523163","","","11","3752","661","b","elianto","#f73b6a7A"," "," ","1","0","[2550.2999999523163]","1","2","","","3752","93","6","3","lose","go","0"
"pit-trial","218","1490134","0.0-98.0","battery-v0.2","","""event"",""trial"",""time""
""fullscreenenter"",""1"",""138540""
","
","
","""event"",""trial"",""time""
""fullscreenenter"",""1"",""138540""
","
","","","-1","","","11","3752","661","t","elianto","#f73b6a7A","-1","-1","1","0","[]","0","2","","","3752","94","7","4","lose","no-go","0"
"pit-trial","219","1494061","0.0-99.0","battery-v0.2","","""event"",""trial"",""time""
""fullscreenenter"",""1"",""138540""
","
","
","""event"",""trial"",""time""
""fullscreenenter"",""1"",""138540""
","
","","","1062.7000000476837","","","11","3752","661","c","elianto","#3366ff99","-1"," ","0","0","[1913]","1","2","","","3752","95","5","2","win","no-go","0"
"pit-trial","220","1497693","0.0-100.0","battery-v0.2","","""event"",""trial"",""time""
""fullscreenenter"",""1"",""138540""
","
","
","""event"",""trial"",""time""
""fullscreenenter"",""1"",""138540""
","
","","","771","","","11","3752","661","f","elianto","#3366ff99"," "," ","1","+10","[1622.6000001430511]","1","2","","","3752","96","8","1","win","go","0"
"pit-trial","221","1501597","0.0-101.0","battery-v0.2","","""event"",""trial"",""time""
""fullscreenenter"",""1"",""138540""
","
","
","""event"",""trial"",""time""
""fullscreenenter"",""1"",""138540""
","
","","","1047.1000001430511","","","11","3752","661","b","elianto","#f73b6a7A"," "," ","1","0","[1898.8000001907349]","1","2","","","3752","97","6","3","lose","go","0"
"pit-trial","222","1505621","0.0-102.0","battery-v0.2","","""event"",""trial"",""time""
""fullscreenenter"",""1"",""138540""
","
","
","""event"",""trial"",""time""
""fullscreenenter"",""1"",""138540""
","
","","","1165.0999999046326","","","11","3752","661","t","elianto","#f73b6a7A","-1"," ","0","-10","[2016.2999999523163]","1","2","","","3752","98","7","4","lose","no-go","0"
"pit-trial","223","1509317","0.0-103.0","battery-v0.2","","""event"",""trial"",""time""
""fullscreenenter"",""1"",""138540""
","
","
","""event"",""trial"",""time""
""fullscreenenter"",""1"",""138540""
","
","","","836.8000001907349","","","11","3752","661","c","elianto","#3366ff99","-1"," ","0","0","[1689.4000000953674]","1","2","","","3752","99","5","2","win","no-go","0"
"pit-trial","224","1513021","0.0-104.0","battery-v0.2","","""event"",""trial"",""time""
""fullscreenenter"",""1"",""138540""
","
","
","""event"",""trial"",""time""
""fullscreenenter"",""1"",""138540""
","
","","","842.8999998569489","","","11","3752","661","f","elianto","#3366ff99"," "," ","1","+10","[1694.2000000476837]","1","2","","","3752","100","8","1","win","go","0"
"pit-trial","225","1517053","0.0-105.0","battery-v0.2","","""event"",""trial"",""time""
""fullscreenenter"",""1"",""138540""
","
","
","""event"",""trial"",""time""
""fullscreenenter"",""1"",""138540""
","
","","","1167.2999999523163","","","11","3752","661","n","elianto","#3366ff99"," "," ","1","0","[2018.7000000476837]","1","2","","","3752","101","9","1","win","go","1"
"pit-trial","226","1520797","0.0-106.0","battery-v0.2","","""event"",""trial"",""time""
""fullscreenenter"",""1"",""138540""
","
","
","""event"",""trial"",""time""
""fullscreenenter"",""1"",""138540""
","
","","","879.0999999046326","","","11","3752","661","f","elianto","#3366ff99"," "," ","1","0","[1732]","1","2","","","3752","102","8","1","win","go","1"
"pit-trial","227","1524550","0.0-107.0","battery-v0.2","","""event"",""trial"",""time""
""fullscreenenter"",""1"",""138540""
","
","
","""event"",""trial"",""time""
""fullscreenenter"",""1"",""138540""
","
","","","892.7999999523163","","","11","3752","661","t","elianto","#f73b6a7A","-1"," ","0","-10","[1744.6000001430511]","1","2","","","3752","103","7","4","lose","no-go","0"
"pit-trial","228","1529389","0.0-108.0","battery-v0.2","","""event"",""trial"",""time""
""fullscreenenter"",""1"",""138540""
","
","
","""event"",""trial"",""time""
""fullscreenenter"",""1"",""138540""
","
","","","1979.9000000953674","","","11","3752","661","c","elianto","#3366ff99","-1"," ","0","0","[2833.7999999523163]","1","2","","","3752","104","5","2","win","no-go","0"
"pit-trial","229","1534253","0.0-109.0","battery-v0.2","","""event"",""trial"",""time""
""fullscreenenter"",""1"",""138540""
","
","
","""event"",""trial"",""time""
""fullscreenenter"",""1"",""138540""
","
","","","-1","","","11","3752","661","b","elianto","#f73b6a7A"," ","-1","0","-10","[]","0","2","","","3752","105","6","3","lose","go","0"
"pit-trial","230","1538614","0.0-110.0","battery-v0.2","","""event"",""trial"",""time""
""fullscreenenter"",""1"",""138540""
","
","
","""event"",""trial"",""time""
""fullscreenenter"",""1"",""138540""
","
","","","1496.2000000476837","","","11","3752","661","n","elianto","#3366ff99"," "," ","1","+10","[2348.4000000953674]","1","2","","","3752","106","9","1","win","go","0"
"pit-trial","231","1542430","0.0-111.0","battery-v0.2","","""event"",""trial"",""time""
""fullscreenenter"",""1"",""138540""
","
","
","""event"",""trial"",""time""
""fullscreenenter"",""1"",""138540""
","
","","","958.0999999046326","","","11","3752","661","z","elianto","#3366ff99"," "," ","1","+10","[1809.2999999523163]","1","2","","","3752","107","4","1","win","go","0"
"pit-trial","232","1547270","0.0-112.0","battery-v0.2","","""event"",""trial"",""time""
""fullscreenenter"",""1"",""138540""
","
","
","""event"",""trial"",""time""
""fullscreenenter"",""1"",""138540""
","
","","","1976.3999998569489","","","11","3752","661","f","elianto","#3366ff99"," "," ","1","0","[2829]","1","2","","","3752","108","8","1","win","go","1"
"pit-trial","233","1550879","0.0-113.0","battery-v0.2","","""event"",""trial"",""time""
""fullscreenenter"",""1"",""138540""
","
","
","""event"",""trial"",""time""
""fullscreenenter"",""1"",""138540""
","
","","","744.5","","","11","3752","661","c","elianto","#3366ff99","-1"," ","0","0","[1596.6000001430511]","1","2","","","3752","109","5","2","win","no-go","0"
"pit-trial","234","1554391","0.0-114.0","battery-v0.2","","""event"",""trial"",""time""
""fullscreenenter"",""1"",""138540""
","
","
","""event"",""trial"",""time""
""fullscreenenter"",""1"",""138540""
","
","","","650.3999998569489","","","11","3752","661","n","elianto","#3366ff99"," "," ","1","+10","[1502.2999999523163,2603.100000143051]","2","2","","","3752","110","9","1","win","go","0"
"pit-trial","235","1559255","0.0-115.0","battery-v0.2","","""event"",""trial"",""time""
""fullscreenenter"",""1"",""138540""
","
","
","""event"",""trial"",""time""
""fullscreenenter"",""1"",""138540""
","
","","","-1","","","11","3752","661","b","elianto","#f73b6a7A"," ","-1","0","-10","[293.2000000476837,495]","2","2","","","3752","111","6","3","lose","go","0"
"pit-trial","236","1564119","0.0-116.0","battery-v0.2","","""event"",""trial"",""time""
""fullscreenenter"",""1"",""138540""
","
","
","""event"",""trial"",""time""
""fullscreenenter"",""1"",""138540""
","
","","","-1","","","11","3752","661","f","elianto","#3366ff99"," ","-1","0","0","[]","0","2","","","3752","112","8","1","win","go","0"
"pit-trial","237","1568927","0.0-117.0","battery-v0.2","","""event"",""trial"",""time""
""fullscreenenter"",""1"",""138540""
","
","
","""event"",""trial"",""time""
""fullscreenenter"",""1"",""138540""
","
","","","1945.2000000476837","","","11","3752","661","f","elianto","#3366ff99"," "," ","1","+10","[2796.9000000953674]","1","2","","","3752","113","8","1","win","go","0"
"pit-trial","238","1572919","0.0-118.0","battery-v0.2","","""event"",""trial"",""time""
""fullscreenenter"",""1"",""138540""
","
","
","""event"",""trial"",""time""
""fullscreenenter"",""1"",""138540""
","
","","","1132.8000001907349","","","11","3752","661","c","elianto","#3366ff99","-1"," ","0","0","[1986.0999999046326]","1","2","","","3752","114","5","2","win","no-go","0"
"pit-trial","239","1577295","0.0-119.0","battery-v0.2","","""event"",""trial"",""time""
""fullscreenenter"",""1"",""138540""
","
","
","""event"",""trial"",""time""
""fullscreenenter"",""1"",""138540""
","
","","","1515.5","","","11","3752","661","n","elianto","#3366ff99"," "," ","1","+10","[2368.600000143051]","1","2","","","3752","115","9","1","win","go","0"
"pit-trial","240","1582159","0.0-120.0","battery-v0.2","","""event"",""trial"",""time""
""fullscreenenter"",""1"",""138540""
","
","
","""event"",""trial"",""time""
""fullscreenenter"",""1"",""138540""
","
","","","-1","","","11","3752","661","b","elianto","#f73b6a7A"," ","-1","0","-10","[]","0","2","","","3752","116","6","3","lose","go","0"
"pit-trial","241","1585960","0.0-121.0","battery-v0.2","","""event"",""trial"",""time""
""fullscreenenter"",""1"",""138540""
","
","
","""event"",""trial"",""time""
""fullscreenenter"",""1"",""138540""
","
","","","938.2000000476837","","","11","3752","661","f","elianto","#3366ff99"," "," ","1","+10","[1790.7000000476837]","1","2","","","3752","117","8","1","win","go","0"
"pit-trial","242","1590552","0.0-122.0","battery-v0.2","","""event"",""trial"",""time""
""fullscreenenter"",""1"",""138540""
","
","
","""event"",""trial"",""time""
""fullscreenenter"",""1"",""138540""
","
","","","1731.8999998569489","","","11","3752","661","n","elianto","#3366ff99"," "," ","1","+10","[2583.7999999523163]","1","2","","","3752","118","9","1","win","go","0"
"pit-trial","243","1595416","0.0-123.0","battery-v0.2","","""event"",""trial"",""time""
""fullscreenenter"",""1"",""138540""
","
","
","""event"",""trial"",""time""
""fullscreenenter"",""1"",""138540""
","
","","","-1","","","11","3752","661","b","elianto","#f73b6a7A"," ","-1","0","0","[]","0","2","","","3752","119","6","3","lose","go","1"
"pit-trial","244","1600111","0.0-124.0","battery-v0.2","","""event"",""trial"",""time""
""fullscreenenter"",""1"",""138540""
","
","
","""event"",""trial"",""time""
""fullscreenenter"",""1"",""138540""
","
","","","1836.3000001907349","","","11","3752","661","c","elianto","#3366ff99","-1"," ","0","0","[2686.5]","1","2","","","3752","120","5","2","win","no-go","0"
"pit-trial","245","1604071","0.0-125.0","battery-v0.2","","""event"",""trial"",""time""
""fullscreenenter"",""1"",""138540""
","
","
","""event"",""trial"",""time""
""fullscreenenter"",""1"",""138540""
","
","","","1100","","","11","3752","661","f","elianto","#3366ff99"," "," ","1","+10","[1952]","1","2","","","3752","121","8","1","win","go","0"
"pit-trial","246","1607695","0.0-126.0","battery-v0.2","","""event"",""trial"",""time""
""fullscreenenter"",""1"",""138540""
","
","
","""event"",""trial"",""time""
""fullscreenenter"",""1"",""138540""
","
","","","760.2999999523163","","","11","3752","661","t","elianto","#f73b6a7A","-1"," ","0","-10","[1613.3999998569489]","1","2","","","3752","122","7","4","lose","no-go","0"
"pit-trial","247","1612097","0.0-127.0","battery-v0.2","","""event"",""trial"",""time""
""fullscreenenter"",""1"",""138540""
","
","
","""event"",""trial"",""time""
""fullscreenenter"",""1"",""138540""
","
","","","1536.3999998569489","","","11","3752","661","b","elianto","#f73b6a7A"," "," ","1","-10","[2389.399999856949]","1","2","","","3752","123","6","3","lose","go","1"
"pit-trial","248","1616057","0.0-128.0","battery-v0.2","","""event"",""trial"",""time""
""fullscreenenter"",""1"",""138540""
","
","
","""event"",""trial"",""time""
""fullscreenenter"",""1"",""138540""
","
","","","1099.8000001907349","","","11","3752","661","n","elianto","#3366ff99"," "," ","1","0","[1951.9000000953674]","1","2","","","3752","124","9","1","win","go","1"
"pit-trial","249","1619905","0.0-129.0","battery-v0.2","","""event"",""trial"",""time""
""fullscreenenter"",""1"",""138540""
","
","
","""event"",""trial"",""time""
""fullscreenenter"",""1"",""138540""
","
","","","990.6000001430511","","","11","3752","661","n","elianto","#3366ff99"," "," ","1","+10","[1841]","1","2","","","3752","125","9","1","win","go","0"
"pit-trial","250","1623665","0.0-130.0","battery-v0.2","","""event"",""trial"",""time""
""fullscreenenter"",""1"",""138540""
","
","
","""event"",""trial"",""time""
""fullscreenenter"",""1"",""138540""
","
","","","903.5999999046326","","","11","3752","661","t","elianto","#f73b6a7A","-1"," ","0","-10","[1756.4000000953674]","1","2","","","3752","126","7","4","lose","no-go","0"
"pit-trial","251","1627297","0.0-131.0","battery-v0.2","","""event"",""trial"",""time""
""fullscreenenter"",""1"",""138540""
","
","
","""event"",""trial"",""time""
""fullscreenenter"",""1"",""138540""
","
","","","770.5999999046326","","","11","3752","661","f","elianto","#3366ff99"," "," ","1","+10","[1624.0999999046326]","1","2","","","3752","127","8","1","win","go","0"
"pit-trial","252","1631016","0.0-132.0","battery-v0.2","","""event"",""trial"",""time""
""fullscreenenter"",""1"",""138540""
","
","
","""event"",""trial"",""time""
""fullscreenenter"",""1"",""138540""
","
","","","859.7000000476837","","","11","3752","661","b","elianto","#f73b6a7A"," "," ","1","-10","[1711.4000000953674]","1","2","","","3752","128","6","3","lose","go","1"
"pit-trial","253","1634576","0.0-133.0","battery-v0.2","","""event"",""trial"",""time""
""fullscreenenter"",""1"",""138540""
","
","
","""event"",""trial"",""time""
""fullscreenenter"",""1"",""138540""
","
","","","697.3000001907349","","","11","3752","661","n","elianto","#3366ff99"," "," ","1","+10","[1549.8999998569489]","1","2","","","3752","129","9","1","win","go","0"
"pit-trial","254","1638697","0.0-134.0","battery-v0.2","","""event"",""trial"",""time""
""fullscreenenter"",""1"",""138540""
","
","
","""event"",""trial"",""time""
""fullscreenenter"",""1"",""138540""
","
","","","1258.0999999046326","","","11","3752","661","f","elianto","#3366ff99"," "," ","1","+10","[2110]","1","2","","","3752","130","8","1","win","go","0"
"pit-trial","255","1643562","0.0-135.0","battery-v0.2","","""event"",""trial"",""time""
""fullscreenenter"",""1"",""138540""
","
","
","""event"",""trial"",""time""
""fullscreenenter"",""1"",""138540""
","
","","","-1","","","11","3752","661","t","elianto","#f73b6a7A","-1","-1","1","0","[]","0","2","","","3752","131","7","4","lose","no-go","0"
"pit-trial","256","1648425","0.0-136.0","battery-v0.2","","""event"",""trial"",""time""
""fullscreenenter"",""1"",""138540""
","
","
","""event"",""trial"",""time""
""fullscreenenter"",""1"",""138540""
","
","","","-1","","","11","3752","661","b","elianto","#f73b6a7A"," ","-1","0","-10","[]","0","2","","","3752","132","6","3","lose","go","0"
"pit-trial","257","1652305","0.0-137.0","battery-v0.2","","""event"",""trial"",""time""
""fullscreenenter"",""1"",""138540""
","
","
","""event"",""trial"",""time""
""fullscreenenter"",""1"",""138540""
","
","","","1020.5","","","11","3752","661","n","elianto","#3366ff99"," "," ","1","+10","[1872.9000000953674]","1","2","","","3752","133","9","1","win","go","0"
"pit-trial","258","1657169","0.0-138.0","battery-v0.2","","""event"",""trial"",""time""
""fullscreenenter"",""1"",""138540""
","
","
","""event"",""trial"",""time""
""fullscreenenter"",""1"",""138540""
","
","","","-1","","","11","3752","661","b","elianto","#f73b6a7A"," ","-1","0","0","[]","0","2","","","3752","134","6","3","lose","go","1"
"pit-trial","259","1662033","0.0-139.0","battery-v0.2","","""event"",""trial"",""time""
""fullscreenenter"",""1"",""138540""
","
","
","""event"",""trial"",""time""
""fullscreenenter"",""1"",""138540""
","
","","","-1","","","11","3752","661","t","elianto","#f73b6a7A","-1","-1","1","0","[]","0","2","","","3752","135","7","4","lose","no-go","0"
"pit-trial","260","1665984","0.0-140.0","battery-v0.2","","""event"",""trial"",""time""
""fullscreenenter"",""1"",""138540""
","
","
","""event"",""trial"",""time""
""fullscreenenter"",""1"",""138540""
","
","","","1092.3000001907349","","","11","3752","661","f","elianto","#3366ff99"," "," ","1","+10","[1943.8999998569489]","1","2","","","3752","136","8","1","win","go","0"
"pit-trial","261","1670121","0.0-141.0","battery-v0.2","","""event"",""trial"",""time""
""fullscreenenter"",""1"",""138540""
","
","
","""event"",""trial"",""time""
""fullscreenenter"",""1"",""138540""
","
","","","1278","","","11","3752","661","b","elianto","#f73b6a7A"," "," ","1","0","[2130.5]","1","2","","","3752","137","6","3","lose","go","0"
"pit-trial","262","1674987","0.0-142.0","battery-v0.2","","""event"",""trial"",""time""
""fullscreenenter"",""1"",""138540""
","
","
","""event"",""trial"",""time""
""fullscreenenter"",""1"",""138540""
","
