"trial_type","trial_index","time_elapsed","internal_node_id","task_version","subject_id","interactions","blur_events","focus_events","fullscreenenter_events","fullscreenexit_events","success","view_history","rt","responses","num_errors","age","subject","participantId","rune","rune_set","hex","correct","choice","accuracy","outcome","keys","total_keys","block","practice","value","sub","trial","stimulus","robot","valence","action","sham"
"pavlovia","0","8","0.0-0.0","battery-v0.2","","""event"",""trial"",""time""
""focus"",""1"",""221""
""fullscreenenter"",""1"",""3025""
","
","""event"",""trial"",""time""
""focus"",""1"",""221""
","""event"",""trial"",""time""
""fullscreenenter"",""1"",""3025""
","
","","","","","","","","","","","","","","","","","","","","","","","","","","",""
"fullscreen","1","4012","0.0-1.0","battery-v0.2","","""event"",""trial"",""time""
""focus"",""1"",""221""
""fullscreenenter"",""1"",""3025""
""blur"",""2"",""11646""
""focus"",""2"",""23923""
","""event"",""trial"",""time""
""blur"",""2"",""11646""
","""event"",""trial"",""time""
""focus"",""1"",""221""
""focus"",""2"",""23923""
","""event"",""trial"",""time""
""fullscreenenter"",""1"",""3025""
","
","true","","","","","","","","","","","","","","","","","","","","","","","","","",""
"pit-instructions","2","26278","0.0-2.0-0.0","battery-v0.2","","""event"",""trial"",""time""
""focus"",""1"",""221""
""fullscreenenter"",""1"",""3025""
""blur"",""2"",""11646""
""focus"",""2"",""23923""
","""event"",""trial"",""time""
""blur"",""2"",""11646""
","""event"",""trial"",""time""
""focus"",""1"",""221""
""focus"",""2"",""23923""
","""event"",""trial"",""time""
""fullscreenenter"",""1"",""3025""
","
","","[{""page_index"":0,""viewing_time"":22263.199999809265}]","22263.599999904633","","","","","","","","","","","","","","","","","","","","","","","",""
"pit-comprehension","3","29133","0.0-2.0-1.0-0.0","battery-v0.2","","""event"",""trial"",""time""
""focus"",""1"",""221""
""fullscreenenter"",""1"",""3025""
""blur"",""2"",""11646""
""focus"",""2"",""23923""
","""event"",""trial"",""time""
""blur"",""2"",""11646""
","""event"",""trial"",""time""
""focus"",""1"",""221""
""focus"",""2"",""23923""
","""event"",""trial"",""time""
""fullscreenenter"",""1"",""3025""
","
","","","2835.0999999046326","[""shark""]","0","14","3366","1980","","","","","","","","","","","","","","","","","","",""
"pit-instructions","4","30484","0.0-2.0-1.0-1.0","battery-v0.2","","""event"",""trial"",""time""
""focus"",""1"",""221""
""fullscreenenter"",""1"",""3025""
""blur"",""2"",""11646""
""focus"",""2"",""23923""
","""event"",""trial"",""time""
""blur"",""2"",""11646""
","""event"",""trial"",""time""
""focus"",""1"",""221""
""focus"",""2"",""23923""
","""event"",""trial"",""time""
""fullscreenenter"",""1"",""3025""
","
","","[{""page_index"":0,""viewing_time"":1283.0999999046326}]","1283.2999999523163","","","","","","","","","","","","","","","","","","","","","","","",""
"pit-comprehension","5","32378","0.0-2.0-2.0-0.0","battery-v0.2","","""event"",""trial"",""time""
""focus"",""1"",""221""
""fullscreenenter"",""1"",""3025""
""blur"",""2"",""11646""
""focus"",""2"",""23923""
","""event"",""trial"",""time""
""blur"",""2"",""11646""
","""event"",""trial"",""time""
""focus"",""1"",""221""
""focus"",""2"",""23923""
","""event"",""trial"",""time""
""fullscreenenter"",""1"",""3025""
","
","","","1892.2999999523163","[""tiger""]","0","14","3366","1980","","","","","","","","","","","","","","","","","","",""
"pit-instructions","6","33749","0.0-2.0-2.0-1.0","battery-v0.2","","""event"",""trial"",""time""
""focus"",""1"",""221""
""fullscreenenter"",""1"",""3025""
""blur"",""2"",""11646""
""focus"",""2"",""23923""
""blur"",""7"",""39272""
""focus"",""7"",""40060""
","""event"",""trial"",""time""
""blur"",""2"",""11646""
""blur"",""7"",""39272""
","""event"",""trial"",""time""
""focus"",""1"",""221""
""focus"",""2"",""23923""
""focus"",""7"",""40060""
","""event"",""trial"",""time""
""fullscreenenter"",""1"",""3025""
","
","","[{""page_index"":0,""viewing_time"":1368.7999999523163}]","1369","","","","","","","","","","","","","","","","","","","","","","","",""
"pit-instructions","7","140797","0.0-2.0-3.0","battery-v0.2","","""event"",""trial"",""time""
""focus"",""1"",""221""
""fullscreenenter"",""1"",""3025""
""blur"",""2"",""11646""
""focus"",""2"",""23923""
""blur"",""7"",""39272""
""focus"",""7"",""40060""
","""event"",""trial"",""time""
""blur"",""2"",""11646""
""blur"",""7"",""39272""
","""event"",""trial"",""time""
""focus"",""1"",""221""
""focus"",""2"",""23923""
""focus"",""7"",""40060""
","""event"",""trial"",""time""
""fullscreenenter"",""1"",""3025""
","
","","[{""page_index"":0,""viewing_time"":10075.700000047684},{""page_index"":1,""viewing_time"":8099},{""page_index"":2,""viewing_time"":7664},{""page_index"":3,""viewing_time"":5434.299999952316},{""page_index"":4,""viewing_time"":8497.899999856949},{""page_index"":5,""viewing_time"":5987.100000143051},{""page_index"":6,""viewing_time"":7208.200000047684},{""page_index"":7,""viewing_time"":6942.799999952316},{""page_index"":8,""viewing_time"":7582.599999904633},{""page_index"":9,""viewing_time"":10545},{""page_index"":10,""viewing_time"":8383.200000047684},{""page_index"":11,""viewing_time"":7821.200000047684},{""page_index"":12,""viewing_time"":7052.799999952316},{""page_index"":13,""viewing_time"":5752.900000095367}]","107047.09999990463","","","","","","","","","","","","","","","","","","","","","","","",""
"pit-trial","8","144366","0.0-2.0-4.0-0.0","battery-v0.2","","""event"",""trial"",""time""
""focus"",""1"",""221""
""fullscreenenter"",""1"",""3025""
""blur"",""2"",""11646""
""focus"",""2"",""23923""
""blur"",""7"",""39272""
""focus"",""7"",""40060""
","""event"",""trial"",""time""
""blur"",""2"",""11646""
""blur"",""7"",""39272""
","""event"",""trial"",""time""
""focus"",""1"",""221""
""focus"",""2"",""23923""
""focus"",""7"",""40060""
","""event"",""trial"",""time""
""fullscreenenter"",""1"",""3025""
","
","","","714.5","","","14","3366","1980","&#9784;","elianto","#FFFFF080"," "," ","1","&#10004","[1565.5]","1","0","0","","","","","","","",""
"pit-trial","9","147964","0.0-2.0-4.1-0.1","battery-v0.2","","""event"",""trial"",""time""
""focus"",""1"",""221""
""fullscreenenter"",""1"",""3025""
""blur"",""2"",""11646""
""focus"",""2"",""23923""
""blur"",""7"",""39272""
""focus"",""7"",""40060""
","""event"",""trial"",""time""
""blur"",""2"",""11646""
""blur"",""7"",""39272""
","""event"",""trial"",""time""
""focus"",""1"",""221""
""focus"",""2"",""23923""
""focus"",""7"",""40060""
","""event"",""trial"",""time""
""fullscreenenter"",""1"",""3025""
","
","","","744","","","14","3366","1980","&#9784;","elianto","#FFFFF080"," "," ","1","&#10004","[1595.2999999523163]","1","0","0","","","","","","","",""
"pit-trial","10","151350","0.0-2.0-4.2-0.2","battery-v0.2","","""event"",""trial"",""time""
""focus"",""1"",""221""
""fullscreenenter"",""1"",""3025""
""blur"",""2"",""11646""
""focus"",""2"",""23923""
""blur"",""7"",""39272""
""focus"",""7"",""40060""
","""event"",""trial"",""time""
""blur"",""2"",""11646""
""blur"",""7"",""39272""
","""event"",""trial"",""time""
""focus"",""1"",""221""
""focus"",""2"",""23923""
""focus"",""7"",""40060""
","""event"",""trial"",""time""
""fullscreenenter"",""1"",""3025""
","
","","","534.5","","","14","3366","1980","&#9784;","elianto","#FFFFF080"," "," ","1","&#10004","[1385.1000001430511]","1","0","0","","","","","","","",""
"pit-trial","11","154767","0.0-2.0-4.3-0.3","battery-v0.2","","""event"",""trial"",""time""
""focus"",""1"",""221""
""fullscreenenter"",""1"",""3025""
""blur"",""2"",""11646""
""focus"",""2"",""23923""
""blur"",""7"",""39272""
""focus"",""7"",""40060""
","""event"",""trial"",""time""
""blur"",""2"",""11646""
""blur"",""7"",""39272""
","""event"",""trial"",""time""
""focus"",""1"",""221""
""focus"",""2"",""23923""
""focus"",""7"",""40060""
","""event"",""trial"",""time""
""fullscreenenter"",""1"",""3025""
","
","","","563.7000000476837","","","14","3366","1980","&#9784;","elianto","#FFFFF080"," "," ","1","&#10004","[1415.3000001907349]","1","0","0","","","","","","","",""
"pit-trial","12","158107","0.0-2.0-4.4-0.4","battery-v0.2","","""event"",""trial"",""time""
""focus"",""1"",""221""
""fullscreenenter"",""1"",""3025""
""blur"",""2"",""11646""
""focus"",""2"",""23923""
""blur"",""7"",""39272""
""focus"",""7"",""40060""
","""event"",""trial"",""time""
""blur"",""2"",""11646""
""blur"",""7"",""39272""
","""event"",""trial"",""time""
""focus"",""1"",""221""
""focus"",""2"",""23923""
""focus"",""7"",""40060""
","""event"",""trial"",""time""
""fullscreenenter"",""1"",""3025""
","
","","","486.60000014305115","","","14","3366","1980","&#9784;","elianto","#FFFFF080"," "," ","1","&#10004","[1337.7999999523163]","1","0","0","","","","","","","",""
"pit-instructions","13","183359","0.0-2.0-5.0","battery-v0.2","","""event"",""trial"",""time""
""focus"",""1"",""221""
""fullscreenenter"",""1"",""3025""
""blur"",""2"",""11646""
""focus"",""2"",""23923""
""blur"",""7"",""39272""
""focus"",""7"",""40060""
","""event"",""trial"",""time""
""blur"",""2"",""11646""
""blur"",""7"",""39272""
","""event"",""trial"",""time""
""focus"",""1"",""221""
""focus"",""2"",""23923""
""focus"",""7"",""40060""
","""event"",""trial"",""time""
""fullscreenenter"",""1"",""3025""
","
","","[{""page_index"":0,""viewing_time"":6208.099999904633},{""page_index"":1,""viewing_time"":8712},{""page_index"":2,""viewing_time"":5191.200000047684},{""page_index"":3,""viewing_time"":5139.600000143051}]","25251.099999904633","","","","","","","","","","","","","","","","","","","","","","","",""
"pit-trial","14","188211","0.0-2.0-6.0-0.0","battery-v0.2","","""event"",""trial"",""time""
""focus"",""1"",""221""
""fullscreenenter"",""1"",""3025""
""blur"",""2"",""11646""
""focus"",""2"",""23923""
""blur"",""7"",""39272""
""focus"",""7"",""40060""
","""event"",""trial"",""time""
""blur"",""2"",""11646""
""blur"",""7"",""39272""
","""event"",""trial"",""time""
""focus"",""1"",""221""
""focus"",""2"",""23923""
""focus"",""7"",""40060""
","""event"",""trial"",""time""
""fullscreenenter"",""1"",""3025""
","
","","","-1","","","14","3366","1980","&#9854;","elianto","#FFFFF080","-1","-1","1","&#10004","[]","0","0","1","","","","","","","",""
"pit-trial","15","193064","0.0-2.0-6.1-0.1","battery-v0.2","","""event"",""trial"",""time""
""focus"",""1"",""221""
""fullscreenenter"",""1"",""3025""
""blur"",""2"",""11646""
""focus"",""2"",""23923""
""blur"",""7"",""39272""
""focus"",""7"",""40060""
","""event"",""trial"",""time""
""blur"",""2"",""11646""
""blur"",""7"",""39272""
","""event"",""trial"",""time""
""focus"",""1"",""221""
""focus"",""2"",""23923""
""focus"",""7"",""40060""
","""event"",""trial"",""time""
""fullscreenenter"",""1"",""3025""
","
","","","-1","","","14","3366","1980","&#9854;","elianto","#FFFFF080","-1","-1","1","&#10004","[]","0","0","1","","","","","","","",""
"pit-trial","16","197917","0.0-2.0-6.2-0.2","battery-v0.2","","""event"",""trial"",""time""
""focus"",""1"",""221""
""fullscreenenter"",""1"",""3025""
""blur"",""2"",""11646""
""focus"",""2"",""23923""
""blur"",""7"",""39272""
""focus"",""7"",""40060""
","""event"",""trial"",""time""
""blur"",""2"",""11646""
""blur"",""7"",""39272""
","""event"",""trial"",""time""
""focus"",""1"",""221""
""focus"",""2"",""23923""
""focus"",""7"",""40060""
","""event"",""trial"",""time""
""fullscreenenter"",""1"",""3025""
","
","","","-1","","","14","3366","1980","&#9854;","elianto","#FFFFF080","-1","-1","1","&#10004","[]","0","0","1","","","","","","","",""
"pit-trial","17","202771","0.0-2.0-6.3-0.3","battery-v0.2","","""event"",""trial"",""time""
""focus"",""1"",""221""
""fullscreenenter"",""1"",""3025""
""blur"",""2"",""11646""
""focus"",""2"",""23923""
""blur"",""7"",""39272""
""focus"",""7"",""40060""
","""event"",""trial"",""time""
""blur"",""2"",""11646""
""blur"",""7"",""39272""
","""event"",""trial"",""time""
""focus"",""1"",""221""
""focus"",""2"",""23923""
""focus"",""7"",""40060""
","""event"",""trial"",""time""
""fullscreenenter"",""1"",""3025""
","
","","","-1","","","14","3366","1980","&#9854;","elianto","#FFFFF080","-1","-1","1","&#10004","[]","0","0","1","","","","","","","",""
"pit-trial","18","207625","0.0-2.0-6.4-0.4","battery-v0.2","","""event"",""trial"",""time""
""focus"",""1"",""221""
""fullscreenenter"",""1"",""3025""
""blur"",""2"",""11646""
""focus"",""2"",""23923""
""blur"",""7"",""39272""
""focus"",""7"",""40060""
","""event"",""trial"",""time""
""blur"",""2"",""11646""
""blur"",""7"",""39272""
","""event"",""trial"",""time""
""focus"",""1"",""221""
""focus"",""2"",""23923""
""focus"",""7"",""40060""
","""event"",""trial"",""time""
""fullscreenenter"",""1"",""3025""
","
","","","-1","","","14","3366","1980","&#9854;","elianto","#FFFFF080","-1","-1","1","&#10004","[]","0","0","1","","","","","","","",""
"pit-instructions","19","342906","0.0-2.0-7.0","battery-v0.2","","""event"",""trial"",""time""
""focus"",""1"",""221""
""fullscreenenter"",""1"",""3025""
""blur"",""2"",""11646""
""focus"",""2"",""23923""
""blur"",""7"",""39272""
""focus"",""7"",""40060""
","""event"",""trial"",""time""
""blur"",""2"",""11646""
""blur"",""7"",""39272""
","""event"",""trial"",""time""
""focus"",""1"",""221""
""focus"",""2"",""23923""
""focus"",""7"",""40060""
","""event"",""trial"",""time""
""fullscreenenter"",""1"",""3025""
","
","","[{""page_index"":0,""viewing_time"":16507.5},{""page_index"":1,""viewing_time"":8336.599999904633},{""page_index"":2,""viewing_time"":6543.800000190735},{""page_index"":3,""viewing_time"":7024.199999809265},{""page_index"":4,""viewing_time"":8665},{""page_index"":5,""viewing_time"":6339},{""page_index"":6,""viewing_time"":5409.5},{""page_index"":7,""viewing_time"":7947.100000143051},{""page_index"":8,""viewing_time"":6772.299999952316},{""page_index"":9,""viewing_time"":6106.799999952316},{""page_index"":10,""viewing_time"":7762.400000095367},{""page_index"":11,""viewing_time"":5080.299999952316},{""page_index"":12,""viewing_time"":7772.099999904633},{""page_index"":13,""viewing_time"":6870.200000047684},{""page_index"":14,""viewing_time"":6354.100000143051},{""page_index"":15,""viewing_time"":6478.299999952316},{""page_index"":16,""viewing_time"":7803.399999856949},{""page_index"":17,""viewing_time"":7506.300000190735}]","135279.20000004768","","","","","","","","","","","","","","","","","","","","","","","",""
"pit-trial","20","346321","0.0-2.0-8.0-0.0","battery-v0.2","","""event"",""trial"",""time""
""focus"",""1"",""221""
""fullscreenenter"",""1"",""3025""
""blur"",""2"",""11646""
""focus"",""2"",""23923""
""blur"",""7"",""39272""
""focus"",""7"",""40060""
","""event"",""trial"",""time""
""blur"",""2"",""11646""
""blur"",""7"",""39272""
","""event"",""trial"",""time""
""focus"",""1"",""221""
""focus"",""2"",""23923""
""focus"",""7"",""40060""
","""event"",""trial"",""time""
""fullscreenenter"",""1"",""3025""
","
","","","561.5","","","14","3366","1980","&#9776;","elianto","#3366ff99"," "," ","1","+10","[1413.0999999046326]","1","0","1","","","","","","","",""
"pit-trial","21","349880","0.0-2.0-8.0-1.0","battery-v0.2","","""event"",""trial"",""time""
""focus"",""1"",""221""
""fullscreenenter"",""1"",""3025""
""blur"",""2"",""11646""
""focus"",""2"",""23923""
""blur"",""7"",""39272""
""focus"",""7"",""40060""
","""event"",""trial"",""time""
""blur"",""2"",""11646""
""blur"",""7"",""39272""
","""event"",""trial"",""time""
""focus"",""1"",""221""
""focus"",""2"",""23923""
""focus"",""7"",""40060""
","""event"",""trial"",""time""
""fullscreenenter"",""1"",""3025""
","
","","","705.8999998569489","","","14","3366","1980","&#9776;","elianto","#3366ff99"," "," ","1","+10","[1557.1999998092651]","1","0","1","","","","","","","",""
"pit-trial","22","353312","0.0-2.0-8.0-2.0","battery-v0.2","","""event"",""trial"",""time""
""focus"",""1"",""221""
""fullscreenenter"",""1"",""3025""
""blur"",""2"",""11646""
""focus"",""2"",""23923""
""blur"",""7"",""39272""
""focus"",""7"",""40060""
","""event"",""trial"",""time""
""blur"",""2"",""11646""
""blur"",""7"",""39272""
","""event"",""trial"",""time""
""focus"",""1"",""221""
""focus"",""2"",""23923""
""focus"",""7"",""40060""
","""event"",""trial"",""time""
""fullscreenenter"",""1"",""3025""
","
","","","579","","","14","3366","1980","&#9776;","elianto","#3366ff99"," "," ","1","+10","[1430.7999999523163]","1","0","1","","","","","","","",""
"pit-trial","23","356754","0.0-2.0-8.0-3.0","battery-v0.2","","""event"",""trial"",""time""
""focus"",""1"",""221""
""fullscreenenter"",""1"",""3025""
""blur"",""2"",""11646""
""focus"",""2"",""23923""
""blur"",""7"",""39272""
""focus"",""7"",""40060""
","""event"",""trial"",""time""
""blur"",""2"",""11646""
""blur"",""7"",""39272""
","""event"",""trial"",""time""
""focus"",""1"",""221""
""focus"",""2"",""23923""
""focus"",""7"",""40060""
","""event"",""trial"",""time""
""fullscreenenter"",""1"",""3025""
","
","","","588.6999998092651","","","14","3366","1980","&#9776;","elianto","#3366ff99"," "," ","1","0","[1439.3999998569489]","1","0","1","","","","","","","",""
"pit-trial","24","360336","0.0-2.0-8.0-4.0","battery-v0.2","","""event"",""trial"",""time""
""focus"",""1"",""221""
""fullscreenenter"",""1"",""3025""
""blur"",""2"",""11646""
""focus"",""2"",""23923""
""blur"",""7"",""39272""
""focus"",""7"",""40060""
","""event"",""trial"",""time""
""blur"",""2"",""11646""
""blur"",""7"",""39272""
","""event"",""trial"",""time""
""focus"",""1"",""221""
""focus"",""2"",""23923""
""focus"",""7"",""40060""
","""event"",""trial"",""time""
""fullscreenenter"",""1"",""3025""
","
","","","728.5","","","14","3366","1980","&#9776;","elianto","#3366ff99"," "," ","1","+10","[1580]","1","0","1","","","","","","","",""
"pit-trial","25","363918","0.0-2.0-8.1-0.1","battery-v0.2","","""event"",""trial"",""time""
""focus"",""1"",""221""
""fullscreenenter"",""1"",""3025""
""blur"",""2"",""11646""
""focus"",""2"",""23923""
""blur"",""7"",""39272""
""focus"",""7"",""40060""
","""event"",""trial"",""time""
""blur"",""2"",""11646""
""blur"",""7"",""39272""
","""event"",""trial"",""time""
""focus"",""1"",""221""
""focus"",""2"",""23923""
""focus"",""7"",""40060""
","""event"",""trial"",""time""
""fullscreenenter"",""1"",""3025""
","
","","","729.3000001907349","","","14","3366","1980","&#9776;","elianto","#3366ff99"," "," ","1","+10","[1580.3000001907349]","1","0","1","","","","","","","",""
"pit-trial","26","367587","0.0-2.0-8.1-1.1","battery-v0.2","","""event"",""trial"",""time""
""focus"",""1"",""221""
""fullscreenenter"",""1"",""3025""
""blur"",""2"",""11646""
""focus"",""2"",""23923""
""blur"",""7"",""39272""
""focus"",""7"",""40060""
","""event"",""trial"",""time""
""blur"",""2"",""11646""
""blur"",""7"",""39272""
","""event"",""trial"",""time""
""focus"",""1"",""221""
""focus"",""2"",""23923""
""focus"",""7"",""40060""
","""event"",""trial"",""time""
""fullscreenenter"",""1"",""3025""
","
","","","815.9000000953674","","","14","3366","1980","&#9776;","elianto","#3366ff99"," "," ","1","+10","[1667.1999998092651]","1","0","1","","","","","","","",""
"pit-trial","27","371068","0.0-2.0-8.1-2.1","battery-v0.2","","""event"",""trial"",""time""
""focus"",""1"",""221""
""fullscreenenter"",""1"",""3025""
""blur"",""2"",""11646""
""focus"",""2"",""23923""
""blur"",""7"",""39272""
""focus"",""7"",""40060""
","""event"",""trial"",""time""
""blur"",""2"",""11646""
""blur"",""7"",""39272""
","""event"",""trial"",""time""
""focus"",""1"",""221""
""focus"",""2"",""23923""
""focus"",""7"",""40060""
","""event"",""trial"",""time""
""fullscreenenter"",""1"",""3025""
","
","","","627.5999999046326","","","14","3366","1980","&#9776;","elianto","#3366ff99"," "," ","1","+10","[1478.7000000476837]","1","0","1","","","","","","","",""
"pit-trial","28","374392","0.0-2.0-8.1-3.1","battery-v0.2","","""event"",""trial"",""time""
""focus"",""1"",""221""
""fullscreenenter"",""1"",""3025""
""blur"",""2"",""11646""
""focus"",""2"",""23923""
""blur"",""7"",""39272""
""focus"",""7"",""40060""
","""event"",""trial"",""time""
""blur"",""2"",""11646""
""blur"",""7"",""39272""
","""event"",""trial"",""time""
""focus"",""1"",""221""
""focus"",""2"",""23923""
""focus"",""7"",""40060""
","""event"",""trial"",""time""
""fullscreenenter"",""1"",""3025""
","
","","","471.7000000476837","","","14","3366","1980","&#9776;","elianto","#3366ff99"," "," ","1","0","[1322.2000000476837]","1","0","1","","","","","","","",""
"pit-trial","29","377801","0.0-2.0-8.1-4.1","battery-v0.2","","""event"",""trial"",""time""
""focus"",""1"",""221""
""fullscreenenter"",""1"",""3025""
""blur"",""2"",""11646""
""focus"",""2"",""23923""
""blur"",""7"",""39272""
""focus"",""7"",""40060""
","""event"",""trial"",""time""
""blur"",""2"",""11646""
""blur"",""7"",""39272""
","""event"",""trial"",""time""
""focus"",""1"",""221""
""focus"",""2"",""23923""
""focus"",""7"",""40060""
","""event"",""trial"",""time""
""fullscreenenter"",""1"",""3025""
","
","","","556.2999999523163","","","14","3366","1980","&#9776;","elianto","#3366ff99"," "," ","1","+10","[1406.8999998569489]","1","0","1","","","","","","","",""
"pit-trial","30","381439","0.0-2.0-8.2-0.2","battery-v0.2","","""event"",""trial"",""time""
""focus"",""1"",""221""
""fullscreenenter"",""1"",""3025""
""blur"",""2"",""11646""
""focus"",""2"",""23923""
""blur"",""7"",""39272""
""focus"",""7"",""40060""
","""event"",""trial"",""time""
""blur"",""2"",""11646""
""blur"",""7"",""39272""
","""event"",""trial"",""time""
""focus"",""1"",""221""
""focus"",""2"",""23923""
""focus"",""7"",""40060""
","""event"",""trial"",""time""
""fullscreenenter"",""1"",""3025""
","
","","","785.2000000476837","","","14","3366","1980","&#9776;","elianto","#3366ff99"," "," ","1","+10","[1635.6000001430511]","1","0","1","","","","","","","",""
"pit-trial","31","384871","0.0-2.0-8.2-1.2","battery-v0.2","","""event"",""trial"",""time""
""focus"",""1"",""221""
""fullscreenenter"",""1"",""3025""
""blur"",""2"",""11646""
""focus"",""2"",""23923""
""blur"",""7"",""39272""
""focus"",""7"",""40060""
","""event"",""trial"",""time""
""blur"",""2"",""11646""
""blur"",""7"",""39272""
","""event"",""trial"",""time""
""focus"",""1"",""221""
""focus"",""2"",""23923""
""focus"",""7"",""40060""
","""event"",""trial"",""time""
""fullscreenenter"",""1"",""3025""
","
","","","580.0999999046326","","","14","3366","1980","&#9776;","elianto","#3366ff99"," "," ","1","+10","[1431.5]","1","0","1","","","","","","","",""
"pit-trial","32","388423","0.0-2.0-8.2-2.2","battery-v0.2","","""event"",""trial"",""time""
""focus"",""1"",""221""
""fullscreenenter"",""1"",""3025""
""blur"",""2"",""11646""
""focus"",""2"",""23923""
""blur"",""7"",""39272""
""focus"",""7"",""40060""
","""event"",""trial"",""time""
""blur"",""2"",""11646""
""blur"",""7"",""39272""
","""event"",""trial"",""time""
""focus"",""1"",""221""
""focus"",""2"",""23923""
""focus"",""7"",""40060""
","""event"",""trial"",""time""
""fullscreenenter"",""1"",""3025""
","
","","","700.8000001907349","","","14","3366","1980","&#9776;","elianto","#3366ff99"," "," ","1","+10","[1550.9000000953674]","1","0","1","","","","","","","",""
"pit-trial","33","391770","0.0-2.0-8.2-3.2","battery-v0.2","","""event"",""trial"",""time""
""focus"",""1"",""221""
""fullscreenenter"",""1"",""3025""
""blur"",""2"",""11646""
""focus"",""2"",""23923""
""blur"",""7"",""39272""
""focus"",""7"",""40060""
","""event"",""trial"",""time""
""blur"",""2"",""11646""
""blur"",""7"",""39272""
","""event"",""trial"",""time""
""focus"",""1"",""221""
""focus"",""2"",""23923""
""focus"",""7"",""40060""
","""event"",""trial"",""time""
""fullscreenenter"",""1"",""3025""
","
","","","495.2999999523163","","","14","3366","1980","&#9776;","elianto","#3366ff99"," "," ","1","0","[1345.7000000476837]","1","0","1","","","","","","","",""
"pit-trial","34","395092","0.0-2.0-8.2-4.2","battery-v0.2","","""event"",""trial"",""time""
""focus"",""1"",""221""
""fullscreenenter"",""1"",""3025""
""blur"",""2"",""11646""
""focus"",""2"",""23923""
""blur"",""7"",""39272""
""focus"",""7"",""40060""
","""event"",""trial"",""time""
""blur"",""2"",""11646""
""blur"",""7"",""39272""
","""event"",""trial"",""time""
""focus"",""1"",""221""
""focus"",""2"",""23923""
""focus"",""7"",""40060""
","""event"",""trial"",""time""
""fullscreenenter"",""1"",""3025""
","
","","","471","","","14","3366","1980","&#9776;","elianto","#3366ff99"," "," ","1","+10","[1321.2999999523163]","1","0","1","","","","","","","",""
"call-function","35","395093","0.0-2.0-9.0","battery-v0.2","","""event"",""trial"",""time""
""focus"",""1"",""221""
""fullscreenenter"",""1"",""3025""
""blur"",""2"",""11646""
""focus"",""2"",""23923""
""blur"",""7"",""39272""
""focus"",""7"",""40060""
","""event"",""trial"",""time""
""blur"",""2"",""11646""
""blur"",""7"",""39272""
","""event"",""trial"",""time""
""focus"",""1"",""221""
""focus"",""2"",""23923""
""focus"",""7"",""40060""
","""event"",""trial"",""time""
""fullscreenenter"",""1"",""3025""
","
","","","","","","","","","","","","","","","","","","","","","","","","","","",""
"pit-instructions","36","437951","0.0-2.0-10.0","battery-v0.2","","""event"",""trial"",""time""
""focus"",""1"",""221""
""fullscreenenter"",""1"",""3025""
""blur"",""2"",""11646""
""focus"",""2"",""23923""
""blur"",""7"",""39272""
""focus"",""7"",""40060""
","""event"",""trial"",""time""
""blur"",""2"",""11646""
""blur"",""7"",""39272""
","""event"",""trial"",""time""
""focus"",""1"",""221""
""focus"",""2"",""23923""
""focus"",""7"",""40060""
","""event"",""trial"",""time""
""fullscreenenter"",""1"",""3025""
","
","","[{""page_index"":0,""viewing_time"":7762.899999856949},{""page_index"":1,""viewing_time"":7089},{""page_index"":2,""viewing_time"":9400.300000190735},{""page_index"":3,""viewing_time"":10986.199999809265},{""page_index"":4,""viewing_time"":7618.400000095367}]","42857","","","","","","","","","","","","","","","","","","","","","","","",""
"pit-trial","37","441398","0.0-2.0-11.0-0.0","battery-v0.2","","""event"",""trial"",""time""
""focus"",""1"",""221""
""fullscreenenter"",""1"",""3025""
""blur"",""2"",""11646""
""focus"",""2"",""23923""
""blur"",""7"",""39272""
""focus"",""7"",""40060""
","""event"",""trial"",""time""
""blur"",""2"",""11646""
""blur"",""7"",""39272""
","""event"",""trial"",""time""
""focus"",""1"",""221""
""focus"",""2"",""23923""
""focus"",""7"",""40060""
","""event"",""trial"",""time""
""fullscreenenter"",""1"",""3025""
","
","","","595.2999999523163","","","14","3366","1980","&#9761;","elianto","#3366ff99","-1"," ","0","0","[1446.3999998569489]","1","0","2","","","","","","","",""
"pit-trial","38","444754","0.0-2.0-11.0-1.0","battery-v0.2","","""event"",""trial"",""time""
""focus"",""1"",""221""
""fullscreenenter"",""1"",""3025""
""blur"",""2"",""11646""
""focus"",""2"",""23923""
""blur"",""7"",""39272""
""focus"",""7"",""40060""
","""event"",""trial"",""time""
""blur"",""2"",""11646""
""blur"",""7"",""39272""
","""event"",""trial"",""time""
""focus"",""1"",""221""
""focus"",""2"",""23923""
""focus"",""7"",""40060""
","""event"",""trial"",""time""
""fullscreenenter"",""1"",""3025""
","
","","","503.30000019073486","","","14","3366","1980","&#9761;","elianto","#3366ff99","-1"," ","0","0","[1354]","1","0","2","","","","","","","",""
"pit-trial","39","447968","0.0-2.0-11.0-2.0","battery-v0.2","","""event"",""trial"",""time""
""focus"",""1"",""221""
""fullscreenenter"",""1"",""3025""
""blur"",""2"",""11646""
""focus"",""2"",""23923""
""blur"",""7"",""39272""
""focus"",""7"",""40060""
","""event"",""trial"",""time""
""blur"",""2"",""11646""
""blur"",""7"",""39272""
","""event"",""trial"",""time""
""focus"",""1"",""221""
""focus"",""2"",""23923""
""focus"",""7"",""40060""
","""event"",""trial"",""time""
""fullscreenenter"",""1"",""3025""
","
","","","360.89999985694885","","","14","3366","1980","&#9761;","elianto","#3366ff99","-1"," ","0","0","[1211.7999999523163]","1","0","2","","","","","","","",""
"pit-trial","40","452821","0.0-2.0-11.0-3.0","battery-v0.2","","""event"",""trial"",""time""
""focus"",""1"",""221""
""fullscreenenter"",""1"",""3025""
""blur"",""2"",""11646""
""focus"",""2"",""23923""
""blur"",""7"",""39272""
""focus"",""7"",""40060""
","""event"",""trial"",""time""
""blur"",""2"",""11646""
""blur"",""7"",""39272""
","""event"",""trial"",""time""
""focus"",""1"",""221""
""focus"",""2"",""23923""
""focus"",""7"",""40060""
","""event"",""trial"",""time""
""fullscreenenter"",""1"",""3025""
","
","","","-1","","","14","3366","1980","&#9761;","elianto","#3366ff99","-1","-1","1","0","[]","0","0","2","","","","","","","",""
"pit-trial","41","457674","0.0-2.0-11.0-4.0","battery-v0.2","","""event"",""trial"",""time""
""focus"",""1"",""221""
""fullscreenenter"",""1"",""3025""
""blur"",""2"",""11646""
""focus"",""2"",""23923""
""blur"",""7"",""39272""
""focus"",""7"",""40060""
","""event"",""trial"",""time""
""blur"",""2"",""11646""
""blur"",""7"",""39272""
","""event"",""trial"",""time""
""focus"",""1"",""221""
""focus"",""2"",""23923""
""focus"",""7"",""40060""
","""event"",""trial"",""time""
""fullscreenenter"",""1"",""3025""
","
","","","-1","","","14","3366","1980","&#9761;","elianto","#3366ff99","-1","-1","1","+10","[]","0","0","2","","","","","","","",""
"pit-trial","42","462526","0.0-2.0-11.1-0.1","battery-v0.2","","""event"",""trial"",""time""
""focus"",""1"",""221""
""fullscreenenter"",""1"",""3025""
""blur"",""2"",""11646""
""focus"",""2"",""23923""
""blur"",""7"",""39272""
""focus"",""7"",""40060""
","""event"",""trial"",""time""
""blur"",""2"",""11646""
""blur"",""7"",""39272""
","""event"",""trial"",""time""
""focus"",""1"",""221""
""focus"",""2"",""23923""
""focus"",""7"",""40060""
","""event"",""trial"",""time""
""fullscreenenter"",""1"",""3025""
","
","","","-1","","","14","3366","1980","&#9761;","elianto","#3366ff99","-1","-1","1","+10","[]","0","0","2","","","","","","","",""
"pit-trial","43","467380","0.0-2.0-11.1-1.1","battery-v0.2","","""event"",""trial"",""time""
""focus"",""1"",""221""
""fullscreenenter"",""1"",""3025""
""blur"",""2"",""11646""
""focus"",""2"",""23923""
""blur"",""7"",""39272""
""focus"",""7"",""40060""
","""event"",""trial"",""time""
""blur"",""2"",""11646""
""blur"",""7"",""39272""
","""event"",""trial"",""time""
""focus"",""1"",""221""
""focus"",""2"",""23923""
""focus"",""7"",""40060""
","""event"",""trial"",""time""
""fullscreenenter"",""1"",""3025""
","
","","","-1","","","14","3366","1980","&#9761;","elianto","#3366ff99","-1","-1","1","+10","[]","0","0","2","","","","","","","",""
"pit-trial","44","470995","0.0-2.0-11.1-2.1","battery-v0.2","","""event"",""trial"",""time""
""focus"",""1"",""221""
""fullscreenenter"",""1"",""3025""
""blur"",""2"",""11646""
""focus"",""2"",""23923""
""blur"",""7"",""39272""
""focus"",""7"",""40060""
","""event"",""trial"",""time""
""blur"",""2"",""11646""
""blur"",""7"",""39272""
","""event"",""trial"",""time""
""focus"",""1"",""221""
""focus"",""2"",""23923""
""focus"",""7"",""40060""
","""event"",""trial"",""time""
""fullscreenenter"",""1"",""3025""
","
","","","761.9000000953674","","","14","3366","1980","&#9761;","elianto","#3366ff99","-1"," ","0","0","[1612.9000000953674]","1","0","2","","","","","","","",""
"pit-trial","45","475848","0.0-2.0-11.1-3.1","battery-v0.2","","""event"",""trial"",""time""
""focus"",""1"",""221""
""fullscreenenter"",""1"",""3025""
""blur"",""2"",""11646""
""focus"",""2"",""23923""
""blur"",""7"",""39272""
""focus"",""7"",""40060""
","""event"",""trial"",""time""
""blur"",""2"",""11646""
""blur"",""7"",""39272""
","""event"",""trial"",""time""
""focus"",""1"",""221""
""focus"",""2"",""23923""
""focus"",""7"",""40060""
","""event"",""trial"",""time""
""fullscreenenter"",""1"",""3025""
","
","","","-1","","","14","3366","1980","&#9761;","elianto","#3366ff99","-1","-1","1","0","[]","0","0","2","","","","","","","",""
"pit-trial","46","480700","0.0-2.0-11.1-4.1","battery-v0.2","","""event"",""trial"",""time""
""focus"",""1"",""221""
""fullscreenenter"",""1"",""3025""
""blur"",""2"",""11646""
""focus"",""2"",""23923""
""blur"",""7"",""39272""
""focus"",""7"",""40060""
","""event"",""trial"",""time""
""blur"",""2"",""11646""
""blur"",""7"",""39272""
","""event"",""trial"",""time""
""focus"",""1"",""221""
""focus"",""2"",""23923""
""focus"",""7"",""40060""
","""event"",""trial"",""time""
""fullscreenenter"",""1"",""3025""
","
","","","-1","","","14","3366","1980","&#9761;","elianto","#3366ff99","-1","-1","1","+10","[]","0","0","2","","","","","","","",""
"pit-trial","47","485552","0.0-2.0-11.2-0.2","battery-v0.2","","""event"",""trial"",""time""
""focus"",""1"",""221""
""fullscreenenter"",""1"",""3025""
""blur"",""2"",""11646""
""focus"",""2"",""23923""
""blur"",""7"",""39272""
""focus"",""7"",""40060""
","""event"",""trial"",""time""
""blur"",""2"",""11646""
""blur"",""7"",""39272""
","""event"",""trial"",""time""
""focus"",""1"",""221""
""focus"",""2"",""23923""
""focus"",""7"",""40060""
","""event"",""trial"",""time""
""fullscreenenter"",""1"",""3025""
","
","","","-1","","","14","3366","1980","&#9761;","elianto","#3366ff99","-1","-1","1","+10","[]","0","0","2","","","","","","","",""
"pit-trial","48","489142","0.0-2.0-11.2-1.2","battery-v0.2","","""event"",""trial"",""time""
""focus"",""1"",""221""
""fullscreenenter"",""1"",""3025""
""blur"",""2"",""11646""
""focus"",""2"",""23923""
""blur"",""7"",""39272""
""focus"",""7"",""40060""
","""event"",""trial"",""time""
""blur"",""2"",""11646""
""blur"",""7"",""39272""
","""event"",""trial"",""time""
""focus"",""1"",""221""
""focus"",""2"",""23923""
""focus"",""7"",""40060""
","""event"",""trial"",""time""
""fullscreenenter"",""1"",""3025""
","
","","","736.3999998569489","","","14","3366","1980","&#9761;","elianto","#3366ff99","-1"," ","0","0","[1587.3999998569489]","1","0","2","","","","","","","",""
"pit-trial","49","492386","0.0-2.0-11.2-2.2","battery-v0.2","","""event"",""trial"",""time""
""focus"",""1"",""221""
""fullscreenenter"",""1"",""3025""
""blur"",""2"",""11646""
""focus"",""2"",""23923""
""blur"",""7"",""39272""
""focus"",""7"",""40060""
","""event"",""trial"",""time""
""blur"",""2"",""11646""
""blur"",""7"",""39272""
","""event"",""trial"",""time""
""focus"",""1"",""221""
""focus"",""2"",""23923""
""focus"",""7"",""40060""
","""event"",""trial"",""time""
""fullscreenenter"",""1"",""3025""
","
","","","391.2999999523163","","","14","3366","1980","&#9761;","elianto","#3366ff99","-1"," ","0","0","[1242.2000000476837]","1","0","2","","","","","","","",""
"pit-trial","50","495560","0.0-2.0-11.2-3.2","battery-v0.2","","""event"",""trial"",""time""
""focus"",""1"",""221""
""fullscreenenter"",""1"",""3025""
""blur"",""2"",""11646""
""focus"",""2"",""23923""
""blur"",""7"",""39272""
""focus"",""7"",""40060""
","""event"",""trial"",""time""
""blur"",""2"",""11646""
""blur"",""7"",""39272""
","""event"",""trial"",""time""
""focus"",""1"",""221""
""focus"",""2"",""23923""
""focus"",""7"",""40060""
","""event"",""trial"",""time""
""fullscreenenter"",""1"",""3025""
","
","","","321.2999999523163","","","14","3366","1980","&#9761;","elianto","#3366ff99","-1"," ","0","+10","[1172.5]","1","0","2","","","","","","","",""
"pit-trial","51","498765","0.0-2.0-11.2-4.2","battery-v0.2","","""event"",""trial"",""time""
""focus"",""1"",""221""
""fullscreenenter"",""1"",""3025""
""blur"",""2"",""11646""
""focus"",""2"",""23923""
""blur"",""7"",""39272""
""focus"",""7"",""40060""
","""event"",""trial"",""time""
""blur"",""2"",""11646""
""blur"",""7"",""39272""
","""event"",""trial"",""time""
""focus"",""1"",""221""
""focus"",""2"",""23923""
""focus"",""7"",""40060""
","""event"",""trial"",""time""
""fullscreenenter"",""1"",""3025""
","
","","","353.09999990463257","","","14","3366","1980","&#9761;","elianto","#3366ff99","-1"," ","0","0","[1203.5]","1","0","2","","","","","","","",""
"pit-trial","52","503618","0.0-2.0-11.3-0.3","battery-v0.2","","""event"",""trial"",""time""
""focus"",""1"",""221""
""fullscreenenter"",""1"",""3025""
""blur"",""2"",""11646""
""focus"",""2"",""23923""
""blur"",""7"",""39272""
""focus"",""7"",""40060""
","""event"",""trial"",""time""
""blur"",""2"",""11646""
""blur"",""7"",""39272""
","""event"",""trial"",""time""
""focus"",""1"",""221""
""focus"",""2"",""23923""
""focus"",""7"",""40060""
","""event"",""trial"",""time""
""fullscreenenter"",""1"",""3025""
","
","","","-1","","","14","3366","1980","&#9761;","elianto","#3366ff99","-1","-1","1","+10","[]","0","0","2","","","","","","","",""
"pit-trial","53","506858","0.0-2.0-11.3-1.3","battery-v0.2","","""event"",""trial"",""time""
""focus"",""1"",""221""
""fullscreenenter"",""1"",""3025""
""blur"",""2"",""11646""
""focus"",""2"",""23923""
""blur"",""7"",""39272""
""focus"",""7"",""40060""
","""event"",""trial"",""time""
""blur"",""2"",""11646""
""blur"",""7"",""39272""
","""event"",""trial"",""time""
""focus"",""1"",""221""
""focus"",""2"",""23923""
""focus"",""7"",""40060""
","""event"",""trial"",""time""
""fullscreenenter"",""1"",""3025""
","
","","","386.90000009536743","","","14","3366","1980","&#9761;","elianto","#3366ff99","-1"," ","0","0","[1237.2000000476837]","1","0","2","","","","","","","",""
"pit-trial","54","510716","0.0-2.0-11.3-2.3","battery-v0.2","","""event"",""trial"",""time""
""focus"",""1"",""221""
""fullscreenenter"",""1"",""3025""
""blur"",""2"",""11646""
""focus"",""2"",""23923""
""blur"",""7"",""39272""
""focus"",""7"",""40060""
","""event"",""trial"",""time""
""blur"",""2"",""11646""
""blur"",""7"",""39272""
","""event"",""trial"",""time""
""focus"",""1"",""221""
""focus"",""2"",""23923""
""focus"",""7"",""40060""
","""event"",""trial"",""time""
""fullscreenenter"",""1"",""3025""
","
","","","1005.7999999523163","","","14","3366","1980","&#9761;","elianto","#3366ff99","-1"," ","0","0","[1856.2000000476837]","1","0","2","","","","","","","",""
"pit-trial","55","515568","0.0-2.0-11.3-3.3","battery-v0.2","","""event"",""trial"",""time""
""focus"",""1"",""221""
""fullscreenenter"",""1"",""3025""
""blur"",""2"",""11646""
""focus"",""2"",""23923""
""blur"",""7"",""39272""
""focus"",""7"",""40060""
","""event"",""trial"",""time""
""blur"",""2"",""11646""
""blur"",""7"",""39272""
","""event"",""trial"",""time""
""focus"",""1"",""221""
""focus"",""2"",""23923""
""focus"",""7"",""40060""
","""event"",""trial"",""time""
""fullscreenenter"",""1"",""3025""
","
","","","-1","","","14","3366","1980","&#9761;","elianto","#3366ff99","-1","-1","1","0","[]","0","0","2","","","","","","","",""
"pit-trial","56","520421","0.0-2.0-11.3-4.3","battery-v0.2","","""event"",""trial"",""time""
""focus"",""1"",""221""
""fullscreenenter"",""1"",""3025""
""blur"",""2"",""11646""
""focus"",""2"",""23923""
""blur"",""7"",""39272""
""focus"",""7"",""40060""
","""event"",""trial"",""time""
""blur"",""2"",""11646""
""blur"",""7"",""39272""
","""event"",""trial"",""time""
""focus"",""1"",""221""
""focus"",""2"",""23923""
""focus"",""7"",""40060""
","""event"",""trial"",""time""
""fullscreenenter"",""1"",""3025""
","
","","","-1","","","14","3366","1980","&#9761;","elianto","#3366ff99","-1","-1","1","+10","[]","0","0","2","","","","","","","",""
"call-function","57","520421","0.0-2.0-12.0","battery-v0.2","","""event"",""trial"",""time""
""focus"",""1"",""221""
""fullscreenenter"",""1"",""3025""
""blur"",""2"",""11646""
""focus"",""2"",""23923""
""blur"",""7"",""39272""
""focus"",""7"",""40060""
","""event"",""trial"",""time""
""blur"",""2"",""11646""
""blur"",""7"",""39272""
","""event"",""trial"",""time""
""focus"",""1"",""221""
""focus"",""2"",""23923""
""focus"",""7"",""40060""
","""event"",""trial"",""time""
""fullscreenenter"",""1"",""3025""
","
","","","","","","","","","","","","","","","","","","","","","","","","","","",""
"pit-instructions","58","555083","0.0-2.0-13.0","battery-v0.2","","""event"",""trial"",""time""
""focus"",""1"",""221""
""fullscreenenter"",""1"",""3025""
""blur"",""2"",""11646""
""focus"",""2"",""23923""
""blur"",""7"",""39272""
""focus"",""7"",""40060""
","""event"",""trial"",""time""
""blur"",""2"",""11646""
""blur"",""7"",""39272""
","""event"",""trial"",""time""
""focus"",""1"",""221""
""focus"",""2"",""23923""
""focus"",""7"",""40060""
","""event"",""trial"",""time""
""fullscreenenter"",""1"",""3025""
","
","","[{""page_index"":0,""viewing_time"":6378.200000047684},{""page_index"":1,""viewing_time"":7213.299999952316},{""page_index"":2,""viewing_time"":4507.100000143051},{""page_index"":3,""viewing_time"":10515.399999856949},{""page_index"":4,""viewing_time"":6047.600000143051}]","34661.700000047684","","","","","","","","","","","","","","","","","","","","","","","",""
"pit-trial","59","559935","0.0-2.0-14.0-0.0","battery-v0.2","","""event"",""trial"",""time""
""focus"",""1"",""221""
""fullscreenenter"",""1"",""3025""
""blur"",""2"",""11646""
""focus"",""2"",""23923""
""blur"",""7"",""39272""
""focus"",""7"",""40060""
","""event"",""trial"",""time""
""blur"",""2"",""11646""
""blur"",""7"",""39272""
","""event"",""trial"",""time""
""focus"",""1"",""221""
""focus"",""2"",""23923""
""focus"",""7"",""40060""
","""event"",""trial"",""time""
""fullscreenenter"",""1"",""3025""
","
","","","-1","","","14","3366","1980","&#9826;","elianto","#f73b6a7A","-1","-1","1","0","[]","0","0","3","","","","","","","",""
"pit-trial","60","564786","0.0-2.0-14.0-1.0","battery-v0.2","","""event"",""trial"",""time""
""focus"",""1"",""221""
""fullscreenenter"",""1"",""3025""
""blur"",""2"",""11646""
""focus"",""2"",""23923""
""blur"",""7"",""39272""
""focus"",""7"",""40060""
","""event"",""trial"",""time""
""blur"",""2"",""11646""
""blur"",""7"",""39272""
","""event"",""trial"",""time""
""focus"",""1"",""221""
""focus"",""2"",""23923""
""focus"",""7"",""40060""
","""event"",""trial"",""time""
""fullscreenenter"",""1"",""3025""
","
","","","-1","","","14","3366","1980","&#9826;","elianto","#f73b6a7A","-1","-1","1","0","[]","0","0","3","","","","","","","",""
"pit-trial","61","569639","0.0-2.0-14.0-2.0","battery-v0.2","","""event"",""trial"",""time""
""focus"",""1"",""221""
""fullscreenenter"",""1"",""3025""
""blur"",""2"",""11646""
""focus"",""2"",""23923""
""blur"",""7"",""39272""
""focus"",""7"",""40060""
","""event"",""trial"",""time""
""blur"",""2"",""11646""
""blur"",""7"",""39272""
","""event"",""trial"",""time""
""focus"",""1"",""221""
""focus"",""2"",""23923""
""focus"",""7"",""40060""
","""event"",""trial"",""time""
""fullscreenenter"",""1"",""3025""
","
","","","-1","","","14","3366","1980","&#9826;","elianto","#f73b6a7A","-1","-1","1","0","[]","0","0","3","","","","","","","",""
"pit-trial","62","574492","0.0-2.0-14.0-3.0","battery-v0.2","","""event"",""trial"",""time""
""focus"",""1"",""221""
""fullscreenenter"",""1"",""3025""
""blur"",""2"",""11646""
""focus"",""2"",""23923""
""blur"",""7"",""39272""
""focus"",""7"",""40060""
","""event"",""trial"",""time""
""blur"",""2"",""11646""
""blur"",""7"",""39272""
","""event"",""trial"",""time""
""focus"",""1"",""221""
""focus"",""2"",""23923""
""focus"",""7"",""40060""
","""event"",""trial"",""time""
""fullscreenenter"",""1"",""3025""
","
","","","-1","","","14","3366","1980","&#9826;","elianto","#f73b6a7A","-1","-1","1","-10","[]","0","0","3","","","","","","","",""
"pit-trial","63","579344","0.0-2.0-14.0-4.0","battery-v0.2","","""event"",""trial"",""time""
""focus"",""1"",""221""
""fullscreenenter"",""1"",""3025""
""blur"",""2"",""11646""
""focus"",""2"",""23923""
""blur"",""7"",""39272""
""focus"",""7"",""40060""
","""event"",""trial"",""time""
""blur"",""2"",""11646""
""blur"",""7"",""39272""
","""event"",""trial"",""time""
""focus"",""1"",""221""
""focus"",""2"",""23923""
""focus"",""7"",""40060""
","""event"",""trial"",""time""
""fullscreenenter"",""1"",""3025""
","
","","","-1","","","14","3366","1980","&#9826;","elianto","#f73b6a7A","-1","-1","1","0","[]","0","0","3","","","","","","","",""
"pit-trial","64","584197","0.0-2.0-14.1-0.1","battery-v0.2","","""event"",""trial"",""time""
""focus"",""1"",""221""
""fullscreenenter"",""1"",""3025""
""blur"",""2"",""11646""
""focus"",""2"",""23923""
""blur"",""7"",""39272""
""focus"",""7"",""40060""
","""event"",""trial"",""time""
""blur"",""2"",""11646""
""blur"",""7"",""39272""
","""event"",""trial"",""time""
""focus"",""1"",""221""
""focus"",""2"",""23923""
""focus"",""7"",""40060""
","""event"",""trial"",""time""
""fullscreenenter"",""1"",""3025""
","
","","","-1","","","14","3366","1980","&#9826;","elianto","#f73b6a7A","-1","-1","1","0","[]","0","0","3","","","","","","","",""
"pit-trial","65","589050","0.0-2.0-14.1-1.1","battery-v0.2","","""event"",""trial"",""time""
""focus"",""1"",""221""
""fullscreenenter"",""1"",""3025""
""blur"",""2"",""11646""
""focus"",""2"",""23923""
""blur"",""7"",""39272""
""focus"",""7"",""40060""
","""event"",""trial"",""time""
""blur"",""2"",""11646""
""blur"",""7"",""39272""
","""event"",""trial"",""time""
""focus"",""1"",""221""
""focus"",""2"",""23923""
""focus"",""7"",""40060""
","""event"",""trial"",""time""
""fullscreenenter"",""1"",""3025""
","
","","","-1","","","14","3366","1980","&#9826;","elianto","#f73b6a7A","-1","-1","1","0","[]","0","0","3","","","","","","","",""
"pit-trial","66","593903","0.0-2.0-14.1-2.1","battery-v0.2","","""event"",""trial"",""time""
""focus"",""1"",""221""
""fullscreenenter"",""1"",""3025""
""blur"",""2"",""11646""
""focus"",""2"",""23923""
""blur"",""7"",""39272""
""focus"",""7"",""40060""
","""event"",""trial"",""time""
""blur"",""2"",""11646""
""blur"",""7"",""39272""
","""event"",""trial"",""time""
""focus"",""1"",""221""
""focus"",""2"",""23923""
""focus"",""7"",""40060""
","""event"",""trial"",""time""
""fullscreenenter"",""1"",""3025""
","
","","","-1","","","14","3366","1980","&#9826;","elianto","#f73b6a7A","-1","-1","1","0","[]","0","0","3","","","","","","","",""
"pit-trial","67","598755","0.0-2.0-14.1-3.1","battery-v0.2","","""event"",""trial"",""time""
""focus"",""1"",""221""
""fullscreenenter"",""1"",""3025""
""blur"",""2"",""11646""
""focus"",""2"",""23923""
""blur"",""7"",""39272""
""focus"",""7"",""40060""
","""event"",""trial"",""time""
""blur"",""2"",""11646""
""blur"",""7"",""39272""
","""event"",""trial"",""time""
""focus"",""1"",""221""
""focus"",""2"",""23923""
""focus"",""7"",""40060""
","""event"",""trial"",""time""
""fullscreenenter"",""1"",""3025""
","
","","","-1","","","14","3366","1980","&#9826;","elianto","#f73b6a7A","-1","-1","1","-10","[]","0","0","3","","","","","","","",""
"pit-trial","68","603607","0.0-2.0-14.1-4.1","battery-v0.2","","""event"",""trial"",""time""
""focus"",""1"",""221""
""fullscreenenter"",""1"",""3025""
""blur"",""2"",""11646""
""focus"",""2"",""23923""
""blur"",""7"",""39272""
""focus"",""7"",""40060""
","""event"",""trial"",""time""
""blur"",""2"",""11646""
""blur"",""7"",""39272""
","""event"",""trial"",""time""
""focus"",""1"",""221""
""focus"",""2"",""23923""
""focus"",""7"",""40060""
","""event"",""trial"",""time""
""fullscreenenter"",""1"",""3025""
","
","","","-1","","","14","3366","1980","&#9826;","elianto","#f73b6a7A","-1","-1","1","0","[]","0","0","3","","","","","","","",""
"pit-trial","69","608460","0.0-2.0-14.2-0.2","battery-v0.2","","""event"",""trial"",""time""
""focus"",""1"",""221""
""fullscreenenter"",""1"",""3025""
""blur"",""2"",""11646""
""focus"",""2"",""23923""
""blur"",""7"",""39272""
""focus"",""7"",""40060""
","""event"",""trial"",""time""
""blur"",""2"",""11646""
""blur"",""7"",""39272""
","""event"",""trial"",""time""
""focus"",""1"",""221""
""focus"",""2"",""23923""
""focus"",""7"",""40060""
","""event"",""trial"",""time""
""fullscreenenter"",""1"",""3025""
","
","","","-1","","","14","3366","1980","&#9826;","elianto","#f73b6a7A","-1","-1","1","0","[]","0","0","3","","","","","","","",""
"pit-trial","70","613312","0.0-2.0-14.2-1.2","battery-v0.2","","""event"",""trial"",""time""
""focus"",""1"",""221""
""fullscreenenter"",""1"",""3025""
""blur"",""2"",""11646""
""focus"",""2"",""23923""
""blur"",""7"",""39272""
""focus"",""7"",""40060""
","""event"",""trial"",""time""
""blur"",""2"",""11646""
""blur"",""7"",""39272""
","""event"",""trial"",""time""
""focus"",""1"",""221""
""focus"",""2"",""23923""
""focus"",""7"",""40060""
","""event"",""trial"",""time""
""fullscreenenter"",""1"",""3025""
","
","","","-1","","","14","3366","1980","&#9826;","elianto","#f73b6a7A","-1","-1","1","0","[]","0","0","3","","","","","","","",""
"pit-trial","71","618165","0.0-2.0-14.2-2.2","battery-v0.2","","""event"",""trial"",""time""
""focus"",""1"",""221""
""fullscreenenter"",""1"",""3025""
""blur"",""2"",""11646""
""focus"",""2"",""23923""
""blur"",""7"",""39272""
""focus"",""7"",""40060""
","""event"",""trial"",""time""
""blur"",""2"",""11646""
""blur"",""7"",""39272""
","""event"",""trial"",""time""
""focus"",""1"",""221""
""focus"",""2"",""23923""
""focus"",""7"",""40060""
","""event"",""trial"",""time""
""fullscreenenter"",""1"",""3025""
","
","","","-1","","","14","3366","1980","&#9826;","elianto","#f73b6a7A","-1","-1","1","0","[]","0","0","3","","","","","","","",""
"pit-trial","72","623017","0.0-2.0-14.2-3.2","battery-v0.2","","""event"",""trial"",""time""
""focus"",""1"",""221""
""fullscreenenter"",""1"",""3025""
""blur"",""2"",""11646""
""focus"",""2"",""23923""
""blur"",""7"",""39272""
""focus"",""7"",""40060""
","""event"",""trial"",""time""
""blur"",""2"",""11646""
""blur"",""7"",""39272""
","""event"",""trial"",""time""
""focus"",""1"",""221""
""focus"",""2"",""23923""
""focus"",""7"",""40060""
","""event"",""trial"",""time""
""fullscreenenter"",""1"",""3025""
","
","","","-1","","","14","3366","1980","&#9826;","elianto","#f73b6a7A","-1","-1","1","-10","[]","0","0","3","","","","","","","",""
"pit-trial","73","627869","0.0-2.0-14.2-4.2","battery-v0.2","","""event"",""trial"",""time""
""focus"",""1"",""221""
""fullscreenenter"",""1"",""3025""
""blur"",""2"",""11646""
""focus"",""2"",""23923""
""blur"",""7"",""39272""
""focus"",""7"",""40060""
","""event"",""trial"",""time""
""blur"",""2"",""11646""
""blur"",""7"",""39272""
","""event"",""trial"",""time""
""focus"",""1"",""221""
""focus"",""2"",""23923""
""focus"",""7"",""40060""
","""event"",""trial"",""time""
""fullscreenenter"",""1"",""3025""
","
","","","-1","","","14","3366","1980","&#9826;","elianto","#f73b6a7A","-1","-1","1","0","[]","0","0","3","","","","","","","",""
"pit-trial","74","632723","0.0-2.0-14.3-0.3","battery-v0.2","","""event"",""trial"",""time""
""focus"",""1"",""221""
""fullscreenenter"",""1"",""3025""
""blur"",""2"",""11646""
""focus"",""2"",""23923""
""blur"",""7"",""39272""
""focus"",""7"",""40060""
","""event"",""trial"",""time""
""blur"",""2"",""11646""
""blur"",""7"",""39272""
","""event"",""trial"",""time""
""focus"",""1"",""221""
""focus"",""2"",""23923""
""focus"",""7"",""40060""
","""event"",""trial"",""time""
""fullscreenenter"",""1"",""3025""
","
","","","-1","","","14","3366","1980","&#9826;","elianto","#f73b6a7A","-1","-1","1","0","[]","0","0","3","","","","","","","",""
"pit-trial","75","637576","0.0-2.0-14.3-1.3","battery-v0.2","","""event"",""trial"",""time""
""focus"",""1"",""221""
""fullscreenenter"",""1"",""3025""
""blur"",""2"",""11646""
""focus"",""2"",""23923""
""blur"",""7"",""39272""
""focus"",""7"",""40060""
","""event"",""trial"",""time""
""blur"",""2"",""11646""
""blur"",""7"",""39272""
","""event"",""trial"",""time""
""focus"",""1"",""221""
""focus"",""2"",""23923""
""focus"",""7"",""40060""
","""event"",""trial"",""time""
""fullscreenenter"",""1"",""3025""
","
","","","-1","","","14","3366","1980","&#9826;","elianto","#f73b6a7A","-1","-1","1","0","[]","0","0","3","","","","","","","",""
"pit-trial","76","642429","0.0-2.0-14.3-2.3","battery-v0.2","","""event"",""trial"",""time""
""focus"",""1"",""221""
""fullscreenenter"",""1"",""3025""
""blur"",""2"",""11646""
""focus"",""2"",""23923""
""blur"",""7"",""39272""
""focus"",""7"",""40060""
","""event"",""trial"",""time""
""blur"",""2"",""11646""
""blur"",""7"",""39272""
","""event"",""trial"",""time""
""focus"",""1"",""221""
""focus"",""2"",""23923""
""focus"",""7"",""40060""
","""event"",""trial"",""time""
""fullscreenenter"",""1"",""3025""
","
","","","-1","","","14","3366","1980","&#9826;","elianto","#f73b6a7A","-1","-1","1","0","[]","0","0","3","","","","","","","",""
"pit-trial","77","647281","0.0-2.0-14.3-3.3","battery-v0.2","","""event"",""trial"",""time""
""focus"",""1"",""221""
""fullscreenenter"",""1"",""3025""
""blur"",""2"",""11646""
""focus"",""2"",""23923""
""blur"",""7"",""39272""
""focus"",""7"",""40060""
","""event"",""trial"",""time""
""blur"",""2"",""11646""
""blur"",""7"",""39272""
","""event"",""trial"",""time""
""focus"",""1"",""221""
""focus"",""2"",""23923""
""focus"",""7"",""40060""
","""event"",""trial"",""time""
""fullscreenenter"",""1"",""3025""
","
","","","-1","","","14","3366","1980","&#9826;","elianto","#f73b6a7A","-1","-1","1","-10","[]","0","0","3","","","","","","","",""
"pit-trial","78","652133","0.0-2.0-14.3-4.3","battery-v0.2","","""event"",""trial"",""time""
""focus"",""1"",""221""
""fullscreenenter"",""1"",""3025""
""blur"",""2"",""11646""
""focus"",""2"",""23923""
""blur"",""7"",""39272""
""focus"",""7"",""40060""
","""event"",""trial"",""time""
""blur"",""2"",""11646""
""blur"",""7"",""39272""
","""event"",""trial"",""time""
""focus"",""1"",""221""
""focus"",""2"",""23923""
""focus"",""7"",""40060""
","""event"",""trial"",""time""
""fullscreenenter"",""1"",""3025""
","
","","","-1","","","14","3366","1980","&#9826;","elianto","#f73b6a7A","-1","-1","1","0","[]","0","0","3","","","","","","","",""
"call-function","79","652134","0.0-2.0-15.0","battery-v0.2","","""event"",""trial"",""time""
""focus"",""1"",""221""
""fullscreenenter"",""1"",""3025""
""blur"",""2"",""11646""
""focus"",""2"",""23923""
""blur"",""7"",""39272""
""focus"",""7"",""40060""
","""event"",""trial"",""time""
""blur"",""2"",""11646""
""blur"",""7"",""39272""
","""event"",""trial"",""time""
""focus"",""1"",""221""
""focus"",""2"",""23923""
""focus"",""7"",""40060""
","""event"",""trial"",""time""
""fullscreenenter"",""1"",""3025""
","
","","","","","","","","","","","","","","","","","","","","","","","","","","",""
"pit-instructions","80","680240","0.0-2.0-16.0","battery-v0.2","","""event"",""trial"",""time""
""focus"",""1"",""221""
""fullscreenenter"",""1"",""3025""
""blur"",""2"",""11646""
""focus"",""2"",""23923""
""blur"",""7"",""39272""
""focus"",""7"",""40060""
","""event"",""trial"",""time""
""blur"",""2"",""11646""
""blur"",""7"",""39272""
","""event"",""trial"",""time""
""focus"",""1"",""221""
""focus"",""2"",""23923""
""focus"",""7"",""40060""
","""event"",""trial"",""time""
""fullscreenenter"",""1"",""3025""
","
","","[{""page_index"":0,""viewing_time"":8619.299999952316},{""page_index"":1,""viewing_time"":8024.200000047684},{""page_index"":2,""viewing_time"":4927},{""page_index"":3,""viewing_time"":6535.099999904633}]","28105.799999952316","","","","","","","","","","","","","","","","","","","","","","","",""
"pit-trial","81","685093","0.0-2.0-17.0-0.0","battery-v0.2","","""event"",""trial"",""time""
""focus"",""1"",""221""
""fullscreenenter"",""1"",""3025""
""blur"",""2"",""11646""
""focus"",""2"",""23923""
""blur"",""7"",""39272""
""focus"",""7"",""40060""
","""event"",""trial"",""time""
""blur"",""2"",""11646""
""blur"",""7"",""39272""
","""event"",""trial"",""time""
""focus"",""1"",""221""
""focus"",""2"",""23923""
""focus"",""7"",""40060""
","""event"",""trial"",""time""
""fullscreenenter"",""1"",""3025""
","
","","","-1","","","14","3366","1980","&#9789;","elianto","#f73b6a7A"," ","-1","0","-10","[]","0","0","4","","","","","","","",""
"pit-trial","82","688343","0.0-2.0-17.0-1.0","battery-v0.2","","""event"",""trial"",""time""
""focus"",""1"",""221""
""fullscreenenter"",""1"",""3025""
""blur"",""2"",""11646""
""focus"",""2"",""23923""
""blur"",""7"",""39272""
""focus"",""7"",""40060""
","""event"",""trial"",""time""
""blur"",""2"",""11646""
""blur"",""7"",""39272""
","""event"",""trial"",""time""
""focus"",""1"",""221""
""focus"",""2"",""23923""
""focus"",""7"",""40060""
","""event"",""trial"",""time""
""fullscreenenter"",""1"",""3025""
","
","","","398","","","14","3366","1980","&#9789;","elianto","#f73b6a7A"," "," ","1","0","[1248.7000000476837]","1","0","4","","","","","","","",""
"pit-trial","83","691762","0.0-2.0-17.0-2.0","battery-v0.2","","""event"",""trial"",""time""
""focus"",""1"",""221""
""fullscreenenter"",""1"",""3025""
""blur"",""2"",""11646""
""focus"",""2"",""23923""
""blur"",""7"",""39272""
""focus"",""7"",""40060""
","""event"",""trial"",""time""
""blur"",""2"",""11646""
""blur"",""7"",""39272""
","""event"",""trial"",""time""
""focus"",""1"",""221""
""focus"",""2"",""23923""
""focus"",""7"",""40060""
","""event"",""trial"",""time""
""fullscreenenter"",""1"",""3025""
","
","","","565.7999999523163","","","14","3366","1980","&#9789;","elianto","#f73b6a7A"," "," ","1","0","[1416.1999998092651]","1","0","4","","","","","","","",""
"pit-trial","84","694928","0.0-2.0-17.0-3.0","battery-v0.2","","""event"",""trial"",""time""
""focus"",""1"",""221""
""fullscreenenter"",""1"",""3025""
""blur"",""2"",""11646""
""focus"",""2"",""23923""
""blur"",""7"",""39272""
""focus"",""7"",""40060""
","""event"",""trial"",""time""
""blur"",""2"",""11646""
""blur"",""7"",""39272""
","""event"",""trial"",""time""
""focus"",""1"",""221""
""focus"",""2"",""23923""
""focus"",""7"",""40060""
","""event"",""trial"",""time""
""fullscreenenter"",""1"",""3025""
","
","","","312.7000000476837","","","14","3366","1980","&#9789;","elianto","#f73b6a7A"," "," ","1","-10","[1163.5999999046326]","1","0","4","","","","","","","",""
"pit-trial","85","698053","0.0-2.0-17.0-4.0","battery-v0.2","","""event"",""trial"",""time""
""focus"",""1"",""221""
""fullscreenenter"",""1"",""3025""
""blur"",""2"",""11646""
""focus"",""2"",""23923""
""blur"",""7"",""39272""
""focus"",""7"",""40060""
","""event"",""trial"",""time""
""blur"",""2"",""11646""
""blur"",""7"",""39272""
","""event"",""trial"",""time""
""focus"",""1"",""221""
""focus"",""2"",""23923""
""focus"",""7"",""40060""
","""event"",""trial"",""time""
""fullscreenenter"",""1"",""3025""
","
","","","272.89999985694885","","","14","3366","1980","&#9789;","elianto","#f73b6a7A"," "," ","1","0","[1123.2999999523163]","1","0","4","","","","","","","",""
"pit-trial","86","701141","0.0-2.0-17.1-0.1","battery-v0.2","","""event"",""trial"",""time""
""focus"",""1"",""221""
""fullscreenenter"",""1"",""3025""
""blur"",""2"",""11646""
""focus"",""2"",""23923""
""blur"",""7"",""39272""
""focus"",""7"",""40060""
","""event"",""trial"",""time""
""blur"",""2"",""11646""
""blur"",""7"",""39272""
","""event"",""trial"",""time""
""focus"",""1"",""221""
""focus"",""2"",""23923""
""focus"",""7"",""40060""
","""event"",""trial"",""time""
""fullscreenenter"",""1"",""3025""
","
","","","235.20000004768372","","","14","3366","1980","&#9789;","elianto","#f73b6a7A"," "," ","1","0","[1085.4000000953674]","1","0","4","","","","","","","",""
"pit-trial","87","704229","0.0-2.0-17.1-1.1","battery-v0.2","","""event"",""trial"",""time""
""focus"",""1"",""221""
""fullscreenenter"",""1"",""3025""
""blur"",""2"",""11646""
""focus"",""2"",""23923""
""blur"",""7"",""39272""
""focus"",""7"",""40060""
","""event"",""trial"",""time""
""blur"",""2"",""11646""
""blur"",""7"",""39272""
","""event"",""trial"",""time""
""focus"",""1"",""221""
""focus"",""2"",""23923""
""focus"",""7"",""40060""
","""event"",""trial"",""time""
""fullscreenenter"",""1"",""3025""
","
","","","233.90000009536743","","","14","3366","1980","&#9789;","elianto","#f73b6a7A"," "," ","1","0","[1085.2000000476837]","1","0","4","","","","","","","",""
"pit-trial","88","707347","0.0-2.0-17.1-2.1","battery-v0.2","","""event"",""trial"",""time""
""focus"",""1"",""221""
""fullscreenenter"",""1"",""3025""
""blur"",""2"",""11646""
""focus"",""2"",""23923""
""blur"",""7"",""39272""
""focus"",""7"",""40060""
","""event"",""trial"",""time""
""blur"",""2"",""11646""
""blur"",""7"",""39272""
","""event"",""trial"",""time""
""focus"",""1"",""221""
""focus"",""2"",""23923""
""focus"",""7"",""40060""
","""event"",""trial"",""time""
""fullscreenenter"",""1"",""3025""
","
","","","265.69999980926514","","","14","3366","1980","&#9789;","elianto","#f73b6a7A"," "," ","1","0","[1116.6999998092651]","1","0","4","","","","","","","",""
"pit-trial","89","710828","0.0-2.0-17.1-3.1","battery-v0.2","","""event"",""trial"",""time""
""focus"",""1"",""221""
""fullscreenenter"",""1"",""3025""
""blur"",""2"",""11646""
""focus"",""2"",""23923""
""blur"",""7"",""39272""
""focus"",""7"",""40060""
","""event"",""trial"",""time""
""blur"",""2"",""11646""
""blur"",""7"",""39272""
","""event"",""trial"",""time""
""focus"",""1"",""221""
""focus"",""2"",""23923""
""focus"",""7"",""40060""
","""event"",""trial"",""time""
""fullscreenenter"",""1"",""3025""
","
","","","628.2000000476837","","","14","3366","1980","&#9789;","elianto","#f73b6a7A"," "," ","1","-10","[1479.3999998569489]","1","0","4","","","","","","","",""
"pit-trial","90","714434","0.0-2.0-17.1-4.1","battery-v0.2","","""event"",""trial"",""time""
""focus"",""1"",""221""
""fullscreenenter"",""1"",""3025""
""blur"",""2"",""11646""
""focus"",""2"",""23923""
""blur"",""7"",""39272""
""focus"",""7"",""40060""
","""event"",""trial"",""time""
""blur"",""2"",""11646""
""blur"",""7"",""39272""
","""event"",""trial"",""time""
""focus"",""1"",""221""
""focus"",""2"",""23923""
""focus"",""7"",""40060""
","""event"",""trial"",""time""
""fullscreenenter"",""1"",""3025""
","
","","","753.7000000476837","","","14","3366","1980","&#9789;","elianto","#f73b6a7A"," "," ","1","0","[1604.3000001907349]","1","0","4","","","","","","","",""
"pit-trial","91","717905","0.0-2.0-17.2-0.2","battery-v0.2","","""event"",""trial"",""time""
""focus"",""1"",""221""
""fullscreenenter"",""1"",""3025""
""blur"",""2"",""11646""
""focus"",""2"",""23923""
""blur"",""7"",""39272""
""focus"",""7"",""40060""
","""event"",""trial"",""time""
""blur"",""2"",""11646""
""blur"",""7"",""39272""
","""event"",""trial"",""time""
""focus"",""1"",""221""
""focus"",""2"",""23923""
""focus"",""7"",""40060""
","""event"",""trial"",""time""
""fullscreenenter"",""1"",""3025""
","
","","","619.7999999523163","","","14","3366","1980","&#9789;","elianto","#f73b6a7A"," "," ","1","0","[1470.2999999523163]","1","0","4","","","","","","","",""
"pit-trial","92","721488","0.0-2.0-17.2-1.2","battery-v0.2","","""event"",""trial"",""time""
""focus"",""1"",""221""
""fullscreenenter"",""1"",""3025""
""blur"",""2"",""11646""
""focus"",""2"",""23923""
""blur"",""7"",""39272""
""focus"",""7"",""40060""
","""event"",""trial"",""time""
""blur"",""2"",""11646""
""blur"",""7"",""39272""
","""event"",""trial"",""time""
""focus"",""1"",""221""
""focus"",""2"",""23923""
""focus"",""7"",""40060""
","""event"",""trial"",""time""
""fullscreenenter"",""1"",""3025""
","
","","","730.2000000476837","","","14","3366","1980","&#9789;","elianto","#f73b6a7A"," "," ","1","0","[1582]","1","0","4","","","","","","","",""
"pit-trial","93","724922","0.0-2.0-17.2-2.2","battery-v0.2","","""event"",""trial"",""time""
""focus"",""1"",""221""
""fullscreenenter"",""1"",""3025""
""blur"",""2"",""11646""
""focus"",""2"",""23923""
""blur"",""7"",""39272""
""focus"",""7"",""40060""
","""event"",""trial"",""time""
""blur"",""2"",""11646""
""blur"",""7"",""39272""
","""event"",""trial"",""time""
""focus"",""1"",""221""
""focus"",""2"",""23923""
""focus"",""7"",""40060""
","""event"",""trial"",""time""
""fullscreenenter"",""1"",""3025""
","
","","","580.9000000953674","","","14","3366","1980","&#9789;","elianto","#f73b6a7A"," "," ","1","0","[1431.7999999523163]","1","0","4","","","","","","","",""
"pit-trial","94","728355","0.0-2.0-17.2-3.2","battery-v0.2","","""event"",""trial"",""time""
""focus"",""1"",""221""
""fullscreenenter"",""1"",""3025""
""blur"",""2"",""11646""
""focus"",""2"",""23923""
""blur"",""7"",""39272""
""focus"",""7"",""40060""
","""event"",""trial"",""time""
""blur"",""2"",""11646""
""blur"",""7"",""39272""
","""event"",""trial"",""time""
""focus"",""1"",""221""
""focus"",""2"",""23923""
""focus"",""7"",""40060""
","""event"",""trial"",""time""
""fullscreenenter"",""1"",""3025""
","
","","","580.7999999523163","","","14","3366","1980","&#9789;","elianto","#f73b6a7A"," "," ","1","-10","[1431.7999999523163]","1","0","4","","","","","","","",""
"pit-trial","95","731702","0.0-2.0-17.2-4.2","battery-v0.2","","""event"",""trial"",""time""
""focus"",""1"",""221""
""fullscreenenter"",""1"",""3025""
""blur"",""2"",""11646""
""focus"",""2"",""23923""
""blur"",""7"",""39272""
""focus"",""7"",""40060""
","""event"",""trial"",""time""
""blur"",""2"",""11646""
""blur"",""7"",""39272""
","""event"",""trial"",""time""
""focus"",""1"",""221""
""focus"",""2"",""23923""
""focus"",""7"",""40060""
","""event"",""trial"",""time""
""fullscreenenter"",""1"",""3025""
","
","","","494.5","","","14","3366","1980","&#9789;","elianto","#f73b6a7A"," "," ","1","0","[1345.2999999523163]","1","0","4","","","","","","","",""
"pit-trial","96","734922","0.0-2.0-17.3-0.3","battery-v0.2","","""event"",""trial"",""time""
""focus"",""1"",""221""
""fullscreenenter"",""1"",""3025""
""blur"",""2"",""11646""
""focus"",""2"",""23923""
""blur"",""7"",""39272""
""focus"",""7"",""40060""
","""event"",""trial"",""time""
""blur"",""2"",""11646""
""blur"",""7"",""39272""
","""event"",""trial"",""time""
""focus"",""1"",""221""
""focus"",""2"",""23923""
""focus"",""7"",""40060""
","""event"",""trial"",""time""
""fullscreenenter"",""1"",""3025""
","
","","","368","","","14","3366","1980","&#9789;","elianto","#f73b6a7A"," "," ","1","0","[1218.7999999523163]","1","0","4","","","","","","","",""
"pit-trial","97","738191","0.0-2.0-17.3-1.3","battery-v0.2","","""event"",""trial"",""time""
""focus"",""1"",""221""
""fullscreenenter"",""1"",""3025""
""blur"",""2"",""11646""
""focus"",""2"",""23923""
""blur"",""7"",""39272""
""focus"",""7"",""40060""
","""event"",""trial"",""time""
""blur"",""2"",""11646""
""blur"",""7"",""39272""
","""event"",""trial"",""time""
""focus"",""1"",""221""
""focus"",""2"",""23923""
""focus"",""7"",""40060""
","""event"",""trial"",""time""
""fullscreenenter"",""1"",""3025""
","
","","","416.60000014305115","","","14","3366","1980","&#9789;","elianto","#f73b6a7A"," "," ","1","0","[1266.8999998569489]","1","0","4","","","","","","","",""
"pit-trial","98","741310","0.0-2.0-17.3-2.3","battery-v0.2","","""event"",""trial"",""time""
""focus"",""1"",""221""
""fullscreenenter"",""1"",""3025""
""blur"",""2"",""11646""
""focus"",""2"",""23923""
""blur"",""7"",""39272""
""focus"",""7"",""40060""
","""event"",""trial"",""time""
""blur"",""2"",""11646""
""blur"",""7"",""39272""
","""event"",""trial"",""time""
""focus"",""1"",""221""
""focus"",""2"",""23923""
""focus"",""7"",""40060""
","""event"",""trial"",""time""
""fullscreenenter"",""1"",""3025""
","
","","","266.2999999523163","","","14","3366","1980","&#9789;","elianto","#f73b6a7A"," "," ","1","0","[1117.6000001430511]","1","0","4","","","","","","","",""
"pit-trial","99","744617","0.0-2.0-17.3-3.3","battery-v0.2","","""event"",""trial"",""time""
""focus"",""1"",""221""
""fullscreenenter"",""1"",""3025""
""blur"",""2"",""11646""
""focus"",""2"",""23923""
""blur"",""7"",""39272""
""focus"",""7"",""40060""
","""event"",""trial"",""time""
""blur"",""2"",""11646""
""blur"",""7"",""39272""
","""event"",""trial"",""time""
""focus"",""1"",""221""
""focus"",""2"",""23923""
""focus"",""7"",""40060""
","""event"",""trial"",""time""
""fullscreenenter"",""1"",""3025""
","
","","","453.60000014305115","","","14","3366","1980","&#9789;","elianto","#f73b6a7A"," "," ","1","-10","[1304.5999999046326]","1","0","4","","","","","","","",""
"pit-trial","100","747971","0.0-2.0-17.3-4.3","battery-v0.2","","""event"",""trial"",""time""
""focus"",""1"",""221""
""fullscreenenter"",""1"",""3025""
""blur"",""2"",""11646""
""focus"",""2"",""23923""
""blur"",""7"",""39272""
""focus"",""7"",""40060""
","""event"",""trial"",""time""
""blur"",""2"",""11646""
""blur"",""7"",""39272""
","""event"",""trial"",""time""
""focus"",""1"",""221""
""focus"",""2"",""23923""
""focus"",""7"",""40060""
","""event"",""trial"",""time""
""fullscreenenter"",""1"",""3025""
","
","","","501.7999999523163","","","14","3366","1980","&#9789;","elianto","#f73b6a7A"," "," ","1","0","[1353.2000000476837]","1","0","4","","","","","","","",""
"call-function","101","747972","0.0-2.0-18.0","battery-v0.2","","""event"",""trial"",""time""
""focus"",""1"",""221""
""fullscreenenter"",""1"",""3025""
""blur"",""2"",""11646""
""focus"",""2"",""23923""
""blur"",""7"",""39272""
""focus"",""7"",""40060""
","""event"",""trial"",""time""
""blur"",""2"",""11646""
""blur"",""7"",""39272""
","""event"",""trial"",""time""
""focus"",""1"",""221""
""focus"",""2"",""23923""
""focus"",""7"",""40060""
","""event"",""trial"",""time""
""fullscreenenter"",""1"",""3025""
","
","","","","","","","","","","","","","","","","","","","","","","","","","","",""
"pit-instructions","102","837517","0.0-2.0-19.0","battery-v0.2","","""event"",""trial"",""time""
""focus"",""1"",""221""
""fullscreenenter"",""1"",""3025""
""blur"",""2"",""11646""
""focus"",""2"",""23923""
""blur"",""7"",""39272""
""focus"",""7"",""40060""
","""event"",""trial"",""time""
""blur"",""2"",""11646""
""blur"",""7"",""39272""
","""event"",""trial"",""time""
""focus"",""1"",""221""
""focus"",""2"",""23923""
""focus"",""7"",""40060""
","""event"",""trial"",""time""
""fullscreenenter"",""1"",""3025""
","
","","[{""page_index"":0,""viewing_time"":8904.299999952316},{""page_index"":1,""viewing_time"":8071},{""page_index"":2,""viewing_time"":14350.100000143051},{""page_index"":3,""viewing_time"":7907.899999856949},{""page_index"":4,""viewing_time"":26855.400000095367},{""page_index"":5,""viewing_time"":8501.599999904633},{""page_index"":6,""viewing_time"":5969.799999952316},{""page_index"":7,""viewing_time"":4706.900000095367},{""page_index"":8,""viewing_time"":4277.200000047684}]","89544.40000009537","","","","","","","","","","","","","","","","","","","","","","","",""
"pit-comprehension","103","841933","0.0-2.0-20.0-0.0","battery-v0.2","","""event"",""trial"",""time""
""focus"",""1"",""221""
""fullscreenenter"",""1"",""3025""
""blur"",""2"",""11646""
""focus"",""2"",""23923""
""blur"",""7"",""39272""
""focus"",""7"",""40060""
","""event"",""trial"",""time""
""blur"",""2"",""11646""
""blur"",""7"",""39272""
","""event"",""trial"",""time""
""focus"",""1"",""221""
""focus"",""2"",""23923""
""focus"",""7"",""40060""
","""event"",""trial"",""time""
""fullscreenenter"",""1"",""3025""
","
","","","4414.299999952316","[""SPACE""]","0","14","3366","1980","","","","","","","","","","","","","","","","","","",""
"pit-instructions","104","848880","0.0-2.0-20.0-1.0","battery-v0.2","","""event"",""trial"",""time""
""focus"",""1"",""221""
""fullscreenenter"",""1"",""3025""
""blur"",""2"",""11646""
""focus"",""2"",""23923""
""blur"",""7"",""39272""
""focus"",""7"",""40060""
","""event"",""trial"",""time""
""blur"",""2"",""11646""
""blur"",""7"",""39272""
","""event"",""trial"",""time""
""focus"",""1"",""221""
""focus"",""2"",""23923""
""focus"",""7"",""40060""
","""event"",""trial"",""time""
""fullscreenenter"",""1"",""3025""
","
","","[{""page_index"":0,""viewing_time"":6908.799999952316}]","6909","","","","","","","","","","","","","","","","","","","","","","","",""
"pit-comprehension","105","854697","0.0-2.0-21.0-0.0","battery-v0.2","","""event"",""trial"",""time""
""focus"",""1"",""221""
""fullscreenenter"",""1"",""3025""
""blur"",""2"",""11646""
""focus"",""2"",""23923""
""blur"",""7"",""39272""
""focus"",""7"",""40060""
","""event"",""trial"",""time""
""blur"",""2"",""11646""
""blur"",""7"",""39272""
","""event"",""trial"",""time""
""focus"",""1"",""221""
""focus"",""2"",""23923""
""focus"",""7"",""40060""
","""event"",""trial"",""time""
""fullscreenenter"",""1"",""3025""
","
","","","5815","[""10""]","0","14","3366","1980","","","","","","","","","","","","","","","","","","",""
"pit-instructions","106","856346","0.0-2.0-21.0-1.0","battery-v0.2","","""event"",""trial"",""time""
""focus"",""1"",""221""
""fullscreenenter"",""1"",""3025""
""blur"",""2"",""11646""
""focus"",""2"",""23923""
""blur"",""7"",""39272""
""focus"",""7"",""40060""
","""event"",""trial"",""time""
""blur"",""2"",""11646""
""blur"",""7"",""39272""
","""event"",""trial"",""time""
""focus"",""1"",""221""
""focus"",""2"",""23923""
""focus"",""7"",""40060""
","""event"",""trial"",""time""
""fullscreenenter"",""1"",""3025""
","
","","[{""page_index"":0,""viewing_time"":1613.5999999046326}]","1613.7999999523163","","","","","","","","","","","","","","","","","","","","","","","",""
"pit-comprehension","107","862762","0.0-2.0-22.0-0.0","battery-v0.2","","""event"",""trial"",""time""
""focus"",""1"",""221""
""fullscreenenter"",""1"",""3025""
""blur"",""2"",""11646""
""focus"",""2"",""23923""
""blur"",""7"",""39272""
""focus"",""7"",""40060""
","""event"",""trial"",""time""
""blur"",""2"",""11646""
""blur"",""7"",""39272""
","""event"",""trial"",""time""
""focus"",""1"",""221""
""focus"",""2"",""23923""
""focus"",""7"",""40060""
","""event"",""trial"",""time""
""fullscreenenter"",""1"",""3025""
","
","","","6414.299999952316","[""0""]","0","14","3366","1980","","","","","","","","","","","","","","","","","","",""
"pit-instructions","108","864408","0.0-2.0-22.0-1.0","battery-v0.2","","""event"",""trial"",""time""
""focus"",""1"",""221""
""fullscreenenter"",""1"",""3025""
""blur"",""2"",""11646""
""focus"",""2"",""23923""
""blur"",""7"",""39272""
""focus"",""7"",""40060""
","""event"",""trial"",""time""
""blur"",""2"",""11646""
""blur"",""7"",""39272""
","""event"",""trial"",""time""
""focus"",""1"",""221""
""focus"",""2"",""23923""
""focus"",""7"",""40060""
","""event"",""trial"",""time""
""fullscreenenter"",""1"",""3025""
","
","","[{""page_index"":0,""viewing_time"":1611}]","1611.2000000476837","","","","","","","","","","","","","","","","","","","","","","","",""
"pit-comprehension","109","878787","0.0-2.0-23.0-0.0","battery-v0.2","","""event"",""trial"",""time""
""focus"",""1"",""221""
""fullscreenenter"",""1"",""3025""
""blur"",""2"",""11646""
""focus"",""2"",""23923""
""blur"",""7"",""39272""
""focus"",""7"",""40060""
","""event"",""trial"",""time""
""blur"",""2"",""11646""
""blur"",""7"",""39272""
","""event"",""trial"",""time""
""focus"",""1"",""221""
""focus"",""2"",""23923""
""focus"",""7"",""40060""
","""event"",""trial"",""time""
""fullscreenenter"",""1"",""3025""
","
","","","14377.799999952316","[""True""]","0","14","3366","1980","","","","","","","","","","","","","","","","","","",""
"pit-instructions","110","880512","0.0-2.0-23.0-1.0","battery-v0.2","","""event"",""trial"",""time""
""focus"",""1"",""221""
""fullscreenenter"",""1"",""3025""
""blur"",""2"",""11646""
""focus"",""2"",""23923""
""blur"",""7"",""39272""
""focus"",""7"",""40060""
","""event"",""trial"",""time""
""blur"",""2"",""11646""
""blur"",""7"",""39272""
","""event"",""trial"",""time""
""focus"",""1"",""221""
""focus"",""2"",""23923""
""focus"",""7"",""40060""
","""event"",""trial"",""time""
""fullscreenenter"",""1"",""3025""
","
","","[{""page_index"":0,""viewing_time"":1687}]","1687.1000001430511","","","","","","","","","","","","","","","","","","","","","","","",""
"pit-comprehension","111","889353","0.0-2.0-24.0-0.0","battery-v0.2","","""event"",""trial"",""time""
""focus"",""1"",""221""
""fullscreenenter"",""1"",""3025""
""blur"",""2"",""11646""
""focus"",""2"",""23923""
""blur"",""7"",""39272""
""focus"",""7"",""40060""
","""event"",""trial"",""time""
""blur"",""2"",""11646""
""blur"",""7"",""39272""
","""event"",""trial"",""time""
""focus"",""1"",""221""
""focus"",""2"",""23923""
""focus"",""7"",""40060""
","""event"",""trial"",""time""
""fullscreenenter"",""1"",""3025""
","
","","","8839.799999952316","[""True""]","0","14","3366","1980","","","","","","","","","","","","","","","","","","",""
"pit-instructions","112","891200","0.0-2.0-24.0-1.0","battery-v0.2","","""event"",""trial"",""time""
""focus"",""1"",""221""
""fullscreenenter"",""1"",""3025""
""blur"",""2"",""11646""
""focus"",""2"",""23923""
""blur"",""7"",""39272""
""focus"",""7"",""40060""
","""event"",""trial"",""time""
""blur"",""2"",""11646""
""blur"",""7"",""39272""
","""event"",""trial"",""time""
""focus"",""1"",""221""
""focus"",""2"",""23923""
""focus"",""7"",""40060""
","""event"",""trial"",""time""
""fullscreenenter"",""1"",""3025""
","
","","[{""page_index"":0,""viewing_time"":1810.2000000476837}]","1810.4000000953674","","","","","","","","","","","","","","","","","","","","","","","",""
"pit-comprehension","113","897976","0.0-2.0-25.0-0.0","battery-v0.2","","""event"",""trial"",""time""
""focus"",""1"",""221""
""fullscreenenter"",""1"",""3025""
""blur"",""2"",""11646""
""focus"",""2"",""23923""
""blur"",""7"",""39272""
""focus"",""7"",""40060""
","""event"",""trial"",""time""
""blur"",""2"",""11646""
""blur"",""7"",""39272""
","""event"",""trial"",""time""
""focus"",""1"",""221""
""focus"",""2"",""23923""
""focus"",""7"",""40060""
","""event"",""trial"",""time""
""fullscreenenter"",""1"",""3025""
","
","","","6774.5","[""True""]","0","14","3366","1980","","","","","","","","","","","","","","","","","","",""
"pit-instructions","114","899869","0.0-2.0-25.0-1.0","battery-v0.2","","""event"",""trial"",""time""
""focus"",""1"",""221""
""fullscreenenter"",""1"",""3025""
""blur"",""2"",""11646""
""focus"",""2"",""23923""
""blur"",""7"",""39272""
""focus"",""7"",""40060""
","""event"",""trial"",""time""
""blur"",""2"",""11646""
""blur"",""7"",""39272""
","""event"",""trial"",""time""
""focus"",""1"",""221""
""focus"",""2"",""23923""
""focus"",""7"",""40060""
","""event"",""trial"",""time""
""fullscreenenter"",""1"",""3025""
","
","","[{""page_index"":0,""viewing_time"":1853.4000000953674}]","1853.5","","","","","","","","","","","","","","","","","","","","","","","",""
"pit-comprehension","115","905993","0.0-2.0-26.0-0.0","battery-v0.2","","""event"",""trial"",""time""
""focus"",""1"",""221""
""fullscreenenter"",""1"",""3025""
""blur"",""2"",""11646""
""focus"",""2"",""23923""
""blur"",""7"",""39272""
""focus"",""7"",""40060""
","""event"",""trial"",""time""
""blur"",""2"",""11646""
""blur"",""7"",""39272""
","""event"",""trial"",""time""
""focus"",""1"",""221""
""focus"",""2"",""23923""
""focus"",""7"",""40060""
","""event"",""trial"",""time""
""fullscreenenter"",""1"",""3025""
","
","","","6122.099999904633","[""False""]","0","14","3366","1980","","","","","","","","","","","","","","","","","","",""
"pit-instructions","116","907630","0.0-2.0-26.0-1.0","battery-v0.2","","""event"",""trial"",""time""
""focus"",""1"",""221""
""fullscreenenter"",""1"",""3025""
""blur"",""2"",""11646""
""focus"",""2"",""23923""
""blur"",""7"",""39272""
""focus"",""7"",""40060""
","""event"",""trial"",""time""
""blur"",""2"",""11646""
""blur"",""7"",""39272""
","""event"",""trial"",""time""
""focus"",""1"",""221""
""focus"",""2"",""23923""
""focus"",""7"",""40060""
","""event"",""trial"",""time""
""fullscreenenter"",""1"",""3025""
","
","","[{""page_index"":0,""viewing_time"":1599.9000000953674}]","1600","","","","","","","","","","","","","","","","","","","","","","","",""
"pit-instructions","117","925238","0.0-3.0","battery-v0.2","","""event"",""trial"",""time""
""focus"",""1"",""221""
""fullscreenenter"",""1"",""3025""
""blur"",""2"",""11646""
""focus"",""2"",""23923""
""blur"",""7"",""39272""
""focus"",""7"",""40060""
","""event"",""trial"",""time""
""blur"",""2"",""11646""
""blur"",""7"",""39272""
","""event"",""trial"",""time""
""focus"",""1"",""221""
""focus"",""2"",""23923""
""focus"",""7"",""40060""
","""event"",""trial"",""time""
""fullscreenenter"",""1"",""3025""
","
","","[{""page_index"":0,""viewing_time"":4162.900000095367},{""page_index"":1,""viewing_time"":5039.799999952316},{""page_index"":2,""viewing_time"":8404}]","17606.800000190735","","","","","","","","","","","","","","","","","","","","","","","",""
"pit-trial","118","930092","0.0-4.0","battery-v0.2","","""event"",""trial"",""time""
""focus"",""1"",""221""
""fullscreenenter"",""1"",""3025""
""blur"",""2"",""11646""
""focus"",""2"",""23923""
""blur"",""7"",""39272""
""focus"",""7"",""40060""
","""event"",""trial"",""time""
""blur"",""2"",""11646""
""blur"",""7"",""39272""
","""event"",""trial"",""time""
""focus"",""1"",""221""
""focus"",""2"",""23923""
""focus"",""7"",""40060""
","""event"",""trial"",""time""
""fullscreenenter"",""1"",""3025""
","
","","","-1","","","14","3366","1980","&#9728;","elianto","#f73b6a7A","-1","-1","1","-10","[]","0","1","","","3366","1","0","4","lose","no-go","1"
"pit-trial","119","934945","0.0-5.0","battery-v0.2","","""event"",""trial"",""time""
""focus"",""1"",""221""
""fullscreenenter"",""1"",""3025""
""blur"",""2"",""11646""
""focus"",""2"",""23923""
""blur"",""7"",""39272""
""focus"",""7"",""40060""
","""event"",""trial"",""time""
""blur"",""2"",""11646""
""blur"",""7"",""39272""
","""event"",""trial"",""time""
""focus"",""1"",""221""
""focus"",""2"",""23923""
""focus"",""7"",""40060""
","""event"",""trial"",""time""
""fullscreenenter"",""1"",""3025""
","
","","","-1","","","14","3366","1980","&#9752;","elianto","#f73b6a7A"," ","-1","0","-10","[]","0","1","","","3366","2","3","3","lose","go","0"
"pit-trial","120","938643","0.0-6.0","battery-v0.2","","""event"",""trial"",""time""
""focus"",""1"",""221""
""fullscreenenter"",""1"",""3025""
""blur"",""2"",""11646""
""focus"",""2"",""23923""
""blur"",""7"",""39272""
""focus"",""7"",""40060""
","""event"",""trial"",""time""
""blur"",""2"",""11646""
""blur"",""7"",""39272""
","""event"",""trial"",""time""
""focus"",""1"",""221""
""focus"",""2"",""23923""
""focus"",""7"",""40060""
","""event"",""trial"",""time""
""fullscreenenter"",""1"",""3025""
","
","","","845.5","","","14","3366","1980","&#9733;","elianto","#3366ff99","-1"," ","0","0","[1696.9000000953674]","1","1","","","3366","3","2","2","win","no-go","0"
"pit-trial","121","942382","0.0-7.0","battery-v0.2","","""event"",""trial"",""time""
""focus"",""1"",""221""
""fullscreenenter"",""1"",""3025""
""blur"",""2"",""11646""
""focus"",""2"",""23923""
""blur"",""7"",""39272""
""focus"",""7"",""40060""
","""event"",""trial"",""time""
""blur"",""2"",""11646""
""blur"",""7"",""39272""
","""event"",""trial"",""time""
""focus"",""1"",""221""
""focus"",""2"",""23923""
""focus"",""7"",""40060""
","""event"",""trial"",""time""
""fullscreenenter"",""1"",""3025""
","
","","","886.7000000476837","","","14","3366","1980","&#9730;","elianto","#3366ff99"," "," ","1","+10","[1737.3000001907349]","1","1","","","3366","4","1","1","win","go","0"
"pit-trial","122","947234","0.0-8.0","battery-v0.2","","""event"",""trial"",""time""
""focus"",""1"",""221""
""fullscreenenter"",""1"",""3025""
""blur"",""2"",""11646""
""focus"",""2"",""23923""
""blur"",""7"",""39272""
""focus"",""7"",""40060""
","""event"",""trial"",""time""
""blur"",""2"",""11646""
""blur"",""7"",""39272""
","""event"",""trial"",""time""
""focus"",""1"",""221""
""focus"",""2"",""23923""
""focus"",""7"",""40060""
","""event"",""trial"",""time""
""fullscreenenter"",""1"",""3025""
","
","","","-1","","","14","3366","1980","&#9728;","elianto","#f73b6a7A","-1","-1","1","-10","[]","0","1","","","3366","5","0","4","lose","no-go","1"
"pit-trial","123","951102","0.0-9.0","battery-v0.2","","""event"",""trial"",""time""
""focus"",""1"",""221""
""fullscreenenter"",""1"",""3025""
""blur"",""2"",""11646""
""focus"",""2"",""23923""
""blur"",""7"",""39272""
""focus"",""7"",""40060""
","""event"",""trial"",""time""
""blur"",""2"",""11646""
""blur"",""7"",""39272""
","""event"",""trial"",""time""
""focus"",""1"",""221""
""focus"",""2"",""23923""
""focus"",""7"",""40060""
","""event"",""trial"",""time""
""fullscreenenter"",""1"",""3025""
","
","","","1015.2000000476837","","","14","3366","1980","&#9733;","elianto","#3366ff99","-1"," ","0","0","[1866.3999998569489]","1","1","","","3366","6","2","2","win","no-go","0"
"pit-trial","124","955227","0.0-10.0","battery-v0.2","","""event"",""trial"",""time""
""focus"",""1"",""221""
""fullscreenenter"",""1"",""3025""
""blur"",""2"",""11646""
""focus"",""2"",""23923""
""blur"",""7"",""39272""
""focus"",""7"",""40060""
","""event"",""trial"",""time""
""blur"",""2"",""11646""
""blur"",""7"",""39272""
","""event"",""trial"",""time""
""focus"",""1"",""221""
""focus"",""2"",""23923""
""focus"",""7"",""40060""
","""event"",""trial"",""time""
""fullscreenenter"",""1"",""3025""
","
","","","1271.9000000953674","","","14","3366","1980","&#9730;","elianto","#3366ff99"," "," ","1","0","[2123]","1","1","","","3366","7","1","1","win","go","1"
"pit-trial","125","959280","0.0-11.0","battery-v0.2","","""event"",""trial"",""time""
""focus"",""1"",""221""
""fullscreenenter"",""1"",""3025""
""blur"",""2"",""11646""
""focus"",""2"",""23923""
""blur"",""7"",""39272""
""focus"",""7"",""40060""
","""event"",""trial"",""time""
""blur"",""2"",""11646""
""blur"",""7"",""39272""
","""event"",""trial"",""time""
""focus"",""1"",""221""
""focus"",""2"",""23923""
""focus"",""7"",""40060""
","""event"",""trial"",""time""
""fullscreenenter"",""1"",""3025""
","
","","","1200.6000001430511","","","14","3366","1980","&#9752;","elianto","#f73b6a7A"," "," ","1","0","[2051]","1","1","","","3366","8","3","3","lose","go","0"
"pit-trial","126","963027","0.0-12.0","battery-v0.2","","""event"",""trial"",""time""
""focus"",""1"",""221""
""fullscreenenter"",""1"",""3025""
""blur"",""2"",""11646""
""focus"",""2"",""23923""
""blur"",""7"",""39272""
""focus"",""7"",""40060""
","""event"",""trial"",""time""
""blur"",""2"",""11646""
""blur"",""7"",""39272""
","""event"",""trial"",""time""
""focus"",""1"",""221""
""focus"",""2"",""23923""
""focus"",""7"",""40060""
","""event"",""trial"",""time""
""fullscreenenter"",""1"",""3025""
","
","","","894.7999999523163","","","14","3366","1980","&#9730;","elianto","#3366ff99"," "," ","1","+10","[1745.5999999046326]","1","1","","","3366","9","1","1","win","go","0"
"pit-trial","127","967050","0.0-13.0","battery-v0.2","","""event"",""trial"",""time""
""focus"",""1"",""221""
""fullscreenenter"",""1"",""3025""
""blur"",""2"",""11646""
""focus"",""2"",""23923""
""blur"",""7"",""39272""
""focus"",""7"",""40060""
","""event"",""trial"",""time""
""blur"",""2"",""11646""
""blur"",""7"",""39272""
","""event"",""trial"",""time""
""focus"",""1"",""221""
""focus"",""2"",""23923""
""focus"",""7"",""40060""
","""event"",""trial"",""time""
""fullscreenenter"",""1"",""3025""
","
","","","1170.2000000476837","","","14","3366","1980","&#9728;","elianto","#f73b6a7A","-1"," ","0","-10","[2021.5]","1","1","","","3366","10","0","4","lose","no-go","0"
"pit-trial","128","970538","0.0-14.0","battery-v0.2","","""event"",""trial"",""time""
""focus"",""1"",""221""
""fullscreenenter"",""1"",""3025""
""blur"",""2"",""11646""
""focus"",""2"",""23923""
""blur"",""7"",""39272""
""focus"",""7"",""40060""
","""event"",""trial"",""time""
""blur"",""2"",""11646""
""blur"",""7"",""39272""
","""event"",""trial"",""time""
""focus"",""1"",""221""
""focus"",""2"",""23923""
""focus"",""7"",""40060""
","""event"",""trial"",""time""
""fullscreenenter"",""1"",""3025""
","
","","","635.5","","","14","3366","1980","&#9733;","elianto","#3366ff99","-1"," ","0","+10","[1485.8999998569489]","1","1","","","3366","11","2","2","win","no-go","1"
"pit-trial","129","975391","0.0-15.0","battery-v0.2","","""event"",""trial"",""time""
""focus"",""1"",""221""
""fullscreenenter"",""1"",""3025""
""blur"",""2"",""11646""
""focus"",""2"",""23923""
""blur"",""7"",""39272""
""focus"",""7"",""40060""
","""event"",""trial"",""time""
""blur"",""2"",""11646""
""blur"",""7"",""39272""
","""event"",""trial"",""time""
""focus"",""1"",""221""
""focus"",""2"",""23923""
""focus"",""7"",""40060""
","""event"",""trial"",""time""
""fullscreenenter"",""1"",""3025""
","
","","","-1","","","14","3366","1980","&#9752;","elianto","#f73b6a7A"," ","-1","0","-10","[]","0","1","","","3366","12","3","3","lose","go","0"
"pit-trial","130","979619","0.0-16.0","battery-v0.2","","""event"",""trial"",""time""
""focus"",""1"",""221""
""fullscreenenter"",""1"",""3025""
""blur"",""2"",""11646""
""focus"",""2"",""23923""
""blur"",""7"",""39272""
""focus"",""7"",""40060""
","""event"",""trial"",""time""
""blur"",""2"",""11646""
""blur"",""7"",""39272""
","""event"",""trial"",""time""
""focus"",""1"",""221""
""focus"",""2"",""23923""
""focus"",""7"",""40060""
","""event"",""trial"",""time""
""fullscreenenter"",""1"",""3025""
","
","","","1376.1000001430511","","","14","3366","1980","&#9752;","elianto","#f73b6a7A"," "," ","1","-10","[2227]","1","1","","","3366","13","3","3","lose","go","1"
"pit-trial","131","983280","0.0-17.0","battery-v0.2","","""event"",""trial"",""time""
""focus"",""1"",""221""
""fullscreenenter"",""1"",""3025""
""blur"",""2"",""11646""
""focus"",""2"",""23923""
""blur"",""7"",""39272""
""focus"",""7"",""40060""
","""event"",""trial"",""time""
""blur"",""2"",""11646""
""blur"",""7"",""39272""
","""event"",""trial"",""time""
""focus"",""1"",""221""
""focus"",""2"",""23923""
""focus"",""7"",""40060""
","""event"",""trial"",""time""
""fullscreenenter"",""1"",""3025""
","
","","","808.2999999523163","","","14","3366","1980","&#9733;","elianto","#3366ff99","-1"," ","0","0","[1658.7999999523163]","1","1","","","3366","14","2","2","win","no-go","0"
"pit-trial","132","987144","0.0-18.0","battery-v0.2","","""event"",""trial"",""time""
""focus"",""1"",""221""
""fullscreenenter"",""1"",""3025""
""blur"",""2"",""11646""
""focus"",""2"",""23923""
""blur"",""7"",""39272""
""focus"",""7"",""40060""
","""event"",""trial"",""time""
""blur"",""2"",""11646""
""blur"",""7"",""39272""
","""event"",""trial"",""time""
""focus"",""1"",""221""
""focus"",""2"",""23923""
""focus"",""7"",""40060""
","""event"",""trial"",""time""
""fullscreenenter"",""1"",""3025""
","
","","","1012.9000000953674","","","14","3366","1980","&#9730;","elianto","#3366ff99"," "," ","1","+10","[1863.2999999523163]","1","1","","","3366","15","1","1","win","go","0"
"pit-trial","133","991997","0.0-19.0","battery-v0.2","","""event"",""trial"",""time""
""focus"",""1"",""221""
""fullscreenenter"",""1"",""3025""
""blur"",""2"",""11646""
""focus"",""2"",""23923""
""blur"",""7"",""39272""
""focus"",""7"",""40060""
","""event"",""trial"",""time""
""blur"",""2"",""11646""
""blur"",""7"",""39272""
","""event"",""trial"",""time""
""focus"",""1"",""221""
""focus"",""2"",""23923""
""focus"",""7"",""40060""
","""event"",""trial"",""time""
""fullscreenenter"",""1"",""3025""
","
","","","-1","","","14","3366","1980","&#9728;","elianto","#f73b6a7A","-1","-1","1","0","[]","0","1","","","3366","16","0","4","lose","no-go","0"
"pit-trial","134","996055","0.0-20.0","battery-v0.2","","""event"",""trial"",""time""
""focus"",""1"",""221""
""fullscreenenter"",""1"",""3025""
""blur"",""2"",""11646""
""focus"",""2"",""23923""
""blur"",""7"",""39272""
""focus"",""7"",""40060""
","""event"",""trial"",""time""
""blur"",""2"",""11646""
""blur"",""7"",""39272""
","""event"",""trial"",""time""
""focus"",""1"",""221""
""focus"",""2"",""23923""
""focus"",""7"",""40060""
","""event"",""trial"",""time""
""fullscreenenter"",""1"",""3025""
","
","","","1205.4000000953674","","","14","3366","1980","&#9733;","elianto","#3366ff99","-1"," ","0","0","[2055.7000000476837]","1","1","","","3366","17","2","2","win","no-go","0"
"pit-trial","135","1000202","0.0-21.0","battery-v0.2","","""event"",""trial"",""time""
""focus"",""1"",""221""
""fullscreenenter"",""1"",""3025""
""blur"",""2"",""11646""
""focus"",""2"",""23923""
""blur"",""7"",""39272""
""focus"",""7"",""40060""
","""event"",""trial"",""time""
""blur"",""2"",""11646""
""blur"",""7"",""39272""
","""event"",""trial"",""time""
""focus"",""1"",""221""
""focus"",""2"",""23923""
""focus"",""7"",""40060""
","""event"",""trial"",""time""
""fullscreenenter"",""1"",""3025""
","
","","","1295.5","","","14","3366","1980","&#9728;","elianto","#f73b6a7A","-1"," ","0","-10","[2146.0999999046326]","1","1","","","3366","18","0","4","lose","no-go","0"
"pit-trial","136","1003957","0.0-22.0","battery-v0.2","","""event"",""trial"",""time""
""focus"",""1"",""221""
""fullscreenenter"",""1"",""3025""
""blur"",""2"",""11646""
""focus"",""2"",""23923""
""blur"",""7"",""39272""
""focus"",""7"",""40060""
","""event"",""trial"",""time""
""blur"",""2"",""11646""
""blur"",""7"",""39272""
","""event"",""trial"",""time""
""focus"",""1"",""221""
""focus"",""2"",""23923""
""focus"",""7"",""40060""
","""event"",""trial"",""time""
""fullscreenenter"",""1"",""3025""
","
","","","903","","","14","3366","1980","&#9730;","elianto","#3366ff99"," "," ","1","+10","[1753.2999999523163]","1","1","","","3366","19","1","1","win","go","0"
"pit-trial","137","1008529","0.0-23.0","battery-v0.2","","""event"",""trial"",""time""
""focus"",""1"",""221""
""fullscreenenter"",""1"",""3025""
""blur"",""2"",""11646""
""focus"",""2"",""23923""
""blur"",""7"",""39272""
""focus"",""7"",""40060""
","""event"",""trial"",""time""
""blur"",""2"",""11646""
""blur"",""7"",""39272""
","""event"",""trial"",""time""
""focus"",""1"",""221""
""focus"",""2"",""23923""
""focus"",""7"",""40060""
","""event"",""trial"",""time""
""fullscreenenter"",""1"",""3025""
","
","","","1720.2000000476837","","","14","3366","1980","&#9752;","elianto","#f73b6a7A"," "," ","1","0","[2570.300000190735]","1","1","","","3366","20","3","3","lose","go","0"
"pit-instructions","138","1069533","0.0-24.0","battery-v0.2","","""event"",""trial"",""time""
""focus"",""1"",""221""
""fullscreenenter"",""1"",""3025""
""blur"",""2"",""11646""
""focus"",""2"",""23923""
""blur"",""7"",""39272""
""focus"",""7"",""40060""
","""event"",""trial"",""time""
""blur"",""2"",""11646""
""blur"",""7"",""39272""
","""event"",""trial"",""time""
""focus"",""1"",""221""
""focus"",""2"",""23923""
""focus"",""7"",""40060""
","""event"",""trial"",""time""
""fullscreenenter"",""1"",""3025""
","
","","[{""page_index"":0,""viewing_time"":53611.5},{""page_index"":1,""viewing_time"":7391.400000095367}]","61003","","","","","","","","","","","","","","","","","","","","","","","",""
"pit-trial","139","1073416","0.0-25.0","battery-v0.2","","""event"",""trial"",""time""
""focus"",""1"",""221""
""fullscreenenter"",""1"",""3025""
""blur"",""2"",""11646""
""focus"",""2"",""23923""
""blur"",""7"",""39272""
""focus"",""7"",""40060""
","""event"",""trial"",""time""
""blur"",""2"",""11646""
""blur"",""7"",""39272""
","""event"",""trial"",""time""
""focus"",""1"",""221""
""focus"",""2"",""23923""
""focus"",""7"",""40060""
","""event"",""trial"",""time""
""fullscreenenter"",""1"",""3025""
","
","","","1030.2999999523163","","","14","3366","1980","h","elianto","#f73b6a7A"," "," ","1","-10","[1880.7999999523163]","1","2","","","3366","21","3","3","lose","go","1"
"pit-trial","140","1076912","0.0-26.0","battery-v0.2","","""event"",""trial"",""time""
""focus"",""1"",""221""
""fullscreenenter"",""1"",""3025""
""blur"",""2"",""11646""
""focus"",""2"",""23923""
""blur"",""7"",""39272""
""focus"",""7"",""40060""
","""event"",""trial"",""time""
""blur"",""2"",""11646""
""blur"",""7"",""39272""
","""event"",""trial"",""time""
""focus"",""1"",""221""
""focus"",""2"",""23923""
""focus"",""7"",""40060""
","""event"",""trial"",""time""
""fullscreenenter"",""1"",""3025""
","
","","","643.1999998092651","","","14","3366","1980","y","elianto","#f73b6a7A","-1"," ","0","0","[1494.5999999046326]","1","2","","","3366","22","2","4","lose","no-go","1"
"pit-trial","141","1080455","0.0-27.0","battery-v0.2","","""event"",""trial"",""time""
""focus"",""1"",""221""
""fullscreenenter"",""1"",""3025""
""blur"",""2"",""11646""
""focus"",""2"",""23923""
""blur"",""7"",""39272""
""focus"",""7"",""40060""
","""event"",""trial"",""time""
""blur"",""2"",""11646""
""blur"",""7"",""39272""
","""event"",""trial"",""time""
""focus"",""1"",""221""
""focus"",""2"",""23923""
""focus"",""7"",""40060""
","""event"",""trial"",""time""
""fullscreenenter"",""1"",""3025""
","
","","","690.3999998569489","","","14","3366","1980","r","elianto","#3366ff99"," "," ","1","+10","[1541.2999999523163]","1","2","","","3366","23","1","1","win","go","0"
"pit-trial","142","1085309","0.0-28.0","battery-v0.2","","""event"",""trial"",""time""
""focus"",""1"",""221""
""fullscreenenter"",""1"",""3025""
""blur"",""2"",""11646""
""focus"",""2"",""23923""
""blur"",""7"",""39272""
""focus"",""7"",""40060""
","""event"",""trial"",""time""
""blur"",""2"",""11646""
""blur"",""7"",""39272""
","""event"",""trial"",""time""
""focus"",""1"",""221""
""focus"",""2"",""23923""
""focus"",""7"",""40060""
","""event"",""trial"",""time""
""fullscreenenter"",""1"",""3025""
","
","","","-1","","","14","3366","1980","m","elianto","#f73b6a7A","-1","-1","1","0","[]","0","2","","","3366","24","0","4","lose","no-go","0"
"pit-trial","143","1090032","0.0-29.0","battery-v0.2","","""event"",""trial"",""time""
""focus"",""1"",""221""
""fullscreenenter"",""1"",""3025""
""blur"",""2"",""11646""
""focus"",""2"",""23923""
""blur"",""7"",""39272""
""focus"",""7"",""40060""
","""event"",""trial"",""time""
""blur"",""2"",""11646""
""blur"",""7"",""39272""
","""event"",""trial"",""time""
""focus"",""1"",""221""
""focus"",""2"",""23923""
""focus"",""7"",""40060""
","""event"",""trial"",""time""
""fullscreenenter"",""1"",""3025""
","
