"trial_type","trial_index","time_elapsed","internal_node_id","task_version","subject_id","interactions","blur_events","focus_events","fullscreenenter_events","fullscreenexit_events","success","view_history","rt","responses","num_errors","age","subject","participantId","rune","rune_set","hex","correct","choice","accuracy","outcome","keys","total_keys","block","practice","value","sub","trial","stimulus","robot","valence","action","sham"
"pavlovia","0","7","0.0-0.0","battery-v0.2","","""event"",""trial"",""time""
""fullscreenenter"",""1"",""4991""
","
","
","""event"",""trial"",""time""
""fullscreenenter"",""1"",""4991""
","
","","","","","","","","","","","","","","","","","","","","","","","","","","",""
"fullscreen","1","5978","0.0-1.0","battery-v0.2","","""event"",""trial"",""time""
""fullscreenenter"",""1"",""4991""
","
","
","""event"",""trial"",""time""
""fullscreenenter"",""1"",""4991""
","
","true","","","","","","","","","","","","","","","","","","","","","","","","","",""
"pit-instructions","2","9020","0.0-2.0-0.0","battery-v0.2","","""event"",""trial"",""time""
""fullscreenenter"",""1"",""4991""
","
","
","""event"",""trial"",""time""
""fullscreenenter"",""1"",""4991""
","
","","[{""page_index"":0,""viewing_time"":3039.7000000029802}]","3039.7999999970198","","","","","","","","","","","","","","","","","","","","","","","",""
"pit-comprehension","3","12861","0.0-2.0-1.0-0.0","battery-v0.2","","""event"",""trial"",""time""
""fullscreenenter"",""1"",""4991""
","
","
","""event"",""trial"",""time""
""fullscreenenter"",""1"",""4991""
","
","","","3838.1000000089407","[""shark""]","0","23","14801","6053","","","","","","","","","","","","","","","","","","",""
"pit-instructions","4","13868","0.0-2.0-1.0-1.0","battery-v0.2","","""event"",""trial"",""time""
""fullscreenenter"",""1"",""4991""
","
","
","""event"",""trial"",""time""
""fullscreenenter"",""1"",""4991""
","
","","[{""page_index"":0,""viewing_time"":999.7000000029802}]","1000.1000000089407","","","","","","","","","","","","","","","","","","","","","","","",""
"pit-comprehension","5","16404","0.0-2.0-2.0-0.0","battery-v0.2","","""event"",""trial"",""time""
""fullscreenenter"",""1"",""4991""
","
","
","""event"",""trial"",""time""
""fullscreenenter"",""1"",""4991""
","
","","","2534.2000000029802","[""tiger""]","0","23","14801","6053","","","","","","","","","","","","","","","","","","",""
"pit-instructions","6","17460","0.0-2.0-2.0-1.0","battery-v0.2","","""event"",""trial"",""time""
""fullscreenenter"",""1"",""4991""
","
","
","""event"",""trial"",""time""
""fullscreenenter"",""1"",""4991""
","
","","[{""page_index"":0,""viewing_time"":1054}]","1054.2000000029802","","","","","","","","","","","","","","","","","","","","","","","",""
"pit-instructions","7","126968","0.0-2.0-3.0","battery-v0.2","","""event"",""trial"",""time""
""fullscreenenter"",""1"",""4991""
","
","
","""event"",""trial"",""time""
""fullscreenenter"",""1"",""4991""
","
","","[{""page_index"":0,""viewing_time"":8534.20000000298},{""page_index"":1,""viewing_time"":6600.0999999940395},{""page_index"":2,""viewing_time"":6119.800000011921},{""page_index"":3,""viewing_time"":5152.199999988079},{""page_index"":4,""viewing_time"":6119.800000011921},{""page_index"":5,""viewing_time"":5760.29999999702},{""page_index"":6,""viewing_time"":7111.79999999702},{""page_index"":7,""viewing_time"":6721.20000000298},{""page_index"":8,""viewing_time"":6591.0999999940395},{""page_index"":9,""viewing_time"":20831.5},{""page_index"":10,""viewing_time"":8408.5},{""page_index"":11,""viewing_time"":8439.5},{""page_index"":12,""viewing_time"":7728},{""page_index"":13,""viewing_time"":5384.20000000298}]","109502.5","","","","","","","","","","","","","","","","","","","","","","","",""
"pit-trial","8","130281","0.0-2.0-4.0-0.0","battery-v0.2","","""event"",""trial"",""time""
""fullscreenenter"",""1"",""4991""
","
","
","""event"",""trial"",""time""
""fullscreenenter"",""1"",""4991""
","
","","","449.20000000298023","","","23","14801","6053","&#9784;","elianto","#FFFFF080"," "," ","1","&#10004","[1299.5]","1","0","0","","","","","","","",""
"pit-trial","9","133835","0.0-2.0-4.1-0.1","battery-v0.2","","""event"",""trial"",""time""
""fullscreenenter"",""1"",""4991""
","
","
","""event"",""trial"",""time""
""fullscreenenter"",""1"",""4991""
","
","","","684.2000000029802","","","23","14801","6053","&#9784;","elianto","#FFFFF080"," "," ","1","&#10004","[1538]","1","0","0","","","","","","","",""
"pit-trial","10","137279","0.0-2.0-4.2-0.2","battery-v0.2","","""event"",""trial"",""time""
""fullscreenenter"",""1"",""4991""
","
","
","""event"",""trial"",""time""
""fullscreenenter"",""1"",""4991""
","
","","","573.6000000089407","","","23","14801","6053","&#9784;","elianto","#FFFFF080"," "," ","1","&#10004","[1425.7000000029802]","1","0","0","","","","","","","",""
"pit-trial","11","140483","0.0-2.0-4.3-0.3","battery-v0.2","","""event"",""trial"",""time""
""fullscreenenter"",""1"",""4991""
","
","
","""event"",""trial"",""time""
""fullscreenenter"",""1"",""4991""
","
","","","344.70000000298023","","","23","14801","6053","&#9784;","elianto","#FFFFF080"," "," ","1","&#10004","[1195.2000000029802]","1","0","0","","","","","","","",""
"pit-trial","12","143658","0.0-2.0-4.4-0.4","battery-v0.2","","""event"",""trial"",""time""
""fullscreenenter"",""1"",""4991""
","
","
","""event"",""trial"",""time""
""fullscreenenter"",""1"",""4991""
","
","","","313.79999999701977","","","23","14801","6053","&#9784;","elianto","#FFFFF080"," "," ","1","&#10004","[1166.7000000029802]","1","0","0","","","","","","","",""
"pit-instructions","13","168431","0.0-2.0-5.0","battery-v0.2","","""event"",""trial"",""time""
""fullscreenenter"",""1"",""4991""
","
","
","""event"",""trial"",""time""
""fullscreenenter"",""1"",""4991""
","
","","[{""page_index"":0,""viewing_time"":6444.100000008941},{""page_index"":1,""viewing_time"":7031.5},{""page_index"":2,""viewing_time"":5800.70000000298},{""page_index"":3,""viewing_time"":5495.199999988079}]","24771.80000001192","","","","","","","","","","","","","","","","","","","","","","","",""
"pit-trial","14","173304","0.0-2.0-6.0-0.0","battery-v0.2","","""event"",""trial"",""time""
""fullscreenenter"",""1"",""4991""
","
","
","""event"",""trial"",""time""
""fullscreenenter"",""1"",""4991""
","
","","","-1","","","23","14801","6053","&#9854;","elianto","#FFFFF080","-1","-1","1","&#10004","[]","0","0","1","","","","","","","",""
"pit-trial","15","178172","0.0-2.0-6.1-0.1","battery-v0.2","","""event"",""trial"",""time""
""fullscreenenter"",""1"",""4991""
","
","
","""event"",""trial"",""time""
""fullscreenenter"",""1"",""4991""
","
","","","-1","","","23","14801","6053","&#9854;","elianto","#FFFFF080","-1","-1","1","&#10004","[]","0","0","1","","","","","","","",""
"pit-trial","16","183053","0.0-2.0-6.2-0.2","battery-v0.2","","""event"",""trial"",""time""
""fullscreenenter"",""1"",""4991""
","
","
","""event"",""trial"",""time""
""fullscreenenter"",""1"",""4991""
","
","","","-1","","","23","14801","6053","&#9854;","elianto","#FFFFF080","-1","-1","1","&#10004","[]","0","0","1","","","","","","","",""
"pit-trial","17","187926","0.0-2.0-6.3-0.3","battery-v0.2","","""event"",""trial"",""time""
""fullscreenenter"",""1"",""4991""
","
","
","""event"",""trial"",""time""
""fullscreenenter"",""1"",""4991""
","
","","","-1","","","23","14801","6053","&#9854;","elianto","#FFFFF080","-1","-1","1","&#10004","[]","0","0","1","","","","","","","",""
"pit-trial","18","192797","0.0-2.0-6.4-0.4","battery-v0.2","","""event"",""trial"",""time""
""fullscreenenter"",""1"",""4991""
","
","
","""event"",""trial"",""time""
""fullscreenenter"",""1"",""4991""
","
","","","-1","","","23","14801","6053","&#9854;","elianto","#FFFFF080","-1","-1","1","&#10004","[]","0","0","1","","","","","","","",""
"pit-instructions","19","316176","0.0-2.0-7.0","battery-v0.2","","""event"",""trial"",""time""
""fullscreenenter"",""1"",""4991""
","
","
","""event"",""trial"",""time""
""fullscreenenter"",""1"",""4991""
","
","","[{""page_index"":0,""viewing_time"":6207.79999999702},{""page_index"":1,""viewing_time"":8048.399999991059},{""page_index"":2,""viewing_time"":6960.300000011921},{""page_index"":3,""viewing_time"":6647.79999999702},{""page_index"":4,""viewing_time"":5975.70000000298},{""page_index"":5,""viewing_time"":5688.29999999702},{""page_index"":6,""viewing_time"":7295.899999991059},{""page_index"":7,""viewing_time"":8872.10000000894},{""page_index"":8,""viewing_time"":7632.29999999702},{""page_index"":9,""viewing_time"":5888.29999999702},{""page_index"":10,""viewing_time"":6247},{""page_index"":11,""viewing_time"":5416.100000008941},{""page_index"":12,""viewing_time"":7168.29999999702},{""page_index"":13,""viewing_time"":7023.399999991059},{""page_index"":14,""viewing_time"":7673},{""page_index"":15,""viewing_time"":6231.5},{""page_index"":16,""viewing_time"":7535.800000011921},{""page_index"":17,""viewing_time"":6864.699999988079}]","123377.19999998808","","","","","","","","","","","","","","","","","","","","","","","",""
"pit-trial","20","319816","0.0-2.0-8.0-0.0","battery-v0.2","","""event"",""trial"",""time""
""fullscreenenter"",""1"",""4991""
","
","
","""event"",""trial"",""time""
""fullscreenenter"",""1"",""4991""
","
","","","775.7000000029802","","","23","14801","6053","&#9776;","elianto","#3366ff99"," "," ","1","+10","[1627.9000000059605]","1","0","1","","","","","","","",""
"pit-trial","21","323159","0.0-2.0-8.0-1.0","battery-v0.2","","""event"",""trial"",""time""
""fullscreenenter"",""1"",""4991""
","
","
","""event"",""trial"",""time""
""fullscreenenter"",""1"",""4991""
","
","","","490.5","","","23","14801","6053","&#9776;","elianto","#3366ff99"," "," ","1","+10","[1340.9000000059605]","1","0","1","","","","","","","",""
"pit-trial","22","326529","0.0-2.0-8.0-2.0","battery-v0.2","","""event"",""trial"",""time""
""fullscreenenter"",""1"",""4991""
","
","
","""event"",""trial"",""time""
""fullscreenenter"",""1"",""4991""
","
","","","511.79999999701977","","","23","14801","6053","&#9776;","elianto","#3366ff99"," "," ","1","+10","[1362]","1","0","1","","","","","","","",""
"pit-trial","23","330001","0.0-2.0-8.0-3.0","battery-v0.2","","""event"",""trial"",""time""
""fullscreenenter"",""1"",""4991""
","
","
","""event"",""trial"",""time""
""fullscreenenter"",""1"",""4991""
","
","","","609.2000000029802","","","23","14801","6053","&#9776;","elianto","#3366ff99"," "," ","1","0","[1461.7000000029802]","1","0","1","","","","","","","",""
"pit-trial","24","333285","0.0-2.0-8.0-4.0","battery-v0.2","","""event"",""trial"",""time""
""fullscreenenter"",""1"",""4991""
","
","
","""event"",""trial"",""time""
""fullscreenenter"",""1"",""4991""
","
","","","425.29999999701977","","","23","14801","6053","&#9776;","elianto","#3366ff99"," "," ","1","+10","[1276.9000000059605]","1","0","1","","","","","","","",""
"pit-trial","25","336473","0.0-2.0-8.1-0.1","battery-v0.2","","""event"",""trial"",""time""
""fullscreenenter"",""1"",""4991""
","
","
","""event"",""trial"",""time""
""fullscreenenter"",""1"",""4991""
","
","","","324.59999999403954","","","23","14801","6053","&#9776;","elianto","#3366ff99"," "," ","1","+10","[1178.9000000059605]","1","0","1","","","","","","","",""
"pit-trial","26","339463","0.0-2.0-8.1-1.1","battery-v0.2","","""event"",""trial"",""time""
""fullscreenenter"",""1"",""4991""
","
","
","""event"",""trial"",""time""
""fullscreenenter"",""1"",""4991""
","
","","","134","","","23","14801","6053","&#9776;","elianto","#3366ff99"," "," ","1","+10","[986.7000000029802]","1","0","1","","","","","","","",""
"pit-trial","27","342725","0.0-2.0-8.1-2.1","battery-v0.2","","""event"",""trial"",""time""
""fullscreenenter"",""1"",""4991""
","
","
","""event"",""trial"",""time""
""fullscreenenter"",""1"",""4991""
","
","","","394","","","23","14801","6053","&#9776;","elianto","#3366ff99"," "," ","1","+10","[361.29999999701977,1244.7999999970198]","2","0","1","","","","","","","",""
"pit-trial","28","345882","0.0-2.0-8.1-3.1","battery-v0.2","","""event"",""trial"",""time""
""fullscreenenter"",""1"",""4991""
","
","
","""event"",""trial"",""time""
""fullscreenenter"",""1"",""4991""
","
","","","301.90000000596046","","","23","14801","6053","&#9776;","elianto","#3366ff99"," "," ","1","0","[1152.5]","1","0","1","","","","","","","",""
"pit-trial","29","348891","0.0-2.0-8.1-4.1","battery-v0.2","","""event"",""trial"",""time""
""fullscreenenter"",""1"",""4991""
","
","
","""event"",""trial"",""time""
""fullscreenenter"",""1"",""4991""
","
","","","157","","","23","14801","6053","&#9776;","elianto","#3366ff99"," "," ","1","+10","[1007.2999999970198]","1","0","1","","","","","","","",""
"pit-trial","30","351992","0.0-2.0-8.2-0.2","battery-v0.2","","""event"",""trial"",""time""
""fullscreenenter"",""1"",""4991""
","
","
","""event"",""trial"",""time""
""fullscreenenter"",""1"",""4991""
","
","","","247","","","23","14801","6053","&#9776;","elianto","#3366ff99"," "," ","1","+10","[1099]","1","0","1","","","","","","","",""
"pit-trial","31","354997","0.0-2.0-8.2-1.2","battery-v0.2","","""event"",""trial"",""time""
""fullscreenenter"",""1"",""4991""
","
","
","""event"",""trial"",""time""
""fullscreenenter"",""1"",""4991""
","
","","","153.29999999701977","","","23","14801","6053","&#9776;","elianto","#3366ff99"," "," ","1","+10","[1003.7999999970198]","1","0","1","","","","","","","",""
"pit-trial","32","358094","0.0-2.0-8.2-2.2","battery-v0.2","","""event"",""trial"",""time""
""fullscreenenter"",""1"",""4991""
","
","
","""event"",""trial"",""time""
""fullscreenenter"",""1"",""4991""
","
","","","244.29999999701977","","","23","14801","6053","&#9776;","elianto","#3366ff99"," "," ","1","+10","[1095.2999999970198]","1","0","1","","","","","","","",""
"pit-trial","33","361015","0.0-2.0-8.2-3.2","battery-v0.2","","""event"",""trial"",""time""
""fullscreenenter"",""1"",""4991""
","
","
","""event"",""trial"",""time""
""fullscreenenter"",""1"",""4991""
","
","","","68","","","23","14801","6053","&#9776;","elianto","#3366ff99"," "," ","1","0","[918.5]","1","0","1","","","","","","","",""
"pit-trial","34","364234","0.0-2.0-8.2-4.2","battery-v0.2","","""event"",""trial"",""time""
""fullscreenenter"",""1"",""4991""
","
","
","""event"",""trial"",""time""
""fullscreenenter"",""1"",""4991""
","
","","","367","","","23","14801","6053","&#9776;","elianto","#3366ff99"," "," ","1","+10","[1217.7000000029802]","1","0","1","","","","","","","",""
"call-function","35","364235","0.0-2.0-9.0","battery-v0.2","","""event"",""trial"",""time""
""fullscreenenter"",""1"",""4991""
","
","
","""event"",""trial"",""time""
""fullscreenenter"",""1"",""4991""
","
","","","","","","","","","","","","","","","","","","","","","","","","","","",""
"pit-instructions","36","406272","0.0-2.0-10.0","battery-v0.2","","""event"",""trial"",""time""
""fullscreenenter"",""1"",""4991""
","
","
","""event"",""trial"",""time""
""fullscreenenter"",""1"",""4991""
","
","","[{""page_index"":0,""viewing_time"":8795.60000000894},{""page_index"":1,""viewing_time"":7087.399999991059},{""page_index"":2,""viewing_time"":9368.20000000298},{""page_index"":3,""viewing_time"":9039.70000000298},{""page_index"":4,""viewing_time"":7744.399999991059}]","42035.5","","","","","","","","","","","","","","","","","","","","","","","",""
"pit-trial","37","409710","0.0-2.0-11.0-0.0","battery-v0.2","","""event"",""trial"",""time""
""fullscreenenter"",""1"",""4991""
","
","
","""event"",""trial"",""time""
""fullscreenenter"",""1"",""4991""
","
","","","584.6000000089407","","","23","14801","6053","&#9761;","elianto","#3366ff99","-1"," ","0","0","[1434.8999999910593]","1","0","2","","","","","","","",""
"pit-trial","38","414573","0.0-2.0-11.0-1.0","battery-v0.2","","""event"",""trial"",""time""
""fullscreenenter"",""1"",""4991""
","
","
","""event"",""trial"",""time""
""fullscreenenter"",""1"",""4991""
","
","","","-1","","","23","14801","6053","&#9761;","elianto","#3366ff99","-1","-1","1","+10","[]","0","0","2","","","","","","","",""
"pit-trial","39","418191","0.0-2.0-11.0-2.0","battery-v0.2","","""event"",""trial"",""time""
""fullscreenenter"",""1"",""4991""
","
","
","""event"",""trial"",""time""
""fullscreenenter"",""1"",""4991""
","
","","","761.0999999940395","","","23","14801","6053","&#9761;","elianto","#3366ff99","-1"," ","0","0","[1611.2999999970198]","1","0","2","","","","","","","",""
"pit-trial","40","423058","0.0-2.0-11.0-3.0","battery-v0.2","","""event"",""trial"",""time""
""fullscreenenter"",""1"",""4991""
","
","
","""event"",""trial"",""time""
""fullscreenenter"",""1"",""4991""
","
","","","-1","","","23","14801","6053","&#9761;","elianto","#3366ff99","-1","-1","1","0","[]","0","0","2","","","","","","","",""
"pit-trial","41","427916","0.0-2.0-11.0-4.0","battery-v0.2","","""event"",""trial"",""time""
""fullscreenenter"",""1"",""4991""
","
","
","""event"",""trial"",""time""
""fullscreenenter"",""1"",""4991""
","
","","","-1","","","23","14801","6053","&#9761;","elianto","#3366ff99","-1","-1","1","+10","[]","0","0","2","","","","","","","",""
"pit-trial","42","432781","0.0-2.0-11.1-0.1","battery-v0.2","","""event"",""trial"",""time""
""fullscreenenter"",""1"",""4991""
","
","
","""event"",""trial"",""time""
""fullscreenenter"",""1"",""4991""
","
","","","-1","","","23","14801","6053","&#9761;","elianto","#3366ff99","-1","-1","1","+10","[]","0","0","2","","","","","","","",""
"pit-trial","43","437643","0.0-2.0-11.1-1.1","battery-v0.2","","""event"",""trial"",""time""
""fullscreenenter"",""1"",""4991""
","
","
","""event"",""trial"",""time""
""fullscreenenter"",""1"",""4991""
","
","","","-1","","","23","14801","6053","&#9761;","elianto","#3366ff99","-1","-1","1","+10","[]","0","0","2","","","","","","","",""
"pit-trial","44","442496","0.0-2.0-11.1-2.1","battery-v0.2","","""event"",""trial"",""time""
""fullscreenenter"",""1"",""4991""
","
","
","""event"",""trial"",""time""
""fullscreenenter"",""1"",""4991""
","
","","","-1","","","23","14801","6053","&#9761;","elianto","#3366ff99","-1","-1","1","+10","[]","0","0","2","","","","","","","",""
"pit-trial","45","447348","0.0-2.0-11.1-3.1","battery-v0.2","","""event"",""trial"",""time""
""fullscreenenter"",""1"",""4991""
","
","
","""event"",""trial"",""time""
""fullscreenenter"",""1"",""4991""
","
","","","-1","","","23","14801","6053","&#9761;","elianto","#3366ff99","-1","-1","1","0","[]","0","0","2","","","","","","","",""
"pit-trial","46","452201","0.0-2.0-11.1-4.1","battery-v0.2","","""event"",""trial"",""time""
""fullscreenenter"",""1"",""4991""
","
","
","""event"",""trial"",""time""
""fullscreenenter"",""1"",""4991""
","
","","","-1","","","23","14801","6053","&#9761;","elianto","#3366ff99","-1","-1","1","+10","[]","0","0","2","","","","","","","",""
"pit-trial","47","457054","0.0-2.0-11.2-0.2","battery-v0.2","","""event"",""trial"",""time""
""fullscreenenter"",""1"",""4991""
","
","
","""event"",""trial"",""time""
""fullscreenenter"",""1"",""4991""
","
","","","-1","","","23","14801","6053","&#9761;","elianto","#3366ff99","-1","-1","1","+10","[]","0","0","2","","","","","","","",""
"pit-trial","48","461907","0.0-2.0-11.2-1.2","battery-v0.2","","""event"",""trial"",""time""
""fullscreenenter"",""1"",""4991""
","
","
","""event"",""trial"",""time""
""fullscreenenter"",""1"",""4991""
","
","","","-1","","","23","14801","6053","&#9761;","elianto","#3366ff99","-1","-1","1","+10","[]","0","0","2","","","","","","","",""
"pit-trial","49","466759","0.0-2.0-11.2-2.2","battery-v0.2","","""event"",""trial"",""time""
""fullscreenenter"",""1"",""4991""
","
","
","""event"",""trial"",""time""
""fullscreenenter"",""1"",""4991""
","
","","","-1","","","23","14801","6053","&#9761;","elianto","#3366ff99","-1","-1","1","+10","[]","0","0","2","","","","","","","",""
"pit-trial","50","471611","0.0-2.0-11.2-3.2","battery-v0.2","","""event"",""trial"",""time""
""fullscreenenter"",""1"",""4991""
","
","
","""event"",""trial"",""time""
""fullscreenenter"",""1"",""4991""
","
","","","-1","","","23","14801","6053","&#9761;","elianto","#3366ff99","-1","-1","1","0","[]","0","0","2","","","","","","","",""
"pit-trial","51","476464","0.0-2.0-11.2-4.2","battery-v0.2","","""event"",""trial"",""time""
""fullscreenenter"",""1"",""4991""
","
","
","""event"",""trial"",""time""
""fullscreenenter"",""1"",""4991""
","
","","","-1","","","23","14801","6053","&#9761;","elianto","#3366ff99","-1","-1","1","+10","[]","0","0","2","","","","","","","",""
"pit-trial","52","481316","0.0-2.0-11.3-0.3","battery-v0.2","","""event"",""trial"",""time""
""fullscreenenter"",""1"",""4991""
","
","
","""event"",""trial"",""time""
""fullscreenenter"",""1"",""4991""
","
","","","-1","","","23","14801","6053","&#9761;","elianto","#3366ff99","-1","-1","1","+10","[]","0","0","2","","","","","","","",""
"pit-trial","53","486169","0.0-2.0-11.3-1.3","battery-v0.2","","""event"",""trial"",""time""
""fullscreenenter"",""1"",""4991""
","
","
","""event"",""trial"",""time""
""fullscreenenter"",""1"",""4991""
","
","","","-1","","","23","14801","6053","&#9761;","elianto","#3366ff99","-1","-1","1","+10","[]","0","0","2","","","","","","","",""
"pit-trial","54","491021","0.0-2.0-11.3-2.3","battery-v0.2","","""event"",""trial"",""time""
""fullscreenenter"",""1"",""4991""
","
","
","""event"",""trial"",""time""
""fullscreenenter"",""1"",""4991""
","
","","","-1","","","23","14801","6053","&#9761;","elianto","#3366ff99","-1","-1","1","+10","[]","0","0","2","","","","","","","",""
"pit-trial","55","495874","0.0-2.0-11.3-3.3","battery-v0.2","","""event"",""trial"",""time""
""fullscreenenter"",""1"",""4991""
","
","
","""event"",""trial"",""time""
""fullscreenenter"",""1"",""4991""
","
","","","-1","","","23","14801","6053","&#9761;","elianto","#3366ff99","-1","-1","1","0","[]","0","0","2","","","","","","","",""
"pit-trial","56","499516","0.0-2.0-11.3-4.3","battery-v0.2","","""event"",""trial"",""time""
""fullscreenenter"",""1"",""4991""
","
","
","""event"",""trial"",""time""
""fullscreenenter"",""1"",""4991""
","
","","","787.7000000029802","","","23","14801","6053","&#9761;","elianto","#3366ff99","-1"," ","0","0","[1639.5]","1","0","2","","","","","","","",""
"call-function","57","499517","0.0-2.0-12.0","battery-v0.2","","""event"",""trial"",""time""
""fullscreenenter"",""1"",""4991""
","
","
","""event"",""trial"",""time""
""fullscreenenter"",""1"",""4991""
","
","","","","","","","","","","","","","","","","","","","","","","","","","","",""
"pit-instructions","58","532039","0.0-2.0-13.0","battery-v0.2","","""event"",""trial"",""time""
""fullscreenenter"",""1"",""4991""
","
","
","""event"",""trial"",""time""
""fullscreenenter"",""1"",""4991""
","
","","[{""page_index"":0,""viewing_time"":6113.0999999940395},{""page_index"":1,""viewing_time"":6832},{""page_index"":2,""viewing_time"":3032.6000000089407},{""page_index"":3,""viewing_time"":12343.39999999106},{""page_index"":4,""viewing_time"":4200.20000000298}]","32521.5","","","","","","","","","","","","","","","","","","","","","","","",""
"pit-trial","59","535585","0.0-2.0-14.0-0.0","battery-v0.2","","""event"",""trial"",""time""
""fullscreenenter"",""1"",""4991""
","
","
","""event"",""trial"",""time""
""fullscreenenter"",""1"",""4991""
","
","","","685.5999999940395","","","23","14801","6053","&#9826;","elianto","#f73b6a7A","-1"," ","0","-10","[1537.7999999970198]","1","0","3","","","","","","","",""
"pit-trial","60","538503","0.0-2.0-14.0-1.0","battery-v0.2","","""event"",""trial"",""time""
""fullscreenenter"",""1"",""4991""
","
","
","""event"",""trial"",""time""
""fullscreenenter"",""1"",""4991""
","
","","","52.70000000298023","","","23","14801","6053","&#9826;","elianto","#f73b6a7A","-1"," ","0","-10","[905.0999999940395]","1","0","3","","","","","","","",""
"pit-trial","61","543370","0.0-2.0-14.0-2.0","battery-v0.2","","""event"",""trial"",""time""
""fullscreenenter"",""1"",""4991""
","
","
","""event"",""trial"",""time""
""fullscreenenter"",""1"",""4991""
","
","","","-1","","","23","14801","6053","&#9826;","elianto","#f73b6a7A","-1","-1","1","0","[]","0","0","3","","","","","","","",""
"pit-trial","62","548236","0.0-2.0-14.0-3.0","battery-v0.2","","""event"",""trial"",""time""
""fullscreenenter"",""1"",""4991""
","
","
","""event"",""trial"",""time""
""fullscreenenter"",""1"",""4991""
","
","","","-1","","","23","14801","6053","&#9826;","elianto","#f73b6a7A","-1","-1","1","-10","[]","0","0","3","","","","","","","",""
"pit-trial","63","553103","0.0-2.0-14.0-4.0","battery-v0.2","","""event"",""trial"",""time""
""fullscreenenter"",""1"",""4991""
","
","
","""event"",""trial"",""time""
""fullscreenenter"",""1"",""4991""
","
","","","-1","","","23","14801","6053","&#9826;","elianto","#f73b6a7A","-1","-1","1","0","[]","0","0","3","","","","","","","",""
"pit-trial","64","557979","0.0-2.0-14.1-0.1","battery-v0.2","","""event"",""trial"",""time""
""fullscreenenter"",""1"",""4991""
","
","
","""event"",""trial"",""time""
""fullscreenenter"",""1"",""4991""
","
","","","-1","","","23","14801","6053","&#9826;","elianto","#f73b6a7A","-1","-1","1","0","[]","0","0","3","","","","","","","",""
"pit-trial","65","562832","0.0-2.0-14.1-1.1","battery-v0.2","","""event"",""trial"",""time""
""fullscreenenter"",""1"",""4991""
","
","
","""event"",""trial"",""time""
""fullscreenenter"",""1"",""4991""
","
","","","-1","","","23","14801","6053","&#9826;","elianto","#f73b6a7A","-1","-1","1","0","[]","0","0","3","","","","","","","",""
"pit-trial","66","567684","0.0-2.0-14.1-2.1","battery-v0.2","","""event"",""trial"",""time""
""fullscreenenter"",""1"",""4991""
","
","
","""event"",""trial"",""time""
""fullscreenenter"",""1"",""4991""
","
","","","-1","","","23","14801","6053","&#9826;","elianto","#f73b6a7A","-1","-1","1","0","[]","0","0","3","","","","","","","",""
"pit-trial","67","572537","0.0-2.0-14.1-3.1","battery-v0.2","","""event"",""trial"",""time""
""fullscreenenter"",""1"",""4991""
","
","
","""event"",""trial"",""time""
""fullscreenenter"",""1"",""4991""
","
","","","-1","","","23","14801","6053","&#9826;","elianto","#f73b6a7A","-1","-1","1","-10","[]","0","0","3","","","","","","","",""
"pit-trial","68","577391","0.0-2.0-14.1-4.1","battery-v0.2","","""event"",""trial"",""time""
""fullscreenenter"",""1"",""4991""
","
","
","""event"",""trial"",""time""
""fullscreenenter"",""1"",""4991""
","
","","","-1","","","23","14801","6053","&#9826;","elianto","#f73b6a7A","-1","-1","1","0","[]","0","0","3","","","","","","","",""
"pit-trial","69","582244","0.0-2.0-14.2-0.2","battery-v0.2","","""event"",""trial"",""time""
""fullscreenenter"",""1"",""4991""
","
","
","""event"",""trial"",""time""
""fullscreenenter"",""1"",""4991""
","
","","","-1","","","23","14801","6053","&#9826;","elianto","#f73b6a7A","-1","-1","1","0","[]","0","0","3","","","","","","","",""
"pit-trial","70","585361","0.0-2.0-14.2-1.2","battery-v0.2","","""event"",""trial"",""time""
""fullscreenenter"",""1"",""4991""
","
","
","""event"",""trial"",""time""
""fullscreenenter"",""1"",""4991""
","
","","","264.79999999701977","","","23","14801","6053","&#9826;","elianto","#f73b6a7A","-1"," ","0","-10","[1115.0999999940395]","1","0","3","","","","","","","",""
"pit-trial","71","590214","0.0-2.0-14.2-2.2","battery-v0.2","","""event"",""trial"",""time""
""fullscreenenter"",""1"",""4991""
","
","
","""event"",""trial"",""time""
""fullscreenenter"",""1"",""4991""
","
","","","-1","","","23","14801","6053","&#9826;","elianto","#f73b6a7A","-1","-1","1","0","[]","0","0","3","","","","","","","",""
"pit-trial","72","595071","0.0-2.0-14.2-3.2","battery-v0.2","","""event"",""trial"",""time""
""fullscreenenter"",""1"",""4991""
","
","
","""event"",""trial"",""time""
""fullscreenenter"",""1"",""4991""
","
","","","-1","","","23","14801","6053","&#9826;","elianto","#f73b6a7A","-1","-1","1","-10","[]","0","0","3","","","","","","","",""
"pit-trial","73","599924","0.0-2.0-14.2-4.2","battery-v0.2","","""event"",""trial"",""time""
""fullscreenenter"",""1"",""4991""
","
","
","""event"",""trial"",""time""
""fullscreenenter"",""1"",""4991""
","
","","","-1","","","23","14801","6053","&#9826;","elianto","#f73b6a7A","-1","-1","1","0","[]","0","0","3","","","","","","","",""
"pit-trial","74","604777","0.0-2.0-14.3-0.3","battery-v0.2","","""event"",""trial"",""time""
""fullscreenenter"",""1"",""4991""
","
","
","""event"",""trial"",""time""
""fullscreenenter"",""1"",""4991""
","
","","","-1","","","23","14801","6053","&#9826;","elianto","#f73b6a7A","-1","-1","1","0","[]","0","0","3","","","","","","","",""
"pit-trial","75","609631","0.0-2.0-14.3-1.3","battery-v0.2","","""event"",""trial"",""time""
""fullscreenenter"",""1"",""4991""
","
","
","""event"",""trial"",""time""
""fullscreenenter"",""1"",""4991""
","
","","","-1","","","23","14801","6053","&#9826;","elianto","#f73b6a7A","-1","-1","1","0","[]","0","0","3","","","","","","","",""
"pit-trial","76","614484","0.0-2.0-14.3-2.3","battery-v0.2","","""event"",""trial"",""time""
""fullscreenenter"",""1"",""4991""
","
","
","""event"",""trial"",""time""
""fullscreenenter"",""1"",""4991""
","
","","","-1","","","23","14801","6053","&#9826;","elianto","#f73b6a7A","-1","-1","1","0","[]","0","0","3","","","","","","","",""
"pit-trial","77","619339","0.0-2.0-14.3-3.3","battery-v0.2","","""event"",""trial"",""time""
""fullscreenenter"",""1"",""4991""
","
","
","""event"",""trial"",""time""
""fullscreenenter"",""1"",""4991""
","
","","","-1","","","23","14801","6053","&#9826;","elianto","#f73b6a7A","-1","-1","1","-10","[]","0","0","3","","","","","","","",""
"pit-trial","78","624192","0.0-2.0-14.3-4.3","battery-v0.2","","""event"",""trial"",""time""
""fullscreenenter"",""1"",""4991""
","
","
","""event"",""trial"",""time""
""fullscreenenter"",""1"",""4991""
","
","","","-1","","","23","14801","6053","&#9826;","elianto","#f73b6a7A","-1","-1","1","0","[]","0","0","3","","","","","","","",""
"call-function","79","624194","0.0-2.0-15.0","battery-v0.2","","""event"",""trial"",""time""
""fullscreenenter"",""1"",""4991""
","
","
","""event"",""trial"",""time""
""fullscreenenter"",""1"",""4991""
","
","","","","","","","","","","","","","","","","","","","","","","","","","","",""
"pit-instructions","80","649704","0.0-2.0-16.0","battery-v0.2","","""event"",""trial"",""time""
""fullscreenenter"",""1"",""4991""
","
","
","""event"",""trial"",""time""
""fullscreenenter"",""1"",""4991""
","
","","[{""page_index"":0,""viewing_time"":6741.20000000298},{""page_index"":1,""viewing_time"":8177.4000000059605},{""page_index"":2,""viewing_time"":4982.20000000298},{""page_index"":3,""viewing_time"":5608.0999999940395}]","25509.20000000298","","","","","","","","","","","","","","","","","","","","","","","",""
"pit-trial","81","652714","0.0-2.0-17.0-0.0","battery-v0.2","","""event"",""trial"",""time""
""fullscreenenter"",""1"",""4991""
","
","
","""event"",""trial"",""time""
""fullscreenenter"",""1"",""4991""
","
","","","152.5","","","23","14801","6053","&#9789;","elianto","#f73b6a7A"," "," ","1","0","[1005.7999999970198]","1","0","4","","","","","","","",""
"pit-trial","82","657585","0.0-2.0-17.0-1.0","battery-v0.2","","""event"",""trial"",""time""
""fullscreenenter"",""1"",""4991""
","
","
","""event"",""trial"",""time""
""fullscreenenter"",""1"",""4991""
","
","","","-1","","","23","14801","6053","&#9789;","elianto","#f73b6a7A"," ","-1","0","-10","[]","0","0","4","","","","","","","",""
"pit-trial","83","660751","0.0-2.0-17.0-2.0","battery-v0.2","","""event"",""trial"",""time""
""fullscreenenter"",""1"",""4991""
","
","
","""event"",""trial"",""time""
""fullscreenenter"",""1"",""4991""
","
","","","303.80000001192093","","","23","14801","6053","&#9789;","elianto","#f73b6a7A"," "," ","1","0","[1156.1000000089407]","1","0","4","","","","","","","",""
"pit-trial","84","663879","0.0-2.0-17.0-3.0","battery-v0.2","","""event"",""trial"",""time""
""fullscreenenter"",""1"",""4991""
","
","
","""event"",""trial"",""time""
""fullscreenenter"",""1"",""4991""
","
","","","270.5","","","23","14801","6053","&#9789;","elianto","#f73b6a7A"," "," ","1","-10","[1123]","1","0","4","","","","","","","",""
"pit-trial","85","666951","0.0-2.0-17.0-4.0","battery-v0.2","","""event"",""trial"",""time""
""fullscreenenter"",""1"",""4991""
","
","
","""event"",""trial"",""time""
""fullscreenenter"",""1"",""4991""
","
","","","212.79999999701977","","","23","14801","6053","&#9789;","elianto","#f73b6a7A"," "," ","1","0","[1063.2000000029802]","1","0","4","","","","","","","",""
"pit-trial","86","670058","0.0-2.0-17.1-0.1","battery-v0.2","","""event"",""trial"",""time""
""fullscreenenter"",""1"",""4991""
","
","
","""event"",""trial"",""time""
""fullscreenenter"",""1"",""4991""
","
","","","246.69999998807907","","","23","14801","6053","&#9789;","elianto","#f73b6a7A"," "," ","1","0","[1101.3999999910593]","1","0","4","","","","","","","",""
"pit-trial","87","673289","0.0-2.0-17.1-1.1","battery-v0.2","","""event"",""trial"",""time""
""fullscreenenter"",""1"",""4991""
","
","
","""event"",""trial"",""time""
""fullscreenenter"",""1"",""4991""
","
","","","372.5","","","23","14801","6053","&#9789;","elianto","#f73b6a7A"," "," ","1","0","[1224.8999999910593]","1","0","4","","","","","","","",""
"pit-trial","88","676458","0.0-2.0-17.1-2.1","battery-v0.2","","""event"",""trial"",""time""
""fullscreenenter"",""1"",""4991""
","
","
","""event"",""trial"",""time""
""fullscreenenter"",""1"",""4991""
","
","","","308.59999999403954","","","23","14801","6053","&#9789;","elianto","#f73b6a7A"," "," ","1","0","[1158.7999999970198]","1","0","4","","","","","","","",""
"pit-trial","89","679415","0.0-2.0-17.1-3.1","battery-v0.2","","""event"",""trial"",""time""
""fullscreenenter"",""1"",""4991""
","
","
","""event"",""trial"",""time""
""fullscreenenter"",""1"",""4991""
","
","","","85.5","","","23","14801","6053","&#9789;","elianto","#f73b6a7A"," "," ","1","-10","[939.5999999940395]","1","0","4","","","","","","","",""
"pit-trial","90","682408","0.0-2.0-17.1-4.1","battery-v0.2","","""event"",""trial"",""time""
""fullscreenenter"",""1"",""4991""
","
","
","""event"",""trial"",""time""
""fullscreenenter"",""1"",""4991""
","
","","","139.70000000298023","","","23","14801","6053","&#9789;","elianto","#f73b6a7A"," "," ","1","0","[654.7999999970198,990.5999999940395]","2","0","4","","","","","","","",""
"pit-trial","91","685371","0.0-2.0-17.2-0.2","battery-v0.2","","""event"",""trial"",""time""
""fullscreenenter"",""1"",""4991""
","
","
","""event"",""trial"",""time""
""fullscreenenter"",""1"",""4991""
","
","","","109.5","","","23","14801","6053","&#9789;","elianto","#f73b6a7A"," "," ","1","0","[959.8999999910593]","1","0","4","","","","","","","",""
"pit-trial","92","688296","0.0-2.0-17.2-1.2","battery-v0.2","","""event"",""trial"",""time""
""fullscreenenter"",""1"",""4991""
","
","
","""event"",""trial"",""time""
""fullscreenenter"",""1"",""4991""
","
","","","72.20000000298023","","","23","14801","6053","&#9789;","elianto","#f73b6a7A"," "," ","1","0","[923.4000000059605]","1","0","4","","","","","","","",""
"pit-trial","93","691684","0.0-2.0-17.2-2.2","battery-v0.2","","""event"",""trial"",""time""
""fullscreenenter"",""1"",""4991""
","
","
","""event"",""trial"",""time""
""fullscreenenter"",""1"",""4991""
","
","","","535.1000000089407","","","23","14801","6053","&#9789;","elianto","#f73b6a7A"," "," ","1","0","[1385.800000011921]","1","0","4","","","","","","","",""
"pit-trial","94","695154","0.0-2.0-17.2-3.2","battery-v0.2","","""event"",""trial"",""time""
""fullscreenenter"",""1"",""4991""
","
","
","""event"",""trial"",""time""
""fullscreenenter"",""1"",""4991""
","
","","","615.1999999880791","","","23","14801","6053","&#9789;","elianto","#f73b6a7A"," "," ","1","-10","[1467.5999999940395]","1","0","4","","","","","","","",""
"pit-trial","95","698368","0.0-2.0-17.2-4.2","battery-v0.2","","""event"",""trial"",""time""
""fullscreenenter"",""1"",""4991""
","
","
","""event"",""trial"",""time""
""fullscreenenter"",""1"",""4991""
","
","","","362.29999999701977","","","23","14801","6053","&#9789;","elianto","#f73b6a7A"," "," ","1","0","[804.3999999910593,1212.5]","2","0","4","","","","","","","",""
"pit-trial","96","701586","0.0-2.0-17.3-0.3","battery-v0.2","","""event"",""trial"",""time""
""fullscreenenter"",""1"",""4991""
","
","
","""event"",""trial"",""time""
""fullscreenenter"",""1"",""4991""
","
","","","364.90000000596046","","","23","14801","6053","&#9789;","elianto","#f73b6a7A"," "," ","1","0","[1215.9000000059605]","1","0","4","","","","","","","",""
"pit-trial","97","704638","0.0-2.0-17.3-1.3","battery-v0.2","","""event"",""trial"",""time""
""fullscreenenter"",""1"",""4991""
","
","
","""event"",""trial"",""time""
""fullscreenenter"",""1"",""4991""
","
","","","199.19999998807907","","","23","14801","6053","&#9789;","elianto","#f73b6a7A"," "," ","1","0","[1049.8999999910593]","1","0","4","","","","","","","",""
"pit-trial","98","707573","0.0-2.0-17.3-2.3","battery-v0.2","","""event"",""trial"",""time""
""fullscreenenter"",""1"",""4991""
","
","
","""event"",""trial"",""time""
""fullscreenenter"",""1"",""4991""
","
","","","75","","","23","14801","6053","&#9789;","elianto","#f73b6a7A"," "," ","1","0","[925.7000000029802]","1","0","4","","","","","","","",""
"pit-trial","99","712424","0.0-2.0-17.3-3.3","battery-v0.2","","""event"",""trial"",""time""
""fullscreenenter"",""1"",""4991""
","
","
","""event"",""trial"",""time""
""fullscreenenter"",""1"",""4991""
","
","","","-1","","","23","14801","6053","&#9789;","elianto","#f73b6a7A"," ","-1","0","0","[]","0","0","4","","","","","","","",""
"pit-trial","100","717277","0.0-2.0-17.3-4.3","battery-v0.2","","""event"",""trial"",""time""
""fullscreenenter"",""1"",""4991""
","
","
","""event"",""trial"",""time""
""fullscreenenter"",""1"",""4991""
","
","","","-1","","","23","14801","6053","&#9789;","elianto","#f73b6a7A"," ","-1","0","-10","[]","0","0","4","","","","","","","",""
"call-function","101","717278","0.0-2.0-18.0","battery-v0.2","","""event"",""trial"",""time""
""fullscreenenter"",""1"",""4991""
","
","
","""event"",""trial"",""time""
""fullscreenenter"",""1"",""4991""
","
","","","","","","","","","","","","","","","","","","","","","","","","","","",""
"pit-instructions","102","946824","0.0-2.0-19.0","battery-v0.2","","""event"",""trial"",""time""
""fullscreenenter"",""1"",""4991""
","
","
","""event"",""trial"",""time""
""fullscreenenter"",""1"",""4991""
","
","","[{""page_index"":0,""viewing_time"":6657.0999999940395},{""page_index"":1,""viewing_time"":36880.40000000596},{""page_index"":2,""viewing_time"":44918.79999999702},{""page_index"":3,""viewing_time"":11376.39999999106},{""page_index"":4,""viewing_time"":97104},{""page_index"":5,""viewing_time"":8231.40000000596},{""page_index"":6,""viewing_time"":15176.29999999702},{""page_index"":7,""viewing_time"":5384.70000000298},{""page_index"":8,""viewing_time"":3815.5999999940395}]","229545.09999999404","","","","","","","","","","","","","","","","","","","","","","","",""
"pit-comprehension","103","951040","0.0-2.0-20.0-0.0","battery-v0.2","","""event"",""trial"",""time""
""fullscreenenter"",""1"",""4991""
","
","
","""event"",""trial"",""time""
""fullscreenenter"",""1"",""4991""
","
","","","4213.5","[""SPACE""]","0","23","14801","6053","","","","","","","","","","","","","","","","","","",""
"pit-instructions","104","953144","0.0-2.0-20.0-1.0","battery-v0.2","","""event"",""trial"",""time""
""fullscreenenter"",""1"",""4991""
","
","
","""event"",""trial"",""time""
""fullscreenenter"",""1"",""4991""
","
","","[{""page_index"":0,""viewing_time"":2077.4000000059605}]","2077.7000000029802","","","","","","","","","","","","","","","","","","","","","","","",""
"pit-comprehension","105","957553","0.0-2.0-21.0-0.0","battery-v0.2","","""event"",""trial"",""time""
""fullscreenenter"",""1"",""4991""
","
","
","""event"",""trial"",""time""
""fullscreenenter"",""1"",""4991""
","
","","","4406.9000000059605","[""10""]","0","23","14801","6053","","","","","","","","","","","","","","","","","","",""
"pit-instructions","106","958775","0.0-2.0-21.0-1.0","battery-v0.2","","""event"",""trial"",""time""
""fullscreenenter"",""1"",""4991""
","
","
","""event"",""trial"",""time""
""fullscreenenter"",""1"",""4991""
","
","","[{""page_index"":0,""viewing_time"":1202.3999999910593}]","1202.5999999940395","","","","","","","","","","","","","","","","","","","","","","","",""
"pit-comprehension","107","964928","0.0-2.0-22.0-0.0","battery-v0.2","","""event"",""trial"",""time""
""fullscreenenter"",""1"",""4991""
","
","
","""event"",""trial"",""time""
""fullscreenenter"",""1"",""4991""
","
","","","6151.100000008941","[""0""]","0","23","14801","6053","","","","","","","","","","","","","","","","","","",""
"pit-instructions","108","966072","0.0-2.0-22.0-1.0","battery-v0.2","","""event"",""trial"",""time""
""fullscreenenter"",""1"",""4991""
","
","
","""event"",""trial"",""time""
""fullscreenenter"",""1"",""4991""
","
","","[{""page_index"":0,""viewing_time"":1122.9000000059605}]","1123.2999999970198","","","","","","","","","","","","","","","","","","","","","","","",""
"pit-comprehension","109","982392","0.0-2.0-23.0-0.0","battery-v0.2","","""event"",""trial"",""time""
""fullscreenenter"",""1"",""4991""
","
","
","""event"",""trial"",""time""
""fullscreenenter"",""1"",""4991""
","
","","","16318.199999988079","[""True""]","0","23","14801","6053","","","","","","","","","","","","","","","","","","",""
"pit-instructions","110","983687","0.0-2.0-23.0-1.0","battery-v0.2","","""event"",""trial"",""time""
""fullscreenenter"",""1"",""4991""
","
","
","""event"",""trial"",""time""
""fullscreenenter"",""1"",""4991""
","
","","[{""page_index"":0,""viewing_time"":1275.2999999970198}]","1275.5","","","","","","","","","","","","","","","","","","","","","","","",""
"pit-comprehension","111","990743","0.0-2.0-24.0-0.0","battery-v0.2","","""event"",""trial"",""time""
""fullscreenenter"",""1"",""4991""
","
","
","""event"",""trial"",""time""
""fullscreenenter"",""1"",""4991""
","
","","","7054.600000008941","[""True""]","0","23","14801","6053","","","","","","","","","","","","","","","","","","",""
"pit-instructions","112","992048","0.0-2.0-24.0-1.0","battery-v0.2","","""event"",""trial"",""time""
""fullscreenenter"",""1"",""4991""
","
","
","""event"",""trial"",""time""
""fullscreenenter"",""1"",""4991""
","
","","[{""page_index"":0,""viewing_time"":1284.4000000059605}]","1284.7000000029802","","","","","","","","","","","","","","","","","","","","","","","",""
"pit-comprehension","113","998088","0.0-2.0-25.0-0.0","battery-v0.2","","""event"",""trial"",""time""
""fullscreenenter"",""1"",""4991""
","
","
","""event"",""trial"",""time""
""fullscreenenter"",""1"",""4991""
","
","","","6038.5999999940395","[""True""]","0","23","14801","6053","","","","","","","","","","","","","","","","","","",""
"pit-instructions","114","999191","0.0-2.0-25.0-1.0","battery-v0.2","","""event"",""trial"",""time""
""fullscreenenter"",""1"",""4991""
","
","
","""event"",""trial"",""time""
""fullscreenenter"",""1"",""4991""
","
","","[{""page_index"":0,""viewing_time"":1083}]","1083.1000000089407","","","","","","","","","","","","","","","","","","","","","","","",""
"pit-comprehension","115","1004352","0.0-2.0-26.0-0.0","battery-v0.2","","""event"",""trial"",""time""
""fullscreenenter"",""1"",""4991""
","
","
","""event"",""trial"",""time""
""fullscreenenter"",""1"",""4991""
","
","","","5157.899999991059","[""False""]","0","23","14801","6053","","","","","","","","","","","","","","","","","","",""
"pit-instructions","116","1005919","0.0-2.0-26.0-1.0","battery-v0.2","","""event"",""trial"",""time""
""fullscreenenter"",""1"",""4991""
","
","
","""event"",""trial"",""time""
""fullscreenenter"",""1"",""4991""
","
","","[{""page_index"":0,""viewing_time"":1545.5999999940395}]","1545.7000000029802","","","","","","","","","","","","","","","","","","","","","","","",""
"pit-instructions","117","1023729","0.0-3.0","battery-v0.2","","""event"",""trial"",""time""
""fullscreenenter"",""1"",""4991""
","
","
","""event"",""trial"",""time""
""fullscreenenter"",""1"",""4991""
","
","","[{""page_index"":0,""viewing_time"":3414.7000000029802},{""page_index"":1,""viewing_time"":5480.20000000298},{""page_index"":2,""viewing_time"":8913.09999999404}]","17808.40000000596","","","","","","","","","","","","","","","","","","","","","","","",""
"pit-trial","118","1027261","0.0-4.0","battery-v0.2","","""event"",""trial"",""time""
""fullscreenenter"",""1"",""4991""
","
","
","""event"",""trial"",""time""
""fullscreenenter"",""1"",""4991""
","
","","","663.7000000029802","","","23","14801","6053","&#9752;","elianto","#f73b6a7A"," "," ","1","-10","[1514.300000011921]","1","1","","","14801","1","3","3","lose","go","1"
"pit-trial","119","1030701","0.0-5.0","battery-v0.2","","""event"",""trial"",""time""
""fullscreenenter"",""1"",""4991""
","
","
","""event"",""trial"",""time""
""fullscreenenter"",""1"",""4991""
","
","","","580.2000000029802","","","23","14801","6053","&#9730;","elianto","#3366ff99"," "," ","1","+10","[1432.800000011921]","1","1","","","14801","2","1","1","win","go","0"
"pit-trial","120","1034391","0.0-6.0","battery-v0.2","","""event"",""trial"",""time""
""fullscreenenter"",""1"",""4991""
","
","
","""event"",""trial"",""time""
""fullscreenenter"",""1"",""4991""
","
","","","833.9000000059605","","","23","14801","6053","&#9728;","elianto","#f73b6a7A","-1"," ","0","-10","[1685.4000000059605]","1","1","","","14801","3","0","4","lose","no-go","0"
"pit-trial","121","1038185","0.0-7.0","battery-v0.2","","""event"",""trial"",""time""
""fullscreenenter"",""1"",""4991""
","
","
","""event"",""trial"",""time""
""fullscreenenter"",""1"",""4991""
","
","","","933.5999999940395","","","23","14801","6053","&#9733;","elianto","#3366ff99","-1"," ","0","0","[1788]","1","1","","","14801","4","2","2","win","no-go","0"
"pit-trial","122","1041719","0.0-8.0","battery-v0.2","","""event"",""trial"",""time""
""fullscreenenter"",""1"",""4991""
","
","
","""event"",""trial"",""time""
""fullscreenenter"",""1"",""4991""
","
","","","667.0999999940395","","","23","14801","6053","&#9730;","elianto","#3366ff99"," "," ","1","+10","[1518.8999999910593]","1","1","","","14801","5","1","1","win","go","0"
"pit-trial","123","1045387","0.0-9.0","battery-v0.2","","""event"",""trial"",""time""
""fullscreenenter"",""1"",""4991""
","
","
","""event"",""trial"",""time""
""fullscreenenter"",""1"",""4991""
","
","","","798.0999999940395","","","23","14801","6053","&#9733;","elianto","#3366ff99","-1"," ","0","+10","[1650.5]","1","1","","","14801","6","2","2","win","no-go","1"
"pit-trial","124","1049041","0.0-10.0","battery-v0.2","","""event"",""trial"",""time""
""fullscreenenter"",""1"",""4991""
","
","
","""event"",""trial"",""time""
""fullscreenenter"",""1"",""4991""
","
","","","783.6999999880791","","","23","14801","6053","&#9752;","elianto","#f73b6a7A"," "," ","1","0","[1636.7999999970198]","1","1","","","14801","7","3","3","lose","go","0"
"pit-trial","125","1053649","0.0-11.0","battery-v0.2","","""event"",""trial"",""time""
""fullscreenenter"",""1"",""4991""
","
","
","""event"",""trial"",""time""
""fullscreenenter"",""1"",""4991""
","
","","","1755.3999999910593","","","23","14801","6053","&#9728;","elianto","#f73b6a7A","-1"," ","0","-10","[2606.2999999970198]","1","1","","","14801","8","0","4","lose","no-go","0"
"pit-trial","126","1057348","0.0-12.0","battery-v0.2","","""event"",""trial"",""time""
""fullscreenenter"",""1"",""4991""
","
","
","""event"",""trial"",""time""
""fullscreenenter"",""1"",""4991""
","
","","","846.2999999970198","","","23","14801","6053","&#9733;","elianto","#3366ff99","-1"," ","0","0","[1696.7000000029802]","1","1","","","14801","9","2","2","win","no-go","0"
"pit-trial","127","1060761","0.0-13.0","battery-v0.2","","""event"",""trial"",""time""
""fullscreenenter"",""1"",""4991""
","
","
","""event"",""trial"",""time""
""fullscreenenter"",""1"",""4991""
","
","","","559.1000000089407","","","23","14801","6053","&#9730;","elianto","#3366ff99"," "," ","1","+10","[1410.6000000089407]","1","1","","","14801","10","1","1","win","go","0"
"pit-trial","128","1065614","0.0-14.0","battery-v0.2","","""event"",""trial"",""time""
""fullscreenenter"",""1"",""4991""
","
","
","""event"",""trial"",""time""
""fullscreenenter"",""1"",""4991""
","
","","","-1","","","23","14801","6053","&#9752;","elianto","#f73b6a7A"," ","-1","0","0","[]","0","1","","","14801","11","3","3","lose","go","1"
"pit-trial","129","1070466","0.0-15.0","battery-v0.2","","""event"",""trial"",""time""
""fullscreenenter"",""1"",""4991""
","
","
","""event"",""trial"",""time""
""fullscreenenter"",""1"",""4991""
","
","","","-1","","","23","14801","6053","&#9728;","elianto","#f73b6a7A","-1","-1","1","-10","[]","0","1","","","14801","12","0","4","lose","no-go","1"
"pit-trial","130","1075320","0.0-16.0","battery-v0.2","","""event"",""trial"",""time""
""fullscreenenter"",""1"",""4991""
","
","
","""event"",""trial"",""time""
""fullscreenenter"",""1"",""4991""
","
","","","-1","","","23","14801","6053","&#9752;","elianto","#f73b6a7A"," ","-1","0","-10","[]","0","1","","","14801","13","3","3","lose","go","0"
"pit-trial","131","1080171","0.0-17.0","battery-v0.2","","""event"",""trial"",""time""
""fullscreenenter"",""1"",""4991""
","
","
","""event"",""trial"",""time""
""fullscreenenter"",""1"",""4991""
","
","","","-1","","","23","14801","6053","&#9728;","elianto","#f73b6a7A","-1","-1","1","-10","[]","0","1","","","14801","14","0","4","lose","no-go","1"
"pit-trial","132","1083624","0.0-18.0","battery-v0.2","","""event"",""trial"",""time""
""fullscreenenter"",""1"",""4991""
","
","
","""event"",""trial"",""time""
""fullscreenenter"",""1"",""4991""
","
","","","600.5","","","23","14801","6053","&#9733;","elianto","#3366ff99","-1"," ","0","0","[1451]","1","1","","","14801","15","2","2","win","no-go","0"
"pit-trial","133","1086950","0.0-19.0","battery-v0.2","","""event"",""trial"",""time""
""fullscreenenter"",""1"",""4991""
","
","
","""event"",""trial"",""time""
""fullscreenenter"",""1"",""4991""
","
","","","472.70000000298023","","","23","14801","6053","&#9730;","elianto","#3366ff99"," "," ","1","+10","[1324]","1","1","","","14801","16","1","1","win","go","0"
"pit-trial","134","1091803","0.0-20.0","battery-v0.2","","""event"",""trial"",""time""
""fullscreenenter"",""1"",""4991""
","
","
","""event"",""trial"",""time""
""fullscreenenter"",""1"",""4991""
","
","","","-1","","","23","14801","6053","&#9752;","elianto","#f73b6a7A"," ","-1","0","0","[]","0","1","","","14801","17","3","3","lose","go","1"
"pit-trial","135","1095416","0.0-21.0","battery-v0.2","","""event"",""trial"",""time""
""fullscreenenter"",""1"",""4991""
","
","
","""event"",""trial"",""time""
""fullscreenenter"",""1"",""4991""
","
","","","757.8999999910593","","","23","14801","6053","&#9730;","elianto","#3366ff99"," "," ","1","+10","[1610.3999999910593]","1","1","","","14801","18","1","1","win","go","0"
"pit-trial","136","1100268","0.0-22.0","battery-v0.2","","""event"",""trial"",""time""
""fullscreenenter"",""1"",""4991""
","
","
","""event"",""trial"",""time""
""fullscreenenter"",""1"",""4991""
","
","","","-1","","","23","14801","6053","&#9728;","elianto","#f73b6a7A","-1","-1","1","0","[]","0","1","","","14801","19","0","4","lose","no-go","0"
"pit-trial","137","1103530","0.0-23.0","battery-v0.2","","""event"",""trial"",""time""
""fullscreenenter"",""1"",""4991""
","
","
","""event"",""trial"",""time""
""fullscreenenter"",""1"",""4991""
","
","","","409.09999999403954","","","23","14801","6053","&#9733;","elianto","#3366ff99","-1"," ","0","0","[1259.2999999970198]","1","1","","","14801","20","2","2","win","no-go","0"
"pit-instructions","138","1114751","0.0-24.0","battery-v0.2","","""event"",""trial"",""time""
""fullscreenenter"",""1"",""4991""
","
","
","""event"",""trial"",""time""
""fullscreenenter"",""1"",""4991""
","
","","[{""page_index"":0,""viewing_time"":5149.79999999702},{""page_index"":1,""viewing_time"":6069.399999991059}]","11219.59999999404","","","","","","","","","","","","","","","","","","","","","","","",""
"pit-trial","139","1118274","0.0-25.0","battery-v0.2","","""event"",""trial"",""time""
""fullscreenenter"",""1"",""4991""
","
","
","""event"",""trial"",""time""
""fullscreenenter"",""1"",""4991""
","
","","","655.8999999910593","","","23","14801","6053","f","elianto","#3366ff99","-1"," ","0","0","[1510.5999999940395]","1","2","","","14801","21","1","2","win","no-go","0"
"pit-trial","140","1121830","0.0-26.0","battery-v0.2","","""event"",""trial"",""time""
""fullscreenenter"",""1"",""4991""
","
","
","""event"",""trial"",""time""
""fullscreenenter"",""1"",""4991""
","
","","","698.2999999970198","","","23","14801","6053","b","elianto","#f73b6a7A","-1"," ","0","-10","[1550.2000000029802]","1","2","","","14801","22","3","4","lose","no-go","0"
"pit-trial","141","1125737","0.0-27.0","battery-v0.2","","""event"",""trial"",""time""
""fullscreenenter"",""1"",""4991""
","
","
","""event"",""trial"",""time""
""fullscreenenter"",""1"",""4991""
","
","","","1041","","","23","14801","6053","t","elianto","#f73b6a7A"," "," ","1","0","[1894.2000000029802]","1","2","","","14801","23","2","3","lose","go","0"
"pit-trial","142","1129531","0.0-28.0","battery-v0.2","","""event"",""trial"",""time""
""fullscreenenter"",""1"",""4991""
","
","
","""event"",""trial"",""time""
""fullscreenenter"",""1"",""4991""
","
","","","923.6000000089407","","","23","14801","6053","n","elianto","#f73b6a7A"," "," ","1","0","[1777.7999999970198]","1","2","","","14801","24","0","3","lose","go","0"
"pit-trial","143","1133336","0.0-29.0","battery-v0.2","","""event"",""trial"",""time""
""fullscreenenter"",""1"",""4991""
","
","
","""event"",""trial"",""time""
""fullscreenenter"",""1"",""4991""
","
","","","943.5","","","23","14801","6053","f","elianto","#3366ff99","-1"," ","0","0","[1797.300000011921]","1","2","","","14801","25","1","2","win","no-go","0"
"pit-trial","144","1137135","0.0-30.0","battery-v0.2","","""event"",""trial"",""time""
""fullscreenenter"",""1"",""4991""
","
","
","""event"",""trial"",""time""
""fullscreenenter"",""1"",""4991""
","
","","","937","","","23","14801","6053","t","elianto","#f73b6a7A"," "," ","1","0","[1790.2999999970198]","1","2","","","14801","26","2","3","lose","go","0"
"pit-trial","145","1141060","0.0-31.0","battery-v0.2","","""event"",""trial"",""time""
""fullscreenenter"",""1"",""4991""
","
","
","""event"",""trial"",""time""
""fullscreenenter"",""1"",""4991""
","
","","","1066.5","","","23","14801","6053","n","elianto","#f73b6a7A"," "," ","1","0","[1919.5999999940395]","1","2","","","14801","27","0","3","lose","go","0"
"pit-trial","146","1145913","0.0-32.0","battery-v0.2","","""event"",""trial"",""time""
""fullscreenenter"",""1"",""4991""
","
","
","""event"",""trial"",""time""
""fullscreenenter"",""1"",""4991""
","
","","","-1","","","23","14801","6053","b","elianto","#f73b6a7A","-1","-1","1","0","[]","0","2","","","14801","28","3","4","lose","no-go","0"
"pit-trial","147","1150161","0.0-33.0","battery-v0.2","","""event"",""trial"",""time""
""fullscreenenter"",""1"",""4991""
","
","
","""event"",""trial"",""time""
""fullscreenenter"",""1"",""4991""
","
","","","1394.2999999970198","","","23","14801","6053","f","elianto","#3366ff99","-1"," ","0","0","[2244.7999999970198]","1","2","","","14801","29","1","2","win","no-go","0"
"pit-trial","148","1155013","0.0-34.0","battery-v0.2","","""event"",""trial"",""time""
""fullscreenenter"",""1"",""4991""
","
","
","""event"",""trial"",""time""
""fullscreenenter"",""1"",""4991""
","
","","","-1","","","23","14801","6053","b","elianto","#f73b6a7A","-1","-1","1","-10","[]","0","2","","","14801","30","3","4","lose","no-go","1"
"pit-trial","149","1159306","0.0-35.0","battery-v0.2","","""event"",""trial"",""time""
""fullscreenenter"",""1"",""4991""
","
","
","""event"",""trial"",""time""
""fullscreenenter"",""1"",""4991""
","
","","","1440.5999999940395","","","23","14801","6053","n","elianto","#f73b6a7A"," "," ","1","0","[2290.9000000059605]","1","2","","","14801","31","0","3","lose","go","0"
"pit-trial","150","1163678","0.0-36.0","battery-v0.2","","""event"",""trial"",""time""
""fullscreenenter"",""1"",""4991""
","
","
","""event"",""trial"",""time""
""fullscreenenter"",""1"",""4991""
","
","","","1516.5","","","23","14801","6053","t","elianto","#f73b6a7A"," "," ","1","0","[2369.2000000029802]","1","2","","","14801","32","2","3","lose","go","0"
"pit-trial","151","1168530","0.0-37.0","battery-v0.2","","""event"",""trial"",""time""
""fullscreenenter"",""1"",""4991""
","
","
","""event"",""trial"",""time""
""fullscreenenter"",""1"",""4991""
","
","","","-1","","","23","14801","6053","f","elianto","#3366ff99","-1","-1","1","0","[]","0","2","","","14801","33","1","2","win","no-go","1"
"pit-trial","152","1172736","0.0-38.0","battery-v0.2","","""event"",""trial"",""time""
""fullscreenenter"",""1"",""4991""
","
","
","""event"",""trial"",""time""
""fullscreenenter"",""1"",""4991""
","
","","","1353.5999999940395","","","23","14801","6053","n","elianto","#f73b6a7A"," "," ","1","0","[2204.0999999940395]","1","2","","","14801","34","0","3","lose","go","0"
"pit-trial","153","1176847","0.0-39.0","battery-v0.2","","""event"",""trial"",""time""
""fullscreenenter"",""1"",""4991""
","
","
","""event"",""trial"",""time""
""fullscreenenter"",""1"",""4991""
","
","","","1243.5","","","23","14801","6053","t","elianto","#f73b6a7A"," "," ","1","0","[2093.7000000029802]","1","2","","","14801","35","2","3","lose","go","0"
"pit-trial","154","1181701","0.0-40.0","battery-v0.2","","""event"",""trial"",""time""
""fullscreenenter"",""1"",""4991""
","
","
","""event"",""trial"",""time""
""fullscreenenter"",""1"",""4991""
","
","","","-1","","","23","14801","6053","b","elianto","#f73b6a7A","-1","-1","1","0","[]","0","2","","","14801","36","3","4","lose","no-go","0"
"pit-trial","155","1186554","0.0-41.0","battery-v0.2","","""event"",""trial"",""time""
""fullscreenenter"",""1"",""4991""
","
","
","""event"",""trial"",""time""
""fullscreenenter"",""1"",""4991""
","
","","","-1","","","23","14801","6053","f","elianto","#3366ff99","-1","-1","1","+10","[]","0","2","","","14801","37","1","2","win","no-go","0"
"pit-trial","156","1191407","0.0-42.0","battery-v0.2","","""event"",""trial"",""time""
""fullscreenenter"",""1"",""4991""
","
","
","""event"",""trial"",""time""
""fullscreenenter"",""1"",""4991""
","
","","","-1","","","23","14801","6053","b","elianto","#f73b6a7A","-1","-1","1","0","[]","0","2","","","14801","38","3","4","lose","no-go","0"
"pit-trial","157","1195244","0.0-43.0","battery-v0.2","","""event"",""trial"",""time""
""fullscreenenter"",""1"",""4991""
","
","
","""event"",""trial"",""time""
""fullscreenenter"",""1"",""4991""
","
","","","984.2999999970198","","","23","14801","6053","t","elianto","#f73b6a7A"," "," ","1","0","[1835.5]","1","2","","","14801","39","2","3","lose","go","0"
"pit-trial","158","1199577","0.0-44.0","battery-v0.2","","""event"",""trial"",""time""
""fullscreenenter"",""1"",""4991""
","
","
","""event"",""trial"",""time""
""fullscreenenter"",""1"",""4991""
","
","","","1481.1000000089407","","","23","14801","6053","n","elianto","#f73b6a7A"," "," ","1","0","[2331.6000000089407]","1","2","","","14801","40","0","3","lose","go","0"
"pit-trial","159","1203584","0.0-45.0","battery-v0.2","","""event"",""trial"",""time""
""fullscreenenter"",""1"",""4991""
","
","
","""event"",""trial"",""time""
""fullscreenenter"",""1"",""4991""
","
","","","1153.2000000029802","","","23","14801","6053","n","elianto","#f73b6a7A"," "," ","1","0","[2004.2999999970198]","1","2","","","14801","41","0","3","lose","go","0"
"pit-trial","160","1208451","0.0-46.0","battery-v0.2","","""event"",""trial"",""time""
""fullscreenenter"",""1"",""4991""
","
","
","""event"",""trial"",""time""
""fullscreenenter"",""1"",""4991""
","
","","","-1","","","23","14801","6053","b","elianto","#f73b6a7A","-1","-1","1","0","[]","0","2","","","14801","42","3","4","lose","no-go","0"
"pit-trial","161","1212098","0.0-47.0","battery-v0.2","","""event"",""trial"",""time""
""fullscreenenter"",""1"",""4991""
","
","
","""event"",""trial"",""time""
""fullscreenenter"",""1"",""4991""
","
","","","794.9000000059605","","","23","14801","6053","t","elianto","#f73b6a7A"," "," ","1","-10","[1644.9000000059605]","1","2","","","14801","43","2","3","lose","go","1"
"pit-trial","162","1216951","0.0-48.0","battery-v0.2","","""event"",""trial"",""time""
""fullscreenenter"",""1"",""4991""
","
","
","""event"",""trial"",""time""
""fullscreenenter"",""1"",""4991""
","
","","","-1","","","23","14801","6053","f","elianto","#3366ff99","-1","-1","1","0","[]","0","2","","","14801","44","1","2","win","no-go","1"
"pit-trial","163","1220954","0.0-49.0","battery-v0.2","","""event"",""trial"",""time""
""fullscreenenter"",""1"",""4991""
","
","
","""event"",""trial"",""time""
""fullscreenenter"",""1"",""4991""
","
","","","1150.0999999940395","","","23","14801","6053","t","elianto","#f73b6a7A"," "," ","1","0","[2000.0999999940395]","1","2","","","14801","45","2","3","lose","go","0"
"pit-trial","164","1225808","0.0-50.0","battery-v0.2","","""event"",""trial"",""time""
""fullscreenenter"",""1"",""4991""
","
","
","""event"",""trial"",""time""
""fullscreenenter"",""1"",""4991""
","
","","","-1","","","23","14801","6053","b","elianto","#f73b6a7A","-1","-1","1","0","[]","0","2","","","14801","46","3","4","lose","no-go","0"
"pit-trial","165","1229703","0.0-51.0","battery-v0.2","","""event"",""trial"",""time""
""fullscreenenter"",""1"",""4991""
","
","
","""event"",""trial"",""time""
""fullscreenenter"",""1"",""4991""
","
","","","1041.5999999940395","","","23","14801","6053","n","elianto","#f73b6a7A"," "," ","1","0","[1892.2000000029802]","1","2","","","14801","47","0","3","lose","go","0"
"pit-trial","166","1234555","0.0-52.0","battery-v0.2","","""event"",""trial"",""time""
""fullscreenenter"",""1"",""4991""
","
","
","""event"",""trial"",""time""
""fullscreenenter"",""1"",""4991""
","
","","","-1","","","23","14801","6053","f","elianto","#3366ff99","-1","-1","1","+10","[]","0","2","","","14801","48","1","2","win","no-go","0"
"pit-trial","167","1238740","0.0-53.0","battery-v0.2","","""event"",""trial"",""time""
""fullscreenenter"",""1"",""4991""
","
","
","""event"",""trial"",""time""
""fullscreenenter"",""1"",""4991""
","
","","","1330.4000000059605","","","23","14801","6053","n","elianto","#f73b6a7A"," "," ","1","0","[2182]","1","2","","","14801","49","0","3","lose","go","0"
"pit-trial","168","1243596","0.0-54.0","battery-v0.2","","""event"",""trial"",""time""
""fullscreenenter"",""1"",""4991""
","
","
","""event"",""trial"",""time""
""fullscreenenter"",""1"",""4991""
","
","","","-1","","","23","14801","6053","b","elianto","#f73b6a7A","-1","-1","1","0","[]","0","2","","","14801","50","3","4","lose","no-go","0"
"pit-trial","169","1248450","0.0-55.0","battery-v0.2","","""event"",""trial"",""time""
""fullscreenenter"",""1"",""4991""
","
","
","""event"",""trial"",""time""
""fullscreenenter"",""1"",""4991""
","
","","","-1","","","23","14801","6053","f","elianto","#3366ff99","-1","-1","1","+10","[]","0","2","","","14801","51","1","2","win","no-go","0"
"pit-trial","170","1252400","0.0-56.0","battery-v0.2","","""event"",""trial"",""time""
""fullscreenenter"",""1"",""4991""
","
","
","""event"",""trial"",""time""
""fullscreenenter"",""1"",""4991""
","
","","","1098.1000000089407","","","23","14801","6053","t","elianto","#f73b6a7A"," "," ","1","0","[1948.6000000089407]","1","2","","","14801","52","2","3","lose","go","0"
"pit-trial","171","1256304","0.0-57.0","battery-v0.2","","""event"",""trial"",""time""
""fullscreenenter"",""1"",""4991""
","
","
","""event"",""trial"",""time""
""fullscreenenter"",""1"",""4991""
","
","","","1051.0999999940395","","","23","14801","6053","n","elianto","#f73b6a7A"," "," ","1","0","[1901.5]","1","2","","","14801","53","0","3","lose","go","0"
"pit-trial","172","1261158","0.0-58.0","battery-v0.2","","""event"",""trial"",""time""
""fullscreenenter"",""1"",""4991""
","
","
","""event"",""trial"",""time""
""fullscreenenter"",""1"",""4991""
","
","","","-1","","","23","14801","6053","f","elianto","#3366ff99","-1","-1","1","+10","[]","0","2","","","14801","54","1","2","win","no-go","0"
"pit-trial","173","1266011","0.0-59.0","battery-v0.2","","""event"",""trial"",""time""
""fullscreenenter"",""1"",""4991""
","
","
","""event"",""trial"",""time""
""fullscreenenter"",""1"",""4991""
","
","","","-1","","","23","14801","6053","b","elianto","#f73b6a7A","-1","-1","1","0","[]","0","2","","","14801","55","3","4","lose","no-go","0"
"pit-trial","174","1269754","0.0-60.0","battery-v0.2","","""event"",""trial"",""time""
""fullscreenenter"",""1"",""4991""
","
","
","""event"",""trial"",""time""
""fullscreenenter"",""1"",""4991""
","
","","","891.0999999940395","","","23","14801","6053","t","elianto","#f73b6a7A"," "," ","1","0","[1741.3999999910593]","1","2","","","14801","56","2","3","lose","go","0"
"pit-trial","175","1273767","0.0-61.0","battery-v0.2","","""event"",""trial"",""time""
""fullscreenenter"",""1"",""4991""
","
","
","""event"",""trial"",""time""
""fullscreenenter"",""1"",""4991""
","
","","","1161.199999988079","","","23","14801","6053","c","elianto","#3366ff99"," "," ","1","+10","[2011.699999988079]","1","2","","","14801","57","4","1","win","go","0"
"pit-trial","176","1277898","0.0-62.0","battery-v0.2","","""event"",""trial"",""time""
""fullscreenenter"",""1"",""4991""
","
","
","""event"",""trial"",""time""
""fullscreenenter"",""1"",""4991""
","
","","","1277.5","","","23","14801","6053","n","elianto","#f73b6a7A"," "," ","1","0","[2128.5]","1","2","","","14801","58","0","3","lose","go","0"
"pit-trial","177","1282007","0.0-63.0","battery-v0.2","","""event"",""trial"",""time""
""fullscreenenter"",""1"",""4991""
","
","
","""event"",""trial"",""time""
""fullscreenenter"",""1"",""4991""
","
","","","1256.7000000029802","","","23","14801","6053","t","elianto","#f73b6a7A"," "," ","1","0","[2107.4000000059605]","1","2","","","14801","59","2","3","lose","go","0"
"pit-trial","178","1286859","0.0-64.0","battery-v0.2","","""event"",""trial"",""time""
""fullscreenenter"",""1"",""4991""
","
","
","""event"",""trial"",""time""
""fullscreenenter"",""1"",""4991""
","
","","","-1","","","23","14801","6053","b","elianto","#f73b6a7A","-1","-1","1","0","[]","0","2","","","14801","60","3","4","lose","no-go","0"
"pit-trial","179","1290640","0.0-65.0","battery-v0.2","","""event"",""trial"",""time""
""fullscreenenter"",""1"",""4991""
","
","
","""event"",""trial"",""time""
""fullscreenenter"",""1"",""4991""
","
","","","928","","","23","14801","6053","t","elianto","#f73b6a7A"," "," ","1","0","[1778.7999999970198]","1","2","","","14801","61","2","3","lose","go","0"
"pit-trial","180","1295492","0.0-66.0","battery-v0.2","","""event"",""trial"",""time""
""fullscreenenter"",""1"",""4991""
","
","
","""event"",""trial"",""time""
""fullscreenenter"",""1"",""4991""
","
","","","-1","","","23","14801","6053","f","elianto","#3366ff99","-1","-1","1","+10","[]","0","2","","","14801","62","1","2","win","no-go","0"
"pit-trial","181","1300345","0.0-67.0","battery-v0.2","","""event"",""trial"",""time""
""fullscreenenter"",""1"",""4991""
","
","
","""event"",""trial"",""time""
""fullscreenenter"",""1"",""4991""
","
","","","-1","","","23","14801","6053","b","elianto","#f73b6a7A","-1","-1","1","0","[]","0","2","","","14801","63","3","4","lose","no-go","0"
"pit-trial","182","1303740","0.0-68.0","battery-v0.2","","""event"",""trial"",""time""
""fullscreenenter"",""1"",""4991""
","
","
","""event"",""trial"",""time""
""fullscreenenter"",""1"",""4991""
","
","","","542.8999999910593","","","23","14801","6053","c","elianto","#3366ff99"," "," ","1","+10","[1393.5999999940395]","1","2","","","14801","64","4","1","win","go","0"
"pit-trial","183","1308607","0.0-69.0","battery-v0.2","","""event"",""trial"",""time""
""fullscreenenter"",""1"",""4991""
","
","
","""event"",""trial"",""time""
""fullscreenenter"",""1"",""4991""
","
","","","-1","","","23","14801","6053","b","elianto","#f73b6a7A","-1","-1","1","0","[]","0","2","","","14801","65","3","4","lose","no-go","0"
"pit-trial","184","1313460","0.0-70.0","battery-v0.2","","""event"",""trial"",""time""
""fullscreenenter"",""1"",""4991""
","
","
","""event"",""trial"",""time""
""fullscreenenter"",""1"",""4991""
","
","","","-1","","","23","14801","6053","f","elianto","#3366ff99","-1","-1","1","0","[]","0","2","","","14801","66","1","2","win","no-go","1"
"pit-trial","185","1317117","0.0-71.0","battery-v0.2","","""event"",""trial"",""time""
""fullscreenenter"",""1"",""4991""
","
","
","""event"",""trial"",""time""
""fullscreenenter"",""1"",""4991""
","
","","","803.5","","","23","14801","6053","c","elianto","#3366ff99"," "," ","1","+10","[1654]","1","2","","","14801","67","4","1","win","go","0"
"pit-trial","186","1320811","0.0-72.0","battery-v0.2","","""event"",""trial"",""time""
""fullscreenenter"",""1"",""4991""
","
","
","""event"",""trial"",""time""
""fullscreenenter"",""1"",""4991""
","
","","","842.4000000059605","","","23","14801","6053","z","elianto","#3366ff99","-1"," ","0","+10","[1693.2000000029802]","1","2","","","14801","68","5","2","win","no-go","1"
"pit-trial","187","1324567","0.0-73.0","battery-v0.2","","""event"",""trial"",""time""
""fullscreenenter"",""1"",""4991""
","
","
","""event"",""trial"",""time""
""fullscreenenter"",""1"",""4991""
","
","","","902.2999999970198","","","23","14801","6053","c","elianto","#3366ff99"," "," ","1","+10","[1752.8999999910593]","1","2","","","14801","69","4","1","win","go","0"
"pit-trial","188","1328724","0.0-74.0","battery-v0.2","","""event"",""trial"",""time""
""fullscreenenter"",""1"",""4991""
","
","
","""event"",""trial"",""time""
""fullscreenenter"",""1"",""4991""
","
","","","1305.0999999940395","","","23","14801","6053","t","elianto","#f73b6a7A"," "," ","1","0","[2155.5]","1","2","","","14801","70","2","3","lose","go","0"
"pit-trial","189","1333578","0.0-75.0","battery-v0.2","","""event"",""trial"",""time""
""fullscreenenter"",""1"",""4991""
","
","
","""event"",""trial"",""time""
""fullscreenenter"",""1"",""4991""
","
","","","-1","","","23","14801","6053","f","elianto","#3366ff99","-1","-1","1","+10","[]","0","2","","","14801","71","1","2","win","no-go","0"
"pit-trial","190","1337267","0.0-76.0","battery-v0.2","","""event"",""trial"",""time""
""fullscreenenter"",""1"",""4991""
","
","
","""event"",""trial"",""time""
""fullscreenenter"",""1"",""4991""
","
","","","835.3999999910593","","","23","14801","6053","z","elianto","#3366ff99","-1"," ","0","0","[1685.3999999910593]","1","2","","","14801","72","5","2","win","no-go","0"
"pit-trial","191","1342119","0.0-77.0","battery-v0.2","","""event"",""trial"",""time""
""fullscreenenter"",""1"",""4991""
","
","
","""event"",""trial"",""time""
""fullscreenenter"",""1"",""4991""
","
","","","-1","","","23","14801","6053","b","elianto","#f73b6a7A","-1","-1","1","-10","[]","0","2","","","14801","73","3","4","lose","no-go","1"
"pit-trial","192","1346972","0.0-78.0","battery-v0.2","","""event"",""trial"",""time""
""fullscreenenter"",""1"",""4991""
","
","
","""event"",""trial"",""time""
""fullscreenenter"",""1"",""4991""
","
","","","-1","","","23","14801","6053","f","elianto","#3366ff99","-1","-1","1","0","[]","0","2","","","14801","74","1","2","win","no-go","1"
"pit-trial","193","1350617","0.0-79.0","battery-v0.2","","""event"",""trial"",""time""
""fullscreenenter"",""1"",""4991""
","
","
","""event"",""trial"",""time""
""fullscreenenter"",""1"",""4991""
","
","","","790.9000000059605","","","23","14801","6053","c","elianto","#3366ff99"," "," ","1","+10","[1643]","1","2","","","14801","75","4","1","win","go","0"
"pit-trial","194","1354272","0.0-80.0","battery-v0.2","","""event"",""trial"",""time""
""fullscreenenter"",""1"",""4991""
","
","
","""event"",""trial"",""time""
""fullscreenenter"",""1"",""4991""
","
","","","803.2999999970198","","","23","14801","6053","z","elianto","#3366ff99","-1"," ","0","0","[1653.3999999910593]","1","2","","","14801","76","5","2","win","no-go","0"
"pit-trial","195","1358207","0.0-81.0","battery-v0.2","","""event"",""trial"",""time""
""fullscreenenter"",""1"",""4991""
","
","
","""event"",""trial"",""time""
""fullscreenenter"",""1"",""4991""
","
","","","1081.800000011921","","","23","14801","6053","c","elianto","#3366ff99"," "," ","1","+10","[1932.5]","1","2","","","14801","77","4","1","win","go","0"
"pit-trial","196","1361946","0.0-82.0","battery-v0.2","","""event"",""trial"",""time""
""fullscreenenter"",""1"",""4991""
","
","
","""event"",""trial"",""time""
""fullscreenenter"",""1"",""4991""
","
","","","886.7999999970198","","","23","14801","6053","c","elianto","#3366ff99"," "," ","1","0","[1737.699999988079]","1","2","","","14801","78","4","1","win","go","1"
"pit-trial","197","1366798","0.0-83.0","battery-v0.2","","""event"",""trial"",""time""
""fullscreenenter"",""1"",""4991""
","
","
","""event"",""trial"",""time""
""fullscreenenter"",""1"",""4991""
","
","","","-1","","","23","14801","6053","b","elianto","#f73b6a7A","-1","-1","1","0","[]","0","2","","","14801","79","3","4","lose","no-go","0"
"pit-trial","198","1371651","0.0-84.0","battery-v0.2","","""event"",""trial"",""time""
""fullscreenenter"",""1"",""4991""
","
","
","""event"",""trial"",""time""
""fullscreenenter"",""1"",""4991""
","
","","","-1","","","23","14801","6053","z","elianto","#3366ff99","-1","-1","1","+10","[]","0","2","","","14801","80","5","2","win","no-go","0"
"pit-trial","199","1376504","0.0-85.0","battery-v0.2","","""event"",""trial"",""time""
""fullscreenenter"",""1"",""4991""
","
","
","""event"",""trial"",""time""
""fullscreenenter"",""1"",""4991""
","
","","","-1","","","23","14801","6053","z","elianto","#3366ff99","-1","-1","1","+10","[]","0","2","","","14801","81","5","2","win","no-go","0"
"pit-trial","200","1380273","0.0-86.0","battery-v0.2","","""event"",""trial"",""time""
""fullscreenenter"",""1"",""4991""
","
","
","""event"",""trial"",""time""
""fullscreenenter"",""1"",""4991""
","
","","","917.2999999970198","","","23","14801","6053","c","elianto","#3366ff99"," "," ","1","+10","[1767.2999999970198]","1","2","","","14801","82","4","1","win","go","0"
"pit-trial","201","1385126","0.0-87.0","battery-v0.2","","""event"",""trial"",""time""
""fullscreenenter"",""1"",""4991""
","
","
","""event"",""trial"",""time""
""fullscreenenter"",""1"",""4991""
","
","","","-1","","","23","14801","6053","y","elianto","#f73b6a7A","-1","-1","1","0","[]","0","2","","","14801","83","7","4","lose","no-go","0"
"pit-trial","202","1389979","0.0-88.0","battery-v0.2","","""event"",""trial"",""time""
""fullscreenenter"",""1"",""4991""
","
","
","""event"",""trial"",""time""
""fullscreenenter"",""1"",""4991""
","
","","","-1","","","23","14801","6053","b","elianto","#f73b6a7A","-1","-1","1","0","[]","0","2","","","14801","84","3","4","lose","no-go","0"
"pit-trial","203","1394832","0.0-89.0","battery-v0.2","","""event"",""trial"",""time""
""fullscreenenter"",""1"",""4991""
","
","
","""event"",""trial"",""time""
""fullscreenenter"",""1"",""4991""
","
","","","-1","","","23","14801","6053","y","elianto","#f73b6a7A","-1","-1","1","0","[]","0","2","","","14801","85","7","4","lose","no-go","0"
"pit-trial","204","1399685","0.0-90.0","battery-v0.2","","""event"",""trial"",""time""
""fullscreenenter"",""1"",""4991""
","
","
","""event"",""trial"",""time""
""fullscreenenter"",""1"",""4991""
","
","","","-1","","","23","14801","6053","z","elianto","#3366ff99","-1","-1","1","+10","[]","0","2","","","14801","86","5","2","win","no-go","0"
"pit-trial","205","1403761","0.0-91.0","battery-v0.2","","""event"",""trial"",""time""
""fullscreenenter"",""1"",""4991""
","
","
","""event"",""trial"",""time""
""fullscreenenter"",""1"",""4991""
","
","","","1223.2000000029802","","","23","14801","6053","h","elianto","#f73b6a7A"," "," ","1","0","[2073.7999999970198]","1","2","","","14801","87","6","3","lose","go","0"
"pit-trial","206","1407621","0.0-92.0","battery-v0.2","","""event"",""trial"",""time""
""fullscreenenter"",""1"",""4991""
","
","
","""event"",""trial"",""time""
""fullscreenenter"",""1"",""4991""
","
","","","1007.4000000059605","","","23","14801","6053","c","elianto","#3366ff99"," "," ","1","+10","[1857.5]","1","2","","","14801","88","4","1","win","go","0"
"pit-trial","207","1412474","0.0-93.0","battery-v0.2","","""event"",""trial"",""time""
""fullscreenenter"",""1"",""4991""
","
","
","""event"",""trial"",""time""
""fullscreenenter"",""1"",""4991""
","
","","","-1","","","23","14801","6053","z","elianto","#3366ff99","-1","-1","1","+10","[]","0","2","","","14801","89","5","2","win","no-go","0"
"pit-trial","208","1416992","0.0-94.0","battery-v0.2","","""event"",""trial"",""time""
""fullscreenenter"",""1"",""4991""
","
","
","""event"",""trial"",""time""
""fullscreenenter"",""1"",""4991""
","
","","","1665.5","","","23","14801","6053","h","elianto","#f73b6a7A"," "," ","1","-10","[2516.0999999940395]","1","2","","","14801","90","6","3","lose","go","1"
"pit-trial","209","1420554","0.0-95.0","battery-v0.2","","""event"",""trial"",""time""
""fullscreenenter"",""1"",""4991""
","
","
","""event"",""trial"",""time""
""fullscreenenter"",""1"",""4991""
","
","","","708.6000000089407","","","23","14801","6053","c","elianto","#3366ff99"," "," ","1","+10","[1559.7999999970198]","1","2","","","14801","91","4","1","win","go","0"
"pit-trial","210","1425406","0.0-96.0","battery-v0.2","","""event"",""trial"",""time""
""fullscreenenter"",""1"",""4991""
","
","
","""event"",""trial"",""time""
""fullscreenenter"",""1"",""4991""
","
","","","-1","","","23","14801","6053","y","elianto","#f73b6a7A","-1","-1","1","0","[]","0","2","","","14801","92","7","4","lose","no-go","0"
"pit-trial","211","1430258","0.0-97.0","battery-v0.2","","""event"",""trial"",""time""
""fullscreenenter"",""1"",""4991""
","
","
","""event"",""trial"",""time""
""fullscreenenter"",""1"",""4991""
","
","","","-1","","","23","14801","6053","y","elianto","#f73b6a7A","-1","-1","1","0","[]","0","2","","","14801","93","7","4","lose","no-go","0"
"pit-trial","212","1435111","0.0-98.0","battery-v0.2","","""event"",""trial"",""time""
""fullscreenenter"",""1"",""4991""
","
","
","""event"",""trial"",""time""
""fullscreenenter"",""1"",""4991""
","
","","","-1","","","23","14801","6053","h","elianto","#f73b6a7A"," ","-1","0","-10","[]","0","2","","","14801","94","6","3","lose","go","0"
"pit-trial","213","1439963","0.0-99.0","battery-v0.2","","""event"",""trial"",""time""
""fullscreenenter"",""1"",""4991""
","
","
","""event"",""trial"",""time""
""fullscreenenter"",""1"",""4991""
","
","","","-1","","","23","14801","6053","z","elianto","#3366ff99","-1","-1","1","+10","[]","0","2","","","14801","95","5","2","win","no-go","0"
"pit-trial","214","1443744","0.0-100.0","battery-v0.2","","""event"",""trial"",""time""
""fullscreenenter"",""1"",""4991""
","
","
","""event"",""trial"",""time""
""fullscreenenter"",""1"",""4991""
","
","","","927.6999999880791","","","23","14801","6053","r","elianto","#3366ff99"," "," ","1","+10","[1779.2999999970198]","1","2","","","14801","96","8","1","win","go","0"
"pit-trial","215","1448597","0.0-101.0","battery-v0.2","","""event"",""trial"",""time""
""fullscreenenter"",""1"",""4991""
","
","
","""event"",""trial"",""time""
""fullscreenenter"",""1"",""4991""
","
","","","-1","","","23","14801","6053","y","elianto","#f73b6a7A","-1","-1","1","-10","[]","0","2","","","14801","97","7","4","lose","no-go","1"
"pit-trial","216","1453450","0.0-102.0","battery-v0.2","","""event"",""trial"",""time""
""fullscreenenter"",""1"",""4991""
","
","
","""event"",""trial"",""time""
""fullscreenenter"",""1"",""4991""
","
","","","-1","","","23","14801","6053","z","elianto","#3366ff99","-1","-1","1","+10","[]","0","2","","","14801","98","5","2","win","no-go","0"
"pit-trial","217","1457207","0.0-103.0","battery-v0.2","","""event"",""trial"",""time""
""fullscreenenter"",""1"",""4991""
","
","
","""event"",""trial"",""time""
""fullscreenenter"",""1"",""4991""
","
","","","903","","","23","14801","6053","h","elianto","#f73b6a7A"," "," ","1","0","[1753.9000000059605]","1","2","","","14801","99","6","3","lose","go","0"
"pit-trial","218","1461185","0.0-104.0","battery-v0.2","","""event"",""trial"",""time""
""fullscreenenter"",""1"",""4991""
","
","
","""event"",""trial"",""time""
""fullscreenenter"",""1"",""4991""
","
","","","1126.0999999940395","","","23","14801","6053","r","elianto","#3366ff99"," "," ","1","+10","[1977.5]","1","2","","","14801","100","8","1","win","go","0"
"pit-trial","219","1466038","0.0-105.0","battery-v0.2","","""event"",""trial"",""time""
""fullscreenenter"",""1"",""4991""
","
","
","""event"",""trial"",""time""
""fullscreenenter"",""1"",""4991""
","
","","","-1","","","23","14801","6053","z","elianto","#3366ff99","-1","-1","1","+10","[]","0","2","","","14801","101","5","2","win","no-go","0"
"pit-trial","220","1469584","0.0-106.0","battery-v0.2","","""event"",""trial"",""time""
""fullscreenenter"",""1"",""4991""
","
","
","""event"",""trial"",""time""
""fullscreenenter"",""1"",""4991""
","
","","","692.7000000029802","","","23","14801","6053","m","elianto","#3366ff99"," "," ","1","+10","[1543.3999999910593]","1","2","","","14801","102","9","1","win","go","0"
"pit-trial","221","1474437","0.0-107.0","battery-v0.2","","""event"",""trial"",""time""
""fullscreenenter"",""1"",""4991""
","
","
","""event"",""trial"",""time""
""fullscreenenter"",""1"",""4991""
","
","","","-1","","","23","14801","6053","y","elianto","#f73b6a7A","-1","-1","1","0","[]","0","2","","","14801","103","7","4","lose","no-go","0"
"pit-trial","222","1478220","0.0-108.0","battery-v0.2","","""event"",""trial"",""time""
""fullscreenenter"",""1"",""4991""
","
","
","""event"",""trial"",""time""
""fullscreenenter"",""1"",""4991""
","
","","","929.6999999880791","","","23","14801","6053","r","elianto","#3366ff99"," "," ","1","+10","[1779.7999999970198]","1","2","","","14801","104","8","1","win","go","0"
"pit-trial","223","1481792","0.0-109.0","battery-v0.2","","""event"",""trial"",""time""
""fullscreenenter"",""1"",""4991""
","
","
","""event"",""trial"",""time""
""fullscreenenter"",""1"",""4991""
","
","","","719.7000000029802","","","23","14801","6053","r","elianto","#3366ff99"," "," ","1","0","[1570.7000000029802]","1","2","","","14801","105","8","1","win","go","1"
"pit-trial","224","1485882","0.0-110.0","battery-v0.2","","""event"",""trial"",""time""
""fullscreenenter"",""1"",""4991""
","
","
","""event"",""trial"",""time""
""fullscreenenter"",""1"",""4991""
","
","","","1237.8999999910593","","","23","14801","6053","c","elianto","#3366ff99"," "," ","1","+10","[2088.0999999940395]","1","2","","","14801","106","4","1","win","go","0"
"pit-trial","225","1489624","0.0-111.0","battery-v0.2","","""event"",""trial"",""time""
""fullscreenenter"",""1"",""4991""
","
","
","""event"",""trial"",""time""
""fullscreenenter"",""1"",""4991""
","
","","","889","","","23","14801","6053","m","elianto","#3366ff99"," "," ","1","+10","[1739.2999999970198]","1","2","","","14801","107","9","1","win","go","0"
"pit-trial","226","1494477","0.0-112.0","battery-v0.2","","""event"",""trial"",""time""
""fullscreenenter"",""1"",""4991""
","
","
","""event"",""trial"",""time""
""fullscreenenter"",""1"",""4991""
","
","","","-1","","","23","14801","6053","h","elianto","#f73b6a7A"," ","-1","0","-10","[2926]","1","2","","","14801","108","6","3","lose","go","0"
"pit-trial","227","1499330","0.0-113.0","battery-v0.2","","""event"",""trial"",""time""
""fullscreenenter"",""1"",""4991""
","
","
","""event"",""trial"",""time""
""fullscreenenter"",""1"",""4991""
","
","","","-1","","","23","14801","6053","z","elianto","#3366ff99","-1","-1","1","+10","[]","0","2","","","14801","109","5","2","win","no-go","0"
"pit-trial","228","1503097","0.0-114.0","battery-v0.2","","""event"",""trial"",""time""
""fullscreenenter"",""1"",""4991""
","
","
","""event"",""trial"",""time""
""fullscreenenter"",""1"",""4991""
","
","","","914.5999999940395","","","23","14801","6053","r","elianto","#3366ff99"," "," ","1","+10","[1765.7000000029802]","1","2","","","14801","110","8","1","win","go","0"
"pit-trial","229","1506896","0.0-115.0","battery-v0.2","","""event"",""trial"",""time""
""fullscreenenter"",""1"",""4991""
","
","
","""event"",""trial"",""time""
""fullscreenenter"",""1"",""4991""
","
","","","947","","","23","14801","6053","h","elianto","#f73b6a7A"," "," ","1","0","[1797.2999999970198]","1","2","","","14801","111","6","3","lose","go","0"
"pit-trial","230","1510682","0.0-116.0","battery-v0.2","","""event"",""trial"",""time""
""fullscreenenter"",""1"",""4991""
","
","
","""event"",""trial"",""time""
""fullscreenenter"",""1"",""4991""
","
","","","933.7999999970198","","","23","14801","6053","m","elianto","#3366ff99"," "," ","1","+10","[1783.699999988079]","1","2","","","14801","112","9","1","win","go","0"
"pit-trial","231","1514699","0.0-117.0","battery-v0.2","","""event"",""trial"",""time""
""fullscreenenter"",""1"",""4991""
","
","
","""event"",""trial"",""time""
""fullscreenenter"",""1"",""4991""
","
","","","1165.2999999970198","","","23","14801","6053","h","elianto","#f73b6a7A"," "," ","1","0","[2015.4000000059605]","1","2","","","14801","113","6","3","lose","go","0"
"pit-trial","232","1519551","0.0-118.0","battery-v0.2","","""event"",""trial"",""time""
""fullscreenenter"",""1"",""4991""
","
","
","""event"",""trial"",""time""
""fullscreenenter"",""1"",""4991""
","
","","","-1","","","23","14801","6053","z","elianto","#3366ff99","-1","-1","1","+10","[]","0","2","","","14801","114","5","2","win","no-go","0"
"pit-trial","233","1523201","0.0-119.0","battery-v0.2","","""event"",""trial"",""time""
""fullscreenenter"",""1"",""4991""
","
","
","""event"",""trial"",""time""
""fullscreenenter"",""1"",""4991""
","
","","","796.7999999970198","","","23","14801","6053","r","elianto","#3366ff99"," "," ","1","+10","[1646.8999999910593]","1","2","","","14801","115","8","1","win","go","0"
"pit-trial","234","1526776","0.0-120.0","battery-v0.2","","""event"",""trial"",""time""
""fullscreenenter"",""1"",""4991""
","
","
","""event"",""trial"",""time""
""fullscreenenter"",""1"",""4991""
","
","","","722.5999999940395","","","23","14801","6053","m","elianto","#3366ff99"," "," ","1","+10","[1573.4000000059605]","1","2","","","14801","116","9","1","win","go","0"
"pit-trial","235","1531470","0.0-121.0","battery-v0.2","","""event"",""trial"",""time""
""fullscreenenter"",""1"",""4991""
","
","
","""event"",""trial"",""time""
""fullscreenenter"",""1"",""4991""
","
","","","1841.7999999970198","","","23","14801","6053","r","elianto","#3366ff99"," "," ","1","+10","[2692.2000000029802]","1","2","","","14801","117","8","1","win","go","0"
"pit-trial","236","1536322","0.0-122.0","battery-v0.2","","""event"",""trial"",""time""
""fullscreenenter"",""1"",""4991""
","
","
","""event"",""trial"",""time""
""fullscreenenter"",""1"",""4991""
","
","","","-1","","","23","14801","6053","z","elianto","#3366ff99","-1","-1","1","0","[]","0","2","","","14801","118","5","2","win","no-go","1"
"pit-trial","237","1539902","0.0-123.0","battery-v0.2","","""event"",""trial"",""time""
""fullscreenenter"",""1"",""4991""
","
","
","""event"",""trial"",""time""
""fullscreenenter"",""1"",""4991""
","
","","","726.5","","","23","14801","6053","m","elianto","#3366ff99"," "," ","1","+10","[1578.5]","1","2","","","14801","119","9","1","win","go","0"
"pit-trial","238","1544756","0.0-124.0","battery-v0.2","","""event"",""trial"",""time""
""fullscreenenter"",""1"",""4991""
","
","
","""event"",""trial"",""time""
""fullscreenenter"",""1"",""4991""
","
","","","-1","","","23","14801","6053","h","elianto","#f73b6a7A"," ","-1","0","-10","[]","0","2","","","14801","120","6","3","lose","go","0"
"pit-trial","239","1548713","0.0-125.0","battery-v0.2","","""event"",""trial"",""time""
""fullscreenenter"",""1"",""4991""
","
","
","""event"",""trial"",""time""
""fullscreenenter"",""1"",""4991""
","
","","","1104.2999999970198","","","23","14801","6053","h","elianto","#f73b6a7A"," "," ","1","0","[1954.6000000089407]","1","2","","","14801","121","6","3","lose","go","0"
"pit-trial","240","1552544","0.0-126.0","battery-v0.2","","""event"",""trial"",""time""
""fullscreenenter"",""1"",""4991""
","
","
","""event"",""trial"",""time""
""fullscreenenter"",""1"",""4991""
","
","","","978.7999999970198","","","23","14801","6053","m","elianto","#3366ff99"," "," ","1","0","[1829.2999999970198]","1","2","","","14801","122","9","1","win","go","1"
"pit-trial","241","1557398","0.0-127.0","battery-v0.2","","""event"",""trial"",""time""
""fullscreenenter"",""1"",""4991""
","
","
","""event"",""trial"",""time""
""fullscreenenter"",""1"",""4991""
","
","","","-1","","","23","14801","6053","y","elianto","#f73b6a7A","-1","-1","1","0","[]","0","2","","","14801","123","7","4","lose","no-go","0"
"pit-trial","242","1561152","0.0-128.0","battery-v0.2","","""event"",""trial"",""time""
""fullscreenenter"",""1"",""4991""
","
","
","""event"",""trial"",""time""
""fullscreenenter"",""1"",""4991""
","
","","","900.4000000059605","","","23","14801","6053","r","elianto","#3366ff99"," "," ","1","+10","[1751.9000000059605]","1","2","","","14801","124","8","1","win","go","0"
"pit-trial","243","1566006","0.0-129.0","battery-v0.2","","""event"",""trial"",""time""
""fullscreenenter"",""1"",""4991""
","
","
","""event"",""trial"",""time""
""fullscreenenter"",""1"",""4991""
","
","","","-1","","","23","14801","6053","y","elianto","#f73b6a7A","-1","-1","1","0","[]","0","2","","","14801","125","7","4","lose","no-go","0"
"pit-trial","244","1569752","0.0-130.0","battery-v0.2","","""event"",""trial"",""time""
""fullscreenenter"",""1"",""4991""
","
","
","""event"",""trial"",""time""
""fullscreenenter"",""1"",""4991""
","
","","","894.0999999940395","","","23","14801","6053","r","elianto","#3366ff99"," "," ","1","+10","[1744.5]","1","2","","","14801","126","8","1","win","go","0"
"pit-trial","245","1573312","0.0-131.0","battery-v0.2","","""event"",""trial"",""time""
""fullscreenenter"",""1"",""4991""
","
","
","""event"",""trial"",""time""
""fullscreenenter"",""1"",""4991""
","
","","","708.2999999970198","","","23","14801","6053","m","elianto","#3366ff99"," "," ","1","0","[1558.7000000029802]","1","2","","","14801","127","9","1","win","go","1"
"pit-trial","246","1576996","0.0-132.0","battery-v0.2","","""event"",""trial"",""time""
""fullscreenenter"",""1"",""4991""
","
","
","""event"",""trial"",""time""
""fullscreenenter"",""1"",""4991""
","
","","","831.1000000089407","","","23","14801","6053","h","elianto","#f73b6a7A"," "," ","1","0","[1681.4000000059605]","1","2","","","14801","128","6","3","lose","go","0"
"pit-trial","247","1580842","0.0-133.0","battery-v0.2","","""event"",""trial"",""time""
""fullscreenenter"",""1"",""4991""
","
","
","""event"",""trial"",""time""
""fullscreenenter"",""1"",""4991""
","
","","","993.4000000059605","","","23","14801","6053","r","elianto","#3366ff99"," "," ","1","0","[1843.6000000089407]","1","2","","","14801","129","8","1","win","go","1"
"pit-trial","248","1585196","0.0-134.0","battery-v0.2","","""event"",""trial"",""time""
""fullscreenenter"",""1"",""4991""
","
","
","""event"",""trial"",""time""
""fullscreenenter"",""1"",""4991""
","
","","","1500.0999999940395","","","23","14801","6053","h","elianto","#f73b6a7A"," "," ","1","-10","[2351.7000000029802]","1","2","","","14801","130","6","3","lose","go","1"
"pit-trial","249","1590049","0.0-135.0","battery-v0.2","","""event"",""trial"",""time""
""fullscreenenter"",""1"",""4991""
","
","
","""event"",""trial"",""time""
""fullscreenenter"",""1"",""4991""
","
","","","-1","","","23","14801","6053","y","elianto","#f73b6a7A","-1","-1","1","0","[]","0","2","","","14801","131","7","4","lose","no-go","0"
"pit-trial","250","1593672","0.0-136.0","battery-v0.2","","""event"",""trial"",""time""
""fullscreenenter"",""1"",""4991""
","
","
","""event"",""trial"",""time""
""fullscreenenter"",""1"",""4991""
","
","","","770.5","","","23","14801","6053","m","elianto","#3366ff99"," "," ","1","+10","[1621.2999999970198]","1","2","","","14801","132","9","1","win","go","0"
"pit-trial","251","1598403","0.0-137.0","battery-v0.2","","""event"",""trial"",""time""
""fullscreenenter"",""1"",""4991""
","
","
","""event"",""trial"",""time""
""fullscreenenter"",""1"",""4991""
","
","","","1879.300000011921","","","23","14801","6053","h","elianto","#f73b6a7A"," "," ","1","0","[2729.5]","1","2","","","14801","133","6","3","lose","go","0"
"pit-trial","252","1601930","0.0-138.0","battery-v0.2","","""event"",""trial"",""time""
""fullscreenenter"",""1"",""4991""
","
","
","""event"",""trial"",""time""
""fullscreenenter"",""1"",""4991""
","
","","","672","","","23","14801","6053","m","elianto","#3366ff99"," "," ","1","+10","[1524.4000000059605]","1","2","","","14801","134","9","1","win","go","0"
"pit-trial","253","1606790","0.0-139.0","battery-v0.2","","""event"",""trial"",""time""
""fullscreenenter"",""1"",""4991""
","
","
","""event"",""trial"",""time""
""fullscreenenter"",""1"",""4991""
","
","","","-1","","","23","14801","6053","y","elianto","#f73b6a7A","-1","-1","1","-10","[]","0","2","","","14801","135","7","4","lose","no-go","1"
"pit-trial","254","1610512","0.0-140.0","battery-v0.2","","""event"",""trial"",""time""
""fullscreenenter"",""1"",""4991""
","
","
","""event"",""trial"",""time""
""fullscreenenter"",""1"",""4991""
","
","","","870.2000000029802","","","23","14801","6053","r","elianto","#3366ff99"," "," ","1","0","[1720.2000000029802]","1","2","","","14801","136","8","1","win","go","1"
"pit-trial","255","1614076","0.0-141.0","battery-v0.2","","""event"",""trial"",""time""
""fullscreenenter"",""1"",""4991""
","
","
","""event"",""trial"",""time""
""fullscreenenter"",""1"",""4991""
","
","","","710","","","23","14801","6053","r","elianto","#3366ff99"," "," ","1","+10","[1561.2000000029802]","1","2","","","14801","137","8","1","win","go","0"
"pit-trial","256","1618369","0.0-142.0","battery-v0.2","","""event"",""trial"",""time""
""fullscreenenter"",""1"",""4991""
","
","
","""event"",""trial"",""time""
""fullscreenenter"",""1"",""4991""
","
","","","1440.7999999970198","","","23","14801","6053","h","elianto","#f73b6a7A"," "," ","1","0","[2291.7000000029802]","1","2","","","14801","138","6","3","lose","go","0"
"pit-trial","257","1623221","0.0-143.0","battery-v0.2","","""event"",""trial"",""time""
""fullscreenenter"",""1"",""4991""
","
","
","""event"",""trial"",""time""
""fullscreenenter"",""1"",""4991""
","
","","","-1","","","23","14801","6053","y","elianto","#f73b6a7A","-1","-1","1","0","[]","0","2","","","14801","139","7","4","lose","no-go","0"
"pit-trial","258","1626790","0.0-144.0","battery-v0.2","","""event"",""trial"",""time""
""fullscreenenter"",""1"",""4991""
","
","
","""event"",""trial"",""time""
""fullscreenenter"",""1"",""4991""
","
","","","716.2999999970198","","","23","14801","6053","m","elianto","#3366ff99"," "," ","1","+10","[1566.8999999910593]","1","2","","","14801","140","9","1","win","go","0"
"pit-instructions","259","1643599","0.0-145.0","battery-v0.2","","""event"",""trial"",""time""
""fullscreenenter"",""1"",""4991""
","
","
","""event"",""trial"",""time""
""fullscreenenter"",""1"",""4991""
","
","","[{""page_index"":0,""viewing_time"":8162.600000008941},{""page_index"":1,""viewing_time"":8645.20000000298}]","16808","","","","","","","","","","","","","","","","","","","","","","","",""
"pit-trial","260","1647215","0.0-146.0","battery-v0.2","","""event"",""trial"",""time""
""fullscreenenter"",""1"",""4991""
","
","
","""event"",""trial"",""time""
""fullscreenenter"",""1"",""4991""
","
","","","746.0999999940395","","","23","14801","6053","g","elianto","#f73b6a7A"," "," ","1","0","[1601.5]","1","3","","","14801","141","3","3","lose","go","0"
"pit-trial","261","1650590","0.0-147.0","battery-v0.2","","""event"",""trial"",""time""
""fullscreenenter"",""1"",""4991""
","
","
","""event"",""trial"",""time""
""fullscreenenter"",""1"",""4991""
","
","","","519.0999999940395","","","23","14801","6053","u","elianto","#f73b6a7A","-1"," ","0","-10","[1370.7000000029802]","1","3","","","14801","142","0","4","lose","no-go","0"
"pit-trial","262","1654046","0.0-148.0","battery-v0.2","","""event"",""trial"",""time""
""fullscreenenter"",""1"",""4991""
","
","
","""event"",""trial"",""time""
""fullscreenenter"",""1"",""4991""
","
","","","595.2999999970198","","","23","14801","6053","a","elianto","#f73b6a7A","-1"," ","0","0","[1445.7999999970198]","1","3","","","14801","143","2","4","lose","no-go","1"
"pit-trial","263","1657538","0.0-149.0","battery-v0.2","","""event"",""trial"",""time""
""fullscreenenter"",""1"",""4991""
","
","
","""event"",""trial"",""time""
""fullscreenenter"",""1"",""4991""
","
","","","621.2000000029802","","","23","14801","6053","l","elianto","#3366ff99"," "," ","1","0","[1474.5]","1","3","","","14801","144","1","1","win","go","1"
"pit-trial","264","1662407","0.0-150.0","battery-v0.2","","""event"",""trial"",""time""
""fullscreenenter"",""1"",""4991""
","
","
","""event"",""trial"",""time""
""fullscreenenter"",""1"",""4991""
","
","","","-1","","","23","14801","6053","g","elianto","#f73b6a7A"," ","-1","0","0","[]","0","3","","","14801","145","3","3","lose","go","1"
"pit-trial","265","1666310","0.0-151.0","battery-v0.2","","""event"",""trial"",""time""
""fullscreenenter"",""1"",""4991""
","
","
","""event"",""trial"",""time""
""fullscreenenter"",""1"",""4991""
","
","","","1034.2000000029802","","","23","14801","6053","u","elianto","#f73b6a7A","-1"," ","0","-10","[1887.2999999970198]","1","3","","","14801","146","0","4","lose","no-go","0"
"pit-trial","266","1670009","0.0-152.0","battery-v0.2","","""event"",""trial"",""time""
""fullscreenenter"",""1"",""4991""
","
","
