"trial_type","trial_index","time_elapsed","internal_node_id","task_version","subject_id","interactions","blur_events","focus_events","fullscreenenter_events","fullscreenexit_events","success","view_history","rt","responses","num_errors","age","subject","participantId","rune","rune_set","hex","correct","choice","accuracy","outcome","keys","total_keys","block","practice","value","sub","trial","stimulus","robot","valence","action","sham"
"pavlovia","0","19","0.0-0.0","battery-v0.2","","""event"",""trial"",""time""
""fullscreenenter"",""1"",""2390""
","
","
","""event"",""trial"",""time""
""fullscreenenter"",""1"",""2390""
","
","","","","","","","","","","","","","","","","","","","","","","","","","","",""
"fullscreen","1","3391","0.0-1.0","battery-v0.2","","""event"",""trial"",""time""
""fullscreenenter"",""1"",""2390""
","
","
","""event"",""trial"",""time""
""fullscreenenter"",""1"",""2390""
","
","true","","","","","","","","","","","","","","","","","","","","","","","","","",""
"pit-instructions","2","9310","0.0-2.0-0.0","battery-v0.2","","""event"",""trial"",""time""
""fullscreenenter"",""1"",""2390""
","
","
","""event"",""trial"",""time""
""fullscreenenter"",""1"",""2390""
","
","","[{""page_index"":0,""viewing_time"":5916.299999952316}]","5916.799999952316","","","","","","","","","","","","","","","","","","","","","","","",""
"pit-comprehension","3","11781","0.0-2.0-1.0-0.0","battery-v0.2","","""event"",""trial"",""time""
""fullscreenenter"",""1"",""2390""
","
","
","""event"",""trial"",""time""
""fullscreenenter"",""1"",""2390""
","
","","","2467","[""shark""]","0","22","10102","4733","","","","","","","","","","","","","","","","","","",""
"pit-instructions","4","15322","0.0-2.0-1.0-1.0","battery-v0.2","","""event"",""trial"",""time""
""fullscreenenter"",""1"",""2390""
","
","
","""event"",""trial"",""time""
""fullscreenenter"",""1"",""2390""
","
","","[{""page_index"":0,""viewing_time"":3531.7999999523163}]","3532","","","","","","","","","","","","","","","","","","","","","","","",""
"pit-comprehension","5","18102","0.0-2.0-2.0-0.0","battery-v0.2","","""event"",""trial"",""time""
""fullscreenenter"",""1"",""2390""
","
","
","""event"",""trial"",""time""
""fullscreenenter"",""1"",""2390""
","
","","","2778.2000000476837","[""tiger""]","0","22","10102","4733","","","","","","","","","","","","","","","","","","",""
"pit-instructions","6","19201","0.0-2.0-2.0-1.0","battery-v0.2","","""event"",""trial"",""time""
""fullscreenenter"",""1"",""2390""
","
","
","""event"",""trial"",""time""
""fullscreenenter"",""1"",""2390""
","
","","[{""page_index"":0,""viewing_time"":1095.3999999761581}]","1095.6000000238419","","","","","","","","","","","","","","","","","","","","","","","",""
"pit-instructions","7","124687","0.0-2.0-3.0","battery-v0.2","","""event"",""trial"",""time""
""fullscreenenter"",""1"",""2390""
","
","
","""event"",""trial"",""time""
""fullscreenenter"",""1"",""2390""
","
","","[{""page_index"":0,""viewing_time"":8081.699999928474},{""page_index"":1,""viewing_time"":6848.800000071526},{""page_index"":2,""viewing_time"":8302.600000023842},{""page_index"":3,""viewing_time"":5974},{""page_index"":4,""viewing_time"":6777},{""page_index"":5,""viewing_time"":6620.5},{""page_index"":6,""viewing_time"":8080.299999952316},{""page_index"":7,""viewing_time"":7477.799999952316},{""page_index"":8,""viewing_time"":7430},{""page_index"":9,""viewing_time"":9895.5},{""page_index"":10,""viewing_time"":8520.600000023842},{""page_index"":11,""viewing_time"":7816},{""page_index"":12,""viewing_time"":8330.899999976158},{""page_index"":13,""viewing_time"":5327.5}]","105483.5","","","","","","","","","","","","","","","","","","","","","","","",""
"pit-trial","8","128376","0.0-2.0-4.0-0.0","battery-v0.2","","""event"",""trial"",""time""
""fullscreenenter"",""1"",""2390""
","
","
","""event"",""trial"",""time""
""fullscreenenter"",""1"",""2390""
","
","","","829.8999999761581","","","22","10102","4733","&#9784;","elianto","#FFFFF080"," "," ","1","&#10004","[1685.2999999523163]","1","0","0","","","","","","","",""
"pit-trial","9","132072","0.0-2.0-4.1-0.1","battery-v0.2","","""event"",""trial"",""time""
""fullscreenenter"",""1"",""2390""
","
","
","""event"",""trial"",""time""
""fullscreenenter"",""1"",""2390""
","
","","","835.7000000476837","","","22","10102","4733","&#9784;","elianto","#FFFFF080"," "," ","1","&#10004","[1688.3999999761581]","1","0","0","","","","","","","",""
"pit-trial","10","135609","0.0-2.0-4.2-0.2","battery-v0.2","","""event"",""trial"",""time""
""fullscreenenter"",""1"",""2390""
","
","
","""event"",""trial"",""time""
""fullscreenenter"",""1"",""2390""
","
","","","670.8000000715256","","","22","10102","4733","&#9784;","elianto","#FFFFF080"," "," ","1","&#10004","[1525.8000000715256]","1","0","0","","","","","","","",""
"pit-trial","11","139001","0.0-2.0-4.3-0.3","battery-v0.2","","""event"",""trial"",""time""
""fullscreenenter"",""1"",""2390""
","
","
","""event"",""trial"",""time""
""fullscreenenter"",""1"",""2390""
","
","","","533.6000000238419","","","22","10102","4733","&#9784;","elianto","#FFFFF080"," "," ","1","&#10004","[1387.1000000238419]","1","0","0","","","","","","","",""
"pit-trial","12","142328","0.0-2.0-4.4-0.4","battery-v0.2","","""event"",""trial"",""time""
""fullscreenenter"",""1"",""2390""
","
","
","""event"",""trial"",""time""
""fullscreenenter"",""1"",""2390""
","
","","","465.10000002384186","","","22","10102","4733","&#9784;","elianto","#FFFFF080"," "," ","1","&#10004","[1318.8999999761581]","1","0","0","","","","","","","",""
"pit-instructions","13","164111","0.0-2.0-5.0","battery-v0.2","","""event"",""trial"",""time""
""fullscreenenter"",""1"",""2390""
","
","
","""event"",""trial"",""time""
""fullscreenenter"",""1"",""2390""
","
","","[{""page_index"":0,""viewing_time"":4824.100000023842},{""page_index"":1,""viewing_time"":6019.700000047684},{""page_index"":2,""viewing_time"":5595.100000023842},{""page_index"":3,""viewing_time"":5340.899999976158}]","21780","","","","","","","","","","","","","","","","","","","","","","","",""
"pit-trial","14","168976","0.0-2.0-6.0-0.0","battery-v0.2","","""event"",""trial"",""time""
""fullscreenenter"",""1"",""2390""
","
","
","""event"",""trial"",""time""
""fullscreenenter"",""1"",""2390""
","
","","","-1","","","22","10102","4733","&#9854;","elianto","#FFFFF080","-1","-1","1","&#10004","[]","0","0","1","","","","","","","",""
"pit-trial","15","173842","0.0-2.0-6.1-0.1","battery-v0.2","","""event"",""trial"",""time""
""fullscreenenter"",""1"",""2390""
","
","
","""event"",""trial"",""time""
""fullscreenenter"",""1"",""2390""
","
","","","-1","","","22","10102","4733","&#9854;","elianto","#FFFFF080","-1","-1","1","&#10004","[]","0","0","1","","","","","","","",""
"pit-trial","16","178706","0.0-2.0-6.2-0.2","battery-v0.2","","""event"",""trial"",""time""
""fullscreenenter"",""1"",""2390""
","
","
","""event"",""trial"",""time""
""fullscreenenter"",""1"",""2390""
","
","","","-1","","","22","10102","4733","&#9854;","elianto","#FFFFF080","-1","-1","1","&#10004","[]","0","0","1","","","","","","","",""
"pit-trial","17","183570","0.0-2.0-6.3-0.3","battery-v0.2","","""event"",""trial"",""time""
""fullscreenenter"",""1"",""2390""
","
","
","""event"",""trial"",""time""
""fullscreenenter"",""1"",""2390""
","
","","","-1","","","22","10102","4733","&#9854;","elianto","#FFFFF080","-1","-1","1","&#10004","[]","0","0","1","","","","","","","",""
"pit-trial","18","188432","0.0-2.0-6.4-0.4","battery-v0.2","","""event"",""trial"",""time""
""fullscreenenter"",""1"",""2390""
","
","
","""event"",""trial"",""time""
""fullscreenenter"",""1"",""2390""
","
","","","-1","","","22","10102","4733","&#9854;","elianto","#FFFFF080","-1","-1","1","&#10004","[]","0","0","1","","","","","","","",""
"pit-instructions","19","308733","0.0-2.0-7.0","battery-v0.2","","""event"",""trial"",""time""
""fullscreenenter"",""1"",""2390""
","
","
","""event"",""trial"",""time""
""fullscreenenter"",""1"",""2390""
","
","","[{""page_index"":0,""viewing_time"":7012},{""page_index"":1,""viewing_time"":7399.799999952316},{""page_index"":2,""viewing_time"":6671.100000023842},{""page_index"":3,""viewing_time"":6921.799999952316},{""page_index"":4,""viewing_time"":6709.600000023842},{""page_index"":5,""viewing_time"":6214.700000047684},{""page_index"":6,""viewing_time"":4975.699999928474},{""page_index"":7,""viewing_time"":7865.5},{""page_index"":8,""viewing_time"":6734},{""page_index"":9,""viewing_time"":6730},{""page_index"":10,""viewing_time"":6457.100000023842},{""page_index"":11,""viewing_time"":4428.399999976158},{""page_index"":12,""viewing_time"":6812.800000071526},{""page_index"":13,""viewing_time"":6914},{""page_index"":14,""viewing_time"":6797.299999952316},{""page_index"":15,""viewing_time"":6564.200000047684},{""page_index"":16,""viewing_time"":7457.299999952316},{""page_index"":17,""viewing_time"":7631.700000047684}]","120297.19999992847","","","","","","","","","","","","","","","","","","","","","","","",""
"pit-trial","20","312251","0.0-2.0-8.0-0.0","battery-v0.2","","""event"",""trial"",""time""
""fullscreenenter"",""1"",""2390""
","
","
","""event"",""trial"",""time""
""fullscreenenter"",""1"",""2390""
","
","","","662.0999999046326","","","22","10102","4733","&#9776;","elianto","#3366ff99"," "," ","1","+10","[1514.1999999284744]","1","0","1","","","","","","","",""
"pit-trial","21","315483","0.0-2.0-8.0-1.0","battery-v0.2","","""event"",""trial"",""time""
""fullscreenenter"",""1"",""2390""
","
","
","""event"",""trial"",""time""
""fullscreenenter"",""1"",""2390""
","
","","","368.7000000476837","","","22","10102","4733","&#9776;","elianto","#3366ff99"," "," ","1","+10","[1222.4000000953674]","1","0","1","","","","","","","",""
"pit-trial","22","318540","0.0-2.0-8.0-2.0","battery-v0.2","","""event"",""trial"",""time""
""fullscreenenter"",""1"",""2390""
","
","
","""event"",""trial"",""time""
""fullscreenenter"",""1"",""2390""
","
","","","199.20000004768372","","","22","10102","4733","&#9776;","elianto","#3366ff99"," "," ","1","+10","[1053.7000000476837]","1","0","1","","","","","","","",""
"pit-trial","23","321722","0.0-2.0-8.0-3.0","battery-v0.2","","""event"",""trial"",""time""
""fullscreenenter"",""1"",""2390""
","
","
","""event"",""trial"",""time""
""fullscreenenter"",""1"",""2390""
","
","","","320.60000002384186","","","22","10102","4733","&#9776;","elianto","#3366ff99"," "," ","1","0","[1173.6000000238419]","1","0","1","","","","","","","",""
"pit-trial","24","324907","0.0-2.0-8.0-4.0","battery-v0.2","","""event"",""trial"",""time""
""fullscreenenter"",""1"",""2390""
","
","
","""event"",""trial"",""time""
""fullscreenenter"",""1"",""2390""
","
","","","326.89999997615814","","","22","10102","4733","&#9776;","elianto","#3366ff99"," "," ","1","+10","[1182.2000000476837]","1","0","1","","","","","","","",""
"pit-trial","25","328123","0.0-2.0-8.1-0.1","battery-v0.2","","""event"",""trial"",""time""
""fullscreenenter"",""1"",""2390""
","
","
","""event"",""trial"",""time""
""fullscreenenter"",""1"",""2390""
","
","","","357.7000000476837","","","22","10102","4733","&#9776;","elianto","#3366ff99"," "," ","1","+10","[1211.1000000238419]","1","0","1","","","","","","","",""
"pit-trial","26","331347","0.0-2.0-8.1-1.1","battery-v0.2","","""event"",""trial"",""time""
""fullscreenenter"",""1"",""2390""
","
","
","""event"",""trial"",""time""
""fullscreenenter"",""1"",""2390""
","
","","","362.1999999284744","","","22","10102","4733","&#9776;","elianto","#3366ff99"," "," ","1","+10","[1215.1000000238419]","1","0","1","","","","","","","",""
"pit-trial","27","334618","0.0-2.0-8.1-2.1","battery-v0.2","","""event"",""trial"",""time""
""fullscreenenter"",""1"",""2390""
","
","
","""event"",""trial"",""time""
""fullscreenenter"",""1"",""2390""
","
","","","412.60000002384186","","","22","10102","4733","&#9776;","elianto","#3366ff99"," "," ","1","+10","[1266.7999999523163]","1","0","1","","","","","","","",""
"pit-trial","28","337908","0.0-2.0-8.1-3.1","battery-v0.2","","""event"",""trial"",""time""
""fullscreenenter"",""1"",""2390""
","
","
","""event"",""trial"",""time""
""fullscreenenter"",""1"",""2390""
","
","","","425.60000002384186","","","22","10102","4733","&#9776;","elianto","#3366ff99"," "," ","1","0","[1280.7999999523163]","1","0","1","","","","","","","",""
"pit-trial","29","341250","0.0-2.0-8.1-4.1","battery-v0.2","","""event"",""trial"",""time""
""fullscreenenter"",""1"",""2390""
","
","
","""event"",""trial"",""time""
""fullscreenenter"",""1"",""2390""
","
","","","481.5","","","22","10102","4733","&#9776;","elianto","#3366ff99"," "," ","1","+10","[1334.7999999523163]","1","0","1","","","","","","","",""
"pit-trial","30","344635","0.0-2.0-8.2-0.2","battery-v0.2","","""event"",""trial"",""time""
""fullscreenenter"",""1"",""2390""
","
","
","""event"",""trial"",""time""
""fullscreenenter"",""1"",""2390""
","
","","","526.3999999761581","","","22","10102","4733","&#9776;","elianto","#3366ff99"," "," ","1","+10","[1377.6000000238419]","1","0","1","","","","","","","",""
"pit-trial","31","347899","0.0-2.0-8.2-1.2","battery-v0.2","","""event"",""trial"",""time""
""fullscreenenter"",""1"",""2390""
","
","
","""event"",""trial"",""time""
""fullscreenenter"",""1"",""2390""
","
","","","407.5","","","22","10102","4733","&#9776;","elianto","#3366ff99"," "," ","1","+10","[1258.3000000715256]","1","0","1","","","","","","","",""
"pit-trial","32","351218","0.0-2.0-8.2-2.2","battery-v0.2","","""event"",""trial"",""time""
""fullscreenenter"",""1"",""2390""
","
","
","""event"",""trial"",""time""
""fullscreenenter"",""1"",""2390""
","
","","","465.8000000715256","","","22","10102","4733","&#9776;","elianto","#3366ff99"," "," ","1","+10","[1317.4000000953674]","1","0","1","","","","","","","",""
"pit-trial","33","354507","0.0-2.0-8.2-3.2","battery-v0.2","","""event"",""trial"",""time""
""fullscreenenter"",""1"",""2390""
","
","
","""event"",""trial"",""time""
""fullscreenenter"",""1"",""2390""
","
","","","435.7999999523163","","","22","10102","4733","&#9776;","elianto","#3366ff99"," "," ","1","0","[1285.8999999761581]","1","0","1","","","","","","","",""
"pit-trial","34","357858","0.0-2.0-8.2-4.2","battery-v0.2","","""event"",""trial"",""time""
""fullscreenenter"",""1"",""2390""
","
","
","""event"",""trial"",""time""
""fullscreenenter"",""1"",""2390""
","
","","","490.2999999523163","","","22","10102","4733","&#9776;","elianto","#3366ff99"," "," ","1","+10","[1345.5999999046326]","1","0","1","","","","","","","",""
"call-function","35","357860","0.0-2.0-9.0","battery-v0.2","","""event"",""trial"",""time""
""fullscreenenter"",""1"",""2390""
","
","
","""event"",""trial"",""time""
""fullscreenenter"",""1"",""2390""
","
","","","","","","","","","","","","","","","","","","","","","","","","","","",""
"pit-instructions","36","397039","0.0-2.0-10.0","battery-v0.2","","""event"",""trial"",""time""
""fullscreenenter"",""1"",""2390""
","
","
","""event"",""trial"",""time""
""fullscreenenter"",""1"",""2390""
","
","","[{""page_index"":0,""viewing_time"":5794.100000023842},{""page_index"":1,""viewing_time"":7173.399999976158},{""page_index"":2,""viewing_time"":9466.200000047684},{""page_index"":3,""viewing_time"":8894.899999976158},{""page_index"":4,""viewing_time"":7850.200000047684}]","39179","","","","","","","","","","","","","","","","","","","","","","","",""
"pit-trial","37","400388","0.0-2.0-11.0-0.0","battery-v0.2","","""event"",""trial"",""time""
""fullscreenenter"",""1"",""2390""
","
","
","""event"",""trial"",""time""
""fullscreenenter"",""1"",""2390""
","
","","","494","","","22","10102","4733","&#9761;","elianto","#3366ff99","-1"," ","0","0","[1344.5]","1","0","2","","","","","","","",""
"pit-trial","38","403507","0.0-2.0-11.0-1.0","battery-v0.2","","""event"",""trial"",""time""
""fullscreenenter"",""1"",""2390""
","
","
","""event"",""trial"",""time""
""fullscreenenter"",""1"",""2390""
","
","","","257.7999999523163","","","22","10102","4733","&#9761;","elianto","#3366ff99","-1"," ","0","0","[1111.6999999284744]","1","0","2","","","","","","","",""
"pit-trial","39","406524","0.0-2.0-11.0-2.0","battery-v0.2","","""event"",""trial"",""time""
""fullscreenenter"",""1"",""2390""
","
","
","""event"",""trial"",""time""
""fullscreenenter"",""1"",""2390""
","
","","","157.69999992847443","","","22","10102","4733","&#9761;","elianto","#3366ff99","-1"," ","0","0","[1013.5]","1","0","2","","","","","","","",""
"pit-trial","40","411387","0.0-2.0-11.0-3.0","battery-v0.2","","""event"",""trial"",""time""
""fullscreenenter"",""1"",""2390""
","
","
","""event"",""trial"",""time""
""fullscreenenter"",""1"",""2390""
","
","","","-1","","","22","10102","4733","&#9761;","elianto","#3366ff99","-1","-1","1","0","[]","0","0","2","","","","","","","",""
"pit-trial","41","416251","0.0-2.0-11.0-4.0","battery-v0.2","","""event"",""trial"",""time""
""fullscreenenter"",""1"",""2390""
","
","
","""event"",""trial"",""time""
""fullscreenenter"",""1"",""2390""
","
","","","-1","","","22","10102","4733","&#9761;","elianto","#3366ff99","-1","-1","1","+10","[]","0","0","2","","","","","","","",""
"pit-trial","42","421116","0.0-2.0-11.1-0.1","battery-v0.2","","""event"",""trial"",""time""
""fullscreenenter"",""1"",""2390""
","
","
","""event"",""trial"",""time""
""fullscreenenter"",""1"",""2390""
","
","","","-1","","","22","10102","4733","&#9761;","elianto","#3366ff99","-1","-1","1","+10","[]","0","0","2","","","","","","","",""
"pit-trial","43","425980","0.0-2.0-11.1-1.1","battery-v0.2","","""event"",""trial"",""time""
""fullscreenenter"",""1"",""2390""
","
","
","""event"",""trial"",""time""
""fullscreenenter"",""1"",""2390""
","
","","","-1","","","22","10102","4733","&#9761;","elianto","#3366ff99","-1","-1","1","+10","[]","0","0","2","","","","","","","",""
"pit-trial","44","430844","0.0-2.0-11.1-2.1","battery-v0.2","","""event"",""trial"",""time""
""fullscreenenter"",""1"",""2390""
","
","
","""event"",""trial"",""time""
""fullscreenenter"",""1"",""2390""
","
","","","-1","","","22","10102","4733","&#9761;","elianto","#3366ff99","-1","-1","1","+10","[]","0","0","2","","","","","","","",""
"pit-trial","45","435709","0.0-2.0-11.1-3.1","battery-v0.2","","""event"",""trial"",""time""
""fullscreenenter"",""1"",""2390""
","
","
","""event"",""trial"",""time""
""fullscreenenter"",""1"",""2390""
","
","","","-1","","","22","10102","4733","&#9761;","elianto","#3366ff99","-1","-1","1","0","[]","0","0","2","","","","","","","",""
"pit-trial","46","440573","0.0-2.0-11.1-4.1","battery-v0.2","","""event"",""trial"",""time""
""fullscreenenter"",""1"",""2390""
","
","
","""event"",""trial"",""time""
""fullscreenenter"",""1"",""2390""
","
","","","-1","","","22","10102","4733","&#9761;","elianto","#3366ff99","-1","-1","1","+10","[]","0","0","2","","","","","","","",""
"pit-trial","47","445437","0.0-2.0-11.2-0.2","battery-v0.2","","""event"",""trial"",""time""
""fullscreenenter"",""1"",""2390""
","
","
","""event"",""trial"",""time""
""fullscreenenter"",""1"",""2390""
","
","","","-1","","","22","10102","4733","&#9761;","elianto","#3366ff99","-1","-1","1","+10","[]","0","0","2","","","","","","","",""
"pit-trial","48","450301","0.0-2.0-11.2-1.2","battery-v0.2","","""event"",""trial"",""time""
""fullscreenenter"",""1"",""2390""
","
","
","""event"",""trial"",""time""
""fullscreenenter"",""1"",""2390""
","
","","","-1","","","22","10102","4733","&#9761;","elianto","#3366ff99","-1","-1","1","+10","[]","0","0","2","","","","","","","",""
"pit-trial","49","455165","0.0-2.0-11.2-2.2","battery-v0.2","","""event"",""trial"",""time""
""fullscreenenter"",""1"",""2390""
","
","
","""event"",""trial"",""time""
""fullscreenenter"",""1"",""2390""
","
","","","-1","","","22","10102","4733","&#9761;","elianto","#3366ff99","-1","-1","1","+10","[]","0","0","2","","","","","","","",""
"pit-trial","50","460028","0.0-2.0-11.2-3.2","battery-v0.2","","""event"",""trial"",""time""
""fullscreenenter"",""1"",""2390""
","
","
","""event"",""trial"",""time""
""fullscreenenter"",""1"",""2390""
","
","","","-1","","","22","10102","4733","&#9761;","elianto","#3366ff99","-1","-1","1","0","[]","0","0","2","","","","","","","",""
"pit-trial","51","464893","0.0-2.0-11.2-4.2","battery-v0.2","","""event"",""trial"",""time""
""fullscreenenter"",""1"",""2390""
","
","
","""event"",""trial"",""time""
""fullscreenenter"",""1"",""2390""
","
","","","-1","","","22","10102","4733","&#9761;","elianto","#3366ff99","-1","-1","1","+10","[]","0","0","2","","","","","","","",""
"pit-trial","52","469757","0.0-2.0-11.3-0.3","battery-v0.2","","""event"",""trial"",""time""
""fullscreenenter"",""1"",""2390""
","
","
","""event"",""trial"",""time""
""fullscreenenter"",""1"",""2390""
","
","","","-1","","","22","10102","4733","&#9761;","elianto","#3366ff99","-1","-1","1","+10","[]","0","0","2","","","","","","","",""
"pit-trial","53","474621","0.0-2.0-11.3-1.3","battery-v0.2","","""event"",""trial"",""time""
""fullscreenenter"",""1"",""2390""
","
","
","""event"",""trial"",""time""
""fullscreenenter"",""1"",""2390""
","
","","","-1","","","22","10102","4733","&#9761;","elianto","#3366ff99","-1","-1","1","+10","[]","0","0","2","","","","","","","",""
"pit-trial","54","479485","0.0-2.0-11.3-2.3","battery-v0.2","","""event"",""trial"",""time""
""fullscreenenter"",""1"",""2390""
","
","
","""event"",""trial"",""time""
""fullscreenenter"",""1"",""2390""
","
","","","-1","","","22","10102","4733","&#9761;","elianto","#3366ff99","-1","-1","1","+10","[]","0","0","2","","","","","","","",""
"pit-trial","55","484349","0.0-2.0-11.3-3.3","battery-v0.2","","""event"",""trial"",""time""
""fullscreenenter"",""1"",""2390""
","
","
","""event"",""trial"",""time""
""fullscreenenter"",""1"",""2390""
","
","","","-1","","","22","10102","4733","&#9761;","elianto","#3366ff99","-1","-1","1","0","[]","0","0","2","","","","","","","",""
"pit-trial","56","489213","0.0-2.0-11.3-4.3","battery-v0.2","","""event"",""trial"",""time""
""fullscreenenter"",""1"",""2390""
","
","
","""event"",""trial"",""time""
""fullscreenenter"",""1"",""2390""
","
","","","-1","","","22","10102","4733","&#9761;","elianto","#3366ff99","-1","-1","1","+10","[]","0","0","2","","","","","","","",""
"call-function","57","489215","0.0-2.0-12.0","battery-v0.2","","""event"",""trial"",""time""
""fullscreenenter"",""1"",""2390""
","
","
","""event"",""trial"",""time""
""fullscreenenter"",""1"",""2390""
","
","","","","","","","","","","","","","","","","","","","","","","","","","","",""
"pit-instructions","58","521711","0.0-2.0-13.0","battery-v0.2","","""event"",""trial"",""time""
""fullscreenenter"",""1"",""2390""
","
","
","""event"",""trial"",""time""
""fullscreenenter"",""1"",""2390""
","
","","[{""page_index"":0,""viewing_time"":4923.200000047684},{""page_index"":1,""viewing_time"":7301.100000023842},{""page_index"":2,""viewing_time"":3744.2999999523163},{""page_index"":3,""viewing_time"":10712.800000071526},{""page_index"":4,""viewing_time"":5812.899999976158}]","32494.5","","","","","","","","","","","","","","","","","","","","","","","",""
"pit-trial","59","525333","0.0-2.0-14.0-0.0","battery-v0.2","","""event"",""trial"",""time""
""fullscreenenter"",""1"",""2390""
","
","
","""event"",""trial"",""time""
""fullscreenenter"",""1"",""2390""
","
","","","765.7000000476837","","","22","10102","4733","&#9826;","elianto","#f73b6a7A","-1"," ","0","-10","[1619.3999999761581]","1","0","3","","","","","","","",""
"pit-trial","60","528541","0.0-2.0-14.0-1.0","battery-v0.2","","""event"",""trial"",""time""
""fullscreenenter"",""1"",""2390""
","
","
","""event"",""trial"",""time""
""fullscreenenter"",""1"",""2390""
","
","","","347.2999999523163","","","22","10102","4733","&#9826;","elianto","#f73b6a7A","-1"," ","0","-10","[1202.5]","1","0","3","","","","","","","",""
"pit-trial","61","531645","0.0-2.0-14.0-2.0","battery-v0.2","","""event"",""trial"",""time""
""fullscreenenter"",""1"",""2390""
","
","
","""event"",""trial"",""time""
""fullscreenenter"",""1"",""2390""
","
","","","239.30000007152557","","","22","10102","4733","&#9826;","elianto","#f73b6a7A","-1"," ","0","-10","[1093.7000000476837]","1","0","3","","","","","","","",""
"pit-trial","62","536510","0.0-2.0-14.0-3.0","battery-v0.2","","""event"",""trial"",""time""
""fullscreenenter"",""1"",""2390""
","
","
","""event"",""trial"",""time""
""fullscreenenter"",""1"",""2390""
","
","","","-1","","","22","10102","4733","&#9826;","elianto","#f73b6a7A","-1","-1","1","-10","[]","0","0","3","","","","","","","",""
"pit-trial","63","541373","0.0-2.0-14.0-4.0","battery-v0.2","","""event"",""trial"",""time""
""fullscreenenter"",""1"",""2390""
","
","
","""event"",""trial"",""time""
""fullscreenenter"",""1"",""2390""
","
","","","-1","","","22","10102","4733","&#9826;","elianto","#f73b6a7A","-1","-1","1","0","[]","0","0","3","","","","","","","",""
"pit-trial","64","546238","0.0-2.0-14.1-0.1","battery-v0.2","","""event"",""trial"",""time""
""fullscreenenter"",""1"",""2390""
","
","
","""event"",""trial"",""time""
""fullscreenenter"",""1"",""2390""
","
","","","-1","","","22","10102","4733","&#9826;","elianto","#f73b6a7A","-1","-1","1","0","[]","0","0","3","","","","","","","",""
"pit-trial","65","551101","0.0-2.0-14.1-1.1","battery-v0.2","","""event"",""trial"",""time""
""fullscreenenter"",""1"",""2390""
","
","
","""event"",""trial"",""time""
""fullscreenenter"",""1"",""2390""
","
","","","-1","","","22","10102","4733","&#9826;","elianto","#f73b6a7A","-1","-1","1","0","[]","0","0","3","","","","","","","",""
"pit-trial","66","555965","0.0-2.0-14.1-2.1","battery-v0.2","","""event"",""trial"",""time""
""fullscreenenter"",""1"",""2390""
","
","
","""event"",""trial"",""time""
""fullscreenenter"",""1"",""2390""
","
","","","-1","","","22","10102","4733","&#9826;","elianto","#f73b6a7A","-1","-1","1","0","[]","0","0","3","","","","","","","",""
"pit-trial","67","560830","0.0-2.0-14.1-3.1","battery-v0.2","","""event"",""trial"",""time""
""fullscreenenter"",""1"",""2390""
","
","
","""event"",""trial"",""time""
""fullscreenenter"",""1"",""2390""
","
","","","-1","","","22","10102","4733","&#9826;","elianto","#f73b6a7A","-1","-1","1","-10","[]","0","0","3","","","","","","","",""
"pit-trial","68","565694","0.0-2.0-14.1-4.1","battery-v0.2","","""event"",""trial"",""time""
""fullscreenenter"",""1"",""2390""
","
","
","""event"",""trial"",""time""
""fullscreenenter"",""1"",""2390""
","
","","","-1","","","22","10102","4733","&#9826;","elianto","#f73b6a7A","-1","-1","1","0","[]","0","0","3","","","","","","","",""
"pit-trial","69","570558","0.0-2.0-14.2-0.2","battery-v0.2","","""event"",""trial"",""time""
""fullscreenenter"",""1"",""2390""
","
","
","""event"",""trial"",""time""
""fullscreenenter"",""1"",""2390""
","
","","","-1","","","22","10102","4733","&#9826;","elianto","#f73b6a7A","-1","-1","1","0","[]","0","0","3","","","","","","","",""
"pit-trial","70","575421","0.0-2.0-14.2-1.2","battery-v0.2","","""event"",""trial"",""time""
""fullscreenenter"",""1"",""2390""
","
","
","""event"",""trial"",""time""
""fullscreenenter"",""1"",""2390""
","
","","","-1","","","22","10102","4733","&#9826;","elianto","#f73b6a7A","-1","-1","1","0","[]","0","0","3","","","","","","","",""
"pit-trial","71","580286","0.0-2.0-14.2-2.2","battery-v0.2","","""event"",""trial"",""time""
""fullscreenenter"",""1"",""2390""
","
","
","""event"",""trial"",""time""
""fullscreenenter"",""1"",""2390""
","
","","","-1","","","22","10102","4733","&#9826;","elianto","#f73b6a7A","-1","-1","1","0","[]","0","0","3","","","","","","","",""
"pit-trial","72","585150","0.0-2.0-14.2-3.2","battery-v0.2","","""event"",""trial"",""time""
""fullscreenenter"",""1"",""2390""
","
","
","""event"",""trial"",""time""
""fullscreenenter"",""1"",""2390""
","
","","","-1","","","22","10102","4733","&#9826;","elianto","#f73b6a7A","-1","-1","1","-10","[]","0","0","3","","","","","","","",""
"pit-trial","73","590014","0.0-2.0-14.2-4.2","battery-v0.2","","""event"",""trial"",""time""
""fullscreenenter"",""1"",""2390""
","
","
","""event"",""trial"",""time""
""fullscreenenter"",""1"",""2390""
","
","","","-1","","","22","10102","4733","&#9826;","elianto","#f73b6a7A","-1","-1","1","0","[]","0","0","3","","","","","","","",""
"pit-trial","74","594878","0.0-2.0-14.3-0.3","battery-v0.2","","""event"",""trial"",""time""
""fullscreenenter"",""1"",""2390""
","
","
","""event"",""trial"",""time""
""fullscreenenter"",""1"",""2390""
","
","","","-1","","","22","10102","4733","&#9826;","elianto","#f73b6a7A","-1","-1","1","0","[]","0","0","3","","","","","","","",""
"pit-trial","75","599743","0.0-2.0-14.3-1.3","battery-v0.2","","""event"",""trial"",""time""
""fullscreenenter"",""1"",""2390""
","
","
","""event"",""trial"",""time""
""fullscreenenter"",""1"",""2390""
","
","","","-1","","","22","10102","4733","&#9826;","elianto","#f73b6a7A","-1","-1","1","0","[]","0","0","3","","","","","","","",""
"pit-trial","76","604606","0.0-2.0-14.3-2.3","battery-v0.2","","""event"",""trial"",""time""
""fullscreenenter"",""1"",""2390""
","
","
","""event"",""trial"",""time""
""fullscreenenter"",""1"",""2390""
","
","","","-1","","","22","10102","4733","&#9826;","elianto","#f73b6a7A","-1","-1","1","0","[]","0","0","3","","","","","","","",""
"pit-trial","77","609470","0.0-2.0-14.3-3.3","battery-v0.2","","""event"",""trial"",""time""
""fullscreenenter"",""1"",""2390""
","
","
","""event"",""trial"",""time""
""fullscreenenter"",""1"",""2390""
","
","","","-1","","","22","10102","4733","&#9826;","elianto","#f73b6a7A","-1","-1","1","-10","[]","0","0","3","","","","","","","",""
"pit-trial","78","614334","0.0-2.0-14.3-4.3","battery-v0.2","","""event"",""trial"",""time""
""fullscreenenter"",""1"",""2390""
","
","
","""event"",""trial"",""time""
""fullscreenenter"",""1"",""2390""
","
","","","-1","","","22","10102","4733","&#9826;","elianto","#f73b6a7A","-1","-1","1","0","[]","0","0","3","","","","","","","",""
"call-function","79","614336","0.0-2.0-15.0","battery-v0.2","","""event"",""trial"",""time""
""fullscreenenter"",""1"",""2390""
","
","
","""event"",""trial"",""time""
""fullscreenenter"",""1"",""2390""
","
","","","","","","","","","","","","","","","","","","","","","","","","","","",""
"pit-instructions","80","641867","0.0-2.0-16.0","battery-v0.2","","""event"",""trial"",""time""
""fullscreenenter"",""1"",""2390""
","
","
","""event"",""trial"",""time""
""fullscreenenter"",""1"",""2390""
","
","","[{""page_index"":0,""viewing_time"":7800.900000095367},{""page_index"":1,""viewing_time"":9459.199999928474},{""page_index"":2,""viewing_time"":4457.800000071526},{""page_index"":3,""viewing_time"":5811.699999928474}]","27529.900000095367","","","","","","","","","","","","","","","","","","","","","","","",""
"pit-trial","81","645247","0.0-2.0-17.0-0.0","battery-v0.2","","""event"",""trial"",""time""
""fullscreenenter"",""1"",""2390""
","
","
","""event"",""trial"",""time""
""fullscreenenter"",""1"",""2390""
","
","","","512.7000000476837","","","22","10102","4733","&#9789;","elianto","#f73b6a7A"," "," ","1","0","[1370.8999999761581]","1","0","4","","","","","","","",""
"pit-trial","82","648543","0.0-2.0-17.0-1.0","battery-v0.2","","""event"",""trial"",""time""
""fullscreenenter"",""1"",""2390""
","
","
","""event"",""trial"",""time""
""fullscreenenter"",""1"",""2390""
","
","","","439.10000002384186","","","22","10102","4733","&#9789;","elianto","#f73b6a7A"," "," ","1","0","[1292.4000000953674]","1","0","4","","","","","","","",""
"pit-trial","83","651750","0.0-2.0-17.0-2.0","battery-v0.2","","""event"",""trial"",""time""
""fullscreenenter"",""1"",""2390""
","
","
","""event"",""trial"",""time""
""fullscreenenter"",""1"",""2390""
","
","","","344.6999999284744","","","22","10102","4733","&#9789;","elianto","#f73b6a7A"," "," ","1","0","[1199.2999999523163]","1","0","4","","","","","","","",""
"pit-trial","84","655055","0.0-2.0-17.0-3.0","battery-v0.2","","""event"",""trial"",""time""
""fullscreenenter"",""1"",""2390""
","
","
","""event"",""trial"",""time""
""fullscreenenter"",""1"",""2390""
","
","","","441.1999999284744","","","22","10102","4733","&#9789;","elianto","#f73b6a7A"," "," ","1","-10","[1296.3999999761581]","1","0","4","","","","","","","",""
"pit-trial","85","658199","0.0-2.0-17.0-4.0","battery-v0.2","","""event"",""trial"",""time""
""fullscreenenter"",""1"",""2390""
","
","
","""event"",""trial"",""time""
""fullscreenenter"",""1"",""2390""
","
","","","286.10000002384186","","","22","10102","4733","&#9789;","elianto","#f73b6a7A"," "," ","1","0","[1139.8999999761581]","1","0","4","","","","","","","",""
"pit-trial","86","661304","0.0-2.0-17.1-0.1","battery-v0.2","","""event"",""trial"",""time""
""fullscreenenter"",""1"",""2390""
","
","
","""event"",""trial"",""time""
""fullscreenenter"",""1"",""2390""
","
","","","245.80000007152557","","","22","10102","4733","&#9789;","elianto","#f73b6a7A"," "," ","1","0","[1100.9000000953674]","1","0","4","","","","","","","",""
"pit-trial","87","664800","0.0-2.0-17.1-1.1","battery-v0.2","","""event"",""trial"",""time""
""fullscreenenter"",""1"",""2390""
","
","
","""event"",""trial"",""time""
""fullscreenenter"",""1"",""2390""
","
","","","641.6000000238419","","","22","10102","4733","&#9789;","elianto","#f73b6a7A"," "," ","1","0","[1493]","1","0","4","","","","","","","",""
"pit-trial","88","668287","0.0-2.0-17.1-2.1","battery-v0.2","","""event"",""trial"",""time""
""fullscreenenter"",""1"",""2390""
","
","
","""event"",""trial"",""time""
""fullscreenenter"",""1"",""2390""
","
","","","627.7000000476837","","","22","10102","4733","&#9789;","elianto","#f73b6a7A"," "," ","1","0","[1482.6000000238419]","1","0","4","","","","","","","",""
"pit-trial","89","671656","0.0-2.0-17.1-3.1","battery-v0.2","","""event"",""trial"",""time""
""fullscreenenter"",""1"",""2390""
","
","
","""event"",""trial"",""time""
""fullscreenenter"",""1"",""2390""
","
","","","512.3999999761581","","","22","10102","4733","&#9789;","elianto","#f73b6a7A"," "," ","1","-10","[1362.3999999761581]","1","0","4","","","","","","","",""
"pit-trial","90","675048","0.0-2.0-17.1-4.1","battery-v0.2","","""event"",""trial"",""time""
""fullscreenenter"",""1"",""2390""
","
","
","""event"",""trial"",""time""
""fullscreenenter"",""1"",""2390""
","
","","","532.1000000238419","","","22","10102","4733","&#9789;","elianto","#f73b6a7A"," "," ","1","0","[1386.2999999523163]","1","0","4","","","","","","","",""
"pit-trial","91","678359","0.0-2.0-17.2-0.2","battery-v0.2","","""event"",""trial"",""time""
""fullscreenenter"",""1"",""2390""
","
","
","""event"",""trial"",""time""
""fullscreenenter"",""1"",""2390""
","
","","","453.5","","","22","10102","4733","&#9789;","elianto","#f73b6a7A"," "," ","1","0","[1307.5]","1","0","4","","","","","","","",""
"pit-trial","92","681520","0.0-2.0-17.2-1.2","battery-v0.2","","""event"",""trial"",""time""
""fullscreenenter"",""1"",""2390""
","
","
","""event"",""trial"",""time""
""fullscreenenter"",""1"",""2390""
","
","","","297.7999999523163","","","22","10102","4733","&#9789;","elianto","#f73b6a7A"," "," ","1","0","[1153]","1","0","4","","","","","","","",""
"pit-trial","93","684823","0.0-2.0-17.2-2.2","battery-v0.2","","""event"",""trial"",""time""
""fullscreenenter"",""1"",""2390""
","
","
","""event"",""trial"",""time""
""fullscreenenter"",""1"",""2390""
","
","","","443.89999997615814","","","22","10102","4733","&#9789;","elianto","#f73b6a7A"," "," ","1","0","[1297.7000000476837]","1","0","4","","","","","","","",""
"pit-trial","94","688095","0.0-2.0-17.2-3.2","battery-v0.2","","""event"",""trial"",""time""
""fullscreenenter"",""1"",""2390""
","
","
","""event"",""trial"",""time""
""fullscreenenter"",""1"",""2390""
","
","","","410.89999997615814","","","22","10102","4733","&#9789;","elianto","#f73b6a7A"," "," ","1","-10","[1265.5]","1","0","4","","","","","","","",""
"pit-trial","95","691424","0.0-2.0-17.2-4.2","battery-v0.2","","""event"",""trial"",""time""
""fullscreenenter"",""1"",""2390""
","
","
","""event"",""trial"",""time""
""fullscreenenter"",""1"",""2390""
","
","","","471","","","22","10102","4733","&#9789;","elianto","#f73b6a7A"," "," ","1","0","[1326.0999999046326]","1","0","4","","","","","","","",""
"pit-trial","96","694544","0.0-2.0-17.3-0.3","battery-v0.2","","""event"",""trial"",""time""
""fullscreenenter"",""1"",""2390""
","
","
","""event"",""trial"",""time""
""fullscreenenter"",""1"",""2390""
","
","","","255","","","22","10102","4733","&#9789;","elianto","#f73b6a7A"," "," ","1","0","[1108.7000000476837]","1","0","4","","","","","","","",""
"pit-trial","97","697856","0.0-2.0-17.3-1.3","battery-v0.2","","""event"",""trial"",""time""
""fullscreenenter"",""1"",""2390""
","
","
","""event"",""trial"",""time""
""fullscreenenter"",""1"",""2390""
","
","","","453.7999999523163","","","22","10102","4733","&#9789;","elianto","#f73b6a7A"," "," ","1","0","[1306.6000000238419]","1","0","4","","","","","","","",""
"pit-trial","98","701055","0.0-2.0-17.3-2.3","battery-v0.2","","""event"",""trial"",""time""
""fullscreenenter"",""1"",""2390""
","
","
","""event"",""trial"",""time""
""fullscreenenter"",""1"",""2390""
","
","","","339.09999990463257","","","22","10102","4733","&#9789;","elianto","#f73b6a7A"," "," ","1","0","[1193.2999999523163]","1","0","4","","","","","","","",""
"pit-trial","99","704360","0.0-2.0-17.3-3.3","battery-v0.2","","""event"",""trial"",""time""
""fullscreenenter"",""1"",""2390""
","
","
","""event"",""trial"",""time""
""fullscreenenter"",""1"",""2390""
","
","","","443.60000002384186","","","22","10102","4733","&#9789;","elianto","#f73b6a7A"," "," ","1","-10","[1299.2000000476837]","1","0","4","","","","","","","",""
"pit-trial","100","707631","0.0-2.0-17.3-4.3","battery-v0.2","","""event"",""trial"",""time""
""fullscreenenter"",""1"",""2390""
","
","
","""event"",""trial"",""time""
""fullscreenenter"",""1"",""2390""
","
","","","413.7000000476837","","","22","10102","4733","&#9789;","elianto","#f73b6a7A"," "," ","1","0","[1268.3000000715256]","1","0","4","","","","","","","",""
"call-function","101","707632","0.0-2.0-18.0","battery-v0.2","","""event"",""trial"",""time""
""fullscreenenter"",""1"",""2390""
","
","
","""event"",""trial"",""time""
""fullscreenenter"",""1"",""2390""
","
","","","","","","","","","","","","","","","","","","","","","","","","","","",""
"pit-instructions","102","782719","0.0-2.0-19.0","battery-v0.2","","""event"",""trial"",""time""
""fullscreenenter"",""1"",""2390""
","
","
","""event"",""trial"",""time""
""fullscreenenter"",""1"",""2390""
","
","","[{""page_index"":0,""viewing_time"":8002.900000095367},{""page_index"":1,""viewing_time"":5941.099999904633},{""page_index"":2,""viewing_time"":13985},{""page_index"":3,""viewing_time"":7660.800000071526},{""page_index"":4,""viewing_time"":8148.799999952316},{""page_index"":5,""viewing_time"":9676},{""page_index"":6,""viewing_time"":8826.800000071526},{""page_index"":7,""viewing_time"":7386.399999976158},{""page_index"":8,""viewing_time"":5457.699999928474}]","75085.70000004768","","","","","","","","","","","","","","","","","","","","","","","",""
"pit-comprehension","103","787927","0.0-2.0-20.0-0.0","battery-v0.2","","""event"",""trial"",""time""
""fullscreenenter"",""1"",""2390""
","
","
","""event"",""trial"",""time""
""fullscreenenter"",""1"",""2390""
","
","","","5205.200000047684","[""SPACE""]","0","22","10102","4733","","","","","","","","","","","","","","","","","","",""
"pit-instructions","104","791114","0.0-2.0-20.0-1.0","battery-v0.2","","""event"",""trial"",""time""
""fullscreenenter"",""1"",""2390""
","
","
","""event"",""trial"",""time""
""fullscreenenter"",""1"",""2390""
","
","","[{""page_index"":0,""viewing_time"":3154.600000023842}]","3154.8000000715256","","","","","","","","","","","","","","","","","","","","","","","",""
"pit-comprehension","105","797525","0.0-2.0-21.0-0.0","battery-v0.2","","""event"",""trial"",""time""
""fullscreenenter"",""1"",""2390""
","
","
","""event"",""trial"",""time""
""fullscreenenter"",""1"",""2390""
","
","","","6408.200000047684","[""10""]","0","22","10102","4733","","","","","","","","","","","","","","","","","","",""
"pit-instructions","106","800214","0.0-2.0-21.0-1.0","battery-v0.2","","""event"",""trial"",""time""
""fullscreenenter"",""1"",""2390""
","
","
","""event"",""trial"",""time""
""fullscreenenter"",""1"",""2390""
","
","","[{""page_index"":0,""viewing_time"":2655.399999976158}]","2655.6999999284744","","","","","","","","","","","","","","","","","","","","","","","",""
"pit-comprehension","107","807018","0.0-2.0-22.0-0.0","battery-v0.2","","""event"",""trial"",""time""
""fullscreenenter"",""1"",""2390""
","
","
","""event"",""trial"",""time""
""fullscreenenter"",""1"",""2390""
","
","","","6801.200000047684","[""0""]","0","22","10102","4733","","","","","","","","","","","","","","","","","","",""
"pit-instructions","108","813876","0.0-2.0-22.0-1.0","battery-v0.2","","""event"",""trial"",""time""
""fullscreenenter"",""1"",""2390""
","
","
","""event"",""trial"",""time""
""fullscreenenter"",""1"",""2390""
","
","","[{""page_index"":0,""viewing_time"":6830.399999976158}]","6830.5","","","","","","","","","","","","","","","","","","","","","","","",""
"pit-comprehension","109","822954","0.0-2.0-23.0-0.0","battery-v0.2","","""event"",""trial"",""time""
""fullscreenenter"",""1"",""2390""
","
","
","""event"",""trial"",""time""
""fullscreenenter"",""1"",""2390""
","
","","","9074.700000047684","[""True""]","0","22","10102","4733","","","","","","","","","","","","","","","","","","",""
"pit-instructions","110","828093","0.0-2.0-23.0-1.0","battery-v0.2","","""event"",""trial"",""time""
""fullscreenenter"",""1"",""2390""
","
","
","""event"",""trial"",""time""
""fullscreenenter"",""1"",""2390""
","
","","[{""page_index"":0,""viewing_time"":5111.399999976158}]","5111.599999904633","","","","","","","","","","","","","","","","","","","","","","","",""
"pit-comprehension","111","836203","0.0-2.0-24.0-0.0","battery-v0.2","","""event"",""trial"",""time""
""fullscreenenter"",""1"",""2390""
","
","
","""event"",""trial"",""time""
""fullscreenenter"",""1"",""2390""
","
","","","8107.199999928474","[""True""]","0","22","10102","4733","","","","","","","","","","","","","","","","","","",""
"pit-instructions","112","839290","0.0-2.0-24.0-1.0","battery-v0.2","","""event"",""trial"",""time""
""fullscreenenter"",""1"",""2390""
","
","
","""event"",""trial"",""time""
""fullscreenenter"",""1"",""2390""
","
","","[{""page_index"":0,""viewing_time"":3058.0999999046326}]","3058.1999999284744","","","","","","","","","","","","","","","","","","","","","","","",""
"pit-comprehension","113","846133","0.0-2.0-25.0-0.0","battery-v0.2","","""event"",""trial"",""time""
""fullscreenenter"",""1"",""2390""
","
","
","""event"",""trial"",""time""
""fullscreenenter"",""1"",""2390""
","
","","","6841","[""True""]","0","22","10102","4733","","","","","","","","","","","","","","","","","","",""
"pit-instructions","114","851975","0.0-2.0-25.0-1.0","battery-v0.2","","""event"",""trial"",""time""
""fullscreenenter"",""1"",""2390""
","
","
","""event"",""trial"",""time""
""fullscreenenter"",""1"",""2390""
","
","","[{""page_index"":0,""viewing_time"":5812.300000071526}]","5812.600000023842","","","","","","","","","","","","","","","","","","","","","","","",""
"pit-comprehension","115","857330","0.0-2.0-26.0-0.0","battery-v0.2","","""event"",""trial"",""time""
""fullscreenenter"",""1"",""2390""
","
","
","""event"",""trial"",""time""
""fullscreenenter"",""1"",""2390""
","
","","","5351.600000023842","[""False""]","0","22","10102","4733","","","","","","","","","","","","","","","","","","",""
"pit-instructions","116","860793","0.0-2.0-26.0-1.0","battery-v0.2","","""event"",""trial"",""time""
""fullscreenenter"",""1"",""2390""
","
","
","""event"",""trial"",""time""
""fullscreenenter"",""1"",""2390""
","
","","[{""page_index"":0,""viewing_time"":3435.6999999284744}]","3435.7999999523163","","","","","","","","","","","","","","","","","","","","","","","",""
"pit-instructions","117","877478","0.0-3.0","battery-v0.2","","""event"",""trial"",""time""
""fullscreenenter"",""1"",""2390""
","
","
","""event"",""trial"",""time""
""fullscreenenter"",""1"",""2390""
","
","","[{""page_index"":0,""viewing_time"":3725.4000000953674},{""page_index"":1,""viewing_time"":5289.199999928474},{""page_index"":2,""viewing_time"":7668.600000023842}]","16683.400000095367","","","","","","","","","","","","","","","","","","","","","","","",""
"pit-trial","118","881130","0.0-4.0","battery-v0.2","","""event"",""trial"",""time""
""fullscreenenter"",""1"",""2390""
","
","
","""event"",""trial"",""time""
""fullscreenenter"",""1"",""2390""
","
","","","789.2000000476837","","","22","10102","4733","&#9733;","elianto","#3366ff99","-1"," ","0","0","[1645.5]","1","1","","","10102","1","2","2","win","no-go","0"
"pit-trial","119","884851","0.0-5.0","battery-v0.2","","""event"",""trial"",""time""
""fullscreenenter"",""1"",""2390""
","
","
","""event"",""trial"",""time""
""fullscreenenter"",""1"",""2390""
","
","","","858.2999999523163","","","22","10102","4733","&#9728;","elianto","#f73b6a7A","-1"," ","0","-10","[1711.6999999284744]","1","1","","","10102","2","0","4","lose","no-go","0"
"pit-trial","120","888434","0.0-6.0","battery-v0.2","","""event"",""trial"",""time""
""fullscreenenter"",""1"",""2390""
","
","
","""event"",""trial"",""time""
""fullscreenenter"",""1"",""2390""
","
","","","721.8000000715256","","","22","10102","4733","&#9730;","elianto","#3366ff99"," "," ","1","+10","[1575.7000000476837]","1","1","","","10102","3","1","1","win","go","0"
"pit-trial","121","892130","0.0-7.0","battery-v0.2","","""event"",""trial"",""time""
""fullscreenenter"",""1"",""2390""
","
","
","""event"",""trial"",""time""
""fullscreenenter"",""1"",""2390""
","
","","","839.5","","","22","10102","4733","&#9752;","elianto","#f73b6a7A"," "," ","1","-10","[1693.5]","1","1","","","10102","4","3","3","lose","go","1"
"pit-trial","122","895961","0.0-8.0","battery-v0.2","","""event"",""trial"",""time""
""fullscreenenter"",""1"",""2390""
","
","
","""event"",""trial"",""time""
""fullscreenenter"",""1"",""2390""
","
","","","971","","","22","10102","4733","&#9752;","elianto","#f73b6a7A"," "," ","1","-10","[1826.6000000238419]","1","1","","","10102","5","3","3","lose","go","1"
"pit-trial","123","899306","0.0-9.0","battery-v0.2","","""event"",""trial"",""time""
""fullscreenenter"",""1"",""2390""
","
","
","""event"",""trial"",""time""
""fullscreenenter"",""1"",""2390""
","
","","","482.60000002384186","","","22","10102","4733","&#9730;","elianto","#3366ff99"," "," ","1","+10","[1338.7000000476837]","1","1","","","10102","6","1","1","win","go","0"
"pit-trial","124","902658","0.0-10.0","battery-v0.2","","""event"",""trial"",""time""
""fullscreenenter"",""1"",""2390""
","
","
","""event"",""trial"",""time""
""fullscreenenter"",""1"",""2390""
","
","","","498.10000002384186","","","22","10102","4733","&#9733;","elianto","#3366ff99","-1"," ","0","0","[1348.5]","1","1","","","10102","7","2","2","win","no-go","0"
"pit-trial","125","906130","0.0-11.0","battery-v0.2","","""event"",""trial"",""time""
""fullscreenenter"",""1"",""2390""
","
","
","""event"",""trial"",""time""
""fullscreenenter"",""1"",""2390""
","
","","","616.8999999761581","","","22","10102","4733","&#9728;","elianto","#f73b6a7A","-1"," ","0","-10","[1467.8999999761581]","1","1","","","10102","8","0","4","lose","no-go","0"
"pit-trial","126","909593","0.0-12.0","battery-v0.2","","""event"",""trial"",""time""
""fullscreenenter"",""1"",""2390""
","
","
","""event"",""trial"",""time""
""fullscreenenter"",""1"",""2390""
","
","","","599.5","","","22","10102","4733","&#9730;","elianto","#3366ff99"," "," ","1","0","[1453.8999999761581]","1","1","","","10102","9","1","1","win","go","1"
"pit-trial","127","914459","0.0-13.0","battery-v0.2","","""event"",""trial"",""time""
""fullscreenenter"",""1"",""2390""
","
","
","""event"",""trial"",""time""
""fullscreenenter"",""1"",""2390""
","
","","","-1","","","22","10102","4733","&#9733;","elianto","#3366ff99","-1","-1","1","+10","[]","0","1","","","10102","10","2","2","win","no-go","0"
"pit-trial","128","918483","0.0-14.0","battery-v0.2","","""event"",""trial"",""time""
""fullscreenenter"",""1"",""2390""
","
","
","""event"",""trial"",""time""
""fullscreenenter"",""1"",""2390""
","
","","","1165","","","22","10102","4733","&#9752;","elianto","#f73b6a7A"," "," ","1","0","[2019.5]","1","1","","","10102","11","3","3","lose","go","0"
"pit-trial","129","923346","0.0-15.0","battery-v0.2","","""event"",""trial"",""time""
""fullscreenenter"",""1"",""2390""
","
","
","""event"",""trial"",""time""
""fullscreenenter"",""1"",""2390""
","
","","","-1","","","22","10102","4733","&#9728;","elianto","#f73b6a7A","-1","-1","1","-10","[]","0","1","","","10102","12","0","4","lose","no-go","1"
"pit-trial","130","928210","0.0-16.0","battery-v0.2","","""event"",""trial"",""time""
""fullscreenenter"",""1"",""2390""
","
","
","""event"",""trial"",""time""
""fullscreenenter"",""1"",""2390""
","
","","","-1","","","22","10102","4733","&#9733;","elianto","#3366ff99","-1","-1","1","+10","[]","0","1","","","10102","13","2","2","win","no-go","0"
"pit-trial","131","933074","0.0-17.0","battery-v0.2","","""event"",""trial"",""time""
""fullscreenenter"",""1"",""2390""
","
","
","""event"",""trial"",""time""
""fullscreenenter"",""1"",""2390""
","
","","","-1","","","22","10102","4733","&#9752;","elianto","#f73b6a7A"," ","-1","0","-10","[]","0","1","","","10102","14","3","3","lose","go","0"
"pit-trial","132","936802","0.0-18.0","battery-v0.2","","""event"",""trial"",""time""
""fullscreenenter"",""1"",""2390""
","
","
","""event"",""trial"",""time""
""fullscreenenter"",""1"",""2390""
","
","","","872.5","","","22","10102","4733","&#9730;","elianto","#3366ff99"," "," ","1","+10","[1724.7000000476837]","1","1","","","10102","15","1","1","win","go","0"
"pit-trial","133","941667","0.0-19.0","battery-v0.2","","""event"",""trial"",""time""
""fullscreenenter"",""1"",""2390""
","
","
","""event"",""trial"",""time""
""fullscreenenter"",""1"",""2390""
","
","","","-1","","","22","10102","4733","&#9728;","elianto","#f73b6a7A","-1","-1","1","0","[]","0","1","","","10102","16","0","4","lose","no-go","0"
"pit-trial","134","945363","0.0-20.0","battery-v0.2","","""event"",""trial"",""time""
""fullscreenenter"",""1"",""2390""
","
","
","""event"",""trial"",""time""
""fullscreenenter"",""1"",""2390""
","
","","","835.8999999761581","","","22","10102","4733","&#9752;","elianto","#f73b6a7A"," "," ","1","0","[1690.1999999284744]","1","1","","","10102","17","3","3","lose","go","0"
"pit-trial","135","950226","0.0-21.0","battery-v0.2","","""event"",""trial"",""time""
""fullscreenenter"",""1"",""2390""
","
","
","""event"",""trial"",""time""
""fullscreenenter"",""1"",""2390""
","
","","","-1","","","22","10102","4733","&#9733;","elianto","#3366ff99","-1","-1","1","+10","[]","0","1","","","10102","18","2","2","win","no-go","0"
"pit-trial","136","954074","0.0-22.0","battery-v0.2","","""event"",""trial"",""time""
""fullscreenenter"",""1"",""2390""
","
","
","""event"",""trial"",""time""
""fullscreenenter"",""1"",""2390""
","
","","","988.6000000238419","","","22","10102","4733","&#9730;","elianto","#3366ff99"," "," ","1","+10","[1843.3999999761581]","1","1","","","10102","19","1","1","win","go","0"
"pit-trial","137","958938","0.0-23.0","battery-v0.2","","""event"",""trial"",""time""
""fullscreenenter"",""1"",""2390""
","
","
","""event"",""trial"",""time""
""fullscreenenter"",""1"",""2390""
","
","","","-1","","","22","10102","4733","&#9728;","elianto","#f73b6a7A","-1","-1","1","-10","[]","0","1","","","10102","20","0","4","lose","no-go","1"
"pit-instructions","138","972549","0.0-24.0","battery-v0.2","","""event"",""trial"",""time""
""fullscreenenter"",""1"",""2390""
","
","
","""event"",""trial"",""time""
""fullscreenenter"",""1"",""2390""
","
","","[{""page_index"":0,""viewing_time"":6179.5},{""page_index"":1,""viewing_time"":7429.600000023842}]","13609.200000047684","","","","","","","","","","","","","","","","","","","","","","","",""
"pit-trial","139","977019","0.0-25.0","battery-v0.2","","""event"",""trial"",""time""
""fullscreenenter"",""1"",""2390""
","
","
","""event"",""trial"",""time""
""fullscreenenter"",""1"",""2390""
","
","","","1609.5","","","22","10102","4733","w","elianto","#f73b6a7A","-1"," ","0","-10","[2462.399999976158]","1","2","","","10102","21","3","4","lose","no-go","0"
"pit-trial","140","980499","0.0-26.0","battery-v0.2","","""event"",""trial"",""time""
""fullscreenenter"",""1"",""2390""
","
","
","""event"",""trial"",""time""
""fullscreenenter"",""1"",""2390""
","
","","","622.3999999761581","","","22","10102","4733","d","elianto","#3366ff99","-1"," ","0","0","[1476.8999999761581]","1","2","","","10102","22","1","2","win","no-go","0"
"pit-trial","141","983868","0.0-27.0","battery-v0.2","","""event"",""trial"",""time""
""fullscreenenter"",""1"",""2390""
","
","
","""event"",""trial"",""time""
""fullscreenenter"",""1"",""2390""
","
","","","511.7000000476837","","","22","10102","4733","j","elianto","#f73b6a7A"," "," ","1","0","[1366.1999999284744]","1","2","","","10102","23","0","3","lose","go","0"
"pit-trial","142","987203","0.0-28.0","battery-v0.2","","""event"",""trial"",""time""
""fullscreenenter"",""1"",""2390""
","
","
","""event"",""trial"",""time""
""fullscreenenter"",""1"",""2390""
","
","","","475.39999997615814","","","22","10102","4733","e","elianto","#f73b6a7A"," "," ","1","0","[1327.6999999284744]","1","2","","","10102","24","2","3","lose","go","0"
"pit-trial","143","990947","0.0-29.0","battery-v0.2","","""event"",""trial"",""time""
""fullscreenenter"",""1"",""2390""
","
","
","""event"",""trial"",""time""
""fullscreenenter"",""1"",""2390""
","
","","","886.1000000238419","","","22","10102","4733","e","elianto","#f73b6a7A"," "," ","1","-10","[1736.1000000238419]","1","2","","","10102","25","2","3","lose","go","1"
"pit-trial","144","995275","0.0-30.0","battery-v0.2","","""event"",""trial"",""time""
""fullscreenenter"",""1"",""2390""
","
","
","""event"",""trial"",""time""
""fullscreenenter"",""1"",""2390""
","
","","","1469.2999999523163","","","22","10102","4733","w","elianto","#f73b6a7A","-1"," ","0","-10","[2324]","1","2","","","10102","26","3","4","lose","no-go","0"
"pit-trial","145","999579","0.0-31.0","battery-v0.2","","""event"",""trial"",""time""
""fullscreenenter"",""1"",""2390""
","
","
","""event"",""trial"",""time""
""fullscreenenter"",""1"",""2390""
","
","","","1440.5","","","22","10102","4733","d","elianto","#3366ff99","-1"," ","0","0","[2294.7999999523163]","1","2","","","10102","27","1","2","win","no-go","0"
"pit-trial","146","1003596","0.0-32.0","battery-v0.2","","""event"",""trial"",""time""
""fullscreenenter"",""1"",""2390""
","
","
","""event"",""trial"",""time""
""fullscreenenter"",""1"",""2390""
","
","","","1158.3000000715256","","","22","10102","4733","j","elianto","#f73b6a7A"," "," ","1","0","[2012.8999999761581]","1","2","","","10102","28","0","3","lose","go","0"
"pit-trial","147","1007259","0.0-33.0","battery-v0.2","","""event"",""trial"",""time""
""fullscreenenter"",""1"",""2390""
","
","
","""event"",""trial"",""time""
""fullscreenenter"",""1"",""2390""
","
","","","804.7000000476837","","","22","10102","4733","e","elianto","#f73b6a7A"," "," ","1","0","[1659.2999999523163]","1","2","","","10102","29","2","3","lose","go","0"
"pit-trial","148","1012124","0.0-34.0","battery-v0.2","","""event"",""trial"",""time""
""fullscreenenter"",""1"",""2390""
","
","
","""event"",""trial"",""time""
""fullscreenenter"",""1"",""2390""
","
","","","-1","","","22","10102","4733","w","elianto","#f73b6a7A","-1","-1","1","0","[]","0","2","","","10102","30","3","4","lose","no-go","0"
"pit-trial","149","1016012","0.0-35.0","battery-v0.2","","""event"",""trial"",""time""
""fullscreenenter"",""1"",""2390""
","
","
","""event"",""trial"",""time""
""fullscreenenter"",""1"",""2390""
","
","","","1026.1000000238419","","","22","10102","4733","j","elianto","#f73b6a7A"," "," ","1","0","[1877.6000000238419]","1","2","","","10102","31","0","3","lose","go","0"
"pit-trial","150","1020876","0.0-36.0","battery-v0.2","","""event"",""trial"",""time""
""fullscreenenter"",""1"",""2390""
","
","
","""event"",""trial"",""time""
""fullscreenenter"",""1"",""2390""
","
","","","-1","","","22","10102","4733","d","elianto","#3366ff99","-1","-1","1","+10","[]","0","2","","","10102","32","1","2","win","no-go","0"
"pit-trial","151","1024348","0.0-37.0","battery-v0.2","","""event"",""trial"",""time""
""fullscreenenter"",""1"",""2390""
","
","
","""event"",""trial"",""time""
""fullscreenenter"",""1"",""2390""
","
","","","607.7999999523163","","","22","10102","4733","j","elianto","#f73b6a7A"," "," ","1","0","[1461.3000000715256]","1","2","","","10102","33","0","3","lose","go","0"
"pit-trial","152","1027803","0.0-38.0","battery-v0.2","","""event"",""trial"",""time""
""fullscreenenter"",""1"",""2390""
","
","
","""event"",""trial"",""time""
""fullscreenenter"",""1"",""2390""
","
","","","593.2000000476837","","","22","10102","4733","e","elianto","#f73b6a7A"," "," ","1","0","[1448.1000000238419]","1","2","","","10102","34","2","3","lose","go","0"
"pit-trial","153","1032668","0.0-39.0","battery-v0.2","","""event"",""trial"",""time""
""fullscreenenter"",""1"",""2390""
","
","
","""event"",""trial"",""time""
""fullscreenenter"",""1"",""2390""
","
","","","-1","","","22","10102","4733","d","elianto","#3366ff99","-1","-1","1","+10","[]","0","2","","","10102","35","1","2","win","no-go","0"
"pit-trial","154","1037532","0.0-40.0","battery-v0.2","","""event"",""trial"",""time""
""fullscreenenter"",""1"",""2390""
","
","
","""event"",""trial"",""time""
""fullscreenenter"",""1"",""2390""
","
","","","-1","","","22","10102","4733","w","elianto","#f73b6a7A","-1","-1","1","0","[]","0","2","","","10102","36","3","4","lose","no-go","0"
"pit-trial","155","1042395","0.0-41.0","battery-v0.2","","""event"",""trial"",""time""
""fullscreenenter"",""1"",""2390""
","
","
","""event"",""trial"",""time""
""fullscreenenter"",""1"",""2390""
","
","","","-1","","","22","10102","4733","d","elianto","#3366ff99","-1","-1","1","+10","[]","0","2","","","10102","37","1","2","win","no-go","0"
"pit-trial","156","1046020","0.0-42.0","battery-v0.2","","""event"",""trial"",""time""
""fullscreenenter"",""1"",""2390""
","
","
","""event"",""trial"",""time""
""fullscreenenter"",""1"",""2390""
","
","","","766.1000000238419","","","22","10102","4733","e","elianto","#f73b6a7A"," "," ","1","0","[1618.1000000238419]","1","2","","","10102","38","2","3","lose","go","0"
"pit-trial","157","1049812","0.0-43.0","battery-v0.2","","""event"",""trial"",""time""
""fullscreenenter"",""1"",""2390""
","
","
","""event"",""trial"",""time""
""fullscreenenter"",""1"",""2390""
","
","","","931.6000000238419","","","22","10102","4733","j","elianto","#f73b6a7A"," "," ","1","0","[1785]","1","2","","","10102","39","0","3","lose","go","0"
"pit-trial","158","1054675","0.0-44.0","battery-v0.2","","""event"",""trial"",""time""
""fullscreenenter"",""1"",""2390""
","
","
","""event"",""trial"",""time""
""fullscreenenter"",""1"",""2390""
","
","","","-1","","","22","10102","4733","w","elianto","#f73b6a7A","-1","-1","1","0","[]","0","2","","","10102","40","3","4","lose","no-go","0"
"pit-trial","159","1058588","0.0-45.0","battery-v0.2","","""event"",""trial"",""time""
""fullscreenenter"",""1"",""2390""
","
","
","""event"",""trial"",""time""
""fullscreenenter"",""1"",""2390""
","
","","","1053.6999999284744","","","22","10102","4733","j","elianto","#f73b6a7A"," "," ","1","0","[1906.0999999046326]","1","2","","","10102","41","0","3","lose","go","0"
"pit-trial","160","1062276","0.0-46.0","battery-v0.2","","""event"",""trial"",""time""
""fullscreenenter"",""1"",""2390""
","
","
","""event"",""trial"",""time""
""fullscreenenter"",""1"",""2390""
","
","","","827.3999999761581","","","22","10102","4733","e","elianto","#f73b6a7A"," "," ","1","0","[1682.1000000238419]","1","2","","","10102","42","2","3","lose","go","0"
"pit-trial","161","1067140","0.0-47.0","battery-v0.2","","""event"",""trial"",""time""
""fullscreenenter"",""1"",""2390""
","
","
","""event"",""trial"",""time""
""fullscreenenter"",""1"",""2390""
","
","","","-1","","","22","10102","4733","d","elianto","#3366ff99","-1","-1","1","0","[]","0","2","","","10102","43","1","2","win","no-go","1"
"pit-trial","162","1072004","0.0-48.0","battery-v0.2","","""event"",""trial"",""time""
""fullscreenenter"",""1"",""2390""
","
","
","""event"",""trial"",""time""
""fullscreenenter"",""1"",""2390""
","
","","","-1","","","22","10102","4733","w","elianto","#f73b6a7A","-1","-1","1","0","[]","0","2","","","10102","44","3","4","lose","no-go","0"
"pit-trial","163","1075652","0.0-49.0","battery-v0.2","","""event"",""trial"",""time""
""fullscreenenter"",""1"",""2390""
","
","
","""event"",""trial"",""time""
""fullscreenenter"",""1"",""2390""
","
","","","791.2000000476837","","","22","10102","4733","e","elianto","#f73b6a7A"," "," ","1","0","[1644.7000000476837]","1","2","","","10102","45","2","3","lose","go","0"
"pit-trial","164","1080517","0.0-50.0","battery-v0.2","","""event"",""trial"",""time""
""fullscreenenter"",""1"",""2390""
","
","
","""event"",""trial"",""time""
""fullscreenenter"",""1"",""2390""
","
","","","-1","","","22","10102","4733","w","elianto","#f73b6a7A","-1","-1","1","0","[]","0","2","","","10102","46","3","4","lose","no-go","0"
"pit-trial","165","1085380","0.0-51.0","battery-v0.2","","""event"",""trial"",""time""
""fullscreenenter"",""1"",""2390""
","
","
","""event"",""trial"",""time""
""fullscreenenter"",""1"",""2390""
","
","","","-1","","","22","10102","4733","d","elianto","#3366ff99","-1","-1","1","+10","[]","0","2","","","10102","47","1","2","win","no-go","0"
"pit-trial","166","1088812","0.0-52.0","battery-v0.2","","""event"",""trial"",""time""
""fullscreenenter"",""1"",""2390""
","
","
","""event"",""trial"",""time""
""fullscreenenter"",""1"",""2390""
","
","","","572.1000000238419","","","22","10102","4733","j","elianto","#f73b6a7A"," "," ","1","0","[1426.6000000238419]","1","2","","","10102","48","0","3","lose","go","0"
"pit-trial","167","1093677","0.0-53.0","battery-v0.2","","""event"",""trial"",""time""
""fullscreenenter"",""1"",""2390""
","
","
","""event"",""trial"",""time""
""fullscreenenter"",""1"",""2390""
","
","","","-1","","","22","10102","4733","w","elianto","#f73b6a7A","-1","-1","1","0","[]","0","2","","","10102","49","3","4","lose","no-go","0"
"pit-trial","168","1097605","0.0-54.0","battery-v0.2","","""event"",""trial"",""time""
""fullscreenenter"",""1"",""2390""
","
","
","""event"",""trial"",""time""
""fullscreenenter"",""1"",""2390""
","
","","","1064.7000000476837","","","22","10102","4733","j","elianto","#f73b6a7A"," "," ","1","0","[1918.3999999761581]","1","2","","","10102","50","0","3","lose","go","0"
"pit-trial","169","1102469","0.0-55.0","battery-v0.2","","""event"",""trial"",""time""
""fullscreenenter"",""1"",""2390""
","
","
","""event"",""trial"",""time""
""fullscreenenter"",""1"",""2390""
","
","","","-1","","","22","10102","4733","d","elianto","#3366ff99","-1","-1","1","+10","[]","0","2","","","10102","51","1","2","win","no-go","0"
"pit-trial","170","1105917","0.0-56.0","battery-v0.2","","""event"",""trial"",""time""
""fullscreenenter"",""1"",""2390""
","
","
","""event"",""trial"",""time""
""fullscreenenter"",""1"",""2390""
","
","","","587.8000000715256","","","22","10102","4733","e","elianto","#f73b6a7A"," "," ","1","-10","[1441.8999999761581]","1","2","","","10102","52","2","3","lose","go","1"
"pit-trial","171","1109612","0.0-57.0","battery-v0.2","","""event"",""trial"",""time""
""fullscreenenter"",""1"",""2390""
","
","
","""event"",""trial"",""time""
""fullscreenenter"",""1"",""2390""
","
","","","837","","","22","10102","4733","e","elianto","#f73b6a7A"," "," ","1","-10","[1691.6000000238419]","1","2","","","10102","53","2","3","lose","go","1"
"pit-trial","172","1114477","0.0-58.0","battery-v0.2","","""event"",""trial"",""time""
""fullscreenenter"",""1"",""2390""
","
","
","""event"",""trial"",""time""
""fullscreenenter"",""1"",""2390""
","
","","","-1","","","22","10102","4733","w","elianto","#f73b6a7A","-1","-1","1","-10","[]","0","2","","","10102","54","3","4","lose","no-go","1"
"pit-trial","173","1119069","0.0-59.0","battery-v0.2","","""event"",""trial"",""time""
""fullscreenenter"",""1"",""2390""
","
","
","""event"",""trial"",""time""
""fullscreenenter"",""1"",""2390""
","
","","","1727.8999999761581","","","22","10102","4733","j","elianto","#f73b6a7A"," "," ","1","0","[2581.899999976158]","1","2","","","10102","55","0","3","lose","go","0"
"pit-trial","174","1123933","0.0-60.0","battery-v0.2","","""event"",""trial"",""time""
""fullscreenenter"",""1"",""2390""
","
","
","""event"",""trial"",""time""
""fullscreenenter"",""1"",""2390""
","
","","","-1","","","22","10102","4733","d","elianto","#3366ff99","-1","-1","1","+10","[]","0","2","","","10102","56","1","2","win","no-go","0"
"pit-trial","175","1127629","0.0-61.0","battery-v0.2","","""event"",""trial"",""time""
""fullscreenenter"",""1"",""2390""
","
","
","""event"",""trial"",""time""
""fullscreenenter"",""1"",""2390""
","
","","","834.8999999761581","","","22","10102","4733","e","elianto","#f73b6a7A"," "," ","1","0","[1688.1000000238419]","1","2","","","10102","57","2","3","lose","go","0"
"pit-trial","176","1132493","0.0-62.0","battery-v0.2","","""event"",""trial"",""time""
""fullscreenenter"",""1"",""2390""
","
","
","""event"",""trial"",""time""
""fullscreenenter"",""1"",""2390""
","
","","","-1","","","22","10102","4733","w","elianto","#f73b6a7A","-1","-1","1","0","[]","0","2","","","10102","58","3","4","lose","no-go","0"
"pit-trial","177","1136118","0.0-63.0","battery-v0.2","","""event"",""trial"",""time""
""fullscreenenter"",""1"",""2390""
","
","
","""event"",""trial"",""time""
""fullscreenenter"",""1"",""2390""
","
","","","768.1000000238419","","","22","10102","4733","j","elianto","#f73b6a7A"," "," ","1","0","[1621]","1","2","","","10102","59","0","3","lose","go","0"
"pit-trial","178","1140301","0.0-64.0","battery-v0.2","","""event"",""trial"",""time""
""fullscreenenter"",""1"",""2390""
","
","
","""event"",""trial"",""time""
""fullscreenenter"",""1"",""2390""
","
","","","1321.6000000238419","","","22","10102","4733","s","elianto","#3366ff99"," "," ","1","0","[2175.4000000953674]","1","2","","","10102","60","4","1","win","go","1"
"pit-trial","179","1143990","0.0-65.0","battery-v0.2","","""event"",""trial"",""time""
""fullscreenenter"",""1"",""2390""
","
","
","""event"",""trial"",""time""
""fullscreenenter"",""1"",""2390""
","
","","","828.1000000238419","","","22","10102","4733","e","elianto","#f73b6a7A"," "," ","1","0","[1682.8999999761581]","1","2","","","10102","61","2","3","lose","go","0"
"pit-trial","180","1148414","0.0-66.0","battery-v0.2","","""event"",""trial"",""time""
""fullscreenenter"",""1"",""2390""
","
","
","""event"",""trial"",""time""
""fullscreenenter"",""1"",""2390""
","
","","","1569.7000000476837","","","22","10102","4733","d","elianto","#3366ff99","-1"," ","0","0","[2420.100000023842]","1","2","","","10102","62","1","2","win","no-go","0"
"pit-trial","181","1152230","0.0-67.0","battery-v0.2","","""event"",""trial"",""time""
""fullscreenenter"",""1"",""2390""
","
","
","""event"",""trial"",""time""
""fullscreenenter"",""1"",""2390""
","
","","","955.2000000476837","","","22","10102","4733","s","elianto","#3366ff99"," "," ","1","0","[1809.6000000238419]","1","2","","","10102","63","4","1","win","go","1"
"pit-trial","182","1157093","0.0-68.0","battery-v0.2","","""event"",""trial"",""time""
""fullscreenenter"",""1"",""2390""
","
","
","""event"",""trial"",""time""
""fullscreenenter"",""1"",""2390""
","
","","","-1","","","22","10102","4733","w","elianto","#f73b6a7A","-1","-1","1","0","[]","0","2","","","10102","64","3","4","lose","no-go","0"
"pit-trial","183","1161302","0.0-69.0","battery-v0.2","","""event"",""trial"",""time""
""fullscreenenter"",""1"",""2390""
","
","
","""event"",""trial"",""time""
""fullscreenenter"",""1"",""2390""
","
","","","1347.5","","","22","10102","4733","p","elianto","#3366ff99","-1"," ","0","0","[2202.600000023842]","1","2","","","10102","65","5","2","win","no-go","0"
"pit-trial","184","1166165","0.0-70.0","battery-v0.2","","""event"",""trial"",""time""
""fullscreenenter"",""1"",""2390""
","
","
","""event"",""trial"",""time""
""fullscreenenter"",""1"",""2390""
","
","","","-1","","","22","10102","4733","d","elianto","#3366ff99","-1","-1","1","+10","[]","0","2","","","10102","66","1","2","win","no-go","0"
"pit-trial","185","1171029","0.0-71.0","battery-v0.2","","""event"",""trial"",""time""
""fullscreenenter"",""1"",""2390""
","
","
","""event"",""trial"",""time""
""fullscreenenter"",""1"",""2390""
","
","","","-1","","","22","10102","4733","w","elianto","#f73b6a7A","-1","-1","1","0","[]","0","2","","","10102","67","3","4","lose","no-go","0"
"pit-trial","186","1175862","0.0-72.0","battery-v0.2","","""event"",""trial"",""time""
""fullscreenenter"",""1"",""2390""
","
","
","""event"",""trial"",""time""
""fullscreenenter"",""1"",""2390""
","
","","","1971.2999999523163","","","22","10102","4733","s","elianto","#3366ff99"," "," ","1","0","[2825]","1","2","","","10102","68","4","1","win","go","1"
"pit-trial","187","1180726","0.0-73.0","battery-v0.2","","""event"",""trial"",""time""
""fullscreenenter"",""1"",""2390""
","
","
","""event"",""trial"",""time""
""fullscreenenter"",""1"",""2390""
","
","","","-1","","","22","10102","4733","d","elianto","#3366ff99","-1","-1","1","+10","[]","0","2","","","10102","69","1","2","win","no-go","0"
"pit-trial","188","1185590","0.0-74.0","battery-v0.2","","""event"",""trial"",""time""
""fullscreenenter"",""1"",""2390""
","
","
","""event"",""trial"",""time""
""fullscreenenter"",""1"",""2390""
","
","","","-1","","","22","10102","4733","s","elianto","#3366ff99"," ","-1","0","0","[]","0","2","","","10102","70","4","1","win","go","0"
"pit-trial","189","1189646","0.0-75.0","battery-v0.2","","""event"",""trial"",""time""
""fullscreenenter"",""1"",""2390""
","
","
","""event"",""trial"",""time""
""fullscreenenter"",""1"",""2390""
","
","","","1194.1000000238419","","","22","10102","4733","e","elianto","#f73b6a7A"," "," ","1","0","[2048.899999976158]","1","2","","","10102","71","2","3","lose","go","0"
"pit-trial","190","1193998","0.0-76.0","battery-v0.2","","""event"",""trial"",""time""
""fullscreenenter"",""1"",""2390""
","
","
","""event"",""trial"",""time""
""fullscreenenter"",""1"",""2390""
","
","","","1493.0999999046326","","","22","10102","4733","p","elianto","#3366ff99","-1"," ","0","0","[2347.8000000715256]","1","2","","","10102","72","5","2","win","no-go","0"
"pit-trial","191","1198862","0.0-77.0","battery-v0.2","","""event"",""trial"",""time""
""fullscreenenter"",""1"",""2390""
","
","
","""event"",""trial"",""time""
""fullscreenenter"",""1"",""2390""
","
","","","-1","","","22","10102","4733","w","elianto","#f73b6a7A","-1","-1","1","0","[]","0","2","","","10102","73","3","4","lose","no-go","0"
"pit-trial","192","1203727","0.0-78.0","battery-v0.2","","""event"",""trial"",""time""
""fullscreenenter"",""1"",""2390""
","
","
","""event"",""trial"",""time""
""fullscreenenter"",""1"",""2390""
","
","","","-1","","","22","10102","4733","d","elianto","#3366ff99","-1","-1","1","+10","[]","0","2","","","10102","74","1","2","win","no-go","0"
"pit-trial","193","1208588","0.0-79.0","battery-v0.2","","""event"",""trial"",""time""
""fullscreenenter"",""1"",""2390""
","
","
","""event"",""trial"",""time""
""fullscreenenter"",""1"",""2390""
","
","","","-1","","","22","10102","4733","p","elianto","#3366ff99","-1","-1","1","0","[]","0","2","","","10102","75","5","2","win","no-go","1"
"pit-trial","194","1213449","0.0-80.0","battery-v0.2","","""event"",""trial"",""time""
""fullscreenenter"",""1"",""2390""
","
","
","""event"",""trial"",""time""
""fullscreenenter"",""1"",""2390""
","
","","","-1","","","22","10102","4733","s","elianto","#3366ff99"," ","-1","0","0","[]","0","2","","","10102","76","4","1","win","go","0"
"pit-trial","195","1217665","0.0-81.0","battery-v0.2","","""event"",""trial"",""time""
""fullscreenenter"",""1"",""2390""
","
","
","""event"",""trial"",""time""
""fullscreenenter"",""1"",""2390""
","
","","","1363.5","","","22","10102","4733","p","elianto","#3366ff99","-1"," ","0","0","[2214.0999999046326]","1","2","","","10102","77","5","2","win","no-go","0"
"pit-trial","196","1221496","0.0-82.0","battery-v0.2","","""event"",""trial"",""time""
""fullscreenenter"",""1"",""2390""
","
","
","""event"",""trial"",""time""
""fullscreenenter"",""1"",""2390""
","
","","","976.5999999046326","","","22","10102","4733","s","elianto","#3366ff99"," "," ","1","0","[1826.8999999761581]","1","2","","","10102","78","4","1","win","go","1"
"pit-trial","197","1226360","0.0-83.0","battery-v0.2","","""event"",""trial"",""time""
""fullscreenenter"",""1"",""2390""
","
","
","""event"",""trial"",""time""
""fullscreenenter"",""1"",""2390""
","
","","","-1","","","22","10102","4733","w","elianto","#f73b6a7A","-1","-1","1","-10","[]","0","2","","","10102","79","3","4","lose","no-go","1"
"pit-trial","198","1231222","0.0-84.0","battery-v0.2","","""event"",""trial"",""time""
""fullscreenenter"",""1"",""2390""
","
","
","""event"",""trial"",""time""
""fullscreenenter"",""1"",""2390""
","
","","","-1","","","22","10102","4733","s","elianto","#3366ff99"," ","-1","0","0","[]","0","2","","","10102","80","4","1","win","go","0"
"pit-trial","199","1236086","0.0-85.0","battery-v0.2","","""event"",""trial"",""time""
""fullscreenenter"",""1"",""2390""
","
","
","""event"",""trial"",""time""
""fullscreenenter"",""1"",""2390""
","
","","","-1","","","22","10102","4733","w","elianto","#f73b6a7A","-1","-1","1","0","[]","0","2","","","10102","81","3","4","lose","no-go","0"
"pit-trial","200","1240950","0.0-86.0","battery-v0.2","","""event"",""trial"",""time""
""fullscreenenter"",""1"",""2390""
","
","
","""event"",""trial"",""time""
""fullscreenenter"",""1"",""2390""
","
","","","-1","","","22","10102","4733","s","elianto","#3366ff99"," ","-1","0","0","[]","0","2","","","10102","82","4","1","win","go","0"
"pit-trial","201","1245814","0.0-87.0","battery-v0.2","","""event"",""trial"",""time""
""fullscreenenter"",""1"",""2390""
","
","
","""event"",""trial"",""time""
""fullscreenenter"",""1"",""2390""
","
","","","-1","","","22","10102","4733","p","elianto","#3366ff99","-1","-1","1","0","[]","0","2","","","10102","83","5","2","win","no-go","1"
"pit-trial","202","1250262","0.0-88.0","battery-v0.2","","""event"",""trial"",""time""
""fullscreenenter"",""1"",""2390""
","
","
","""event"",""trial"",""time""
""fullscreenenter"",""1"",""2390""
","
","","","1590","","","22","10102","4733","a","elianto","#f73b6a7A","-1"," ","0","-10","[2442.8000000715256]","1","2","","","10102","84","7","4","lose","no-go","0"
"pit-trial","203","1255125","0.0-89.0","battery-v0.2","","""event"",""trial"",""time""
""fullscreenenter"",""1"",""2390""
","
","
","""event"",""trial"",""time""
""fullscreenenter"",""1"",""2390""
","
","","","-1","","","22","10102","4733","s","elianto","#3366ff99"," ","-1","0","0","[]","0","2","","","10102","85","4","1","win","go","0"
"pit-trial","204","1259437","0.0-90.0","battery-v0.2","","""event"",""trial"",""time""
""fullscreenenter"",""1"",""2390""
","
","
","""event"",""trial"",""time""
""fullscreenenter"",""1"",""2390""
","
","","","1453.3999999761581","","","22","10102","4733","a","elianto","#f73b6a7A","-1"," ","0","-10","[2309]","1","2","","","10102","86","7","4","lose","no-go","0"
"pit-trial","205","1263837","0.0-91.0","battery-v0.2","","""event"",""trial"",""time""
""fullscreenenter"",""1"",""2390""
","
","
","""event"",""trial"",""time""
""fullscreenenter"",""1"",""2390""
","
","","","1541.0999999046326","","","22","10102","4733","g","elianto","#f73b6a7A"," "," ","1","0","[2396.5999999046326]","1","2","","","10102","87","6","3","lose","go","0"
"pit-trial","206","1268701","0.0-92.0","battery-v0.2","","""event"",""trial"",""time""
""fullscreenenter"",""1"",""2390""
","
","
","""event"",""trial"",""time""
""fullscreenenter"",""1"",""2390""
","
","","","-1","","","22","10102","4733","p","elianto","#3366ff99","-1","-1","1","+10","[3043.399999976158]","1","2","","","10102","88","5","2","win","no-go","0"
"pit-trial","207","1273565","0.0-93.0","battery-v0.2","","""event"",""trial"",""time""
""fullscreenenter"",""1"",""2390""
","
","
","""event"",""trial"",""time""
""fullscreenenter"",""1"",""2390""
","
","","","-1","","","22","10102","4733","s","elianto","#3366ff99"," ","-1","0","0","[]","0","2","","","10102","89","4","1","win","go","0"
"pit-trial","208","1278429","0.0-94.0","battery-v0.2","","""event"",""trial"",""time""
""fullscreenenter"",""1"",""2390""
","
","
","""event"",""trial"",""time""
""fullscreenenter"",""1"",""2390""
","
","","","-1","","","22","10102","4733","p","elianto","#3366ff99","-1","-1","1","+10","[]","0","2","","","10102","90","5","2","win","no-go","0"
"pit-trial","209","1282606","0.0-95.0","battery-v0.2","","""event"",""trial"",""time""
""fullscreenenter"",""1"",""2390""
","
","
","""event"",""trial"",""time""
""fullscreenenter"",""1"",""2390""
","
","","","1314.3999999761581","","","22","10102","4733","g","elianto","#f73b6a7A"," "," ","1","0","[2169.1999999284744]","1","2","","","10102","91","6","3","lose","go","0"
"pit-trial","210","1287470","0.0-96.0","battery-v0.2","","""event"",""trial"",""time""
""fullscreenenter"",""1"",""2390""
","
","
","""event"",""trial"",""time""
""fullscreenenter"",""1"",""2390""
","
","","","-1","","","22","10102","4733","a","elianto","#f73b6a7A","-1","-1","1","0","[]","0","2","","","10102","92","7","4","lose","no-go","0"
"pit-trial","211","1292333","0.0-97.0","battery-v0.2","","""event"",""trial"",""time""
""fullscreenenter"",""1"",""2390""
","
","
","""event"",""trial"",""time""
""fullscreenenter"",""1"",""2390""
","
","","","-1","","","22","10102","4733","p","elianto","#3366ff99","-1","-1","1","+10","[]","0","2","","","10102","93","5","2","win","no-go","0"
"pit-trial","212","1297197","0.0-98.0","battery-v0.2","","""event"",""trial"",""time""
""fullscreenenter"",""1"",""2390""
","
","
","""event"",""trial"",""time""
""fullscreenenter"",""1"",""2390""
","
","","","-1","","","22","10102","4733","a","elianto","#f73b6a7A","-1","-1","1","-10","[]","0","2","","","10102","94","7","4","lose","no-go","1"
"pit-trial","213","1301230","0.0-99.0","battery-v0.2","","""event"",""trial"",""time""
""fullscreenenter"",""1"",""2390""
","
","
","""event"",""trial"",""time""
""fullscreenenter"",""1"",""2390""
","
","","","1176.2999999523163","","","22","10102","4733","l","elianto","#3366ff99"," "," ","1","+10","[2029.2999999523163]","1","2","","","10102","95","8","1","win","go","0"
"pit-trial","214","1305181","0.0-100.0","battery-v0.2","","""event"",""trial"",""time""
""fullscreenenter"",""1"",""2390""
","
","
","""event"",""trial"",""time""
""fullscreenenter"",""1"",""2390""
","
","","","1088.5","","","22","10102","4733","g","elianto","#f73b6a7A"," "," ","1","0","[1942.8999999761581]","1","2","","","10102","96","6","3","lose","go","0"
"pit-trial","215","1308759","0.0-101.0","battery-v0.2","","""event"",""trial"",""time""
""fullscreenenter"",""1"",""2390""
","
","
","""event"",""trial"",""time""
""fullscreenenter"",""1"",""2390""
","
","","","714.3999999761581","","","22","10102","4733","l","elianto","#3366ff99"," "," ","1","+10","[1566.7000000476837]","1","2","","","10102","97","8","1","win","go","0"
"pit-trial","216","1313623","0.0-102.0","battery-v0.2","","""event"",""trial"",""time""
""fullscreenenter"",""1"",""2390""
","
","
","""event"",""trial"",""time""
""fullscreenenter"",""1"",""2390""
","
","","","-1","","","22","10102","4733","p","elianto","#3366ff99","-1","-1","1","+10","[]","0","2","","","10102","98","5","2","win","no-go","0"
"pit-trial","217","1317438","0.0-103.0","battery-v0.2","","""event"",""trial"",""time""
""fullscreenenter"",""1"",""2390""
","
","
","""event"",""trial"",""time""
""fullscreenenter"",""1"",""2390""
","
","","","958.7999999523163","","","22","10102","4733","g","elianto","#f73b6a7A"," "," ","1","-10","[1812.1000000238419]","1","2","","","10102","99","6","3","lose","go","1"
"pit-trial","218","1322055","0.0-104.0","battery-v0.2","","""event"",""trial"",""time""
""fullscreenenter"",""1"",""2390""
","
","
","""event"",""trial"",""time""
""fullscreenenter"",""1"",""2390""
","
","","","1752.5","","","22","10102","4733","a","elianto","#f73b6a7A","-1"," ","0","-10","[2607.5]","1","2","","","10102","100","7","4","lose","no-go","0"
"pit-trial","219","1326919","0.0-105.0","battery-v0.2","","""event"",""trial"",""time""
""fullscreenenter"",""1"",""2390""
","
","
","""event"",""trial"",""time""
""fullscreenenter"",""1"",""2390""
","
","","","-1","","","22","10102","4733","p","elianto","#3366ff99","-1","-1","1","+10","[]","0","2","","","10102","101","5","2","win","no-go","0"
"pit-trial","220","1330894","0.0-106.0","battery-v0.2","","""event"",""trial"",""time""
""fullscreenenter"",""1"",""2390""
","
","
","""event"",""trial"",""time""
""fullscreenenter"",""1"",""2390""
","
","","","1111.3999999761581","","","22","10102","4733","u","elianto","#3366ff99"," "," ","1","+10","[1964.8000000715256]","1","2","","","10102","102","9","1","win","go","0"
"pit-trial","221","1335758","0.0-107.0","battery-v0.2","","""event"",""trial"",""time""
""fullscreenenter"",""1"",""2390""
","
","
","""event"",""trial"",""time""
""fullscreenenter"",""1"",""2390""
","
","","","-1","","","22","10102","4733","a","elianto","#f73b6a7A","-1","-1","1","0","[]","0","2","","","10102","103","7","4","lose","no-go","0"
"pit-trial","222","1339598","0.0-108.0","battery-v0.2","","""event"",""trial"",""time""
""fullscreenenter"",""1"",""2390""
","
","
","""event"",""trial"",""time""
""fullscreenenter"",""1"",""2390""
","
","","","980.6999999284744","","","22","10102","4733","l","elianto","#3366ff99"," "," ","1","+10","[1836.5999999046326]","1","2","","","10102","104","8","1","win","go","0"
"pit-trial","223","1343374","0.0-109.0","battery-v0.2","","""event"",""trial"",""time""
""fullscreenenter"",""1"",""2390""
","
","
","""event"",""trial"",""time""
""fullscreenenter"",""1"",""2390""
","
","","","921.7999999523163","","","22","10102","4733","l","elianto","#3366ff99"," "," ","1","+10","[1772.7999999523163]","1","2","","","10102","105","8","1","win","go","0"
"pit-trial","224","1347134","0.0-110.0","battery-v0.2","","""event"",""trial"",""time""
""fullscreenenter"",""1"",""2390""
","
","
","""event"",""trial"",""time""
""fullscreenenter"",""1"",""2390""
","
","","","900.0999999046326","","","22","10102","4733","g","elianto","#f73b6a7A"," "," ","1","0","[1756]","1","2","","","10102","106","6","3","lose","go","0"
"pit-trial","225","1351278","0.0-111.0","battery-v0.2","","""event"",""trial"",""time""
""fullscreenenter"",""1"",""2390""
","
","
","""event"",""trial"",""time""
""fullscreenenter"",""1"",""2390""
","
","","","1284.8999999761581","","","22","10102","4733","s","elianto","#3366ff99"," "," ","1","+10","[2139.899999976158]","1","2","","","10102","107","4","1","win","go","0"
"pit-trial","226","1355511","0.0-112.0","battery-v0.2","","""event"",""trial"",""time""
""fullscreenenter"",""1"",""2390""
","
","
","""event"",""trial"",""time""
""fullscreenenter"",""1"",""2390""
","
","","","1367.8999999761581","","","22","10102","4733","u","elianto","#3366ff99"," "," ","1","+10","[2222.100000023842]","1","2","","","10102","108","9","1","win","go","0"
"pit-trial","227","1359150","0.0-113.0","battery-v0.2","","""event"",""trial"",""time""
""fullscreenenter"",""1"",""2390""
","
","
","""event"",""trial"",""time""
""fullscreenenter"",""1"",""2390""
","
","","","779.7999999523163","","","22","10102","4733","u","elianto","#3366ff99"," "," ","1","+10","[1633.2999999523163]","1","2","","","10102","109","9","1","win","go","0"
"pit-trial","228","1362615","0.0-114.0","battery-v0.2","","""event"",""trial"",""time""
""fullscreenenter"",""1"",""2390""
","
","
","""event"",""trial"",""time""
""fullscreenenter"",""1"",""2390""
","
","","","601.1000000238419","","","22","10102","4733","l","elianto","#3366ff99"," "," ","1","0","[1455.7999999523163]","1","2","","","10102","110","8","1","win","go","1"
"pit-trial","229","1366424","0.0-115.0","battery-v0.2","","""event"",""trial"",""time""
""fullscreenenter"",""1"",""2390""
","
","
","""event"",""trial"",""time""
""fullscreenenter"",""1"",""2390""
","
","","","951.1999999284744","","","22","10102","4733","g","elianto","#f73b6a7A"," "," ","1","-10","[1804.6000000238419]","1","2","","","10102","111","6","3","lose","go","1"
"pit-trial","230","1371286","0.0-116.0","battery-v0.2","","""event"",""trial"",""time""
""fullscreenenter"",""1"",""2390""
","
","
","""event"",""trial"",""time""
""fullscreenenter"",""1"",""2390""
","
","","","-1","","","22","10102","4733","p","elianto","#3366ff99","-1","-1","1","0","[]","0","2","","","10102","112","5","2","win","no-go","1"
"pit-trial","231","1375599","0.0-117.0","battery-v0.2","","""event"",""trial"",""time""
""fullscreenenter"",""1"",""2390""
","
","
","""event"",""trial"",""time""
""fullscreenenter"",""1"",""2390""
","
","","","1447.4000000953674","","","22","10102","4733","p","elianto","#3366ff99","-1"," ","0","0","[2302.3000000715256]","1","2","","","10102","113","5","2","win","no-go","0"
"pit-trial","232","1380464","0.0-118.0","battery-v0.2","","""event"",""trial"",""time""
""fullscreenenter"",""1"",""2390""
","
","
","""event"",""trial"",""time""
""fullscreenenter"",""1"",""2390""
","
","","","-1","","","22","10102","4733","u","elianto","#3366ff99"," ","-1","0","0","[]","0","2","","","10102","114","9","1","win","go","0"
"pit-trial","233","1385120","0.0-119.0","battery-v0.2","","""event"",""trial"",""time""
""fullscreenenter"",""1"",""2390""
","
","
","""event"",""trial"",""time""
""fullscreenenter"",""1"",""2390""
","
","","","1793.5","","","22","10102","4733","g","elianto","#f73b6a7A"," "," ","1","0","[2647.2000000476837]","1","2","","","10102","115","6","3","lose","go","0"
"pit-trial","234","1388983","0.0-120.0","battery-v0.2","","""event"",""trial"",""time""
""fullscreenenter"",""1"",""2390""
","
","
","""event"",""trial"",""time""
""fullscreenenter"",""1"",""2390""
","
","","","1002.5","","","22","10102","4733","l","elianto","#3366ff99"," "," ","1","+10","[1856.3999999761581]","1","2","","","10102","116","8","1","win","go","0"
"pit-trial","235","1393847","0.0-121.0","battery-v0.2","","""event"",""trial"",""time""
""fullscreenenter"",""1"",""2390""
","
","
","""event"",""trial"",""time""
""fullscreenenter"",""1"",""2390""
","
","","","-1","","","22","10102","4733","u","elianto","#3366ff99"," ","-1","0","+10","[2985.9000000953674]","1","2","","","10102","117","9","1","win","go","1"
"pit-trial","236","1398551","0.0-122.0","battery-v0.2","","""event"",""trial"",""time""
""fullscreenenter"",""1"",""2390""
","
","
","""event"",""trial"",""time""
""fullscreenenter"",""1"",""2390""
","
","","","1846.3999999761581","","","22","10102","4733","p","elianto","#3366ff99","-1"," ","0","0","[2698.5]","1","2","","","10102","118","5","2","win","no-go","0"
"pit-trial","237","1402225","0.0-123.0","battery-v0.2","","""event"",""trial"",""time""
""fullscreenenter"",""1"",""2390""
","
","
","""event"",""trial"",""time""
""fullscreenenter"",""1"",""2390""
","
","","","817.3999999761581","","","22","10102","4733","l","elianto","#3366ff99"," "," ","1","+10","[1668.1000000238419]","1","2","","","10102","119","8","1","win","go","0"
"pit-trial","238","1406120","0.0-124.0","battery-v0.2","","""event"",""trial"",""time""
""fullscreenenter"",""1"",""2390""
","
","
","""event"",""trial"",""time""
""fullscreenenter"",""1"",""2390""
","
","","","1031.6000000238419","","","22","10102","4733","g","elianto","#f73b6a7A"," "," ","1","0","[1884.8999999761581]","1","2","","","10102","120","6","3","lose","go","0"
"pit-trial","239","1410215","0.0-125.0","battery-v0.2","","""event"",""trial"",""time""
""fullscreenenter"",""1"",""2390""
","
","
","""event"",""trial"",""time""
""fullscreenenter"",""1"",""2390""
","
","","","1240.2000000476837","","","22","10102","4733","l","elianto","#3366ff99"," "," ","1","+10","[2092.7999999523163]","1","2","","","10102","121","8","1","win","go","0"
"pit-trial","240","1415080","0.0-126.0","battery-v0.2","","""event"",""trial"",""time""
""fullscreenenter"",""1"",""2390""
","
","
","""event"",""trial"",""time""
""fullscreenenter"",""1"",""2390""
","
","","","-1","","","22","10102","4733","a","elianto","#f73b6a7A","-1","-1","1","0","[]","0","2","","","10102","122","7","4","lose","no-go","0"
"pit-trial","241","1419143","0.0-127.0","battery-v0.2","","""event"",""trial"",""time""
""fullscreenenter"",""1"",""2390""
","
","
","""event"",""trial"",""time""
""fullscreenenter"",""1"",""2390""
","
","","","1205.1999999284744","","","22","10102","4733","u","elianto","#3366ff99"," "," ","1","+10","[2059.7999999523163]","1","2","","","10102","123","9","1","win","go","0"
"pit-trial","242","1422671","0.0-128.0","battery-v0.2","","""event"",""trial"",""time""
""fullscreenenter"",""1"",""2390""
","
","
","""event"",""trial"",""time""
""fullscreenenter"",""1"",""2390""
","
","","","667.1999999284744","","","22","10102","4733","g","elianto","#f73b6a7A"," "," ","1","0","[1522.7999999523163]","1","2","","","10102","124","6","3","lose","go","0"
"pit-trial","243","1426456","0.0-129.0","battery-v0.2","","""event"",""trial"",""time""
""fullscreenenter"",""1"",""2390""
","
","
","""event"",""trial"",""time""
""fullscreenenter"",""1"",""2390""
","
","","","925.2000000476837","","","22","10102","4733","l","elianto","#3366ff99"," "," ","1","+10","[1780.8999999761581]","1","2","","","10102","125","8","1","win","go","0"
"pit-trial","244","1430537","0.0-130.0","battery-v0.2","","""event"",""trial"",""time""
""fullscreenenter"",""1"",""2390""
","
","
","""event"",""trial"",""time""
""fullscreenenter"",""1"",""2390""
","
","","","1215.5","","","22","10102","4733","u","elianto","#3366ff99"," "," ","1","0","[2070.5]","1","2","","","10102","126","9","1","win","go","1"
"pit-trial","245","1435401","0.0-131.0","battery-v0.2","","""event"",""trial"",""time""
""fullscreenenter"",""1"",""2390""
","
","
","""event"",""trial"",""time""
""fullscreenenter"",""1"",""2390""
","
","","","-1","","","22","10102","4733","a","elianto","#f73b6a7A","-1","-1","1","0","[]","0","2","","","10102","127","7","4","lose","no-go","0"
"pit-trial","246","1439104","0.0-132.0","battery-v0.2","","""event"",""trial"",""time""
""fullscreenenter"",""1"",""2390""
","
","
","""event"",""trial"",""time""
""fullscreenenter"",""1"",""2390""
","
","","","844.1000000238419","","","22","10102","4733","g","elianto","#f73b6a7A"," "," ","1","-10","[1697]","1","2","","","10102","128","6","3","lose","go","1"
"pit-trial","247","1443969","0.0-133.0","battery-v0.2","","""event"",""trial"",""time""
""fullscreenenter"",""1"",""2390""
","
","
","""event"",""trial"",""time""
""fullscreenenter"",""1"",""2390""
","
","","","-1","","","22","10102","4733","a","elianto","#f73b6a7A","-1","-1","1","0","[]","0","2","","","10102","129","7","4","lose","no-go","0"
"pit-trial","248","1447576","0.0-134.0","battery-v0.2","","""event"",""trial"",""time""
""fullscreenenter"",""1"",""2390""
","
","
","""event"",""trial"",""time""
""fullscreenenter"",""1"",""2390""
","
","","","749.8999999761581","","","22","10102","4733","u","elianto","#3366ff99"," "," ","1","+10","[1603.2999999523163]","1","2","","","10102","130","9","1","win","go","0"
"pit-trial","249","1451248","0.0-135.0","battery-v0.2","","""event"",""trial"",""time""
""fullscreenenter"",""1"",""2390""
","
","
","""event"",""trial"",""time""
""fullscreenenter"",""1"",""2390""
","
","","","810.7000000476837","","","22","10102","4733","g","elianto","#f73b6a7A"," "," ","1","0","[1660.7999999523163]","1","2","","","10102","131","6","3","lose","go","0"
"pit-trial","250","1454952","0.0-136.0","battery-v0.2","","""event"",""trial"",""time""
""fullscreenenter"",""1"",""2390""
","
","
","""event"",""trial"",""time""
""fullscreenenter"",""1"",""2390""
","
","","","840.3000000715256","","","22","10102","4733","l","elianto","#3366ff99"," "," ","1","+10","[1696]","1","2","","","10102","132","8","1","win","go","0"
"pit-trial","251","1458664","0.0-137.0","battery-v0.2","","""event"",""trial"",""time""
""fullscreenenter"",""1"",""2390""
","
","
","""event"",""trial"",""time""
""fullscreenenter"",""1"",""2390""
","
","","","851.3999999761581","","","22","10102","4733","u","elianto","#3366ff99"," "," ","1","0","[1705.8999999761581]","1","2","","","10102","133","9","1","win","go","1"
"pit-trial","252","1463529","0.0-138.0","battery-v0.2","","""event"",""trial"",""time""
""fullscreenenter"",""1"",""2390""
","
","
","""event"",""trial"",""time""
""fullscreenenter"",""1"",""2390""
","
","","","-1","","","22","10102","4733","a","elianto","#f73b6a7A","-1","-1","1","0","[]","0","2","","","10102","134","7","4","lose","no-go","0"
"pit-trial","253","1467240","0.0-139.0","battery-v0.2","","""event"",""trial"",""time""
""fullscreenenter"",""1"",""2390""
","
","
","""event"",""trial"",""time""
""fullscreenenter"",""1"",""2390""
","
","","","854.0999999046326","","","22","10102","4733","g","elianto","#f73b6a7A"," "," ","1","0","[1704.5]","1","2","","","10102","135","6","3","lose","go","0"
"pit-trial","254","1470696","0.0-140.0","battery-v0.2","","""event"",""trial"",""time""
""fullscreenenter"",""1"",""2390""
","
","
","""event"",""trial"",""time""
""fullscreenenter"",""1"",""2390""
","
","","","592.8999999761581","","","22","10102","4733","l","elianto","#3366ff99"," "," ","1","+10","[1448.7000000476837]","1","2","","","10102","136","8","1","win","go","0"
"pit-trial","255","1475560","0.0-141.0","battery-v0.2","","""event"",""trial"",""time""
""fullscreenenter"",""1"",""2390""
","
","
","""event"",""trial"",""time""
""fullscreenenter"",""1"",""2390""
","
","","","-1","","","22","10102","4733","a","elianto","#f73b6a7A","-1","-1","1","0","[]","0","2","","","10102","137","7","4","lose","no-go","0"
"pit-trial","256","1479376","0.0-142.0","battery-v0.2","","""event"",""trial"",""time""
""fullscreenenter"",""1"",""2390""
","
","
","""event"",""trial"",""time""
""fullscreenenter"",""1"",""2390""
","
","","","960.8999999761581","","","22","10102","4733","g","elianto","#f73b6a7A"," "," ","1","0","[1812.8999999761581]","1","2","","","10102","138","6","3","lose","go","0"
"pit-trial","257","1483352","0.0-143.0","battery-v0.2","","""event"",""trial"",""time""
""fullscreenenter"",""1"",""2390""
","
","
","""event"",""trial"",""time""
""fullscreenenter"",""1"",""2390""
","
","","","1115.3999999761581","","","22","10102","4733","l","elianto","#3366ff99"," "," ","1","+10","[1967.6999999284744]","1","2","","","10102","139","8","1","win","go","0"
"pit-trial","258","1486840","0.0-144.0","battery-v0.2","","""event"",""trial"",""time""
""fullscreenenter"",""1"",""2390""
","
","
","""event"",""trial"",""time""
""fullscreenenter"",""1"",""2390""
","
","","","627.5","","","22","10102","4733","u","elianto","#3366ff99"," "," ","1","+10","[1481.8999999761581]","1","2","","","10102","140","9","1","win","go","0"
"pit-instructions","259","1512970","0.0-145.0","battery-v0.2","","""event"",""trial"",""time""
""fullscreenenter"",""1"",""2390""
","
","
","""event"",""trial"",""time""
""fullscreenenter"",""1"",""2390""
","
","","[{""page_index"":0,""viewing_time"":17026.699999928474},{""page_index"":1,""viewing_time"":9101.800000071526}]","26128.699999928474","","","","","","","","","","","","","","","","","","","","","","","",""
"pit-trial","260","1516713","0.0-146.0","battery-v0.2","","""event"",""trial"",""time""
""fullscreenenter"",""1"",""2390""
","
","
","""event"",""trial"",""time""
""fullscreenenter"",""1"",""2390""
","
","","","883.4000000953674","","","22","10102","4733","f","elianto","#3366ff99"," "," ","1","+10","[1736]","1","3","","","10102","141","1","1","win","go","0"
"pit-trial","261","1520328","0.0-147.0","battery-v0.2","","""event"",""trial"",""time""
""fullscreenenter"",""1"",""2390""
","
","
","""event"",""trial"",""time""
""fullscreenenter"",""1"",""2390""
","
","","","759.3999999761581","","","22","10102","4733","b","elianto","#f73b6a7A"," "," ","1","0","[1610.4000000953674]","1","3","","","10102","142","3","3","lose","go","0"
"pit-trial","262","1523881","0.0-148.0","battery-v0.2","","""event"",""trial"",""time""
""fullscreenenter"",""1"",""2390""
","
","
","""event"",""trial"",""time""
""fullscreenenter"",""1"",""2390""
","
","","","688.3999999761581","","","22","10102","4733","t","elianto","#f73b6a7A","-1"," ","0","0","[1543.7999999523163]","1","3","","","10102","143","2","4","lose","no-go","1"
"pit-trial","263","1527281","0.0-149.0","battery-v0.2","","""event"",""trial"",""time""
""fullscreenenter"",""1"",""2390""
","
","
","""event"",""trial"",""time""
""fullscreenenter"",""1"",""2390""
","
","","","539.8999999761581","","","22","10102","4733","n","elianto","#f73b6a7A","-1"," ","0","0","[1395.1999999284744]","1","3","","","10102","144","0","4","lose","no-go","1"
"pit-trial","264","1530769","0.0-150.0","battery-v0.2","","""event"",""trial"",""time""
""fullscreenenter"",""1"",""2390""
","
","
","""event"",""trial"",""time""
""fullscreenenter"",""1"",""2390""
","
","","","628.8999999761581","","","22","10102","4733","b","elianto","#f73b6a7A"," "," ","1","0","[1483.1000000238419]","1","3","","","10102","145","3","3","lose","go","0"
"pit-trial","265","1534258","0.0-151.0","battery-v0.2","","""event"",""trial"",""time""
""fullscreenenter"",""1"",""2390""
","
","
","""event"",""trial"",""time""
""fullscreenenter"",""1"",""2390""
","
