"trial_type","trial_index","time_elapsed","internal_node_id","task_version","subject_id","interactions","blur_events","focus_events","fullscreenenter_events","fullscreenexit_events","success","view_history","rt","responses","num_errors","age","subject","participantId","rune","rune_set","hex","correct","choice","accuracy","outcome","keys","total_keys","block","practice","value"
"pavlovia","0","21","0.0-0.0","battery-v0.2","","""event"",""trial"",""time""
""fullscreenenter"",""1"",""2099""
","
","
","""event"",""trial"",""time""
""fullscreenenter"",""1"",""2099""
","
","","","","","","","","","","","","","","","","","","","",""
"fullscreen","1","3075","0.0-1.0","battery-v0.2","","""event"",""trial"",""time""
""fullscreenenter"",""1"",""2099""
","
","
","""event"",""trial"",""time""
""fullscreenenter"",""1"",""2099""
","
","true","","","","","","","","","","","","","","","","","","",""
"pit-instructions","2","8378","0.0-2.0-0.0","battery-v0.2","","""event"",""trial"",""time""
""fullscreenenter"",""1"",""2099""
","
","
","""event"",""trial"",""time""
""fullscreenenter"",""1"",""2099""
","
","","[{""page_index"":0,""viewing_time"":5291.600000023842}]","5292.700000047684","","","","","","","","","","","","","","","","",""
"pit-comprehension","3","14418","0.0-2.0-1.0-0.0","battery-v0.2","","""event"",""trial"",""time""
""fullscreenenter"",""1"",""2099""
","
","
","""event"",""trial"",""time""
""fullscreenenter"",""1"",""2099""
","
","","","6032.599999964237","[""shark""]","0","10","3241","1206","","","","","","","","","","","",""
"pit-instructions","4","18283","0.0-2.0-1.0-1.0","battery-v0.2","","""event"",""trial"",""time""
""fullscreenenter"",""1"",""2099""
","
","
","""event"",""trial"",""time""
""fullscreenenter"",""1"",""2099""
","
","","[{""page_index"":0,""viewing_time"":3844.300000011921}]","3844.800000011921","","","","","","","","","","","","","","","","",""
"pit-comprehension","5","22417","0.0-2.0-2.0-0.0","battery-v0.2","","""event"",""trial"",""time""
""fullscreenenter"",""1"",""2099""
","
","
","""event"",""trial"",""time""
""fullscreenenter"",""1"",""2099""
","
","","","4127.699999988079","[""tiger""]","0","10","3241","1206","","","","","","","","","","","",""
"pit-instructions","6","23434","0.0-2.0-2.0-1.0","battery-v0.2","","""event"",""trial"",""time""
""fullscreenenter"",""1"",""2099""
","
","
","""event"",""trial"",""time""
""fullscreenenter"",""1"",""2099""
","
","","[{""page_index"":0,""viewing_time"":1011.3000000119209}]","1011.9000000357628","","","","","","","","","","","","","","","","",""
"pit-instructions","7","136582","0.0-2.0-3.0","battery-v0.2","","""event"",""trial"",""time""
""fullscreenenter"",""1"",""2099""
","
","
","""event"",""trial"",""time""
""fullscreenenter"",""1"",""2099""
","
","","[{""page_index"":0,""viewing_time"":12742.600000023842},{""page_index"":1,""viewing_time"":12755.5},{""page_index"":2,""viewing_time"":8124.899999976158},{""page_index"":3,""viewing_time"":10739.800000011921},{""page_index"":4,""viewing_time"":5209.899999976158},{""page_index"":5,""viewing_time"":5109.600000023842},{""page_index"":6,""viewing_time"":5860.199999988079},{""page_index"":7,""viewing_time"":7110.600000023842},{""page_index"":8,""viewing_time"":6619.800000011921},{""page_index"":9,""viewing_time"":8329.799999952316},{""page_index"":10,""viewing_time"":7649.600000023842},{""page_index"":11,""viewing_time"":7850.600000023842},{""page_index"":12,""viewing_time"":6359.199999988079},{""page_index"":13,""viewing_time"":8680.5}]","113143.19999998808","","","","","","","","","","","","","","","","",""
"pit-trial","8","140112","0.0-2.0-4.0-0.0","battery-v0.2","","""event"",""trial"",""time""
""fullscreenenter"",""1"",""2099""
","
","
","""event"",""trial"",""time""
""fullscreenenter"",""1"",""2099""
","
","","","656.6999999880791","","","10","3241","1206","&#9784;","elianto","#FFFFF080"," "," ","1","&#10004","[1513.0999999642372]","1","0","0",""
"pit-trial","9","144001","0.0-2.0-4.1-0.1","battery-v0.2","","""event"",""trial"",""time""
""fullscreenenter"",""1"",""2099""
","
","
","""event"",""trial"",""time""
""fullscreenenter"",""1"",""2099""
","
","","","1024.699999988079","","","10","3241","1206","&#9784;","elianto","#FFFFF080"," "," ","1","&#10004","[1877.6000000238419]","1","0","0",""
"pit-trial","10","147791","0.0-2.0-4.2-0.2","battery-v0.2","","""event"",""trial"",""time""
""fullscreenenter"",""1"",""2099""
","
","
","""event"",""trial"",""time""
""fullscreenenter"",""1"",""2099""
","
","","","923.0999999642372","","","10","3241","1206","&#9784;","elianto","#FFFFF080"," "," ","1","&#10004","[1773.5,2941.300000011921]","2","0","0",""
"pit-trial","11","151090","0.0-2.0-4.3-0.3","battery-v0.2","","""event"",""trial"",""time""
""fullscreenenter"",""1"",""2099""
","
","
","""event"",""trial"",""time""
""fullscreenenter"",""1"",""2099""
","
","","","420.2999999523163","","","10","3241","1206","&#9784;","elianto","#FFFFF080"," "," ","1","&#10004","[1281.199999988079]","1","0","0",""
"pit-trial","12","154151","0.0-2.0-4.4-0.4","battery-v0.2","","""event"",""trial"",""time""
""fullscreenenter"",""1"",""2099""
","
","
","""event"",""trial"",""time""
""fullscreenenter"",""1"",""2099""
","
","","","187.60000002384186","","","10","3241","1206","&#9784;","elianto","#FFFFF080"," "," ","1","&#10004","[1037.9000000357628,2441.100000023842]","2","0","0",""
"pit-instructions","13","183182","0.0-2.0-5.0","battery-v0.2","","""event"",""trial"",""time""
""fullscreenenter"",""1"",""2099""
","
","
","""event"",""trial"",""time""
""fullscreenenter"",""1"",""2099""
","
","","[{""page_index"":0,""viewing_time"":4723.699999988079},{""page_index"":1,""viewing_time"":5060.100000023842},{""page_index"":2,""viewing_time"":7383},{""page_index"":1,""viewing_time"":1321},{""page_index"":2,""viewing_time"":4485.799999952316},{""page_index"":3,""viewing_time"":6050.200000047684}]","29024.30000001192","","","","","","","","","","","","","","","","",""
"pit-trial","14","188061","0.0-2.0-6.0-0.0","battery-v0.2","","""event"",""trial"",""time""
""fullscreenenter"",""1"",""2099""
","
","
","""event"",""trial"",""time""
""fullscreenenter"",""1"",""2099""
","
","","","-1","","","10","3241","1206","&#9854;","elianto","#FFFFF080","-1","-1","1","&#10004","[]","0","0","1",""
"pit-trial","15","192937","0.0-2.0-6.1-0.1","battery-v0.2","","""event"",""trial"",""time""
""fullscreenenter"",""1"",""2099""
","
","
","""event"",""trial"",""time""
""fullscreenenter"",""1"",""2099""
","
","","","-1","","","10","3241","1206","&#9854;","elianto","#FFFFF080","-1","-1","1","&#10004","[595.3000000119209]","1","0","1",""
"pit-trial","16","197831","0.0-2.0-6.2-0.2","battery-v0.2","","""event"",""trial"",""time""
""fullscreenenter"",""1"",""2099""
","
","
","""event"",""trial"",""time""
""fullscreenenter"",""1"",""2099""
","
","","","-1","","","10","3241","1206","&#9854;","elianto","#FFFFF080","-1","-1","1","&#10004","[]","0","0","1",""
"pit-trial","17","202722","0.0-2.0-6.3-0.3","battery-v0.2","","""event"",""trial"",""time""
""fullscreenenter"",""1"",""2099""
","
","
","""event"",""trial"",""time""
""fullscreenenter"",""1"",""2099""
","
","","","-1","","","10","3241","1206","&#9854;","elianto","#FFFFF080","-1","-1","1","&#10004","[]","0","0","1",""
"pit-trial","18","207602","0.0-2.0-6.4-0.4","battery-v0.2","","""event"",""trial"",""time""
""fullscreenenter"",""1"",""2099""
","
","
","""event"",""trial"",""time""
""fullscreenenter"",""1"",""2099""
","
","","","-1","","","10","3241","1206","&#9854;","elianto","#FFFFF080","-1","-1","1","&#10004","[]","0","0","1",""
"pit-instructions","19","346019","0.0-2.0-7.0","battery-v0.2","","""event"",""trial"",""time""
""fullscreenenter"",""1"",""2099""
","
","
","""event"",""trial"",""time""
""fullscreenenter"",""1"",""2099""
","
","","[{""page_index"":0,""viewing_time"":6230.900000035763},{""page_index"":1,""viewing_time"":7657.5},{""page_index"":2,""viewing_time"":7289.799999952316},{""page_index"":3,""viewing_time"":10540},{""page_index"":4,""viewing_time"":7299.600000023842},{""page_index"":5,""viewing_time"":8066.199999988079},{""page_index"":6,""viewing_time"":5054.400000035763},{""page_index"":7,""viewing_time"":9134.199999988079},{""page_index"":8,""viewing_time"":6185.399999976158},{""page_index"":9,""viewing_time"":5470.100000023842},{""page_index"":10,""viewing_time"":9582.300000011921},{""page_index"":11,""viewing_time"":6107.399999976158},{""page_index"":12,""viewing_time"":11070.399999976158},{""page_index"":13,""viewing_time"":8189.800000011921},{""page_index"":14,""viewing_time"":7352},{""page_index"":15,""viewing_time"":8507},{""page_index"":16,""viewing_time"":6303.300000011921},{""page_index"":17,""viewing_time"":8371}]","138411.90000003576","","","","","","","","","","","","","","","","",""
"pit-trial","20","349555","0.0-2.0-8.0-0.0","battery-v0.2","","""event"",""trial"",""time""
""fullscreenenter"",""1"",""2099""
","
","
","""event"",""trial"",""time""
""fullscreenenter"",""1"",""2099""
","
","","","667.2999999523163","","","10","3241","1206","&#9776;","elianto","#3366ff99"," "," ","1","+10","[1521.5]","1","0","1",""
"pit-trial","21","353484","0.0-2.0-8.0-1.0","battery-v0.2","","""event"",""trial"",""time""
""fullscreenenter"",""1"",""2099""
","
","
","""event"",""trial"",""time""
""fullscreenenter"",""1"",""2099""
","
","","","1058","","","10","3241","1206","&#9776;","elianto","#3366ff99"," "," ","1","+10","[1908.199999988079]","1","0","1",""
"pit-trial","22","357414","0.0-2.0-8.0-2.0","battery-v0.2","","""event"",""trial"",""time""
""fullscreenenter"",""1"",""2099""
","
","
","""event"",""trial"",""time""
""fullscreenenter"",""1"",""2099""
","
","","","1069.4000000357628","","","10","3241","1206","&#9776;","elianto","#3366ff99"," "," ","1","+10","[1922.6000000238419]","1","0","1",""
"pit-trial","23","361235","0.0-2.0-8.0-3.0","battery-v0.2","","""event"",""trial"",""time""
""fullscreenenter"",""1"",""2099""
","
","
","""event"",""trial"",""time""
""fullscreenenter"",""1"",""2099""
","
","","","947.8000000119209","","","10","3241","1206","&#9776;","elianto","#3366ff99"," "," ","1","0","[1803.5]","1","0","1",""
"pit-trial","24","365005","0.0-2.0-8.0-4.0","battery-v0.2","","""event"",""trial"",""time""
""fullscreenenter"",""1"",""2099""
","
","
","""event"",""trial"",""time""
""fullscreenenter"",""1"",""2099""
","
","","","898.3000000119209","","","10","3241","1206","&#9776;","elianto","#3366ff99"," "," ","1","+10","[1750.1000000238419]","1","0","1",""
"call-function","25","365009","0.0-2.0-9.0","battery-v0.2","","""event"",""trial"",""time""
""fullscreenenter"",""1"",""2099""
","
","
","""event"",""trial"",""time""
""fullscreenenter"",""1"",""2099""
","
","","","","","","","","","","","","","","","","","","","",""
"pit-instructions","26","410142","0.0-2.0-10.0","battery-v0.2","","""event"",""trial"",""time""
""fullscreenenter"",""1"",""2099""
","
","
","""event"",""trial"",""time""
""fullscreenenter"",""1"",""2099""
","
","","[{""page_index"":0,""viewing_time"":6094.5},{""page_index"":1,""viewing_time"":7519.900000035763},{""page_index"":2,""viewing_time"":10422.300000011921},{""page_index"":3,""viewing_time"":13457.699999988079},{""page_index"":4,""viewing_time"":7636.699999988079}]","45131.80000001192","","","","","","","","","","","","","","","","",""
"pit-trial","27","413455","0.0-2.0-11.0-0.0","battery-v0.2","","""event"",""trial"",""time""
""fullscreenenter"",""1"",""2099""
","
","
","""event"",""trial"",""time""
""fullscreenenter"",""1"",""2099""
","
","","","444.0999999642372","","","10","3241","1206","&#9761;","elianto","#3366ff99","-1"," ","0","0","[1297.8999999761581]","1","0","2",""
"pit-trial","28","416905","0.0-2.0-11.0-1.0","battery-v0.2","","""event"",""trial"",""time""
""fullscreenenter"",""1"",""2099""
","
","
","""event"",""trial"",""time""
""fullscreenenter"",""1"",""2099""
","
","","","584.8000000119209","","","10","3241","1206","&#9761;","elianto","#3366ff99","-1"," ","0","0","[1440.4000000357628]","1","0","2",""
"pit-trial","29","421775","0.0-2.0-11.0-2.0","battery-v0.2","","""event"",""trial"",""time""
""fullscreenenter"",""1"",""2099""
","
","
","""event"",""trial"",""time""
""fullscreenenter"",""1"",""2099""
","
","","","-1","","","10","3241","1206","&#9761;","elianto","#3366ff99","-1","-1","1","+10","[654.4000000357628]","1","0","2",""
"pit-trial","30","425435","0.0-2.0-11.0-3.0","battery-v0.2","","""event"",""trial"",""time""
""fullscreenenter"",""1"",""2099""
","
","
","""event"",""trial"",""time""
""fullscreenenter"",""1"",""2099""
","
","","","797.3999999761581","","","10","3241","1206","&#9761;","elianto","#3366ff99","-1"," ","0","+10","[1653.300000011921]","1","0","2",""
"pit-trial","31","430314","0.0-2.0-11.0-4.0","battery-v0.2","","""event"",""trial"",""time""
""fullscreenenter"",""1"",""2099""
","
","
","""event"",""trial"",""time""
""fullscreenenter"",""1"",""2099""
","
","","","-1","","","10","3241","1206","&#9761;","elianto","#3366ff99","-1","-1","1","+10","[]","0","0","2",""
"pit-trial","32","433634","0.0-2.0-11.1-0.1","battery-v0.2","","""event"",""trial"",""time""
""fullscreenenter"",""1"",""2099""
","
","
","""event"",""trial"",""time""
""fullscreenenter"",""1"",""2099""
","
","","","446.19999998807907","","","10","3241","1206","&#9761;","elianto","#3366ff99","-1"," ","0","0","[1297.8999999761581]","1","0","2",""
"pit-trial","33","437574","0.0-2.0-11.1-1.1","battery-v0.2","","""event"",""trial"",""time""
""fullscreenenter"",""1"",""2099""
","
","
","""event"",""trial"",""time""
""fullscreenenter"",""1"",""2099""
","
","","","1085.300000011921","","","10","3241","1206","&#9761;","elianto","#3366ff99","-1"," ","0","0","[1935.199999988079]","1","0","2",""
"pit-trial","34","440898","0.0-2.0-11.1-2.1","battery-v0.2","","""event"",""trial"",""time""
""fullscreenenter"",""1"",""2099""
","
","
","""event"",""trial"",""time""
""fullscreenenter"",""1"",""2099""
","
","","","458.5999999642372","","","10","3241","1206","&#9761;","elianto","#3366ff99","-1"," ","0","0","[1317.9000000357628]","1","0","2",""
"pit-trial","35","444368","0.0-2.0-11.1-3.1","battery-v0.2","","""event"",""trial"",""time""
""fullscreenenter"",""1"",""2099""
","
","
","""event"",""trial"",""time""
""fullscreenenter"",""1"",""2099""
","
","","","605.8000000119209","","","10","3241","1206","&#9761;","elianto","#3366ff99","-1"," ","0","+10","[1459.199999988079]","1","0","2",""
"pit-trial","36","448840","0.0-2.0-11.1-4.1","battery-v0.2","","""event"",""trial"",""time""
""fullscreenenter"",""1"",""2099""
","
","
","""event"",""trial"",""time""
""fullscreenenter"",""1"",""2099""
","
","","","1601.5999999642372","","","10","3241","1206","&#9761;","elianto","#3366ff99","-1"," ","0","0","[817.8000000119209,2453.099999964237]","2","0","2",""
"pit-trial","37","452535","0.0-2.0-11.2-0.2","battery-v0.2","","""event"",""trial"",""time""
""fullscreenenter"",""1"",""2099""
","
","
","""event"",""trial"",""time""
""fullscreenenter"",""1"",""2099""
","
","","","828.3000000119209","","","10","3241","1206","&#9761;","elianto","#3366ff99","-1"," ","0","0","[1682.4000000357628]","1","0","2",""
"pit-trial","38","456214","0.0-2.0-11.2-1.2","battery-v0.2","","""event"",""trial"",""time""
""fullscreenenter"",""1"",""2099""
","
","
","""event"",""trial"",""time""
""fullscreenenter"",""1"",""2099""
","
","","","817.1999999880791","","","10","3241","1206","&#9761;","elianto","#3366ff99","-1"," ","0","0","[1668.8999999761581]","1","0","2",""
"pit-trial","39","461079","0.0-2.0-11.2-2.2","battery-v0.2","","""event"",""trial"",""time""
""fullscreenenter"",""1"",""2099""
","
","
","""event"",""trial"",""time""
""fullscreenenter"",""1"",""2099""
","
","","","-1","","","10","3241","1206","&#9761;","elianto","#3366ff99","-1","-1","1","+10","[3093.800000011921]","1","0","2",""
"pit-trial","40","464774","0.0-2.0-11.2-3.2","battery-v0.2","","""event"",""trial"",""time""
""fullscreenenter"",""1"",""2099""
","
","
","""event"",""trial"",""time""
""fullscreenenter"",""1"",""2099""
","
","","","828.9000000357628","","","10","3241","1206","&#9761;","elianto","#3366ff99","-1"," ","0","+10","[1684.5999999642372]","1","0","2",""
"pit-trial","41","468269","0.0-2.0-11.2-4.2","battery-v0.2","","""event"",""trial"",""time""
""fullscreenenter"",""1"",""2099""
","
","
","""event"",""trial"",""time""
""fullscreenenter"",""1"",""2099""
","
","","","634.1999999880791","","","10","3241","1206","&#9761;","elianto","#3366ff99","-1"," ","0","0","[1487.699999988079]","1","0","2",""
"pit-trial","42","471756","0.0-2.0-11.3-0.3","battery-v0.2","","""event"",""trial"",""time""
""fullscreenenter"",""1"",""2099""
","
","
","""event"",""trial"",""time""
""fullscreenenter"",""1"",""2099""
","
","","","630.5","","","10","3241","1206","&#9761;","elianto","#3366ff99","-1"," ","0","0","[1481.5999999642372]","1","0","2",""
"pit-trial","43","475310","0.0-2.0-11.3-1.3","battery-v0.2","","""event"",""trial"",""time""
""fullscreenenter"",""1"",""2099""
","
","
","""event"",""trial"",""time""
""fullscreenenter"",""1"",""2099""
","
","","","691","","","10","3241","1206","&#9761;","elianto","#3366ff99","-1"," ","0","0","[1541.5]","1","0","2",""
"pit-trial","44","480168","0.0-2.0-11.3-2.3","battery-v0.2","","""event"",""trial"",""time""
""fullscreenenter"",""1"",""2099""
","
","
","""event"",""trial"",""time""
""fullscreenenter"",""1"",""2099""
","
","","","-1","","","10","3241","1206","&#9761;","elianto","#3366ff99","-1","-1","1","+10","[3347.600000023842]","1","0","2",""
"pit-trial","45","483920","0.0-2.0-11.3-3.3","battery-v0.2","","""event"",""trial"",""time""
""fullscreenenter"",""1"",""2099""
","
","
","""event"",""trial"",""time""
""fullscreenenter"",""1"",""2099""
","
","","","890.2999999523163","","","10","3241","1206","&#9761;","elianto","#3366ff99","-1"," ","0","+10","[1743]","1","0","2",""
"pit-trial","46","487481","0.0-2.0-11.3-4.3","battery-v0.2","","""event"",""trial"",""time""
""fullscreenenter"",""1"",""2099""
","
","
","""event"",""trial"",""time""
""fullscreenenter"",""1"",""2099""
","
","","","694.8999999761581","","","10","3241","1206","&#9761;","elianto","#3366ff99","-1"," ","0","0","[1550]","1","0","2",""
"pit-trial","47","491264","0.0-2.0-11.4-0.4","battery-v0.2","","""event"",""trial"",""time""
""fullscreenenter"",""1"",""2099""
","
","
","""event"",""trial"",""time""
""fullscreenenter"",""1"",""2099""
","
","","","915.8000000119209","","","10","3241","1206","&#9761;","elianto","#3366ff99","-1"," ","0","0","[1769.800000011921]","1","0","2",""
"pit-trial","48","494819","0.0-2.0-11.4-1.4","battery-v0.2","","""event"",""trial"",""time""
""fullscreenenter"",""1"",""2099""
","
","
","""event"",""trial"",""time""
""fullscreenenter"",""1"",""2099""
","
","","","696.6000000238419","","","10","3241","1206","&#9761;","elianto","#3366ff99","-1"," ","0","0","[1550]","1","0","2",""
"pit-trial","49","498275","0.0-2.0-11.4-2.4","battery-v0.2","","""event"",""trial"",""time""
""fullscreenenter"",""1"",""2099""
","
","
","""event"",""trial"",""time""
""fullscreenenter"",""1"",""2099""
","
","","","597.6000000238419","","","10","3241","1206","&#9761;","elianto","#3366ff99","-1"," ","0","0","[1451.7999999523163]","1","0","2",""
"pit-trial","50","502177","0.0-2.0-11.4-3.4","battery-v0.2","","""event"",""trial"",""time""
""fullscreenenter"",""1"",""2099""
","
","
","""event"",""trial"",""time""
""fullscreenenter"",""1"",""2099""
","
","","","1040.199999988079","","","10","3241","1206","&#9761;","elianto","#3366ff99","-1"," ","0","+10","[1892]","1","0","2",""
"pit-trial","51","506006","0.0-2.0-11.4-4.4","battery-v0.2","","""event"",""trial"",""time""
""fullscreenenter"",""1"",""2099""
","
","
","""event"",""trial"",""time""
""fullscreenenter"",""1"",""2099""
","
","","","963.9000000357628","","","10","3241","1206","&#9761;","elianto","#3366ff99","-1"," ","0","0","[1817.699999988079]","1","0","2",""
"pit-instructions","52","528905","0.0-2.0-11.4-5.4-0.4","battery-v0.2","","""event"",""trial"",""time""
""fullscreenenter"",""1"",""2099""
","
","
","""event"",""trial"",""time""
""fullscreenenter"",""1"",""2099""
","
","","[{""page_index"":0,""viewing_time"":7416},{""page_index"":1,""viewing_time"":6330.599999964237},{""page_index"":2,""viewing_time"":9149.100000023842}]","22896.299999952316","","","","","","","","","","","","","","","","",""
"pit-trial","53","533784","0.0-2.0-11.5-0.5","battery-v0.2","","""event"",""trial"",""time""
""fullscreenenter"",""1"",""2099""
","
","
","""event"",""trial"",""time""
""fullscreenenter"",""1"",""2099""
","
","","","-1","","","10","3241","1206","&#9761;","elianto","#3366ff99","-1","-1","1","+10","[3273.5]","1","0","2",""
"pit-trial","54","537514","0.0-2.0-11.5-1.5","battery-v0.2","","""event"",""trial"",""time""
""fullscreenenter"",""1"",""2099""
","
","
","""event"",""trial"",""time""
""fullscreenenter"",""1"",""2099""
","
","","","859.5999999642372","","","10","3241","1206","&#9761;","elianto","#3366ff99","-1"," ","0","0","[123.80000001192093,1721.8999999761581]","2","0","2",""
"pit-trial","55","542405","0.0-2.0-11.5-2.5","battery-v0.2","","""event"",""trial"",""time""
""fullscreenenter"",""1"",""2099""
","
","
","""event"",""trial"",""time""
""fullscreenenter"",""1"",""2099""
","
","","","-1","","","10","3241","1206","&#9761;","elianto","#3366ff99","-1","-1","1","+10","[3178.899999976158]","1","0","2",""
"pit-trial","56","547285","0.0-2.0-11.5-3.5","battery-v0.2","","""event"",""trial"",""time""
""fullscreenenter"",""1"",""2099""
","
","
","""event"",""trial"",""time""
""fullscreenenter"",""1"",""2099""
","
","","","-1","","","10","3241","1206","&#9761;","elianto","#3366ff99","-1","-1","1","0","[]","0","0","2",""
"pit-trial","57","552165","0.0-2.0-11.5-4.5","battery-v0.2","","""event"",""trial"",""time""
""fullscreenenter"",""1"",""2099""
","
","
","""event"",""trial"",""time""
""fullscreenenter"",""1"",""2099""
","
","","","-1","","","10","3241","1206","&#9761;","elianto","#3366ff99","-1","-1","1","+10","[3376.399999976158]","1","0","2",""
"pit-trial","58","557045","0.0-2.0-11.6-0.6","battery-v0.2","","""event"",""trial"",""time""
""fullscreenenter"",""1"",""2099""
","
","
","""event"",""trial"",""time""
""fullscreenenter"",""1"",""2099""
","
","","","-1","","","10","3241","1206","&#9761;","elianto","#3366ff99","-1","-1","1","+10","[3346.399999976158]","1","0","2",""
"pit-trial","59","561905","0.0-2.0-11.6-1.6","battery-v0.2","","""event"",""trial"",""time""
""fullscreenenter"",""1"",""2099""
","
","
","""event"",""trial"",""time""
""fullscreenenter"",""1"",""2099""
","
","","","-1","","","10","3241","1206","&#9761;","elianto","#3366ff99","-1","-1","1","+10","[3523.400000035763]","1","0","2",""
"pit-trial","60","566778","0.0-2.0-11.6-2.6","battery-v0.2","","""event"",""trial"",""time""
""fullscreenenter"",""1"",""2099""
","
","
","""event"",""trial"",""time""
""fullscreenenter"",""1"",""2099""
","
","","","-1","","","10","3241","1206","&#9761;","elianto","#3366ff99","-1","-1","1","+10","[3283.100000023842]","1","0","2",""
"pit-trial","61","571653","0.0-2.0-11.6-3.6","battery-v0.2","","""event"",""trial"",""time""
""fullscreenenter"",""1"",""2099""
","
","
","""event"",""trial"",""time""
""fullscreenenter"",""1"",""2099""
","
","","","-1","","","10","3241","1206","&#9761;","elianto","#3366ff99","-1","-1","1","0","[]","0","0","2",""
"pit-trial","62","576517","0.0-2.0-11.6-4.6","battery-v0.2","","""event"",""trial"",""time""
""fullscreenenter"",""1"",""2099""
","
","
","""event"",""trial"",""time""
""fullscreenenter"",""1"",""2099""
","
","","","-1","","","10","3241","1206","&#9761;","elianto","#3366ff99","-1","-1","1","+10","[3249,4174.299999952316]","2","0","2",""
"call-function","63","576520","0.0-2.0-12.0","battery-v0.2","","""event"",""trial"",""time""
""fullscreenenter"",""1"",""2099""
","
","
","""event"",""trial"",""time""
""fullscreenenter"",""1"",""2099""
","
","","","","","","","","","","","","","","","","","","","",""
"pit-instructions","64","610538","0.0-2.0-13.0","battery-v0.2","","""event"",""trial"",""time""
""fullscreenenter"",""1"",""2099""
","
","
","""event"",""trial"",""time""
""fullscreenenter"",""1"",""2099""
","
","","[{""page_index"":0,""viewing_time"":5076.5},{""page_index"":1,""viewing_time"":7089.399999976158},{""page_index"":2,""viewing_time"":4279.199999988079},{""page_index"":3,""viewing_time"":12560.800000011921},{""page_index"":4,""viewing_time"":5010.100000023842}]","34016.5","","","","","","","","","","","","","","","","",""
"pit-trial","65","615397","0.0-2.0-14.0-0.0","battery-v0.2","","""event"",""trial"",""time""
""fullscreenenter"",""1"",""2099""
","
","
","""event"",""trial"",""time""
""fullscreenenter"",""1"",""2099""
","
","","","-1","","","10","3241","1206","&#9826;","elianto","#f73b6a7A","-1","-1","1","0","[3489.300000011921]","1","0","3",""
"pit-trial","66","620269","0.0-2.0-14.0-1.0","battery-v0.2","","""event"",""trial"",""time""
""fullscreenenter"",""1"",""2099""
","
","
","""event"",""trial"",""time""
""fullscreenenter"",""1"",""2099""
","
","","","-1","","","10","3241","1206","&#9826;","elianto","#f73b6a7A","-1","-1","1","0","[3369.7999999523163]","1","0","3",""
"pit-trial","67","625149","0.0-2.0-14.0-2.0","battery-v0.2","","""event"",""trial"",""time""
""fullscreenenter"",""1"",""2099""
","
","
","""event"",""trial"",""time""
""fullscreenenter"",""1"",""2099""
","
","","","-1","","","10","3241","1206","&#9826;","elianto","#f73b6a7A","-1","-1","1","0","[3558.399999976158]","1","0","3",""
"pit-trial","68","630028","0.0-2.0-14.0-3.0","battery-v0.2","","""event"",""trial"",""time""
""fullscreenenter"",""1"",""2099""
","
","
","""event"",""trial"",""time""
""fullscreenenter"",""1"",""2099""
","
","","","-1","","","10","3241","1206","&#9826;","elianto","#f73b6a7A","-1","-1","1","-10","[]","0","0","3",""
"pit-trial","69","634898","0.0-2.0-14.0-4.0","battery-v0.2","","""event"",""trial"",""time""
""fullscreenenter"",""1"",""2099""
","
","
","""event"",""trial"",""time""
""fullscreenenter"",""1"",""2099""
","
","","","-1","","","10","3241","1206","&#9826;","elianto","#f73b6a7A","-1","-1","1","0","[3364.099999964237]","1","0","3",""
"call-function","70","634902","0.0-2.0-15.0","battery-v0.2","","""event"",""trial"",""time""
""fullscreenenter"",""1"",""2099""
","
","
","""event"",""trial"",""time""
""fullscreenenter"",""1"",""2099""
","
","","","","","","","","","","","","","","","","","","","",""
"pit-instructions","71","661639","0.0-2.0-16.0","battery-v0.2","","""event"",""trial"",""time""
""fullscreenenter"",""1"",""2099""
","
","
","""event"",""trial"",""time""
""fullscreenenter"",""1"",""2099""
","
","","[{""page_index"":0,""viewing_time"":6575.299999952316},{""page_index"":1,""viewing_time"":8766.400000035763},{""page_index"":2,""viewing_time"":4553.399999976158},{""page_index"":3,""viewing_time"":6840}]","26735.799999952316","","","","","","","","","","","","","","","","",""
"pit-trial","72","666508","0.0-2.0-17.0-0.0","battery-v0.2","","""event"",""trial"",""time""
""fullscreenenter"",""1"",""2099""
","
","
","""event"",""trial"",""time""
""fullscreenenter"",""1"",""2099""
","
","","","-1","","","10","3241","1206","&#9789;","elianto","#f73b6a7A"," ","-1","0","-10","[3110.599999964237]","1","0","4",""
"pit-trial","73","671385","0.0-2.0-17.0-1.0","battery-v0.2","","""event"",""trial"",""time""
""fullscreenenter"",""1"",""2099""
","
","
","""event"",""trial"",""time""
""fullscreenenter"",""1"",""2099""
","
","","","-1","","","10","3241","1206","&#9789;","elianto","#f73b6a7A"," ","-1","0","-10","[]","0","0","4",""
"pit-trial","74","676258","0.0-2.0-17.0-2.0","battery-v0.2","","""event"",""trial"",""time""
""fullscreenenter"",""1"",""2099""
","
","
","""event"",""trial"",""time""
""fullscreenenter"",""1"",""2099""
","
","","","-1","","","10","3241","1206","&#9789;","elianto","#f73b6a7A"," ","-1","0","-10","[]","0","0","4",""
"pit-trial","75","681140","0.0-2.0-17.0-3.0","battery-v0.2","","""event"",""trial"",""time""
""fullscreenenter"",""1"",""2099""
","
","
","""event"",""trial"",""time""
""fullscreenenter"",""1"",""2099""
","
","","","-1","","","10","3241","1206","&#9789;","elianto","#f73b6a7A"," ","-1","0","0","[3451.800000011921]","1","0","4",""
"pit-trial","76","686020","0.0-2.0-17.0-4.0","battery-v0.2","","""event"",""trial"",""time""
""fullscreenenter"",""1"",""2099""
","
","
","""event"",""trial"",""time""
""fullscreenenter"",""1"",""2099""
","
","","","-1","","","10","3241","1206","&#9789;","elianto","#f73b6a7A"," ","-1","0","-10","[]","0","0","4",""
"pit-trial","77","690910","0.0-2.0-17.1-0.1","battery-v0.2","","""event"",""trial"",""time""
""fullscreenenter"",""1"",""2099""
","
","
","""event"",""trial"",""time""
""fullscreenenter"",""1"",""2099""
","
","","","-1","","","10","3241","1206","&#9789;","elianto","#f73b6a7A"," ","-1","0","-10","[]","0","0","4",""
"pit-trial","78","695771","0.0-2.0-17.1-1.1","battery-v0.2","","""event"",""trial"",""time""
""fullscreenenter"",""1"",""2099""
","
","
","""event"",""trial"",""time""
""fullscreenenter"",""1"",""2099""
","
","","","-1","","","10","3241","1206","&#9789;","elianto","#f73b6a7A"," ","-1","0","-10","[]","0","0","4",""
"pit-trial","79","700641","0.0-2.0-17.1-2.1","battery-v0.2","","""event"",""trial"",""time""
""fullscreenenter"",""1"",""2099""
","
","
","""event"",""trial"",""time""
""fullscreenenter"",""1"",""2099""
","
","","","-1","","","10","3241","1206","&#9789;","elianto","#f73b6a7A"," ","-1","0","-10","[]","0","0","4",""
"pit-trial","80","705504","0.0-2.0-17.1-3.1","battery-v0.2","","""event"",""trial"",""time""
""fullscreenenter"",""1"",""2099""
","
","
","""event"",""trial"",""time""
""fullscreenenter"",""1"",""2099""
","
","","","-1","","","10","3241","1206","&#9789;","elianto","#f73b6a7A"," ","-1","0","0","[3445.600000023842]","1","0","4",""
"pit-trial","81","710359","0.0-2.0-17.1-4.1","battery-v0.2","","""event"",""trial"",""time""
""fullscreenenter"",""1"",""2099""
","
","
","""event"",""trial"",""time""
""fullscreenenter"",""1"",""2099""
","
","","","-1","","","10","3241","1206","&#9789;","elianto","#f73b6a7A"," ","-1","0","-10","[]","0","0","4",""
"pit-trial","82","715233","0.0-2.0-17.2-0.2","battery-v0.2","","""event"",""trial"",""time""
""fullscreenenter"",""1"",""2099""
","
","
","""event"",""trial"",""time""
""fullscreenenter"",""1"",""2099""
","
","","","-1","","","10","3241","1206","&#9789;","elianto","#f73b6a7A"," ","-1","0","-10","[]","0","0","4",""
"pit-trial","83","720094","0.0-2.0-17.2-1.2","battery-v0.2","","""event"",""trial"",""time""
""fullscreenenter"",""1"",""2099""
","
","
","""event"",""trial"",""time""
""fullscreenenter"",""1"",""2099""
","
","","","-1","","","10","3241","1206","&#9789;","elianto","#f73b6a7A"," ","-1","0","-10","[]","0","0","4",""
"pit-trial","84","724960","0.0-2.0-17.2-2.2","battery-v0.2","","""event"",""trial"",""time""
""fullscreenenter"",""1"",""2099""
","
","
","""event"",""trial"",""time""
""fullscreenenter"",""1"",""2099""
","
","","","-1","","","10","3241","1206","&#9789;","elianto","#f73b6a7A"," ","-1","0","-10","[]","0","0","4",""
"pit-trial","85","729837","0.0-2.0-17.2-3.2","battery-v0.2","","""event"",""trial"",""time""
""fullscreenenter"",""1"",""2099""
","
","
","""event"",""trial"",""time""
""fullscreenenter"",""1"",""2099""
","
","","","-1","","","10","3241","1206","&#9789;","elianto","#f73b6a7A"," ","-1","0","0","[3345,3862.899999976158]","2","0","4",""
"pit-trial","86","734710","0.0-2.0-17.2-4.2","battery-v0.2","","""event"",""trial"",""time""
""fullscreenenter"",""1"",""2099""
","
","
","""event"",""trial"",""time""
""fullscreenenter"",""1"",""2099""
","
","","","-1","","","10","3241","1206","&#9789;","elianto","#f73b6a7A"," ","-1","0","-10","[]","0","0","4",""
"pit-trial","87","739571","0.0-2.0-17.3-0.3","battery-v0.2","","""event"",""trial"",""time""
""fullscreenenter"",""1"",""2099""
","
","
","""event"",""trial"",""time""
""fullscreenenter"",""1"",""2099""
","
","","","-1","","","10","3241","1206","&#9789;","elianto","#f73b6a7A"," ","-1","0","-10","[]","0","0","4",""
"pit-trial","88","744432","0.0-2.0-17.3-1.3","battery-v0.2","","""event"",""trial"",""time""
""fullscreenenter"",""1"",""2099""
","
","
","""event"",""trial"",""time""
""fullscreenenter"",""1"",""2099""
","
","","","-1","","","10","3241","1206","&#9789;","elianto","#f73b6a7A"," ","-1","0","-10","[]","0","0","4",""
"pit-trial","89","749295","0.0-2.0-17.3-2.3","battery-v0.2","","""event"",""trial"",""time""
""fullscreenenter"",""1"",""2099""
","
","
","""event"",""trial"",""time""
""fullscreenenter"",""1"",""2099""
","
","","","-1","","","10","3241","1206","&#9789;","elianto","#f73b6a7A"," ","-1","0","-10","[]","0","0","4",""
"pit-trial","90","754160","0.0-2.0-17.3-3.3","battery-v0.2","","""event"",""trial"",""time""
""fullscreenenter"",""1"",""2099""
","
","
","""event"",""trial"",""time""
""fullscreenenter"",""1"",""2099""
","
","","","-1","","","10","3241","1206","&#9789;","elianto","#f73b6a7A"," ","-1","0","0","[3654.399999976158]","1","0","4",""
"pit-trial","91","759023","0.0-2.0-17.3-4.3","battery-v0.2","","""event"",""trial"",""time""
""fullscreenenter"",""1"",""2099""
","
","
","""event"",""trial"",""time""
""fullscreenenter"",""1"",""2099""
","
","","","-1","","","10","3241","1206","&#9789;","elianto","#f73b6a7A"," ","-1","0","-10","[]","0","0","4",""
"pit-trial","92","763889","0.0-2.0-17.4-0.4","battery-v0.2","","""event"",""trial"",""time""
""fullscreenenter"",""1"",""2099""
","
","
","""event"",""trial"",""time""
""fullscreenenter"",""1"",""2099""
","
","","","-1","","","10","3241","1206","&#9789;","elianto","#f73b6a7A"," ","-1","0","-10","[]","0","0","4",""
"pit-trial","93","768748","0.0-2.0-17.4-1.4","battery-v0.2","","""event"",""trial"",""time""
""fullscreenenter"",""1"",""2099""
","
","
","""event"",""trial"",""time""
""fullscreenenter"",""1"",""2099""
","
","","","-1","","","10","3241","1206","&#9789;","elianto","#f73b6a7A"," ","-1","0","-10","[]","0","0","4",""
"pit-trial","94","773609","0.0-2.0-17.4-2.4","battery-v0.2","","""event"",""trial"",""time""
""fullscreenenter"",""1"",""2099""
","
","
","""event"",""trial"",""time""
""fullscreenenter"",""1"",""2099""
","
","","","-1","","","10","3241","1206","&#9789;","elianto","#f73b6a7A"," ","-1","0","-10","[4448]","1","0","4",""
"pit-trial","95","778468","0.0-2.0-17.4-3.4","battery-v0.2","","""event"",""trial"",""time""
""fullscreenenter"",""1"",""2099""
","
","
","""event"",""trial"",""time""
""fullscreenenter"",""1"",""2099""
","
","","","-1","","","10","3241","1206","&#9789;","elianto","#f73b6a7A"," ","-1","0","0","[3365.300000011921]","1","0","4",""
"pit-trial","96","783332","0.0-2.0-17.4-4.4","battery-v0.2","","""event"",""trial"",""time""
""fullscreenenter"",""1"",""2099""
","
","
","""event"",""trial"",""time""
""fullscreenenter"",""1"",""2099""
","
","","","-1","","","10","3241","1206","&#9789;","elianto","#f73b6a7A"," ","-1","0","-10","[]","0","0","4",""
"pit-instructions","97","854461","0.0-2.0-17.4-5.4-0.4","battery-v0.2","","""event"",""trial"",""time""
""fullscreenenter"",""1"",""2099""
","
","
","""event"",""trial"",""time""
""fullscreenenter"",""1"",""2099""
","
","","[{""page_index"":0,""viewing_time"":16686.100000023842},{""page_index"":1,""viewing_time"":45255.39999997616},{""page_index"":2,""viewing_time"":9187.600000023842}]","71129.60000002384","","","","","","","","","","","","","","","","",""
"pit-trial","98","859341","0.0-2.0-17.5-0.5","battery-v0.2","","""event"",""trial"",""time""
""fullscreenenter"",""1"",""2099""
","
","
","""event"",""trial"",""time""
""fullscreenenter"",""1"",""2099""
","
","","","-1","","","10","3241","1206","&#9789;","elianto","#f73b6a7A"," ","-1","0","-10","[]","0","0","4",""
"pit-trial","99","864211","0.0-2.0-17.5-1.5","battery-v0.2","","""event"",""trial"",""time""
""fullscreenenter"",""1"",""2099""
","
","
","""event"",""trial"",""time""
""fullscreenenter"",""1"",""2099""
","
","","","-1","","","10","3241","1206","&#9789;","elianto","#f73b6a7A"," ","-1","0","-10","[]","0","0","4",""
"pit-trial","100","869079","0.0-2.0-17.5-2.5","battery-v0.2","","""event"",""trial"",""time""
""fullscreenenter"",""1"",""2099""
","
","
","""event"",""trial"",""time""
""fullscreenenter"",""1"",""2099""
","
","","","-1","","","10","3241","1206","&#9789;","elianto","#f73b6a7A"," ","-1","0","-10","[]","0","0","4",""
"pit-trial","101","873961","0.0-2.0-17.5-3.5","battery-v0.2","","""event"",""trial"",""time""
""fullscreenenter"",""1"",""2099""
","
","
","""event"",""trial"",""time""
""fullscreenenter"",""1"",""2099""
","
","","","-1","","","10","3241","1206","&#9789;","elianto","#f73b6a7A"," ","-1","0","0","[3492.399999976158]","1","0","4",""
"pit-trial","102","878841","0.0-2.0-17.5-4.5","battery-v0.2","","""event"",""trial"",""time""
""fullscreenenter"",""1"",""2099""
","
","
","""event"",""trial"",""time""
""fullscreenenter"",""1"",""2099""
","
","","","-1","","","10","3241","1206","&#9789;","elianto","#f73b6a7A"," ","-1","0","-10","[]","0","0","4",""
"pit-trial","103","883720","0.0-2.0-17.6-0.6","battery-v0.2","","""event"",""trial"",""time""
""fullscreenenter"",""1"",""2099""
","
","
","""event"",""trial"",""time""
""fullscreenenter"",""1"",""2099""
","
","","","-1","","","10","3241","1206","&#9789;","elianto","#f73b6a7A"," ","-1","0","-10","[]","0","0","4",""
"pit-trial","104","888586","0.0-2.0-17.6-1.6","battery-v0.2","","""event"",""trial"",""time""
""fullscreenenter"",""1"",""2099""
","
","
","""event"",""trial"",""time""
""fullscreenenter"",""1"",""2099""
","
","","","-1","","","10","3241","1206","&#9789;","elianto","#f73b6a7A"," ","-1","0","-10","[]","0","0","4",""
"pit-trial","105","893449","0.0-2.0-17.6-2.6","battery-v0.2","","""event"",""trial"",""time""
""fullscreenenter"",""1"",""2099""
","
","
","""event"",""trial"",""time""
""fullscreenenter"",""1"",""2099""
","
","","","-1","","","10","3241","1206","&#9789;","elianto","#f73b6a7A"," ","-1","0","-10","[]","0","0","4",""
"pit-trial","106","898312","0.0-2.0-17.6-3.6","battery-v0.2","","""event"",""trial"",""time""
""fullscreenenter"",""1"",""2099""
","
","
","""event"",""trial"",""time""
""fullscreenenter"",""1"",""2099""
","
","","","-1","","","10","3241","1206","&#9789;","elianto","#f73b6a7A"," ","-1","0","0","[3857.2999999523163]","1","0","4",""
"pit-trial","107","903178","0.0-2.0-17.6-4.6","battery-v0.2","","""event"",""trial"",""time""
""fullscreenenter"",""1"",""2099""
","
","
","""event"",""trial"",""time""
""fullscreenenter"",""1"",""2099""
","
","","","-1","","","10","3241","1206","&#9789;","elianto","#f73b6a7A"," ","-1","0","-10","[]","0","0","4",""
"pit-trial","108","908044","0.0-2.0-17.7-0.7","battery-v0.2","","""event"",""trial"",""time""
""fullscreenenter"",""1"",""2099""
","
","
","""event"",""trial"",""time""
""fullscreenenter"",""1"",""2099""
","
","","","-1","","","10","3241","1206","&#9789;","elianto","#f73b6a7A"," ","-1","0","-10","[]","0","0","4",""
"pit-trial","109","912902","0.0-2.0-17.7-1.7","battery-v0.2","","""event"",""trial"",""time""
""fullscreenenter"",""1"",""2099""
","
","
","""event"",""trial"",""time""
""fullscreenenter"",""1"",""2099""
","
","","","-1","","","10","3241","1206","&#9789;","elianto","#f73b6a7A"," ","-1","0","-10","[]","0","0","4",""
"pit-trial","110","917767","0.0-2.0-17.7-2.7","battery-v0.2","","""event"",""trial"",""time""
""fullscreenenter"",""1"",""2099""
","
","
","""event"",""trial"",""time""
""fullscreenenter"",""1"",""2099""
","
","","","-1","","","10","3241","1206","&#9789;","elianto","#f73b6a7A"," ","-1","0","-10","[]","0","0","4",""
"pit-trial","111","922646","0.0-2.0-17.7-3.7","battery-v0.2","","""event"",""trial"",""time""
""fullscreenenter"",""1"",""2099""
","
","
","""event"",""trial"",""time""
""fullscreenenter"",""1"",""2099""
","
","","","-1","","","10","3241","1206","&#9789;","elianto","#f73b6a7A"," ","-1","0","0","[4196.900000035763]","1","0","4",""
"pit-trial","112","927509","0.0-2.0-17.7-4.7","battery-v0.2","","""event"",""trial"",""time""
""fullscreenenter"",""1"",""2099""
","
","
","""event"",""trial"",""time""
""fullscreenenter"",""1"",""2099""
","
","","","-1","","","10","3241","1206","&#9789;","elianto","#f73b6a7A"," ","-1","0","-10","[]","0","0","4",""
"pit-trial","113","932373","0.0-2.0-17.8-0.8","battery-v0.2","","""event"",""trial"",""time""
""fullscreenenter"",""1"",""2099""
","
","
","""event"",""trial"",""time""
""fullscreenenter"",""1"",""2099""
","
","","","-1","","","10","3241","1206","&#9789;","elianto","#f73b6a7A"," ","-1","0","-10","[]","0","0","4",""
"pit-trial","114","937231","0.0-2.0-17.8-1.8","battery-v0.2","","""event"",""trial"",""time""
""fullscreenenter"",""1"",""2099""
","
","
","""event"",""trial"",""time""
""fullscreenenter"",""1"",""2099""
","
","","","-1","","","10","3241","1206","&#9789;","elianto","#f73b6a7A"," ","-1","0","-10","[]","0","0","4",""
"pit-trial","115","942094","0.0-2.0-17.8-2.8","battery-v0.2","","""event"",""trial"",""time""
""fullscreenenter"",""1"",""2099""
","
","
","""event"",""trial"",""time""
""fullscreenenter"",""1"",""2099""
","
","","","-1","","","10","3241","1206","&#9789;","elianto","#f73b6a7A"," ","-1","0","-10","[]","0","0","4",""
"pit-trial","116","946958","0.0-2.0-17.8-3.8","battery-v0.2","","""event"",""trial"",""time""
""fullscreenenter"",""1"",""2099""
","
","
","""event"",""trial"",""time""
""fullscreenenter"",""1"",""2099""
","
","","","-1","","","10","3241","1206","&#9789;","elianto","#f73b6a7A"," ","-1","0","0","[3734]","1","0","4",""
"pit-trial","117","951823","0.0-2.0-17.8-4.8","battery-v0.2","","""event"",""trial"",""time""
""fullscreenenter"",""1"",""2099""
","
","
","""event"",""trial"",""time""
""fullscreenenter"",""1"",""2099""
","
","","","-1","","","10","3241","1206","&#9789;","elianto","#f73b6a7A"," ","-1","0","-10","[]","0","0","4",""
"pit-trial","118","956681","0.0-2.0-17.9-0.9","battery-v0.2","","""event"",""trial"",""time""
""fullscreenenter"",""1"",""2099""
","
","
","""event"",""trial"",""time""
""fullscreenenter"",""1"",""2099""
","
","","","-1","","","10","3241","1206","&#9789;","elianto","#f73b6a7A"," ","-1","0","-10","[]","0","0","4",""
"pit-trial","119","961554","0.0-2.0-17.9-1.9","battery-v0.2","","""event"",""trial"",""time""
""fullscreenenter"",""1"",""2099""
","
","
","""event"",""trial"",""time""
""fullscreenenter"",""1"",""2099""
","
","","","-1","","","10","3241","1206","&#9789;","elianto","#f73b6a7A"," ","-1","0","-10","[]","0","0","4",""
"pit-trial","120","966427","0.0-2.0-17.9-2.9","battery-v0.2","","""event"",""trial"",""time""
""fullscreenenter"",""1"",""2099""
","
","
","""event"",""trial"",""time""
""fullscreenenter"",""1"",""2099""
","
","","","-1","","","10","3241","1206","&#9789;","elianto","#f73b6a7A"," ","-1","0","-10","[]","0","0","4",""
"pit-trial","121","971301","0.0-2.0-17.9-3.9","battery-v0.2","","""event"",""trial"",""time""
""fullscreenenter"",""1"",""2099""
","
","
","""event"",""trial"",""time""
""fullscreenenter"",""1"",""2099""
","
","","","-1","","","10","3241","1206","&#9789;","elianto","#f73b6a7A"," ","-1","0","0","[3539.899999976158]","1","0","4",""
"pit-trial","122","976165","0.0-2.0-17.9-4.9","battery-v0.2","","""event"",""trial"",""time""
""fullscreenenter"",""1"",""2099""
","
","
","""event"",""trial"",""time""
""fullscreenenter"",""1"",""2099""
","
","","","-1","","","10","3241","1206","&#9789;","elianto","#f73b6a7A"," ","-1","0","-10","[]","0","0","4",""
"pit-trial","123","981030","0.0-2.0-17.10-0.10","battery-v0.2","","""event"",""trial"",""time""
""fullscreenenter"",""1"",""2099""
","
","
","""event"",""trial"",""time""
""fullscreenenter"",""1"",""2099""
","
","","","-1","","","10","3241","1206","&#9789;","elianto","#f73b6a7A"," ","-1","0","-10","[]","0","0","4",""
"pit-trial","124","985902","0.0-2.0-17.10-1.10","battery-v0.2","","""event"",""trial"",""time""
""fullscreenenter"",""1"",""2099""
","
","
","""event"",""trial"",""time""
""fullscreenenter"",""1"",""2099""
","
","","","-1","","","10","3241","1206","&#9789;","elianto","#f73b6a7A"," ","-1","0","-10","[]","0","0","4",""
"pit-trial","125","990774","0.0-2.0-17.10-2.10","battery-v0.2","","""event"",""trial"",""time""
""fullscreenenter"",""1"",""2099""
","
","
","""event"",""trial"",""time""
""fullscreenenter"",""1"",""2099""
","
","","","-1","","","10","3241","1206","&#9789;","elianto","#f73b6a7A"," ","-1","0","-10","[]","0","0","4",""
"pit-trial","126","995643","0.0-2.0-17.10-3.10","battery-v0.2","","""event"",""trial"",""time""
""fullscreenenter"",""1"",""2099""
","
","
","""event"",""trial"",""time""
""fullscreenenter"",""1"",""2099""
","
","","","-1","","","10","3241","1206","&#9789;","elianto","#f73b6a7A"," ","-1","0","0","[3995.800000011921]","1","0","4",""
"pit-trial","127","1000504","0.0-2.0-17.10-4.10","battery-v0.2","","""event"",""trial"",""time""
""fullscreenenter"",""1"",""2099""
","
","
","""event"",""trial"",""time""
""fullscreenenter"",""1"",""2099""
","
","","","-1","","","10","3241","1206","&#9789;","elianto","#f73b6a7A"," ","-1","0","-10","[]","0","0","4",""
"pit-trial","128","1005367","0.0-2.0-17.11-0.11","battery-v0.2","","""event"",""trial"",""time""
""fullscreenenter"",""1"",""2099""
","
","
","""event"",""trial"",""time""
""fullscreenenter"",""1"",""2099""
","
","","","-1","","","10","3241","1206","&#9789;","elianto","#f73b6a7A"," ","-1","0","-10","[]","0","0","4",""
"pit-trial","129","1010232","0.0-2.0-17.11-1.11","battery-v0.2","","""event"",""trial"",""time""
""fullscreenenter"",""1"",""2099""
","
","
","""event"",""trial"",""time""
""fullscreenenter"",""1"",""2099""
","
","","","-1","","","10","3241","1206","&#9789;","elianto","#f73b6a7A"," ","-1","0","-10","[]","0","0","4",""
"pit-trial","130","1015093","0.0-2.0-17.11-2.11","battery-v0.2","","""event"",""trial"",""time""
""fullscreenenter"",""1"",""2099""
","
","
","""event"",""trial"",""time""
""fullscreenenter"",""1"",""2099""
","
","","","-1","","","10","3241","1206","&#9789;","elianto","#f73b6a7A"," ","-1","0","-10","[]","0","0","4",""
"pit-trial","131","1019949","0.0-2.0-17.11-3.11","battery-v0.2","","""event"",""trial"",""time""
""fullscreenenter"",""1"",""2099""
","
","
","""event"",""trial"",""time""
""fullscreenenter"",""1"",""2099""
","
","","","-1","","","10","3241","1206","&#9789;","elianto","#f73b6a7A"," ","-1","0","0","[3560.699999988079]","1","0","4",""
"pit-trial","132","1024812","0.0-2.0-17.11-4.11","battery-v0.2","","""event"",""trial"",""time""
""fullscreenenter"",""1"",""2099""
","
","
","""event"",""trial"",""time""
""fullscreenenter"",""1"",""2099""
","
","","","-1","","","10","3241","1206","&#9789;","elianto","#f73b6a7A"," ","-1","0","-10","[]","0","0","4",""
"pit-trial","133","1029679","0.0-2.0-17.12-0.12","battery-v0.2","","""event"",""trial"",""time""
""fullscreenenter"",""1"",""2099""
","
","
","""event"",""trial"",""time""
""fullscreenenter"",""1"",""2099""
","
","","","-1","","","10","3241","1206","&#9789;","elianto","#f73b6a7A"," ","-1","0","-10","[]","0","0","4",""
"pit-trial","134","1034543","0.0-2.0-17.12-1.12","battery-v0.2","","""event"",""trial"",""time""
""fullscreenenter"",""1"",""2099""
","
","
","""event"",""trial"",""time""
""fullscreenenter"",""1"",""2099""
","
","","","-1","","","10","3241","1206","&#9789;","elianto","#f73b6a7A"," ","-1","0","-10","[]","0","0","4",""
"pit-trial","135","1039398","0.0-2.0-17.12-2.12","battery-v0.2","","""event"",""trial"",""time""
""fullscreenenter"",""1"",""2099""
","
","
","""event"",""trial"",""time""
""fullscreenenter"",""1"",""2099""
","
","","","-1","","","10","3241","1206","&#9789;","elianto","#f73b6a7A"," ","-1","0","-10","[]","0","0","4",""
"pit-trial","136","1044254","0.0-2.0-17.12-3.12","battery-v0.2","","""event"",""trial"",""time""
""fullscreenenter"",""1"",""2099""
","
","
","""event"",""trial"",""time""
""fullscreenenter"",""1"",""2099""
","
","","","-1","","","10","3241","1206","&#9789;","elianto","#f73b6a7A"," ","-1","0","0","[3916.599999964237]","1","0","4",""
"pit-trial","137","1049127","0.0-2.0-17.12-4.12","battery-v0.2","","""event"",""trial"",""time""
""fullscreenenter"",""1"",""2099""
","
","
","""event"",""trial"",""time""
""fullscreenenter"",""1"",""2099""
","
","","","-1","","","10","3241","1206","&#9789;","elianto","#f73b6a7A"," ","-1","0","-10","[]","0","0","4",""
"pit-trial","138","1053992","0.0-2.0-17.13-0.13","battery-v0.2","","""event"",""trial"",""time""
""fullscreenenter"",""1"",""2099""
","
","
","""event"",""trial"",""time""
""fullscreenenter"",""1"",""2099""
","
","","","-1","","","10","3241","1206","&#9789;","elianto","#f73b6a7A"," ","-1","0","-10","[]","0","0","4",""
"pit-trial","139","1058857","0.0-2.0-17.13-1.13","battery-v0.2","","""event"",""trial"",""time""
""fullscreenenter"",""1"",""2099""
","
","
","""event"",""trial"",""time""
""fullscreenenter"",""1"",""2099""
","
","","","-1","","","10","3241","1206","&#9789;","elianto","#f73b6a7A"," ","-1","0","-10","[]","0","0","4",""
"pit-trial","140","1063731","0.0-2.0-17.13-2.13","battery-v0.2","","""event"",""trial"",""time""
""fullscreenenter"",""1"",""2099""
","
","
","""event"",""trial"",""time""
""fullscreenenter"",""1"",""2099""
","
","","","-1","","","10","3241","1206","&#9789;","elianto","#f73b6a7A"," ","-1","0","-10","[]","0","0","4",""
"pit-trial","141","1068593","0.0-2.0-17.13-3.13","battery-v0.2","","""event"",""trial"",""time""
""fullscreenenter"",""1"",""2099""
","
","
","""event"",""trial"",""time""
""fullscreenenter"",""1"",""2099""
","
","","","-1","","","10","3241","1206","&#9789;","elianto","#f73b6a7A"," ","-1","0","0","[4145.199999988079]","1","0","4",""
"pit-trial","142","1073460","0.0-2.0-17.13-4.13","battery-v0.2","","""event"",""trial"",""time""
""fullscreenenter"",""1"",""2099""
","
","
","""event"",""trial"",""time""
""fullscreenenter"",""1"",""2099""
","
","","","-1","","","10","3241","1206","&#9789;","elianto","#f73b6a7A"," ","-1","0","-10","[]","0","0","4",""
"pit-trial","143","1078329","0.0-2.0-17.14-0.14","battery-v0.2","","""event"",""trial"",""time""
""fullscreenenter"",""1"",""2099""
","
","
","""event"",""trial"",""time""
""fullscreenenter"",""1"",""2099""
","
","","","-1","","","10","3241","1206","&#9789;","elianto","#f73b6a7A"," ","-1","0","-10","[]","0","0","4",""
"pit-trial","144","1083194","0.0-2.0-17.14-1.14","battery-v0.2","","""event"",""trial"",""time""
""fullscreenenter"",""1"",""2099""
","
","
","""event"",""trial"",""time""
""fullscreenenter"",""1"",""2099""
","
","","","-1","","","10","3241","1206","&#9789;","elianto","#f73b6a7A"," ","-1","0","-10","[]","0","0","4",""
"pit-trial","145","1088059","0.0-2.0-17.14-2.14","battery-v0.2","","""event"",""trial"",""time""
""fullscreenenter"",""1"",""2099""
","
","
","""event"",""trial"",""time""
""fullscreenenter"",""1"",""2099""
","
","","","-1","","","10","3241","1206","&#9789;","elianto","#f73b6a7A"," ","-1","0","-10","[]","0","0","4",""
"pit-trial","146","1092930","0.0-2.0-17.14-3.14","battery-v0.2","","""event"",""trial"",""time""
""fullscreenenter"",""1"",""2099""
","
","
","""event"",""trial"",""time""
""fullscreenenter"",""1"",""2099""
","
","","","-1","","","10","3241","1206","&#9789;","elianto","#f73b6a7A"," ","-1","0","0","[3980.399999976158]","1","0","4",""
"pit-trial","147","1097787","0.0-2.0-17.14-4.14","battery-v0.2","","""event"",""trial"",""time""
""fullscreenenter"",""1"",""2099""
","
","
","""event"",""trial"",""time""
""fullscreenenter"",""1"",""2099""
","
","","","-1","","","10","3241","1206","&#9789;","elianto","#f73b6a7A"," ","-1","0","-10","[]","0","0","4",""
"pit-trial","148","1102654","0.0-2.0-17.15-0.15","battery-v0.2","","""event"",""trial"",""time""
""fullscreenenter"",""1"",""2099""
","
","
","""event"",""trial"",""time""
""fullscreenenter"",""1"",""2099""
","
","","","-1","","","10","3241","1206","&#9789;","elianto","#f73b6a7A"," ","-1","0","-10","[]","0","0","4",""
"pit-trial","149","1107515","0.0-2.0-17.15-1.15","battery-v0.2","","""event"",""trial"",""time""
""fullscreenenter"",""1"",""2099""
","
","
","""event"",""trial"",""time""
""fullscreenenter"",""1"",""2099""
","
","","","-1","","","10","3241","1206","&#9789;","elianto","#f73b6a7A"," ","-1","0","-10","[]","0","0","4",""
"pit-trial","150","1112277","0.0-2.0-17.15-2.15","battery-v0.2","","""event"",""trial"",""time""
""fullscreenenter"",""1"",""2099""
","
","
","""event"",""trial"",""time""
""fullscreenenter"",""1"",""2099""
","
","","","1897.300000011921","","","10","3241","1206","&#9789;","elianto","#f73b6a7A"," "," ","1","0","[2751.5,3821.400000035763]","2","0","4",""
"pit-trial","151","1117141","0.0-2.0-17.15-3.15","battery-v0.2","","""event"",""trial"",""time""
""fullscreenenter"",""1"",""2099""
","
","
","""event"",""trial"",""time""
""fullscreenenter"",""1"",""2099""
","
","","","-1","","","10","3241","1206","&#9789;","elianto","#f73b6a7A"," ","-1","0","0","[3957.300000011921]","1","0","4",""
"pit-trial","152","1122005","0.0-2.0-17.15-4.15","battery-v0.2","","""event"",""trial"",""time""
""fullscreenenter"",""1"",""2099""
","
","
","""event"",""trial"",""time""
""fullscreenenter"",""1"",""2099""
","
","","","-1","","","10","3241","1206","&#9789;","elianto","#f73b6a7A"," ","-1","0","-10","[]","0","0","4",""
"pit-trial","153","1126868","0.0-2.0-17.16-0.16","battery-v0.2","","""event"",""trial"",""time""
""fullscreenenter"",""1"",""2099""
","
","
","""event"",""trial"",""time""
""fullscreenenter"",""1"",""2099""
","
","","","-1","","","10","3241","1206","&#9789;","elianto","#f73b6a7A"," ","-1","0","-10","[]","0","0","4",""
"pit-trial","154","1131727","0.0-2.0-17.16-1.16","battery-v0.2","","""event"",""trial"",""time""
""fullscreenenter"",""1"",""2099""
","
","
","""event"",""trial"",""time""
""fullscreenenter"",""1"",""2099""
","
","","","-1","","","10","3241","1206","&#9789;","elianto","#f73b6a7A"," ","-1","0","-10","[]","0","0","4",""
"pit-trial","155","1136582","0.0-2.0-17.16-2.16","battery-v0.2","","""event"",""trial"",""time""
""fullscreenenter"",""1"",""2099""
","
","
","""event"",""trial"",""time""
""fullscreenenter"",""1"",""2099""
","
","","","-1","","","10","3241","1206","&#9789;","elianto","#f73b6a7A"," ","-1","0","-10","[]","0","0","4",""
"pit-trial","156","1141439","0.0-2.0-17.16-3.16","battery-v0.2","","""event"",""trial"",""time""
""fullscreenenter"",""1"",""2099""
","
","
","""event"",""trial"",""time""
""fullscreenenter"",""1"",""2099""
","
","","","-1","","","10","3241","1206","&#9789;","elianto","#f73b6a7A"," ","-1","0","0","[3413.800000011921]","1","0","4",""
"pit-trial","157","1146305","0.0-2.0-17.16-4.16","battery-v0.2","","""event"",""trial"",""time""
""fullscreenenter"",""1"",""2099""
","
","
","""event"",""trial"",""time""
""fullscreenenter"",""1"",""2099""
","
","","","-1","","","10","3241","1206","&#9789;","elianto","#f73b6a7A"," ","-1","0","-10","[]","0","0","4",""
"pit-trial","158","1151168","0.0-2.0-17.17-0.17","battery-v0.2","","""event"",""trial"",""time""
""fullscreenenter"",""1"",""2099""
","
","
","""event"",""trial"",""time""
""fullscreenenter"",""1"",""2099""
","
","","","-1","","","10","3241","1206","&#9789;","elianto","#f73b6a7A"," ","-1","0","-10","[]","0","0","4",""
"pit-trial","159","1156031","0.0-2.0-17.17-1.17","battery-v0.2","","""event"",""trial"",""time""
""fullscreenenter"",""1"",""2099""
","
","
","""event"",""trial"",""time""
""fullscreenenter"",""1"",""2099""
","
","","","-1","","","10","3241","1206","&#9789;","elianto","#f73b6a7A"," ","-1","0","-10","[]","0","0","4",""
"pit-trial","160","1160894","0.0-2.0-17.17-2.17","battery-v0.2","","""event"",""trial"",""time""
""fullscreenenter"",""1"",""2099""
","
","
","""event"",""trial"",""time""
""fullscreenenter"",""1"",""2099""
","
","","","-1","","","10","3241","1206","&#9789;","elianto","#f73b6a7A"," ","-1","0","-10","[]","0","0","4",""
"pit-trial","161","1165753","0.0-2.0-17.17-3.17","battery-v0.2","","""event"",""trial"",""time""
""fullscreenenter"",""1"",""2099""
","
","
","""event"",""trial"",""time""
""fullscreenenter"",""1"",""2099""
","
","","","-1","","","10","3241","1206","&#9789;","elianto","#f73b6a7A"," ","-1","0","0","[3713.600000023842]","1","0","4",""
"pit-trial","162","1170609","0.0-2.0-17.17-4.17","battery-v0.2","","""event"",""trial"",""time""
""fullscreenenter"",""1"",""2099""
","
","
","""event"",""trial"",""time""
""fullscreenenter"",""1"",""2099""
","
","","","-1","","","10","3241","1206","&#9789;","elianto","#f73b6a7A"," ","-1","0","-10","[]","0","0","4",""
"pit-trial","163","1175473","0.0-2.0-17.18-0.18","battery-v0.2","","""event"",""trial"",""time""
""fullscreenenter"",""1"",""2099""
","
","
","""event"",""trial"",""time""
""fullscreenenter"",""1"",""2099""
","
","","","-1","","","10","3241","1206","&#9789;","elianto","#f73b6a7A"," ","-1","0","-10","[]","0","0","4",""
"pit-trial","164","1180329","0.0-2.0-17.18-1.18","battery-v0.2","","""event"",""trial"",""time""
""fullscreenenter"",""1"",""2099""
","
","
","""event"",""trial"",""time""
""fullscreenenter"",""1"",""2099""
","
","","","-1","","","10","3241","1206","&#9789;","elianto","#f73b6a7A"," ","-1","0","-10","[]","0","0","4",""
"pit-trial","165","1185192","0.0-2.0-17.18-2.18","battery-v0.2","","""event"",""trial"",""time""
""fullscreenenter"",""1"",""2099""
","
","
","""event"",""trial"",""time""
""fullscreenenter"",""1"",""2099""
","
","","","-1","","","10","3241","1206","&#9789;","elianto","#f73b6a7A"," ","-1","0","-10","[]","0","0","4",""
"pit-trial","166","1190065","0.0-2.0-17.18-3.18","battery-v0.2","","""event"",""trial"",""time""
""fullscreenenter"",""1"",""2099""
","
","
","""event"",""trial"",""time""
""fullscreenenter"",""1"",""2099""
","
","","","-1","","","10","3241","1206","&#9789;","elianto","#f73b6a7A"," ","-1","0","0","[3722.7999999523163]","1","0","4",""
"pit-trial","167","1194926","0.0-2.0-17.18-4.18","battery-v0.2","","""event"",""trial"",""time""
""fullscreenenter"",""1"",""2099""
""blur"",""168"",""1239585""
""fullscreenexit"",""168"",""1239604""
""focus"",""168"",""1239611""
","""event"",""trial"",""time""
""blur"",""168"",""1239585""
","""event"",""trial"",""time""
""focus"",""168"",""1239611""
","""event"",""trial"",""time""
""fullscreenenter"",""1"",""2099""
","""event"",""trial"",""time""
""fullscreenexit"",""168"",""1239604""
","","","-1","","","10","3241","1206","&#9789;","elianto","#f73b6a7A"," ","-1","0","-10","[]","0","0","4",""
