"trial_type","trial_index","time_elapsed","internal_node_id","task_version","subject_id","interactions","blur_events","focus_events","fullscreenenter_events","fullscreenexit_events","success","view_history","rt","responses","num_errors","age","subject","participantId","rune","rune_set","hex","correct","choice","accuracy","outcome","keys","total_keys","block","practice","value","sub","trial","stimulus","robot","valence","action","sham"
"pavlovia","0","7","0.0-0.0","battery-v0.2","","""event"",""trial"",""time""
""fullscreenenter"",""1"",""1208""
","
","
","""event"",""trial"",""time""
""fullscreenenter"",""1"",""1208""
","
","","","","","","","","","","","","","","","","","","","","","","","","","","",""
"fullscreen","1","2204","0.0-1.0","battery-v0.2","","""event"",""trial"",""time""
""fullscreenenter"",""1"",""1208""
","
","
","""event"",""trial"",""time""
""fullscreenenter"",""1"",""1208""
","
","true","","","","","","","","","","","","","","","","","","","","","","","","","",""
"pit-instructions","2","7066","0.0-2.0-0.0","battery-v0.2","","""event"",""trial"",""time""
""fullscreenenter"",""1"",""1208""
","
","
","""event"",""trial"",""time""
""fullscreenenter"",""1"",""1208""
","
","","[{""page_index"":0,""viewing_time"":4860.5}]","4860.699999988079","","","","","","","","","","","","","","","","","","","","","","","",""
"pit-comprehension","3","9181","0.0-2.0-1.0-0.0","battery-v0.2","","""event"",""trial"",""time""
""fullscreenenter"",""1"",""1208""
","
","
","""event"",""trial"",""time""
""fullscreenenter"",""1"",""1208""
","
","","","2113.100000023842","[""shark""]","0","19","10090","4711","","","","","","","","","","","","","","","","","","",""
"pit-instructions","4","10163","0.0-2.0-1.0-1.0","battery-v0.2","","""event"",""trial"",""time""
""fullscreenenter"",""1"",""1208""
","
","
","""event"",""trial"",""time""
""fullscreenenter"",""1"",""1208""
","
","","[{""page_index"":0,""viewing_time"":976.0999999642372}]","976.1999999880791","","","","","","","","","","","","","","","","","","","","","","","",""
"pit-comprehension","5","11996","0.0-2.0-2.0-0.0","battery-v0.2","","""event"",""trial"",""time""
""fullscreenenter"",""1"",""1208""
","
","
","""event"",""trial"",""time""
""fullscreenenter"",""1"",""1208""
","
","","","1831.199999988079","[""tiger""]","0","19","10090","4711","","","","","","","","","","","","","","","","","","",""
"pit-instructions","6","12630","0.0-2.0-2.0-1.0","battery-v0.2","","""event"",""trial"",""time""
""fullscreenenter"",""1"",""1208""
","
","
","""event"",""trial"",""time""
""fullscreenenter"",""1"",""1208""
","
","","[{""page_index"":0,""viewing_time"":632}]","632.1999999880791","","","","","","","","","","","","","","","","","","","","","","","",""
"pit-instructions","7","113715","0.0-2.0-3.0","battery-v0.2","","""event"",""trial"",""time""
""fullscreenenter"",""1"",""1208""
","
","
","""event"",""trial"",""time""
""fullscreenenter"",""1"",""1208""
","
","","[{""page_index"":0,""viewing_time"":7994.900000035763},{""page_index"":1,""viewing_time"":6179.899999976158},{""page_index"":2,""viewing_time"":6695.600000023842},{""page_index"":3,""viewing_time"":6117.899999976158},{""page_index"":4,""viewing_time"":7036.199999988079},{""page_index"":5,""viewing_time"":6337.700000047684},{""page_index"":6,""viewing_time"":7006.299999952316},{""page_index"":7,""viewing_time"":6476.600000023842},{""page_index"":8,""viewing_time"":6568.300000011921},{""page_index"":9,""viewing_time"":12421.300000011921},{""page_index"":10,""viewing_time"":7154.899999976158},{""page_index"":11,""viewing_time"":8291.199999988079},{""page_index"":12,""viewing_time"":6946.400000035763},{""page_index"":13,""viewing_time"":5855.299999952316}]","101082.90000003576","","","","","","","","","","","","","","","","","","","","","","","",""
"pit-trial","8","117232","0.0-2.0-4.0-0.0","battery-v0.2","","""event"",""trial"",""time""
""fullscreenenter"",""1"",""1208""
","
","
","""event"",""trial"",""time""
""fullscreenenter"",""1"",""1208""
","
","","","649.1000000238419","","","19","10090","4711","&#9784;","elianto","#FFFFF080"," "," ","1","&#10004","[1501.199999988079]","1","0","0","","","","","","","",""
"pit-trial","9","120632","0.0-2.0-4.1-0.1","battery-v0.2","","""event"",""trial"",""time""
""fullscreenenter"",""1"",""1208""
","
","
","""event"",""trial"",""time""
""fullscreenenter"",""1"",""1208""
","
","","","541.8000000119209","","","19","10090","4711","&#9784;","elianto","#FFFFF080"," "," ","1","&#10004","[1395.7000000476837]","1","0","0","","","","","","","",""
"pit-trial","10","124063","0.0-2.0-4.2-0.2","battery-v0.2","","""event"",""trial"",""time""
""fullscreenenter"",""1"",""1208""
","
","
","""event"",""trial"",""time""
""fullscreenenter"",""1"",""1208""
","
","","","568.8999999761581","","","19","10090","4711","&#9784;","elianto","#FFFFF080"," "," ","1","&#10004","[1425.800000011921]","1","0","0","","","","","","","",""
"pit-trial","11","127395","0.0-2.0-4.3-0.3","battery-v0.2","","""event"",""trial"",""time""
""fullscreenenter"",""1"",""1208""
","
","
","""event"",""trial"",""time""
""fullscreenenter"",""1"",""1208""
","
","","","479.39999997615814","","","19","10090","4711","&#9784;","elianto","#FFFFF080"," "," ","1","&#10004","[1330.3999999761581]","1","0","0","","","","","","","",""
"pit-trial","12","130748","0.0-2.0-4.4-0.4","battery-v0.2","","""event"",""trial"",""time""
""fullscreenenter"",""1"",""1208""
","
","
","""event"",""trial"",""time""
""fullscreenenter"",""1"",""1208""
","
","","","498.5","","","19","10090","4711","&#9784;","elianto","#FFFFF080"," "," ","1","&#10004","[1349.800000011921]","1","0","0","","","","","","","",""
"pit-instructions","13","152387","0.0-2.0-5.0","battery-v0.2","","""event"",""trial"",""time""
""fullscreenenter"",""1"",""1208""
","
","
","""event"",""trial"",""time""
""fullscreenenter"",""1"",""1208""
","
","","[{""page_index"":0,""viewing_time"":5296.600000023842},{""page_index"":1,""viewing_time"":6090.100000023842},{""page_index"":2,""viewing_time"":4840.199999988079},{""page_index"":3,""viewing_time"":5410.300000011921}]","21637.5","","","","","","","","","","","","","","","","","","","","","","","",""
"pit-trial","14","157239","0.0-2.0-6.0-0.0","battery-v0.2","","""event"",""trial"",""time""
""fullscreenenter"",""1"",""1208""
","
","
","""event"",""trial"",""time""
""fullscreenenter"",""1"",""1208""
","
","","","-1","","","19","10090","4711","&#9854;","elianto","#FFFFF080","-1","-1","1","&#10004","[]","0","0","1","","","","","","","",""
"pit-trial","15","162105","0.0-2.0-6.1-0.1","battery-v0.2","","""event"",""trial"",""time""
""fullscreenenter"",""1"",""1208""
","
","
","""event"",""trial"",""time""
""fullscreenenter"",""1"",""1208""
","
","","","-1","","","19","10090","4711","&#9854;","elianto","#FFFFF080","-1","-1","1","&#10004","[]","0","0","1","","","","","","","",""
"pit-trial","16","166972","0.0-2.0-6.2-0.2","battery-v0.2","","""event"",""trial"",""time""
""fullscreenenter"",""1"",""1208""
","
","
","""event"",""trial"",""time""
""fullscreenenter"",""1"",""1208""
","
","","","-1","","","19","10090","4711","&#9854;","elianto","#FFFFF080","-1","-1","1","&#10004","[]","0","0","1","","","","","","","",""
"pit-trial","17","171837","0.0-2.0-6.3-0.3","battery-v0.2","","""event"",""trial"",""time""
""fullscreenenter"",""1"",""1208""
","
","
","""event"",""trial"",""time""
""fullscreenenter"",""1"",""1208""
","
","","","-1","","","19","10090","4711","&#9854;","elianto","#FFFFF080","-1","-1","1","&#10004","[]","0","0","1","","","","","","","",""
"pit-trial","18","176690","0.0-2.0-6.4-0.4","battery-v0.2","","""event"",""trial"",""time""
""fullscreenenter"",""1"",""1208""
","
","
","""event"",""trial"",""time""
""fullscreenenter"",""1"",""1208""
","
","","","-1","","","19","10090","4711","&#9854;","elianto","#FFFFF080","-1","-1","1","&#10004","[]","0","0","1","","","","","","","",""
"pit-instructions","19","299420","0.0-2.0-7.0","battery-v0.2","","""event"",""trial"",""time""
""fullscreenenter"",""1"",""1208""
","
","
","""event"",""trial"",""time""
""fullscreenenter"",""1"",""1208""
","
","","[{""page_index"":0,""viewing_time"":7462.800000011921},{""page_index"":1,""viewing_time"":6687},{""page_index"":2,""viewing_time"":5518.600000023842},{""page_index"":3,""viewing_time"":5556.799999952316},{""page_index"":4,""viewing_time"":6493.5},{""page_index"":5,""viewing_time"":9994.900000035763},{""page_index"":6,""viewing_time"":5181},{""page_index"":7,""viewing_time"":7862.599999964237},{""page_index"":8,""viewing_time"":7169.800000011921},{""page_index"":9,""viewing_time"":5731.100000023842},{""page_index"":10,""viewing_time"":6223.300000011921},{""page_index"":11,""viewing_time"":4429.799999952316},{""page_index"":12,""viewing_time"":6637.700000047684},{""page_index"":13,""viewing_time"":7689.099999964237},{""page_index"":14,""viewing_time"":7156.900000035763},{""page_index"":15,""viewing_time"":6200.399999976158},{""page_index"":16,""viewing_time"":8522.300000011921},{""page_index"":17,""viewing_time"":8211}]","122728.90000003576","","","","","","","","","","","","","","","","","","","","","","","",""
"pit-trial","20","303243","0.0-2.0-8.0-0.0","battery-v0.2","","""event"",""trial"",""time""
""fullscreenenter"",""1"",""1208""
","
","
","""event"",""trial"",""time""
""fullscreenenter"",""1"",""1208""
","
","","","962.1999999880791","","","19","10090","4711","&#9776;","elianto","#3366ff99"," "," ","1","+10","[1812.800000011921]","1","0","1","","","","","","","",""
"pit-trial","21","306614","0.0-2.0-8.0-1.0","battery-v0.2","","""event"",""trial"",""time""
""fullscreenenter"",""1"",""1208""
","
","
","""event"",""trial"",""time""
""fullscreenenter"",""1"",""1208""
","
","","","507.2000000476837","","","19","10090","4711","&#9776;","elianto","#3366ff99"," "," ","1","+10","[1357.5]","1","0","1","","","","","","","",""
"pit-trial","22","309894","0.0-2.0-8.0-2.0","battery-v0.2","","""event"",""trial"",""time""
""fullscreenenter"",""1"",""1208""
","
","
","""event"",""trial"",""time""
""fullscreenenter"",""1"",""1208""
","
","","","409","","","19","10090","4711","&#9776;","elianto","#3366ff99"," "," ","1","+10","[1265.3999999761581]","1","0","1","","","","","","","",""
"pit-trial","23","313186","0.0-2.0-8.0-3.0","battery-v0.2","","""event"",""trial"",""time""
""fullscreenenter"",""1"",""1208""
","
","
","""event"",""trial"",""time""
""fullscreenenter"",""1"",""1208""
","
","","","430.39999997615814","","","19","10090","4711","&#9776;","elianto","#3366ff99"," "," ","1","0","[1282]","1","0","1","","","","","","","",""
"pit-trial","24","316546","0.0-2.0-8.0-4.0","battery-v0.2","","""event"",""trial"",""time""
""fullscreenenter"",""1"",""1208""
","
","
","""event"",""trial"",""time""
""fullscreenenter"",""1"",""1208""
","
","","","506","","","19","10090","4711","&#9776;","elianto","#3366ff99"," "," ","1","+10","[1357.2999999523163]","1","0","1","","","","","","","",""
"pit-trial","25","319955","0.0-2.0-8.1-0.1","battery-v0.2","","""event"",""trial"",""time""
""fullscreenenter"",""1"",""1208""
","
","
","""event"",""trial"",""time""
""fullscreenenter"",""1"",""1208""
","
","","","547.2999999523163","","","19","10090","4711","&#9776;","elianto","#3366ff99"," "," ","1","+10","[1397.699999988079]","1","0","1","","","","","","","",""
"pit-trial","26","323239","0.0-2.0-8.1-1.1","battery-v0.2","","""event"",""trial"",""time""
""fullscreenenter"",""1"",""1208""
","
","
","""event"",""trial"",""time""
""fullscreenenter"",""1"",""1208""
","
","","","424.5999999642372","","","19","10090","4711","&#9776;","elianto","#3366ff99"," "," ","1","+10","[1276.800000011921]","1","0","1","","","","","","","",""
"pit-trial","27","326544","0.0-2.0-8.1-2.1","battery-v0.2","","""event"",""trial"",""time""
""fullscreenenter"",""1"",""1208""
","
","
","""event"",""trial"",""time""
""fullscreenenter"",""1"",""1208""
","
","","","445.80000001192093","","","19","10090","4711","&#9776;","elianto","#3366ff99"," "," ","1","+10","[1302.800000011921]","1","0","1","","","","","","","",""
"pit-trial","28","329832","0.0-2.0-8.1-3.1","battery-v0.2","","""event"",""trial"",""time""
""fullscreenenter"",""1"",""1208""
","
","
","""event"",""trial"",""time""
""fullscreenenter"",""1"",""1208""
","
","","","434.89999997615814","","","19","10090","4711","&#9776;","elianto","#3366ff99"," "," ","1","0","[1287.1000000238419]","1","0","1","","","","","","","",""
"pit-trial","29","332904","0.0-2.0-8.1-4.1","battery-v0.2","","""event"",""trial"",""time""
""fullscreenenter"",""1"",""1208""
","
","
","""event"",""trial"",""time""
""fullscreenenter"",""1"",""1208""
","
","","","219.39999997615814","","","19","10090","4711","&#9776;","elianto","#3366ff99"," "," ","1","+10","[1070.699999988079]","1","0","1","","","","","","","",""
"pit-trial","30","336225","0.0-2.0-8.2-0.2","battery-v0.2","","""event"",""trial"",""time""
""fullscreenenter"",""1"",""1208""
","
","
","""event"",""trial"",""time""
""fullscreenenter"",""1"",""1208""
","
","","","469.19999998807907","","","19","10090","4711","&#9776;","elianto","#3366ff99"," "," ","1","+10","[1319.300000011921]","1","0","1","","","","","","","",""
"pit-trial","31","339450","0.0-2.0-8.2-1.2","battery-v0.2","","""event"",""trial"",""time""
""fullscreenenter"",""1"",""1208""
","
","
","""event"",""trial"",""time""
""fullscreenenter"",""1"",""1208""
","
","","","371.60000002384186","","","19","10090","4711","&#9776;","elianto","#3366ff99"," "," ","1","+10","[1222.6000000238419]","1","0","1","","","","","","","",""
"pit-trial","32","342601","0.0-2.0-8.2-2.2","battery-v0.2","","""event"",""trial"",""time""
""fullscreenenter"",""1"",""1208""
","
","
","""event"",""trial"",""time""
""fullscreenenter"",""1"",""1208""
","
","","","299","","","19","10090","4711","&#9776;","elianto","#3366ff99"," "," ","1","+10","[1149.5999999642372]","1","0","1","","","","","","","",""
"pit-trial","33","345755","0.0-2.0-8.2-3.2","battery-v0.2","","""event"",""trial"",""time""
""fullscreenenter"",""1"",""1208""
","
","
","""event"",""trial"",""time""
""fullscreenenter"",""1"",""1208""
","
","","","300.30000001192093","","","19","10090","4711","&#9776;","elianto","#3366ff99"," "," ","1","0","[1150.6000000238419]","1","0","1","","","","","","","",""
"pit-trial","34","348945","0.0-2.0-8.2-4.2","battery-v0.2","","""event"",""trial"",""time""
""fullscreenenter"",""1"",""1208""
","
","
","""event"",""trial"",""time""
""fullscreenenter"",""1"",""1208""
","
","","","336.39999997615814","","","19","10090","4711","&#9776;","elianto","#3366ff99"," "," ","1","+10","[1187.9000000357628]","1","0","1","","","","","","","",""
"call-function","35","348946","0.0-2.0-9.0","battery-v0.2","","""event"",""trial"",""time""
""fullscreenenter"",""1"",""1208""
","
","
","""event"",""trial"",""time""
""fullscreenenter"",""1"",""1208""
","
","","","","","","","","","","","","","","","","","","","","","","","","","","",""
"pit-instructions","36","387640","0.0-2.0-10.0","battery-v0.2","","""event"",""trial"",""time""
""fullscreenenter"",""1"",""1208""
","
","
","""event"",""trial"",""time""
""fullscreenenter"",""1"",""1208""
","
","","[{""page_index"":0,""viewing_time"":5728.699999988079},{""page_index"":1,""viewing_time"":6738.099999964237},{""page_index"":2,""viewing_time"":9607.300000011921},{""page_index"":3,""viewing_time"":8689.100000023842},{""page_index"":4,""viewing_time"":7930.5}]","38694","","","","","","","","","","","","","","","","","","","","","","","",""
"pit-trial","37","392505","0.0-2.0-11.0-0.0","battery-v0.2","","""event"",""trial"",""time""
""fullscreenenter"",""1"",""1208""
","
","
","""event"",""trial"",""time""
""fullscreenenter"",""1"",""1208""
","
","","","-1","","","19","10090","4711","&#9761;","elianto","#3366ff99","-1","-1","1","+10","[]","0","0","2","","","","","","","",""
"pit-trial","38","397358","0.0-2.0-11.0-1.0","battery-v0.2","","""event"",""trial"",""time""
""fullscreenenter"",""1"",""1208""
","
","
","""event"",""trial"",""time""
""fullscreenenter"",""1"",""1208""
","
","","","-1","","","19","10090","4711","&#9761;","elianto","#3366ff99","-1","-1","1","+10","[]","0","0","2","","","","","","","",""
"pit-trial","39","402211","0.0-2.0-11.0-2.0","battery-v0.2","","""event"",""trial"",""time""
""fullscreenenter"",""1"",""1208""
","
","
","""event"",""trial"",""time""
""fullscreenenter"",""1"",""1208""
","
","","","-1","","","19","10090","4711","&#9761;","elianto","#3366ff99","-1","-1","1","+10","[]","0","0","2","","","","","","","",""
"pit-trial","40","407086","0.0-2.0-11.0-3.0","battery-v0.2","","""event"",""trial"",""time""
""fullscreenenter"",""1"",""1208""
","
","
","""event"",""trial"",""time""
""fullscreenenter"",""1"",""1208""
","
","","","-1","","","19","10090","4711","&#9761;","elianto","#3366ff99","-1","-1","1","0","[]","0","0","2","","","","","","","",""
"pit-trial","41","411940","0.0-2.0-11.0-4.0","battery-v0.2","","""event"",""trial"",""time""
""fullscreenenter"",""1"",""1208""
","
","
","""event"",""trial"",""time""
""fullscreenenter"",""1"",""1208""
","
","","","-1","","","19","10090","4711","&#9761;","elianto","#3366ff99","-1","-1","1","+10","[]","0","0","2","","","","","","","",""
"pit-trial","42","416799","0.0-2.0-11.1-0.1","battery-v0.2","","""event"",""trial"",""time""
""fullscreenenter"",""1"",""1208""
","
","
","""event"",""trial"",""time""
""fullscreenenter"",""1"",""1208""
","
","","","-1","","","19","10090","4711","&#9761;","elianto","#3366ff99","-1","-1","1","+10","[]","0","0","2","","","","","","","",""
"pit-trial","43","421651","0.0-2.0-11.1-1.1","battery-v0.2","","""event"",""trial"",""time""
""fullscreenenter"",""1"",""1208""
","
","
","""event"",""trial"",""time""
""fullscreenenter"",""1"",""1208""
","
","","","-1","","","19","10090","4711","&#9761;","elianto","#3366ff99","-1","-1","1","+10","[]","0","0","2","","","","","","","",""
"pit-trial","44","426504","0.0-2.0-11.1-2.1","battery-v0.2","","""event"",""trial"",""time""
""fullscreenenter"",""1"",""1208""
","
","
","""event"",""trial"",""time""
""fullscreenenter"",""1"",""1208""
","
","","","-1","","","19","10090","4711","&#9761;","elianto","#3366ff99","-1","-1","1","+10","[]","0","0","2","","","","","","","",""
"pit-trial","45","431357","0.0-2.0-11.1-3.1","battery-v0.2","","""event"",""trial"",""time""
""fullscreenenter"",""1"",""1208""
","
","
","""event"",""trial"",""time""
""fullscreenenter"",""1"",""1208""
","
","","","-1","","","19","10090","4711","&#9761;","elianto","#3366ff99","-1","-1","1","0","[]","0","0","2","","","","","","","",""
"pit-trial","46","436208","0.0-2.0-11.1-4.1","battery-v0.2","","""event"",""trial"",""time""
""fullscreenenter"",""1"",""1208""
","
","
","""event"",""trial"",""time""
""fullscreenenter"",""1"",""1208""
","
","","","-1","","","19","10090","4711","&#9761;","elianto","#3366ff99","-1","-1","1","+10","[]","0","0","2","","","","","","","",""
"pit-trial","47","441061","0.0-2.0-11.2-0.2","battery-v0.2","","""event"",""trial"",""time""
""fullscreenenter"",""1"",""1208""
","
","
","""event"",""trial"",""time""
""fullscreenenter"",""1"",""1208""
","
","","","-1","","","19","10090","4711","&#9761;","elianto","#3366ff99","-1","-1","1","+10","[]","0","0","2","","","","","","","",""
"pit-trial","48","445914","0.0-2.0-11.2-1.2","battery-v0.2","","""event"",""trial"",""time""
""fullscreenenter"",""1"",""1208""
","
","
","""event"",""trial"",""time""
""fullscreenenter"",""1"",""1208""
","
","","","-1","","","19","10090","4711","&#9761;","elianto","#3366ff99","-1","-1","1","+10","[]","0","0","2","","","","","","","",""
"pit-trial","49","450766","0.0-2.0-11.2-2.2","battery-v0.2","","""event"",""trial"",""time""
""fullscreenenter"",""1"",""1208""
","
","
","""event"",""trial"",""time""
""fullscreenenter"",""1"",""1208""
","
","","","-1","","","19","10090","4711","&#9761;","elianto","#3366ff99","-1","-1","1","+10","[]","0","0","2","","","","","","","",""
"pit-trial","50","455618","0.0-2.0-11.2-3.2","battery-v0.2","","""event"",""trial"",""time""
""fullscreenenter"",""1"",""1208""
","
","
","""event"",""trial"",""time""
""fullscreenenter"",""1"",""1208""
","
","","","-1","","","19","10090","4711","&#9761;","elianto","#3366ff99","-1","-1","1","0","[]","0","0","2","","","","","","","",""
"pit-trial","51","460471","0.0-2.0-11.2-4.2","battery-v0.2","","""event"",""trial"",""time""
""fullscreenenter"",""1"",""1208""
","
","
","""event"",""trial"",""time""
""fullscreenenter"",""1"",""1208""
","
","","","-1","","","19","10090","4711","&#9761;","elianto","#3366ff99","-1","-1","1","+10","[]","0","0","2","","","","","","","",""
"pit-trial","52","465324","0.0-2.0-11.3-0.3","battery-v0.2","","""event"",""trial"",""time""
""fullscreenenter"",""1"",""1208""
","
","
","""event"",""trial"",""time""
""fullscreenenter"",""1"",""1208""
","
","","","-1","","","19","10090","4711","&#9761;","elianto","#3366ff99","-1","-1","1","+10","[]","0","0","2","","","","","","","",""
"pit-trial","53","470177","0.0-2.0-11.3-1.3","battery-v0.2","","""event"",""trial"",""time""
""fullscreenenter"",""1"",""1208""
","
","
","""event"",""trial"",""time""
""fullscreenenter"",""1"",""1208""
","
","","","-1","","","19","10090","4711","&#9761;","elianto","#3366ff99","-1","-1","1","+10","[]","0","0","2","","","","","","","",""
"pit-trial","54","475031","0.0-2.0-11.3-2.3","battery-v0.2","","""event"",""trial"",""time""
""fullscreenenter"",""1"",""1208""
","
","
","""event"",""trial"",""time""
""fullscreenenter"",""1"",""1208""
","
","","","-1","","","19","10090","4711","&#9761;","elianto","#3366ff99","-1","-1","1","+10","[]","0","0","2","","","","","","","",""
"pit-trial","55","479885","0.0-2.0-11.3-3.3","battery-v0.2","","""event"",""trial"",""time""
""fullscreenenter"",""1"",""1208""
","
","
","""event"",""trial"",""time""
""fullscreenenter"",""1"",""1208""
","
","","","-1","","","19","10090","4711","&#9761;","elianto","#3366ff99","-1","-1","1","0","[]","0","0","2","","","","","","","",""
"pit-trial","56","484737","0.0-2.0-11.3-4.3","battery-v0.2","","""event"",""trial"",""time""
""fullscreenenter"",""1"",""1208""
","
","
","""event"",""trial"",""time""
""fullscreenenter"",""1"",""1208""
","
","","","-1","","","19","10090","4711","&#9761;","elianto","#3366ff99","-1","-1","1","+10","[]","0","0","2","","","","","","","",""
"call-function","57","484738","0.0-2.0-12.0","battery-v0.2","","""event"",""trial"",""time""
""fullscreenenter"",""1"",""1208""
","
","
","""event"",""trial"",""time""
""fullscreenenter"",""1"",""1208""
","
","","","","","","","","","","","","","","","","","","","","","","","","","","",""
"pit-instructions","58","528628","0.0-2.0-13.0","battery-v0.2","","""event"",""trial"",""time""
""fullscreenenter"",""1"",""1208""
","
","
","""event"",""trial"",""time""
""fullscreenenter"",""1"",""1208""
","
","","[{""page_index"":0,""viewing_time"":7146.699999988079},{""page_index"":1,""viewing_time"":8249.800000011921},{""page_index"":2,""viewing_time"":4500.899999976158},{""page_index"":3,""viewing_time"":11967.199999988079},{""page_index"":4,""viewing_time"":12024.900000035763}]","43889.80000001192","","","","","","","","","","","","","","","","","","","","","","","",""
"pit-trial","59","532086","0.0-2.0-14.0-0.0","battery-v0.2","","""event"",""trial"",""time""
""fullscreenenter"",""1"",""1208""
","
","
","""event"",""trial"",""time""
""fullscreenenter"",""1"",""1208""
","
","","","606.1999999880791","","","19","10090","4711","&#9826;","elianto","#f73b6a7A","-1"," ","0","-10","[1456.5]","1","0","3","","","","","","","",""
"pit-trial","60","535429","0.0-2.0-14.0-1.0","battery-v0.2","","""event"",""trial"",""time""
""fullscreenenter"",""1"",""1208""
","
","
","""event"",""trial"",""time""
""fullscreenenter"",""1"",""1208""
","
","","","484.4000000357628","","","19","10090","4711","&#9826;","elianto","#f73b6a7A","-1"," ","0","-10","[1335.300000011921]","1","0","3","","","","","","","",""
"pit-trial","61","540287","0.0-2.0-14.0-2.0","battery-v0.2","","""event"",""trial"",""time""
""fullscreenenter"",""1"",""1208""
","
","
","""event"",""trial"",""time""
""fullscreenenter"",""1"",""1208""
","
","","","-1","","","19","10090","4711","&#9826;","elianto","#f73b6a7A","-1","-1","1","0","[]","0","0","3","","","","","","","",""
"pit-trial","62","545138","0.0-2.0-14.0-3.0","battery-v0.2","","""event"",""trial"",""time""
""fullscreenenter"",""1"",""1208""
","
","
","""event"",""trial"",""time""
""fullscreenenter"",""1"",""1208""
","
","","","-1","","","19","10090","4711","&#9826;","elianto","#f73b6a7A","-1","-1","1","-10","[]","0","0","3","","","","","","","",""
"pit-trial","63","549996","0.0-2.0-14.0-4.0","battery-v0.2","","""event"",""trial"",""time""
""fullscreenenter"",""1"",""1208""
","
","
","""event"",""trial"",""time""
""fullscreenenter"",""1"",""1208""
","
","","","-1","","","19","10090","4711","&#9826;","elianto","#f73b6a7A","-1","-1","1","0","[]","0","0","3","","","","","","","",""
"pit-trial","64","554850","0.0-2.0-14.1-0.1","battery-v0.2","","""event"",""trial"",""time""
""fullscreenenter"",""1"",""1208""
","
","
","""event"",""trial"",""time""
""fullscreenenter"",""1"",""1208""
","
","","","-1","","","19","10090","4711","&#9826;","elianto","#f73b6a7A","-1","-1","1","0","[]","0","0","3","","","","","","","",""
"pit-trial","65","559702","0.0-2.0-14.1-1.1","battery-v0.2","","""event"",""trial"",""time""
""fullscreenenter"",""1"",""1208""
","
","
","""event"",""trial"",""time""
""fullscreenenter"",""1"",""1208""
","
","","","-1","","","19","10090","4711","&#9826;","elianto","#f73b6a7A","-1","-1","1","0","[]","0","0","3","","","","","","","",""
"pit-trial","66","564556","0.0-2.0-14.1-2.1","battery-v0.2","","""event"",""trial"",""time""
""fullscreenenter"",""1"",""1208""
","
","
","""event"",""trial"",""time""
""fullscreenenter"",""1"",""1208""
","
","","","-1","","","19","10090","4711","&#9826;","elianto","#f73b6a7A","-1","-1","1","0","[]","0","0","3","","","","","","","",""
"pit-trial","67","569409","0.0-2.0-14.1-3.1","battery-v0.2","","""event"",""trial"",""time""
""fullscreenenter"",""1"",""1208""
","
","
","""event"",""trial"",""time""
""fullscreenenter"",""1"",""1208""
","
","","","-1","","","19","10090","4711","&#9826;","elianto","#f73b6a7A","-1","-1","1","-10","[]","0","0","3","","","","","","","",""
"pit-trial","68","574262","0.0-2.0-14.1-4.1","battery-v0.2","","""event"",""trial"",""time""
""fullscreenenter"",""1"",""1208""
","
","
","""event"",""trial"",""time""
""fullscreenenter"",""1"",""1208""
","
","","","-1","","","19","10090","4711","&#9826;","elianto","#f73b6a7A","-1","-1","1","0","[]","0","0","3","","","","","","","",""
"pit-trial","69","579115","0.0-2.0-14.2-0.2","battery-v0.2","","""event"",""trial"",""time""
""fullscreenenter"",""1"",""1208""
","
","
","""event"",""trial"",""time""
""fullscreenenter"",""1"",""1208""
","
","","","-1","","","19","10090","4711","&#9826;","elianto","#f73b6a7A","-1","-1","1","0","[]","0","0","3","","","","","","","",""
"pit-trial","70","583967","0.0-2.0-14.2-1.2","battery-v0.2","","""event"",""trial"",""time""
""fullscreenenter"",""1"",""1208""
","
","
","""event"",""trial"",""time""
""fullscreenenter"",""1"",""1208""
","
","","","-1","","","19","10090","4711","&#9826;","elianto","#f73b6a7A","-1","-1","1","0","[]","0","0","3","","","","","","","",""
"pit-trial","71","588819","0.0-2.0-14.2-2.2","battery-v0.2","","""event"",""trial"",""time""
""fullscreenenter"",""1"",""1208""
","
","
","""event"",""trial"",""time""
""fullscreenenter"",""1"",""1208""
","
","","","-1","","","19","10090","4711","&#9826;","elianto","#f73b6a7A","-1","-1","1","0","[]","0","0","3","","","","","","","",""
"pit-trial","72","593673","0.0-2.0-14.2-3.2","battery-v0.2","","""event"",""trial"",""time""
""fullscreenenter"",""1"",""1208""
","
","
","""event"",""trial"",""time""
""fullscreenenter"",""1"",""1208""
","
","","","-1","","","19","10090","4711","&#9826;","elianto","#f73b6a7A","-1","-1","1","-10","[]","0","0","3","","","","","","","",""
"pit-trial","73","598525","0.0-2.0-14.2-4.2","battery-v0.2","","""event"",""trial"",""time""
""fullscreenenter"",""1"",""1208""
","
","
","""event"",""trial"",""time""
""fullscreenenter"",""1"",""1208""
","
","","","-1","","","19","10090","4711","&#9826;","elianto","#f73b6a7A","-1","-1","1","0","[]","0","0","3","","","","","","","",""
"pit-trial","74","603378","0.0-2.0-14.3-0.3","battery-v0.2","","""event"",""trial"",""time""
""fullscreenenter"",""1"",""1208""
","
","
","""event"",""trial"",""time""
""fullscreenenter"",""1"",""1208""
","
","","","-1","","","19","10090","4711","&#9826;","elianto","#f73b6a7A","-1","-1","1","0","[]","0","0","3","","","","","","","",""
"pit-trial","75","608230","0.0-2.0-14.3-1.3","battery-v0.2","","""event"",""trial"",""time""
""fullscreenenter"",""1"",""1208""
","
","
","""event"",""trial"",""time""
""fullscreenenter"",""1"",""1208""
","
","","","-1","","","19","10090","4711","&#9826;","elianto","#f73b6a7A","-1","-1","1","0","[]","0","0","3","","","","","","","",""
"pit-trial","76","613083","0.0-2.0-14.3-2.3","battery-v0.2","","""event"",""trial"",""time""
""fullscreenenter"",""1"",""1208""
","
","
","""event"",""trial"",""time""
""fullscreenenter"",""1"",""1208""
","
","","","-1","","","19","10090","4711","&#9826;","elianto","#f73b6a7A","-1","-1","1","0","[]","0","0","3","","","","","","","",""
"pit-trial","77","617935","0.0-2.0-14.3-3.3","battery-v0.2","","""event"",""trial"",""time""
""fullscreenenter"",""1"",""1208""
","
","
","""event"",""trial"",""time""
""fullscreenenter"",""1"",""1208""
","
","","","-1","","","19","10090","4711","&#9826;","elianto","#f73b6a7A","-1","-1","1","-10","[]","0","0","3","","","","","","","",""
"pit-trial","78","622787","0.0-2.0-14.3-4.3","battery-v0.2","","""event"",""trial"",""time""
""fullscreenenter"",""1"",""1208""
","
","
","""event"",""trial"",""time""
""fullscreenenter"",""1"",""1208""
","
","","","-1","","","19","10090","4711","&#9826;","elianto","#f73b6a7A","-1","-1","1","0","[]","0","0","3","","","","","","","",""
"call-function","79","622788","0.0-2.0-15.0","battery-v0.2","","""event"",""trial"",""time""
""fullscreenenter"",""1"",""1208""
","
","
","""event"",""trial"",""time""
""fullscreenenter"",""1"",""1208""
","
","","","","","","","","","","","","","","","","","","","","","","","","","","",""
"pit-instructions","80","650500","0.0-2.0-16.0","battery-v0.2","","""event"",""trial"",""time""
""fullscreenenter"",""1"",""1208""
","
","
","""event"",""trial"",""time""
""fullscreenenter"",""1"",""1208""
","
","","[{""page_index"":0,""viewing_time"":9812.299999952316},{""page_index"":1,""viewing_time"":8419.300000011921},{""page_index"":2,""viewing_time"":4442.900000035763},{""page_index"":3,""viewing_time"":5037.099999964237}]","27711.899999976158","","","","","","","","","","","","","","","","","","","","","","","",""
"pit-trial","81","653811","0.0-2.0-17.0-0.0","battery-v0.2","","""event"",""trial"",""time""
""fullscreenenter"",""1"",""1208""
","
","
","""event"",""trial"",""time""
""fullscreenenter"",""1"",""1208""
","
","","","456.2999999523163","","","19","10090","4711","&#9789;","elianto","#f73b6a7A"," "," ","1","0","[1308.699999988079]","1","0","4","","","","","","","",""
"pit-trial","82","656938","0.0-2.0-17.0-1.0","battery-v0.2","","""event"",""trial"",""time""
""fullscreenenter"",""1"",""1208""
","
","
","""event"",""trial"",""time""
""fullscreenenter"",""1"",""1208""
","
","","","275","","","19","10090","4711","&#9789;","elianto","#f73b6a7A"," "," ","1","0","[1125.8999999761581]","1","0","4","","","","","","","",""
"pit-trial","83","660161","0.0-2.0-17.0-2.0","battery-v0.2","","""event"",""trial"",""time""
""fullscreenenter"",""1"",""1208""
","
","
","""event"",""trial"",""time""
""fullscreenenter"",""1"",""1208""
","
","","","366.69999998807907","","","19","10090","4711","&#9789;","elianto","#f73b6a7A"," "," ","1","0","[1221.199999988079]","1","0","4","","","","","","","",""
"pit-trial","84","663379","0.0-2.0-17.0-3.0","battery-v0.2","","""event"",""trial"",""time""
""fullscreenenter"",""1"",""1208""
","
","
","""event"",""trial"",""time""
""fullscreenenter"",""1"",""1208""
","
","","","362.0999999642372","","","19","10090","4711","&#9789;","elianto","#f73b6a7A"," "," ","1","-10","[1212.0999999642372]","1","0","4","","","","","","","",""
"pit-trial","85","666683","0.0-2.0-17.0-4.0","battery-v0.2","","""event"",""trial"",""time""
""fullscreenenter"",""1"",""1208""
","
","
","""event"",""trial"",""time""
""fullscreenenter"",""1"",""1208""
","
","","","445.39999997615814","","","19","10090","4711","&#9789;","elianto","#f73b6a7A"," "," ","1","0","[1303]","1","0","4","","","","","","","",""
"pit-trial","86","669942","0.0-2.0-17.1-0.1","battery-v0.2","","""event"",""trial"",""time""
""fullscreenenter"",""1"",""1208""
","
","
","""event"",""trial"",""time""
""fullscreenenter"",""1"",""1208""
","
","","","389.89999997615814","","","19","10090","4711","&#9789;","elianto","#f73b6a7A"," "," ","1","0","[1242]","1","0","4","","","","","","","",""
"pit-trial","87","673229","0.0-2.0-17.1-1.1","battery-v0.2","","""event"",""trial"",""time""
""fullscreenenter"",""1"",""1208""
","
","
","""event"",""trial"",""time""
""fullscreenenter"",""1"",""1208""
","
","","","432.0999999642372","","","19","10090","4711","&#9789;","elianto","#f73b6a7A"," "," ","1","0","[1284.8999999761581]","1","0","4","","","","","","","",""
"pit-trial","88","676447","0.0-2.0-17.1-2.1","battery-v0.2","","""event"",""trial"",""time""
""fullscreenenter"",""1"",""1208""
","
","
","""event"",""trial"",""time""
""fullscreenenter"",""1"",""1208""
","
","","","359.2000000476837","","","19","10090","4711","&#9789;","elianto","#f73b6a7A"," "," ","1","0","[1215.199999988079]","1","0","4","","","","","","","",""
"pit-trial","89","679678","0.0-2.0-17.1-3.1","battery-v0.2","","""event"",""trial"",""time""
""fullscreenenter"",""1"",""1208""
","
","
","""event"",""trial"",""time""
""fullscreenenter"",""1"",""1208""
","
","","","372.30000001192093","","","19","10090","4711","&#9789;","elianto","#f73b6a7A"," "," ","1","-10","[1227.699999988079]","1","0","4","","","","","","","",""
"pit-trial","90","682869","0.0-2.0-17.1-4.1","battery-v0.2","","""event"",""trial"",""time""
""fullscreenenter"",""1"",""1208""
","
","
","""event"",""trial"",""time""
""fullscreenenter"",""1"",""1208""
","
","","","337.39999997615814","","","19","10090","4711","&#9789;","elianto","#f73b6a7A"," "," ","1","0","[1189]","1","0","4","","","","","","","",""
"pit-trial","91","686185","0.0-2.0-17.2-0.2","battery-v0.2","","""event"",""trial"",""time""
""fullscreenenter"",""1"",""1208""
","
","
","""event"",""trial"",""time""
""fullscreenenter"",""1"",""1208""
","
","","","453.69999998807907","","","19","10090","4711","&#9789;","elianto","#f73b6a7A"," "," ","1","0","[744.1000000238419,1303.7000000476837]","2","0","4","","","","","","","",""
"pit-trial","92","689582","0.0-2.0-17.2-1.2","battery-v0.2","","""event"",""trial"",""time""
""fullscreenenter"",""1"",""1208""
","
","
","""event"",""trial"",""time""
""fullscreenenter"",""1"",""1208""
","
","","","543.5","","","19","10090","4711","&#9789;","elianto","#f73b6a7A"," "," ","1","0","[1394.4000000357628]","1","0","4","","","","","","","",""
"pit-trial","93","692867","0.0-2.0-17.2-2.2","battery-v0.2","","""event"",""trial"",""time""
""fullscreenenter"",""1"",""1208""
","
","
","""event"",""trial"",""time""
""fullscreenenter"",""1"",""1208""
","
","","","431.2999999523163","","","19","10090","4711","&#9789;","elianto","#f73b6a7A"," "," ","1","0","[1282.699999988079]","1","0","4","","","","","","","",""
"pit-trial","94","696123","0.0-2.0-17.2-3.2","battery-v0.2","","""event"",""trial"",""time""
""fullscreenenter"",""1"",""1208""
","
","
","""event"",""trial"",""time""
""fullscreenenter"",""1"",""1208""
","
","","","403.7999999523163","","","19","10090","4711","&#9789;","elianto","#f73b6a7A"," "," ","1","-10","[1253.8999999761581]","1","0","4","","","","","","","",""
"pit-trial","95","699370","0.0-2.0-17.2-4.2","battery-v0.2","","""event"",""trial"",""time""
""fullscreenenter"",""1"",""1208""
","
","
","""event"",""trial"",""time""
""fullscreenenter"",""1"",""1208""
","
","","","394.80000001192093","","","19","10090","4711","&#9789;","elianto","#f73b6a7A"," "," ","1","0","[1245.2000000476837]","1","0","4","","","","","","","",""
"pit-trial","96","702596","0.0-2.0-17.3-0.3","battery-v0.2","","""event"",""trial"",""time""
""fullscreenenter"",""1"",""1208""
","
","
","""event"",""trial"",""time""
""fullscreenenter"",""1"",""1208""
","
","","","373.30000001192093","","","19","10090","4711","&#9789;","elianto","#f73b6a7A"," "," ","1","0","[1223.5999999642372]","1","0","4","","","","","","","",""
"pit-trial","97","705847","0.0-2.0-17.3-1.3","battery-v0.2","","""event"",""trial"",""time""
""fullscreenenter"",""1"",""1208""
","
","
","""event"",""trial"",""time""
""fullscreenenter"",""1"",""1208""
","
","","","399","","","19","10090","4711","&#9789;","elianto","#f73b6a7A"," "," ","1","0","[1249.699999988079]","1","0","4","","","","","","","",""
"pit-trial","98","709103","0.0-2.0-17.3-2.3","battery-v0.2","","""event"",""trial"",""time""
""fullscreenenter"",""1"",""1208""
","
","
","""event"",""trial"",""time""
""fullscreenenter"",""1"",""1208""
","
","","","403.80000001192093","","","19","10090","4711","&#9789;","elianto","#f73b6a7A"," "," ","1","0","[1255]","1","0","4","","","","","","","",""
"pit-trial","99","712365","0.0-2.0-17.3-3.3","battery-v0.2","","""event"",""trial"",""time""
""fullscreenenter"",""1"",""1208""
","
","
","""event"",""trial"",""time""
""fullscreenenter"",""1"",""1208""
","
","","","407.69999998807907","","","19","10090","4711","&#9789;","elianto","#f73b6a7A"," "," ","1","-10","[1259.5]","1","0","4","","","","","","","",""
"pit-trial","100","715588","0.0-2.0-17.3-4.3","battery-v0.2","","""event"",""trial"",""time""
""fullscreenenter"",""1"",""1208""
","
","
","""event"",""trial"",""time""
""fullscreenenter"",""1"",""1208""
","
","","","370","","","19","10090","4711","&#9789;","elianto","#f73b6a7A"," "," ","1","0","[1221.5]","1","0","4","","","","","","","",""
"call-function","101","715589","0.0-2.0-18.0","battery-v0.2","","""event"",""trial"",""time""
""fullscreenenter"",""1"",""1208""
","
","
","""event"",""trial"",""time""
""fullscreenenter"",""1"",""1208""
","
","","","","","","","","","","","","","","","","","","","","","","","","","","",""
"pit-instructions","102","785073","0.0-2.0-19.0","battery-v0.2","","""event"",""trial"",""time""
""fullscreenenter"",""1"",""1208""
","
","
","""event"",""trial"",""time""
""fullscreenenter"",""1"",""1208""
","
","","[{""page_index"":0,""viewing_time"":6374.300000011921},{""page_index"":1,""viewing_time"":6949.099999964237},{""page_index"":2,""viewing_time"":9507},{""page_index"":3,""viewing_time"":8984.400000035763},{""page_index"":4,""viewing_time"":8783.099999964237},{""page_index"":5,""viewing_time"":8391.5},{""page_index"":6,""viewing_time"":9879.600000023842},{""page_index"":7,""viewing_time"":5727.599999964237},{""page_index"":8,""viewing_time"":4887.300000011921}]","69484.09999996424","","","","","","","","","","","","","","","","","","","","","","","",""
"pit-comprehension","103","789492","0.0-2.0-20.0-0.0","battery-v0.2","","""event"",""trial"",""time""
""fullscreenenter"",""1"",""1208""
","
","
","""event"",""trial"",""time""
""fullscreenenter"",""1"",""1208""
","
","","","4416.800000011921","[""SPACE""]","0","19","10090","4711","","","","","","","","","","","","","","","","","","",""
"pit-instructions","104","791895","0.0-2.0-20.0-1.0","battery-v0.2","","""event"",""trial"",""time""
""fullscreenenter"",""1"",""1208""
","
","
","""event"",""trial"",""time""
""fullscreenenter"",""1"",""1208""
","
","","[{""page_index"":0,""viewing_time"":2369.199999988079}]","2369.599999964237","","","","","","","","","","","","","","","","","","","","","","","",""
"pit-comprehension","105","797894","0.0-2.0-21.0-0.0","battery-v0.2","","""event"",""trial"",""time""
""fullscreenenter"",""1"",""1208""
","
","
","""event"",""trial"",""time""
""fullscreenenter"",""1"",""1208""
","
","","","5997.299999952316","[""10""]","0","19","10090","4711","","","","","","","","","","","","","","","","","","",""
"pit-instructions","106","799747","0.0-2.0-21.0-1.0","battery-v0.2","","""event"",""trial"",""time""
""fullscreenenter"",""1"",""1208""
","
","
","""event"",""trial"",""time""
""fullscreenenter"",""1"",""1208""
","
","","[{""page_index"":0,""viewing_time"":1829.300000011921}]","1829.5","","","","","","","","","","","","","","","","","","","","","","","",""
"pit-comprehension","107","806161","0.0-2.0-22.0-0.0","battery-v0.2","","""event"",""trial"",""time""
""fullscreenenter"",""1"",""1208""
","
","
","""event"",""trial"",""time""
""fullscreenenter"",""1"",""1208""
","
","","","6412.599999964237","[""0""]","0","19","10090","4711","","","","","","","","","","","","","","","","","","",""
"pit-instructions","108","807910","0.0-2.0-22.0-1.0","battery-v0.2","","""event"",""trial"",""time""
""fullscreenenter"",""1"",""1208""
","
","
","""event"",""trial"",""time""
""fullscreenenter"",""1"",""1208""
","
","","[{""page_index"":0,""viewing_time"":1723}]","1723.300000011921","","","","","","","","","","","","","","","","","","","","","","","",""
"pit-comprehension","109","816532","0.0-2.0-23.0-0.0","battery-v0.2","","""event"",""trial"",""time""
""fullscreenenter"",""1"",""1208""
","
","
","""event"",""trial"",""time""
""fullscreenenter"",""1"",""1208""
","
","","","8620.399999976158","[""True""]","0","19","10090","4711","","","","","","","","","","","","","","","","","","",""
"pit-instructions","110","819353","0.0-2.0-23.0-1.0","battery-v0.2","","""event"",""trial"",""time""
""fullscreenenter"",""1"",""1208""
","
","
","""event"",""trial"",""time""
""fullscreenenter"",""1"",""1208""
","
","","[{""page_index"":0,""viewing_time"":2796.399999976158}]","2796.599999964237","","","","","","","","","","","","","","","","","","","","","","","",""
"pit-comprehension","111","826782","0.0-2.0-24.0-0.0","battery-v0.2","","""event"",""trial"",""time""
""fullscreenenter"",""1"",""1208""
","
","
","""event"",""trial"",""time""
""fullscreenenter"",""1"",""1208""
","
","","","7427.699999988079","[""True""]","0","19","10090","4711","","","","","","","","","","","","","","","","","","",""
"pit-instructions","112","828228","0.0-2.0-24.0-1.0","battery-v0.2","","""event"",""trial"",""time""
""fullscreenenter"",""1"",""1208""
","
","
","""event"",""trial"",""time""
""fullscreenenter"",""1"",""1208""
","
","","[{""page_index"":0,""viewing_time"":1420.800000011921}]","1421.1000000238419","","","","","","","","","","","","","","","","","","","","","","","",""
"pit-comprehension","113","834537","0.0-2.0-25.0-0.0","battery-v0.2","","""event"",""trial"",""time""
""fullscreenenter"",""1"",""1208""
","
","
","""event"",""trial"",""time""
""fullscreenenter"",""1"",""1208""
","
","","","6307.099999964237","[""True""]","0","19","10090","4711","","","","","","","","","","","","","","","","","","",""
"pit-instructions","114","835898","0.0-2.0-25.0-1.0","battery-v0.2","","""event"",""trial"",""time""
""fullscreenenter"",""1"",""1208""
","
","
","""event"",""trial"",""time""
""fullscreenenter"",""1"",""1208""
","
","","[{""page_index"":0,""viewing_time"":1338.199999988079}]","1338.2999999523163","","","","","","","","","","","","","","","","","","","","","","","",""
"pit-comprehension","115","841127","0.0-2.0-26.0-0.0","battery-v0.2","","""event"",""trial"",""time""
""fullscreenenter"",""1"",""1208""
","
","
","""event"",""trial"",""time""
""fullscreenenter"",""1"",""1208""
","
","","","5228.199999988079","[""False""]","0","19","10090","4711","","","","","","","","","","","","","","","","","","",""
"pit-instructions","116","842796","0.0-2.0-26.0-1.0","battery-v0.2","","""event"",""trial"",""time""
""fullscreenenter"",""1"",""1208""
","
","
","""event"",""trial"",""time""
""fullscreenenter"",""1"",""1208""
","
","","[{""page_index"":0,""viewing_time"":1642.0999999642372}]","1642.5","","","","","","","","","","","","","","","","","","","","","","","",""
"pit-instructions","117","858151","0.0-3.0","battery-v0.2","","""event"",""trial"",""time""
""fullscreenenter"",""1"",""1208""
","
","
","""event"",""trial"",""time""
""fullscreenenter"",""1"",""1208""
","
","","[{""page_index"":0,""viewing_time"":3505.100000023842},{""page_index"":1,""viewing_time"":5759.299999952316},{""page_index"":2,""viewing_time"":6088.700000047684}]","15353.5","","","","","","","","","","","","","","","","","","","","","","","",""
"pit-trial","118","862171","0.0-4.0","battery-v0.2","","""event"",""trial"",""time""
""fullscreenenter"",""1"",""1208""
","
","
","""event"",""trial"",""time""
""fullscreenenter"",""1"",""1208""
","
","","","1147","","","19","10090","4711","&#9752;","elianto","#f73b6a7A"," "," ","1","0","[2001.8999999761581]","1","1","","","10090","1","3","3","lose","go","0"
"pit-trial","119","865534","0.0-5.0","battery-v0.2","","""event"",""trial"",""time""
""fullscreenenter"",""1"",""1208""
","
","
","""event"",""trial"",""time""
""fullscreenenter"",""1"",""1208""
","
","","","499.19999998807907","","","19","10090","4711","&#9733;","elianto","#3366ff99","-1"," ","0","+10","[1354.8999999761581]","1","1","","","10090","2","2","2","win","no-go","1"
"pit-trial","120","869541","0.0-6.0","battery-v0.2","","""event"",""trial"",""time""
""fullscreenenter"",""1"",""1208""
","
","
","""event"",""trial"",""time""
""fullscreenenter"",""1"",""1208""
","
","","","1150.5999999642372","","","19","10090","4711","&#9728;","elianto","#f73b6a7A","-1"," ","0","-10","[2002.199999988079]","1","1","","","10090","3","0","4","lose","no-go","0"
"pit-trial","121","873255","0.0-7.0","battery-v0.2","","""event"",""trial"",""time""
""fullscreenenter"",""1"",""1208""
","
","
","""event"",""trial"",""time""
""fullscreenenter"",""1"",""1208""
","
","","","850.6000000238419","","","19","10090","4711","&#9730;","elianto","#3366ff99"," "," ","1","0","[1703.2000000476837]","1","1","","","10090","4","1","1","win","go","1"
"pit-trial","122","877292","0.0-8.0","battery-v0.2","","""event"",""trial"",""time""
""fullscreenenter"",""1"",""1208""
","
","
","""event"",""trial"",""time""
""fullscreenenter"",""1"",""1208""
","
","","","1179.8999999761581","","","19","10090","4711","&#9733;","elianto","#3366ff99","-1"," ","0","0","[2033.800000011921]","1","1","","","10090","5","2","2","win","no-go","0"
"pit-trial","123","882055","0.0-9.0","battery-v0.2","","""event"",""trial"",""time""
""fullscreenenter"",""1"",""1208""
","
","
","""event"",""trial"",""time""
""fullscreenenter"",""1"",""1208""
","
","","","1908.6000000238419","","","19","10090","4711","&#9728;","elianto","#f73b6a7A","-1"," ","0","-10","[2759.600000023842]","1","1","","","10090","6","0","4","lose","no-go","0"
"pit-trial","124","885744","0.0-10.0","battery-v0.2","","""event"",""trial"",""time""
""fullscreenenter"",""1"",""1208""
","
","
","""event"",""trial"",""time""
""fullscreenenter"",""1"",""1208""
","
","","","827.3999999761581","","","19","10090","4711","&#9730;","elianto","#3366ff99"," "," ","1","+10","[1680.699999988079]","1","1","","","10090","7","1","1","win","go","0"
"pit-trial","125","889735","0.0-11.0","battery-v0.2","","""event"",""trial"",""time""
""fullscreenenter"",""1"",""1208""
","
","
","""event"",""trial"",""time""
""fullscreenenter"",""1"",""1208""
","
","","","1136.6000000238419","","","19","10090","4711","&#9752;","elianto","#f73b6a7A"," "," ","1","0","[1989.800000011921]","1","1","","","10090","8","3","3","lose","go","0"
"pit-trial","126","894588","0.0-12.0","battery-v0.2","","""event"",""trial"",""time""
""fullscreenenter"",""1"",""1208""
","
","
","""event"",""trial"",""time""
""fullscreenenter"",""1"",""1208""
","
","","","-1","","","19","10090","4711","&#9733;","elianto","#3366ff99","-1","-1","1","+10","[]","0","1","","","10090","9","2","2","win","no-go","0"
"pit-trial","127","899440","0.0-13.0","battery-v0.2","","""event"",""trial"",""time""
""fullscreenenter"",""1"",""1208""
","
","
","""event"",""trial"",""time""
""fullscreenenter"",""1"",""1208""
","
","","","-1","","","19","10090","4711","&#9728;","elianto","#f73b6a7A","-1","-1","1","0","[]","0","1","","","10090","10","0","4","lose","no-go","0"
"pit-trial","128","904002","0.0-14.0","battery-v0.2","","""event"",""trial"",""time""
""fullscreenenter"",""1"",""1208""
","
","
","""event"",""trial"",""time""
""fullscreenenter"",""1"",""1208""
","
","","","1709.1000000238419","","","19","10090","4711","&#9730;","elianto","#3366ff99"," "," ","1","0","[2559.5]","1","1","","","10090","11","1","1","win","go","1"
"pit-trial","129","907450","0.0-15.0","battery-v0.2","","""event"",""trial"",""time""
""fullscreenenter"",""1"",""1208""
","
","
","""event"",""trial"",""time""
""fullscreenenter"",""1"",""1208""
","
","","","595","","","19","10090","4711","&#9752;","elianto","#f73b6a7A"," "," ","1","0","[1445.3999999761581]","1","1","","","10090","12","3","3","lose","go","0"
"pit-trial","130","911420","0.0-16.0","battery-v0.2","","""event"",""trial"",""time""
""fullscreenenter"",""1"",""1208""
","
","
","""event"",""trial"",""time""
""fullscreenenter"",""1"",""1208""
","
","","","1117.4000000357628","","","19","10090","4711","&#9752;","elianto","#f73b6a7A"," "," ","1","0","[1968.5]","1","1","","","10090","13","3","3","lose","go","0"
"pit-trial","131","916273","0.0-17.0","battery-v0.2","","""event"",""trial"",""time""
""fullscreenenter"",""1"",""1208""
","
","
","""event"",""trial"",""time""
""fullscreenenter"",""1"",""1208""
","
","","","-1","","","19","10090","4711","&#9728;","elianto","#f73b6a7A","-1","-1","1","0","[]","0","1","","","10090","14","0","4","lose","no-go","0"
"pit-trial","132","921127","0.0-18.0","battery-v0.2","","""event"",""trial"",""time""
""fullscreenenter"",""1"",""1208""
","
","
","""event"",""trial"",""time""
""fullscreenenter"",""1"",""1208""
","
","","","-1","","","19","10090","4711","&#9733;","elianto","#3366ff99","-1","-1","1","+10","[]","0","1","","","10090","15","2","2","win","no-go","0"
"pit-trial","133","924994","0.0-19.0","battery-v0.2","","""event"",""trial"",""time""
""fullscreenenter"",""1"",""1208""
","
","
","""event"",""trial"",""time""
""fullscreenenter"",""1"",""1208""
","
","","","1013.5999999642372","","","19","10090","4711","&#9730;","elianto","#3366ff99"," "," ","1","+10","[1865.199999988079]","1","1","","","10090","16","1","1","win","go","0"
"pit-trial","134","928478","0.0-20.0","battery-v0.2","","""event"",""trial"",""time""
""fullscreenenter"",""1"",""1208""
","
","
","""event"",""trial"",""time""
""fullscreenenter"",""1"",""1208""
","
","","","631","","","19","10090","4711","&#9730;","elianto","#3366ff99"," "," ","1","0","[1482.0999999642372]","1","1","","","10090","17","1","1","win","go","1"
"pit-trial","135","932258","0.0-21.0","battery-v0.2","","""event"",""trial"",""time""
""fullscreenenter"",""1"",""1208""
","
","
","""event"",""trial"",""time""
""fullscreenenter"",""1"",""1208""
","
","","","926.1999999880791","","","19","10090","4711","&#9752;","elianto","#f73b6a7A"," "," ","1","0","[1777.5]","1","1","","","10090","18","3","3","lose","go","0"
"pit-trial","136","937110","0.0-22.0","battery-v0.2","","""event"",""trial"",""time""
""fullscreenenter"",""1"",""1208""
","
","
","""event"",""trial"",""time""
""fullscreenenter"",""1"",""1208""
","
","","","-1","","","19","10090","4711","&#9733;","elianto","#3366ff99","-1","-1","1","0","[]","0","1","","","10090","19","2","2","win","no-go","1"
"pit-trial","137","941961","0.0-23.0","battery-v0.2","","""event"",""trial"",""time""
""fullscreenenter"",""1"",""1208""
","
","
","""event"",""trial"",""time""
""fullscreenenter"",""1"",""1208""
","
","","","-1","","","19","10090","4711","&#9728;","elianto","#f73b6a7A","-1","-1","1","0","[]","0","1","","","10090","20","0","4","lose","no-go","0"
"pit-instructions","138","954847","0.0-24.0","battery-v0.2","","""event"",""trial"",""time""
""fullscreenenter"",""1"",""1208""
","
","
","""event"",""trial"",""time""
""fullscreenenter"",""1"",""1208""
","
","","[{""page_index"":0,""viewing_time"":6075.700000047684},{""page_index"":1,""viewing_time"":6808.699999988079}]","12884.700000047684","","","","","","","","","","","","","","","","","","","","","","","",""
"pit-trial","139","958848","0.0-25.0","battery-v0.2","","""event"",""trial"",""time""
""fullscreenenter"",""1"",""1208""
","
","
","""event"",""trial"",""time""
""fullscreenenter"",""1"",""1208""
","
","","","1136.199999988079","","","19","10090","4711","e","elianto","#f73b6a7A"," "," ","1","0","[1989.199999988079]","1","2","","","10090","21","2","3","lose","go","0"
"pit-trial","140","962527","0.0-26.0","battery-v0.2","","""event"",""trial"",""time""
""fullscreenenter"",""1"",""1208""
","
","
","""event"",""trial"",""time""
""fullscreenenter"",""1"",""1208""
","
","","","811.3999999761581","","","19","10090","4711","j","elianto","#f73b6a7A"," "," ","1","0","[1665.0999999642372]","1","2","","","10090","22","0","3","lose","go","0"
"pit-trial","141","966112","0.0-27.0","battery-v0.2","","""event"",""trial"",""time""
""fullscreenenter"",""1"",""1208""
","
","
","""event"",""trial"",""time""
""fullscreenenter"",""1"",""1208""
","
","","","729.8999999761581","","","19","10090","4711","w","elianto","#f73b6a7A","-1"," ","0","-10","[1580]","1","2","","","10090","23","3","4","lose","no-go","0"
"pit-trial","142","969822","0.0-28.0","battery-v0.2","","""event"",""trial"",""time""
""fullscreenenter"",""1"",""1208""
","
","
","""event"",""trial"",""time""
""fullscreenenter"",""1"",""1208""
","
","","","843.3000000119209","","","19","10090","4711","d","elianto","#3366ff99","-1"," ","0","0","[1698.6000000238419]","1","2","","","10090","24","1","2","win","no-go","0"
"pit-trial","143","973612","0.0-29.0","battery-v0.2","","""event"",""trial"",""time""
""fullscreenenter"",""1"",""1208""
","
","
","""event"",""trial"",""time""
""fullscreenenter"",""1"",""1208""
","
","","","933.7000000476837","","","19","10090","4711","j","elianto","#f73b6a7A"," "," ","1","0","[1787.2000000476837]","1","2","","","10090","25","0","3","lose","go","0"
"pit-trial","144","978478","0.0-30.0","battery-v0.2","","""event"",""trial"",""time""
""fullscreenenter"",""1"",""1208""
","
","
","""event"",""trial"",""time""
""fullscreenenter"",""1"",""1208""
","
","","","-1","","","19","10090","4711","w","elianto","#f73b6a7A","-1","-1","1","-10","[]","0","2","","","10090","26","3","4","lose","no-go","1"
"pit-trial","145","983344","0.0-31.0","battery-v0.2","","""event"",""trial"",""time""
""fullscreenenter"",""1"",""1208""
","
","
","""event"",""trial"",""time""
""fullscreenenter"",""1"",""1208""
","
","","","-1","","","19","10090","4711","d","elianto","#3366ff99","-1","-1","1","0","[]","0","2","","","10090","27","1","2","win","no-go","1"
"pit-trial","146","987069","0.0-32.0","battery-v0.2","","""event"",""trial"",""time""
""fullscreenenter"",""1"",""1208""
","
","
","""event"",""trial"",""time""
""fullscreenenter"",""1"",""1208""
","
","","","865.5","","","19","10090","4711","e","elianto","#f73b6a7A"," "," ","1","0","[1721.800000011921]","1","2","","","10090","28","2","3","lose","go","0"
"pit-trial","147","990617","0.0-33.0","battery-v0.2","","""event"",""trial"",""time""
""fullscreenenter"",""1"",""1208""
","
","
","""event"",""trial"",""time""
""fullscreenenter"",""1"",""1208""
","
","","","695.5","","","19","10090","4711","e","elianto","#f73b6a7A"," "," ","1","0","[1546.5]","1","2","","","10090","29","2","3","lose","go","0"
"pit-trial","148","994538","0.0-34.0","battery-v0.2","","""event"",""trial"",""time""
""fullscreenenter"",""1"",""1208""
","
","
","""event"",""trial"",""time""
""fullscreenenter"",""1"",""1208""
","
","","","1068.800000011921","","","19","10090","4711","w","elianto","#f73b6a7A","-1"," ","0","0","[1919]","1","2","","","10090","30","3","4","lose","no-go","1"
"pit-trial","149","998133","0.0-35.0","battery-v0.2","","""event"",""trial"",""time""
""fullscreenenter"",""1"",""1208""
","
","
","""event"",""trial"",""time""
""fullscreenenter"",""1"",""1208""
","
","","","742.4000000357628","","","19","10090","4711","j","elianto","#f73b6a7A"," "," ","1","0","[1593.800000011921]","1","2","","","10090","31","0","3","lose","go","0"
"pit-trial","150","1002401","0.0-36.0","battery-v0.2","","""event"",""trial"",""time""
""fullscreenenter"",""1"",""1208""
","
","
","""event"",""trial"",""time""
""fullscreenenter"",""1"",""1208""
","
","","","1415.300000011921","","","19","10090","4711","d","elianto","#3366ff99","-1"," ","0","0","[2265.599999964237]","1","2","","","10090","32","1","2","win","no-go","0"
"pit-trial","151","1006002","0.0-37.0","battery-v0.2","","""event"",""trial"",""time""
""fullscreenenter"",""1"",""1208""
","
","
","""event"",""trial"",""time""
""fullscreenenter"",""1"",""1208""
","
","","","749","","","19","10090","4711","w","elianto","#f73b6a7A","-1"," ","0","-10","[1599.6000000238419]","1","2","","","10090","33","3","4","lose","no-go","0"
"pit-trial","152","1009492","0.0-38.0","battery-v0.2","","""event"",""trial"",""time""
""fullscreenenter"",""1"",""1208""
","
","
","""event"",""trial"",""time""
""fullscreenenter"",""1"",""1208""
","
","","","636","","","19","10090","4711","e","elianto","#f73b6a7A"," "," ","1","0","[1487.5]","1","2","","","10090","34","2","3","lose","go","0"
"pit-trial","153","1014345","0.0-39.0","battery-v0.2","","""event"",""trial"",""time""
""fullscreenenter"",""1"",""1208""
","
","
","""event"",""trial"",""time""
""fullscreenenter"",""1"",""1208""
","
","","","-1","","","19","10090","4711","d","elianto","#3366ff99","-1","-1","1","+10","[]","0","2","","","10090","35","1","2","win","no-go","0"
"pit-trial","154","1017981","0.0-40.0","battery-v0.2","","""event"",""trial"",""time""
""fullscreenenter"",""1"",""1208""
","
","
","""event"",""trial"",""time""
""fullscreenenter"",""1"",""1208""
","
","","","782.1999999880791","","","19","10090","4711","j","elianto","#f73b6a7A"," "," ","1","0","[1633.2999999523163]","1","2","","","10090","36","0","3","lose","go","0"
"pit-trial","155","1021636","0.0-41.0","battery-v0.2","","""event"",""trial"",""time""
""fullscreenenter"",""1"",""1208""
","
","
","""event"",""trial"",""time""
""fullscreenenter"",""1"",""1208""
","
","","","802.2999999523163","","","19","10090","4711","e","elianto","#f73b6a7A"," "," ","1","0","[1653.199999988079]","1","2","","","10090","37","2","3","lose","go","0"
"pit-trial","156","1025227","0.0-42.0","battery-v0.2","","""event"",""trial"",""time""
""fullscreenenter"",""1"",""1208""
","
","
","""event"",""trial"",""time""
""fullscreenenter"",""1"",""1208""
","
","","","738.8000000119209","","","19","10090","4711","j","elianto","#f73b6a7A"," "," ","1","0","[1590.6000000238419]","1","2","","","10090","38","0","3","lose","go","0"
"pit-trial","157","1030080","0.0-43.0","battery-v0.2","","""event"",""trial"",""time""
""fullscreenenter"",""1"",""1208""
","
","
","""event"",""trial"",""time""
""fullscreenenter"",""1"",""1208""
","
","","","-1","","","19","10090","4711","d","elianto","#3366ff99","-1","-1","1","0","[]","0","2","","","10090","39","1","2","win","no-go","1"
"pit-trial","158","1034933","0.0-44.0","battery-v0.2","","""event"",""trial"",""time""
""fullscreenenter"",""1"",""1208""
","
","
","""event"",""trial"",""time""
""fullscreenenter"",""1"",""1208""
","
","","","-1","","","19","10090","4711","w","elianto","#f73b6a7A","-1","-1","1","0","[]","0","2","","","10090","40","3","4","lose","no-go","0"
"pit-trial","159","1039786","0.0-45.0","battery-v0.2","","""event"",""trial"",""time""
""fullscreenenter"",""1"",""1208""
","
","
","""event"",""trial"",""time""
""fullscreenenter"",""1"",""1208""
","
","","","-1","","","19","10090","4711","w","elianto","#f73b6a7A","-1","-1","1","-10","[]","0","2","","","10090","41","3","4","lose","no-go","1"
"pit-trial","160","1043395","0.0-46.0","battery-v0.2","","""event"",""trial"",""time""
""fullscreenenter"",""1"",""1208""
","
","
","""event"",""trial"",""time""
""fullscreenenter"",""1"",""1208""
","
","","","757","","","19","10090","4711","j","elianto","#f73b6a7A"," "," ","1","0","[1608.5]","1","2","","","10090","42","0","3","lose","go","0"
"pit-trial","161","1046885","0.0-47.0","battery-v0.2","","""event"",""trial"",""time""
""fullscreenenter"",""1"",""1208""
","
","
","""event"",""trial"",""time""
""fullscreenenter"",""1"",""1208""
","
","","","636.9000000357628","","","19","10090","4711","e","elianto","#f73b6a7A"," "," ","1","-10","[1487.2000000476837]","1","2","","","10090","43","2","3","lose","go","1"
"pit-trial","162","1051738","0.0-48.0","battery-v0.2","","""event"",""trial"",""time""
""fullscreenenter"",""1"",""1208""
","
","
","""event"",""trial"",""time""
""fullscreenenter"",""1"",""1208""
","
","","","-1","","","19","10090","4711","d","elianto","#3366ff99","-1","-1","1","+10","[]","0","2","","","10090","44","1","2","win","no-go","0"
"pit-trial","163","1055362","0.0-49.0","battery-v0.2","","""event"",""trial"",""time""
""fullscreenenter"",""1"",""1208""
","
","
","""event"",""trial"",""time""
""fullscreenenter"",""1"",""1208""
","
","","","770.5","","","19","10090","4711","j","elianto","#f73b6a7A"," "," ","1","0","[1621.699999988079]","1","2","","","10090","45","0","3","lose","go","0"
"pit-trial","164","1060214","0.0-50.0","battery-v0.2","","""event"",""trial"",""time""
""fullscreenenter"",""1"",""1208""
","
","
","""event"",""trial"",""time""
""fullscreenenter"",""1"",""1208""
","
","","","-1","","","19","10090","4711","w","elianto","#f73b6a7A","-1","-1","1","0","[]","0","2","","","10090","46","3","4","lose","no-go","0"
"pit-trial","165","1065067","0.0-51.0","battery-v0.2","","""event"",""trial"",""time""
""fullscreenenter"",""1"",""1208""
","
","
","""event"",""trial"",""time""
""fullscreenenter"",""1"",""1208""
","
","","","-1","","","19","10090","4711","d","elianto","#3366ff99","-1","-1","1","+10","[]","0","2","","","10090","47","1","2","win","no-go","0"
"pit-trial","166","1068457","0.0-52.0","battery-v0.2","","""event"",""trial"",""time""
""fullscreenenter"",""1"",""1208""
","
","
","""event"",""trial"",""time""
""fullscreenenter"",""1"",""1208""
","
","","","537.1999999880791","","","19","10090","4711","e","elianto","#f73b6a7A"," "," ","1","0","[1388.1000000238419]","1","2","","","10090","48","2","3","lose","go","0"
"pit-trial","167","1073309","0.0-53.0","battery-v0.2","","""event"",""trial"",""time""
""fullscreenenter"",""1"",""1208""
","
","
","""event"",""trial"",""time""
""fullscreenenter"",""1"",""1208""
","
","","","-1","","","19","10090","4711","w","elianto","#f73b6a7A","-1","-1","1","0","[]","0","2","","","10090","49","3","4","lose","no-go","0"
"pit-trial","168","1077241","0.0-54.0","battery-v0.2","","""event"",""trial"",""time""
""fullscreenenter"",""1"",""1208""
","
","
","""event"",""trial"",""time""
""fullscreenenter"",""1"",""1208""
","
","","","1079","","","19","10090","4711","e","elianto","#f73b6a7A"," "," ","1","0","[1929.699999988079]","1","2","","","10090","50","2","3","lose","go","0"
"pit-trial","169","1082094","0.0-55.0","battery-v0.2","","""event"",""trial"",""time""
""fullscreenenter"",""1"",""1208""
","
","
","""event"",""trial"",""time""
""fullscreenenter"",""1"",""1208""
","
","","","-1","","","19","10090","4711","d","elianto","#3366ff99","-1","-1","1","+10","[]","0","2","","","10090","51","1","2","win","no-go","0"
"pit-trial","170","1085731","0.0-56.0","battery-v0.2","","""event"",""trial"",""time""
""fullscreenenter"",""1"",""1208""
","
","
","""event"",""trial"",""time""
""fullscreenenter"",""1"",""1208""
","
","","","784.5999999642372","","","19","10090","4711","j","elianto","#f73b6a7A"," "," ","1","0","[1635.5]","1","2","","","10090","52","0","3","lose","go","0"
"pit-trial","171","1090583","0.0-57.0","battery-v0.2","","""event"",""trial"",""time""
""fullscreenenter"",""1"",""1208""
","
","
","""event"",""trial"",""time""
""fullscreenenter"",""1"",""1208""
","
","","","-1","","","19","10090","4711","d","elianto","#3366ff99","-1","-1","1","0","[]","0","2","","","10090","53","1","2","win","no-go","1"
"pit-trial","172","1094022","0.0-58.0","battery-v0.2","","""event"",""trial"",""time""
""fullscreenenter"",""1"",""1208""
","
","
","""event"",""trial"",""time""
""fullscreenenter"",""1"",""1208""
","
","","","585.3000000119209","","","19","10090","4711","e","elianto","#f73b6a7A"," "," ","1","0","[1436]","1","2","","","10090","54","2","3","lose","go","0"
"pit-trial","173","1097478","0.0-59.0","battery-v0.2","","""event"",""trial"",""time""
""fullscreenenter"",""1"",""1208""
","
","
","""event"",""trial"",""time""
""fullscreenenter"",""1"",""1208""
","
","","","603.4000000357628","","","19","10090","4711","j","elianto","#f73b6a7A"," "," ","1","0","[1453.8999999761581]","1","2","","","10090","55","0","3","lose","go","0"
"pit-trial","174","1102330","0.0-60.0","battery-v0.2","","""event"",""trial"",""time""
""fullscreenenter"",""1"",""1208""
","
","
","""event"",""trial"",""time""
""fullscreenenter"",""1"",""1208""
","
","","","-1","","","19","10090","4711","w","elianto","#f73b6a7A","-1","-1","1","0","[]","0","2","","","10090","56","3","4","lose","no-go","0"
"pit-trial","175","1106593","0.0-61.0","battery-v0.2","","""event"",""trial"",""time""
""fullscreenenter"",""1"",""1208""
","
","
","""event"",""trial"",""time""
""fullscreenenter"",""1"",""1208""
","
","","","1404.300000011921","","","19","10090","4711","s","elianto","#3366ff99"," "," ","1","+10","[2255.400000035763]","1","2","","","10090","57","4","1","win","go","0"
"pit-trial","176","1111445","0.0-62.0","battery-v0.2","","""event"",""trial"",""time""
""fullscreenenter"",""1"",""1208""
","
","
","""event"",""trial"",""time""
""fullscreenenter"",""1"",""1208""
","
","","","-1","","","19","10090","4711","w","elianto","#f73b6a7A","-1","-1","1","0","[]","0","2","","","10090","58","3","4","lose","no-go","0"
"pit-trial","177","1115282","0.0-63.0","battery-v0.2","","""event"",""trial"",""time""
""fullscreenenter"",""1"",""1208""
","
","
","""event"",""trial"",""time""
""fullscreenenter"",""1"",""1208""
","
","","","984.0999999642372","","","19","10090","4711","j","elianto","#f73b6a7A"," "," ","1","0","[1835.0999999642372]","1","2","","","10090","59","0","3","lose","go","0"
"pit-trial","178","1118871","0.0-64.0","battery-v0.2","","""event"",""trial"",""time""
""fullscreenenter"",""1"",""1208""
","
","
","""event"",""trial"",""time""
""fullscreenenter"",""1"",""1208""
","
","","","738","","","19","10090","4711","e","elianto","#f73b6a7A"," "," ","1","0","[1588.0999999642372]","1","2","","","10090","60","2","3","lose","go","0"
"pit-trial","179","1122702","0.0-65.0","battery-v0.2","","""event"",""trial"",""time""
""fullscreenenter"",""1"",""1208""
","
","
","""event"",""trial"",""time""
""fullscreenenter"",""1"",""1208""
","
","","","978.1999999880791","","","19","10090","4711","s","elianto","#3366ff99"," "," ","1","+10","[1829.300000011921]","1","2","","","10090","61","4","1","win","go","0"
"pit-trial","180","1127555","0.0-66.0","battery-v0.2","","""event"",""trial"",""time""
""fullscreenenter"",""1"",""1208""
","
","
","""event"",""trial"",""time""
""fullscreenenter"",""1"",""1208""
","
","","","-1","","","19","10090","4711","d","elianto","#3366ff99","-1","-1","1","+10","[]","0","2","","","10090","62","1","2","win","no-go","0"
"pit-trial","181","1132408","0.0-67.0","battery-v0.2","","""event"",""trial"",""time""
""fullscreenenter"",""1"",""1208""
","
","
","""event"",""trial"",""time""
""fullscreenenter"",""1"",""1208""
","
","","","-1","","","19","10090","4711","w","elianto","#f73b6a7A","-1","-1","1","0","[]","0","2","","","10090","63","3","4","lose","no-go","0"
"pit-trial","182","1135860","0.0-68.0","battery-v0.2","","""event"",""trial"",""time""
""fullscreenenter"",""1"",""1208""
","
","
","""event"",""trial"",""time""
""fullscreenenter"",""1"",""1208""
","
","","","594.8000000119209","","","19","10090","4711","e","elianto","#f73b6a7A"," "," ","1","-10","[1445.5]","1","2","","","10090","64","2","3","lose","go","1"
"pit-trial","183","1140714","0.0-69.0","battery-v0.2","","""event"",""trial"",""time""
""fullscreenenter"",""1"",""1208""
","
","
","""event"",""trial"",""time""
""fullscreenenter"",""1"",""1208""
","
","","","-1","","","19","10090","4711","d","elianto","#3366ff99","-1","-1","1","0","[]","0","2","","","10090","65","1","2","win","no-go","1"
"pit-trial","184","1144535","0.0-70.0","battery-v0.2","","""event"",""trial"",""time""
""fullscreenenter"",""1"",""1208""
","
","
","""event"",""trial"",""time""
""fullscreenenter"",""1"",""1208""
","
","","","969.3999999761581","","","19","10090","4711","p","elianto","#3366ff99","-1"," ","0","+10","[1819.699999988079]","1","2","","","10090","66","5","2","win","no-go","1"
"pit-trial","185","1148241","0.0-71.0","battery-v0.2","","""event"",""trial"",""time""
""fullscreenenter"",""1"",""1208""
","
","
","""event"",""trial"",""time""
""fullscreenenter"",""1"",""1208""
","
","","","854","","","19","10090","4711","s","elianto","#3366ff99"," "," ","1","0","[1704.9000000357628]","1","2","","","10090","67","4","1","win","go","1"
"pit-trial","186","1153094","0.0-72.0","battery-v0.2","","""event"",""trial"",""time""
""fullscreenenter"",""1"",""1208""
","
","
","""event"",""trial"",""time""
""fullscreenenter"",""1"",""1208""
","
","","","-1","","","19","10090","4711","w","elianto","#f73b6a7A","-1","-1","1","-10","[]","0","2","","","10090","68","3","4","lose","no-go","1"
"pit-trial","187","1156590","0.0-73.0","battery-v0.2","","""event"",""trial"",""time""
""fullscreenenter"",""1"",""1208""
","
","
","""event"",""trial"",""time""
""fullscreenenter"",""1"",""1208""
","
","","","643.8999999761581","","","19","10090","4711","e","elianto","#f73b6a7A"," "," ","1","0","[1495]","1","2","","","10090","69","2","3","lose","go","0"
"pit-trial","188","1161443","0.0-74.0","battery-v0.2","","""event"",""trial"",""time""
""fullscreenenter"",""1"",""1208""
","
","
","""event"",""trial"",""time""
""fullscreenenter"",""1"",""1208""
","
","","","-1","","","19","10090","4711","d","elianto","#3366ff99","-1","-1","1","+10","[]","0","2","","","10090","70","1","2","win","no-go","0"
"pit-trial","189","1165272","0.0-75.0","battery-v0.2","","""event"",""trial"",""time""
""fullscreenenter"",""1"",""1208""
","
","
","""event"",""trial"",""time""
""fullscreenenter"",""1"",""1208""
","
","","","976.6999999880791","","","19","10090","4711","p","elianto","#3366ff99","-1"," ","0","0","[1827.5999999642372]","1","2","","","10090","71","5","2","win","no-go","0"
"pit-trial","190","1168986","0.0-76.0","battery-v0.2","","""event"",""trial"",""time""
""fullscreenenter"",""1"",""1208""
","
","
","""event"",""trial"",""time""
""fullscreenenter"",""1"",""1208""
","
","","","863","","","19","10090","4711","s","elianto","#3366ff99"," "," ","1","+10","[1713.5]","1","2","","","10090","72","4","1","win","go","0"
"pit-trial","191","1172460","0.0-77.0","battery-v0.2","","""event"",""trial"",""time""
""fullscreenenter"",""1"",""1208""
","
","
","""event"",""trial"",""time""
""fullscreenenter"",""1"",""1208""
","
","","","620.1000000238419","","","19","10090","4711","s","elianto","#3366ff99"," "," ","1","0","[1471.5]","1","2","","","10090","73","4","1","win","go","1"
"pit-trial","192","1177312","0.0-78.0","battery-v0.2","","""event"",""trial"",""time""
""fullscreenenter"",""1"",""1208""
","
","
","""event"",""trial"",""time""
""fullscreenenter"",""1"",""1208""
","
","","","-1","","","19","10090","4711","w","elianto","#f73b6a7A","-1","-1","1","0","[]","0","2","","","10090","74","3","4","lose","no-go","0"
"pit-trial","193","1182164","0.0-79.0","battery-v0.2","","""event"",""trial"",""time""
""fullscreenenter"",""1"",""1208""
","
","
","""event"",""trial"",""time""
""fullscreenenter"",""1"",""1208""
","
","","","-1","","","19","10090","4711","p","elianto","#3366ff99","-1","-1","1","+10","[]","0","2","","","10090","75","5","2","win","no-go","0"
"pit-trial","194","1187016","0.0-80.0","battery-v0.2","","""event"",""trial"",""time""
""fullscreenenter"",""1"",""1208""
","
","
","""event"",""trial"",""time""
""fullscreenenter"",""1"",""1208""
","
","","","-1","","","19","10090","4711","d","elianto","#3366ff99","-1","-1","1","0","[]","0","2","","","10090","76","1","2","win","no-go","1"
"pit-trial","195","1191308","0.0-81.0","battery-v0.2","","""event"",""trial"",""time""
""fullscreenenter"",""1"",""1208""
","
","
","""event"",""trial"",""time""
""fullscreenenter"",""1"",""1208""
","
","","","1438.9000000357628","","","19","10090","4711","s","elianto","#3366ff99"," "," ","1","+10","[2289.300000011921]","1","2","","","10090","77","4","1","win","go","0"
"pit-trial","196","1196159","0.0-82.0","battery-v0.2","","""event"",""trial"",""time""
""fullscreenenter"",""1"",""1208""
","
","
","""event"",""trial"",""time""
""fullscreenenter"",""1"",""1208""
","
","","","-1","","","19","10090","4711","w","elianto","#f73b6a7A","-1","-1","1","0","[]","0","2","","","10090","78","3","4","lose","no-go","0"
"pit-trial","197","1200550","0.0-83.0","battery-v0.2","","""event"",""trial"",""time""
""fullscreenenter"",""1"",""1208""
","
","
","""event"",""trial"",""time""
""fullscreenenter"",""1"",""1208""
","
","","","1537.800000011921","","","19","10090","4711","s","elianto","#3366ff99"," "," ","1","0","[2388.800000011921]","1","2","","","10090","79","4","1","win","go","1"
"pit-trial","198","1205403","0.0-84.0","battery-v0.2","","""event"",""trial"",""time""
""fullscreenenter"",""1"",""1208""
","
","
","""event"",""trial"",""time""
""fullscreenenter"",""1"",""1208""
","
","","","-1","","","19","10090","4711","p","elianto","#3366ff99","-1","-1","1","+10","[]","0","2","","","10090","80","5","2","win","no-go","0"
"pit-trial","199","1210255","0.0-85.0","battery-v0.2","","""event"",""trial"",""time""
""fullscreenenter"",""1"",""1208""
","
","
","""event"",""trial"",""time""
""fullscreenenter"",""1"",""1208""
","
","","","-1","","","19","10090","4711","p","elianto","#3366ff99","-1","-1","1","+10","[]","0","2","","","10090","81","5","2","win","no-go","0"
"pit-trial","200","1214397","0.0-86.0","battery-v0.2","","""event"",""trial"",""time""
""fullscreenenter"",""1"",""1208""
","
","
","""event"",""trial"",""time""
""fullscreenenter"",""1"",""1208""
","
","","","1288.3999999761581","","","19","10090","4711","s","elianto","#3366ff99"," "," ","1","+10","[2139.099999964237]","1","2","","","10090","82","4","1","win","go","0"
"pit-trial","201","1219015","0.0-87.0","battery-v0.2","","""event"",""trial"",""time""
""fullscreenenter"",""1"",""1208""
","
","
","""event"",""trial"",""time""
""fullscreenenter"",""1"",""1208""
","
","","","1763.800000011921","","","19","10090","4711","a","elianto","#f73b6a7A","-1"," ","0","-10","[2615.599999964237]","1","2","","","10090","83","7","4","lose","no-go","0"
"pit-trial","202","1223868","0.0-88.0","battery-v0.2","","""event"",""trial"",""time""
""fullscreenenter"",""1"",""1208""
","
","
","""event"",""trial"",""time""
""fullscreenenter"",""1"",""1208""
","
","","","-1","","","19","10090","4711","w","elianto","#f73b6a7A","-1","-1","1","0","[]","0","2","","","10090","84","3","4","lose","no-go","0"
"pit-trial","203","1228721","0.0-89.0","battery-v0.2","","""event"",""trial"",""time""
""fullscreenenter"",""1"",""1208""
","
","
","""event"",""trial"",""time""
""fullscreenenter"",""1"",""1208""
","
","","","-1","","","19","10090","4711","p","elianto","#3366ff99","-1","-1","1","+10","[]","0","2","","","10090","85","5","2","win","no-go","0"
"pit-trial","204","1232270","0.0-90.0","battery-v0.2","","""event"",""trial"",""time""
""fullscreenenter"",""1"",""1208""
","
","
","""event"",""trial"",""time""
""fullscreenenter"",""1"",""1208""
","
","","","695.8999999761581","","","19","10090","4711","a","elianto","#f73b6a7A","-1"," ","0","-10","[1546.800000011921]","1","2","","","10090","86","7","4","lose","no-go","0"
"pit-trial","205","1236137","0.0-91.0","battery-v0.2","","""event"",""trial"",""time""
""fullscreenenter"",""1"",""1208""
","
","
","""event"",""trial"",""time""
""fullscreenenter"",""1"",""1208""
","
","","","1014.6999999880791","","","19","10090","4711","g","elianto","#f73b6a7A"," "," ","1","0","[1865.300000011921]","1","2","","","10090","87","6","3","lose","go","0"
"pit-trial","206","1240155","0.0-92.0","battery-v0.2","","""event"",""trial"",""time""
""fullscreenenter"",""1"",""1208""
","
","
","""event"",""trial"",""time""
""fullscreenenter"",""1"",""1208""
","
","","","1164.9000000357628","","","19","10090","4711","s","elianto","#3366ff99"," "," ","1","0","[2015.800000011921]","1","2","","","10090","88","4","1","win","go","1"
"pit-trial","207","1243891","0.0-93.0","battery-v0.2","","""event"",""trial"",""time""
""fullscreenenter"",""1"",""1208""
","
","
","""event"",""trial"",""time""
""fullscreenenter"",""1"",""1208""
","
","","","885.1000000238419","","","19","10090","4711","g","elianto","#f73b6a7A"," "," ","1","0","[1735.7000000476837]","1","2","","","10090","89","6","3","lose","go","0"
"pit-trial","208","1248744","0.0-94.0","battery-v0.2","","""event"",""trial"",""time""
""fullscreenenter"",""1"",""1208""
","
","
","""event"",""trial"",""time""
""fullscreenenter"",""1"",""1208""
","
","","","-1","","","19","10090","4711","p","elianto","#3366ff99","-1","-1","1","0","[]","0","2","","","10090","90","5","2","win","no-go","1"
"pit-trial","209","1253597","0.0-95.0","battery-v0.2","","""event"",""trial"",""time""
""fullscreenenter"",""1"",""1208""
","
","
","""event"",""trial"",""time""
""fullscreenenter"",""1"",""1208""
","
","","","-1","","","19","10090","4711","a","elianto","#f73b6a7A","-1","-1","1","0","[]","0","2","","","10090","91","7","4","lose","no-go","0"
"pit-trial","210","1257348","0.0-96.0","battery-v0.2","","""event"",""trial"",""time""
""fullscreenenter"",""1"",""1208""
","
","
","""event"",""trial"",""time""
""fullscreenenter"",""1"",""1208""
","
","","","898.8999999761581","","","19","10090","4711","s","elianto","#3366ff99"," "," ","1","+10","[1749.5]","1","2","","","10090","92","4","1","win","go","0"
"pit-trial","211","1261315","0.0-97.0","battery-v0.2","","""event"",""trial"",""time""
""fullscreenenter"",""1"",""1208""
","
","
","""event"",""trial"",""time""
""fullscreenenter"",""1"",""1208""
","
","","","1113.5999999642372","","","19","10090","4711","l","elianto","#3366ff99"," "," ","1","+10","[1964.199999988079]","1","2","","","10090","93","8","1","win","go","0"
"pit-trial","212","1266167","0.0-98.0","battery-v0.2","","""event"",""trial"",""time""
""fullscreenenter"",""1"",""1208""
","
","
","""event"",""trial"",""time""
""fullscreenenter"",""1"",""1208""
","
","","","-1","","","19","10090","4711","a","elianto","#f73b6a7A","-1","-1","1","0","[]","0","2","","","10090","94","7","4","lose","no-go","0"
"pit-trial","213","1270561","0.0-99.0","battery-v0.2","","""event"",""trial"",""time""
""fullscreenenter"",""1"",""1208""
","
","
","""event"",""trial"",""time""
""fullscreenenter"",""1"",""1208""
","
","","","1541.699999988079","","","19","10090","4711","g","elianto","#f73b6a7A"," "," ","1","0","[2392.300000011921]","1","2","","","10090","95","6","3","lose","go","0"
"pit-trial","214","1275413","0.0-100.0","battery-v0.2","","""event"",""trial"",""time""
""fullscreenenter"",""1"",""1208""
","
","
","""event"",""trial"",""time""
""fullscreenenter"",""1"",""1208""
","
","","","-1","","","19","10090","4711","p","elianto","#3366ff99","-1","-1","1","+10","[]","0","2","","","10090","96","5","2","win","no-go","0"
"pit-trial","215","1280265","0.0-101.0","battery-v0.2","","""event"",""trial"",""time""
""fullscreenenter"",""1"",""1208""
","
","
","""event"",""trial"",""time""
""fullscreenenter"",""1"",""1208""
","
","","","-1","","","19","10090","4711","a","elianto","#f73b6a7A","-1","-1","1","0","[]","0","2","","","10090","97","7","4","lose","no-go","0"
"pit-trial","216","1284329","0.0-102.0","battery-v0.2","","""event"",""trial"",""time""
""fullscreenenter"",""1"",""1208""
","
","
","""event"",""trial"",""time""
""fullscreenenter"",""1"",""1208""
","
","","","1210.3999999761581","","","19","10090","4711","l","elianto","#3366ff99"," "," ","1","+10","[2061.199999988079]","1","2","","","10090","98","8","1","win","go","0"
"pit-trial","217","1288003","0.0-103.0","battery-v0.2","","""event"",""trial"",""time""
""fullscreenenter"",""1"",""1208""
","
","
","""event"",""trial"",""time""
""fullscreenenter"",""1"",""1208""
","
","","","819.7999999523163","","","19","10090","4711","g","elianto","#f73b6a7A"," "," ","1","0","[1671.5]","1","2","","","10090","99","6","3","lose","go","0"
"pit-trial","218","1292855","0.0-104.0","battery-v0.2","","""event"",""trial"",""time""
""fullscreenenter"",""1"",""1208""
","
","
","""event"",""trial"",""time""
""fullscreenenter"",""1"",""1208""
","
","","","-1","","","19","10090","4711","p","elianto","#3366ff99","-1","-1","1","0","[]","0","2","","","10090","100","5","2","win","no-go","1"
"pit-trial","219","1297709","0.0-105.0","battery-v0.2","","""event"",""trial"",""time""
""fullscreenenter"",""1"",""1208""
","
","
","""event"",""trial"",""time""
""fullscreenenter"",""1"",""1208""
","
","","","-1","","","19","10090","4711","p","elianto","#3366ff99","-1","-1","1","+10","[]","0","2","","","10090","101","5","2","win","no-go","0"
"pit-trial","220","1302561","0.0-106.0","battery-v0.2","","""event"",""trial"",""time""
""fullscreenenter"",""1"",""1208""
","
","
","""event"",""trial"",""time""
""fullscreenenter"",""1"",""1208""
","
","","","-1","","","19","10090","4711","a","elianto","#f73b6a7A","-1","-1","1","0","[]","0","2","","","10090","102","7","4","lose","no-go","0"
"pit-trial","221","1306442","0.0-107.0","battery-v0.2","","""event"",""trial"",""time""
""fullscreenenter"",""1"",""1208""
","
","
","""event"",""trial"",""time""
""fullscreenenter"",""1"",""1208""
","
","","","1027.5","","","19","10090","4711","l","elianto","#3366ff99"," "," ","1","+10","[1878.3999999761581]","1","2","","","10090","103","8","1","win","go","0"
"pit-trial","222","1310362","0.0-108.0","battery-v0.2","","""event"",""trial"",""time""
""fullscreenenter"",""1"",""1208""
","
","
","""event"",""trial"",""time""
""fullscreenenter"",""1"",""1208""
","
","","","1067.8999999761581","","","19","10090","4711","u","elianto","#3366ff99"," "," ","1","+10","[1918.7000000476837]","1","2","","","10090","104","9","1","win","go","0"
"pit-trial","223","1314264","0.0-109.0","battery-v0.2","","""event"",""trial"",""time""
""fullscreenenter"",""1"",""1208""
","
","
","""event"",""trial"",""time""
""fullscreenenter"",""1"",""1208""
","
","","","1049.199999988079","","","19","10090","4711","u","elianto","#3366ff99"," "," ","1","+10","[1900.300000011921]","1","2","","","10090","105","9","1","win","go","0"
"pit-trial","224","1319116","0.0-110.0","battery-v0.2","","""event"",""trial"",""time""
""fullscreenenter"",""1"",""1208""
","
","
","""event"",""trial"",""time""
""fullscreenenter"",""1"",""1208""
","
","","","-1","","","19","10090","4711","s","elianto","#3366ff99"," ","-1","0","+10","[3689]","1","2","","","10090","106","4","1","win","go","1"
"pit-trial","225","1323849","0.0-111.0","battery-v0.2","","""event"",""trial"",""time""
""fullscreenenter"",""1"",""1208""
","
","
","""event"",""trial"",""time""
""fullscreenenter"",""1"",""1208""
","
","","","1881","","","19","10090","4711","l","elianto","#3366ff99"," "," ","1","+10","[2731]","1","2","","","10090","107","8","1","win","go","0"
"pit-trial","226","1328230","0.0-112.0","battery-v0.2","","""event"",""trial"",""time""
""fullscreenenter"",""1"",""1208""
","
","
","""event"",""trial"",""time""
""fullscreenenter"",""1"",""1208""
","
","","","1529.3999999761581","","","19","10090","4711","g","elianto","#f73b6a7A"," "," ","1","-10","[2379.599999964237]","1","2","","","10090","108","6","3","lose","go","1"
"pit-trial","227","1333083","0.0-113.0","battery-v0.2","","""event"",""trial"",""time""
""fullscreenenter"",""1"",""1208""
","
","
","""event"",""trial"",""time""
""fullscreenenter"",""1"",""1208""
","
","","","-1","","","19","10090","4711","p","elianto","#3366ff99","-1","-1","1","+10","[]","0","2","","","10090","109","5","2","win","no-go","0"
"pit-trial","228","1337356","0.0-114.0","battery-v0.2","","""event"",""trial"",""time""
""fullscreenenter"",""1"",""1208""
","
","
","""event"",""trial"",""time""
""fullscreenenter"",""1"",""1208""
","
","","","1420.5999999642372","","","19","10090","4711","l","elianto","#3366ff99"," "," ","1","0","[2271.300000011921]","1","2","","","10090","110","8","1","win","go","1"
"pit-trial","229","1341110","0.0-115.0","battery-v0.2","","""event"",""trial"",""time""
""fullscreenenter"",""1"",""1208""
","
","
","""event"",""trial"",""time""
""fullscreenenter"",""1"",""1208""
","
","","","901.6000000238419","","","19","10090","4711","u","elianto","#3366ff99"," "," ","1","+10","[1752.6000000238419]","1","2","","","10090","111","9","1","win","go","0"
"pit-trial","230","1345069","0.0-116.0","battery-v0.2","","""event"",""trial"",""time""
""fullscreenenter"",""1"",""1208""
","
","
","""event"",""trial"",""time""
""fullscreenenter"",""1"",""1208""
","
","","","1105","","","19","10090","4711","g","elianto","#f73b6a7A"," "," ","1","0","[1957.0999999642372]","1","2","","","10090","112","6","3","lose","go","0"
"pit-trial","231","1348536","0.0-117.0","battery-v0.2","","""event"",""trial"",""time""
""fullscreenenter"",""1"",""1208""
","
","
","""event"",""trial"",""time""
""fullscreenenter"",""1"",""1208""
","
","","","614.4000000357628","","","19","10090","4711","g","elianto","#f73b6a7A"," "," ","1","0","[1465.300000011921]","1","2","","","10090","113","6","3","lose","go","0"
"pit-trial","232","1353388","0.0-118.0","battery-v0.2","","""event"",""trial"",""time""
""fullscreenenter"",""1"",""1208""
","
","
","""event"",""trial"",""time""
""fullscreenenter"",""1"",""1208""
","
","","","-1","","","19","10090","4711","p","elianto","#3366ff99","-1","-1","1","+10","[]","0","2","","","10090","114","5","2","win","no-go","0"
"pit-trial","233","1357496","0.0-119.0","battery-v0.2","","""event"",""trial"",""time""
""fullscreenenter"",""1"",""1208""
","
","
","""event"",""trial"",""time""
""fullscreenenter"",""1"",""1208""
","
","","","1255.300000011921","","","19","10090","4711","u","elianto","#3366ff99"," "," ","1","+10","[2106]","1","2","","","10090","115","9","1","win","go","0"
"pit-trial","234","1362245","0.0-120.0","battery-v0.2","","""event"",""trial"",""time""
""fullscreenenter"",""1"",""1208""
","
","
","""event"",""trial"",""time""
""fullscreenenter"",""1"",""1208""
","
","","","1895.8999999761581","","","19","10090","4711","l","elianto","#3366ff99"," "," ","1","0","[2746.7000000476837]","1","2","","","10090","116","8","1","win","go","1"
"pit-trial","235","1367098","0.0-121.0","battery-v0.2","","""event"",""trial"",""time""
""fullscreenenter"",""1"",""1208""
","
","
","""event"",""trial"",""time""
""fullscreenenter"",""1"",""1208""
","
","","","-1","","","19","10090","4711","l","elianto","#3366ff99"," ","-1","0","0","[]","0","2","","","10090","117","8","1","win","go","0"
"pit-trial","236","1371950","0.0-122.0","battery-v0.2","","""event"",""trial"",""time""
""fullscreenenter"",""1"",""1208""
","
","
","""event"",""trial"",""time""
""fullscreenenter"",""1"",""1208""
","
","","","-1","","","19","10090","4711","p","elianto","#3366ff99","-1","-1","1","+10","[]","0","2","","","10090","118","5","2","win","no-go","0"
"pit-trial","237","1375962","0.0-123.0","battery-v0.2","","""event"",""trial"",""time""
""fullscreenenter"",""1"",""1208""
","
","
","""event"",""trial"",""time""
""fullscreenenter"",""1"",""1208""
","
","","","1159","","","19","10090","4711","u","elianto","#3366ff99"," "," ","1","+10","[2010.1000000238419]","1","2","","","10090","119","9","1","win","go","0"
"pit-trial","238","1379926","0.0-124.0","battery-v0.2","","""event"",""trial"",""time""
""fullscreenenter"",""1"",""1208""
","
","
","""event"",""trial"",""time""
""fullscreenenter"",""1"",""1208""
","
","","","1112.699999988079","","","19","10090","4711","g","elianto","#f73b6a7A"," "," ","1","0","[1963.199999988079]","1","2","","","10090","120","6","3","lose","go","0"
"pit-trial","239","1383418","0.0-125.0","battery-v0.2","","""event"",""trial"",""time""
""fullscreenenter"",""1"",""1208""
","
","
","""event"",""trial"",""time""
""fullscreenenter"",""1"",""1208""
","
","","","637.5","","","19","10090","4711","g","elianto","#f73b6a7A"," "," ","1","0","[1489.1000000238419]","1","2","","","10090","121","6","3","lose","go","0"
"pit-trial","240","1387080","0.0-126.0","battery-v0.2","","""event"",""trial"",""time""
""fullscreenenter"",""1"",""1208""
","
","
","""event"",""trial"",""time""
""fullscreenenter"",""1"",""1208""
","
","","","809","","","19","10090","4711","l","elianto","#3366ff99"," "," ","1","+10","[1660.199999988079]","1","2","","","10090","122","8","1","win","go","0"
"pit-trial","241","1390844","0.0-127.0","battery-v0.2","","""event"",""trial"",""time""
""fullscreenenter"",""1"",""1208""
","
","
","""event"",""trial"",""time""
""fullscreenenter"",""1"",""1208""
","
","","","911.1999999880791","","","19","10090","4711","u","elianto","#3366ff99"," "," ","1","0","[1762.1000000238419]","1","2","","","10090","123","9","1","win","go","1"
"pit-trial","242","1395697","0.0-128.0","battery-v0.2","","""event"",""trial"",""time""
""fullscreenenter"",""1"",""1208""
","
","
","""event"",""trial"",""time""
""fullscreenenter"",""1"",""1208""
","
","","","-1","","","19","10090","4711","a","elianto","#f73b6a7A","-1","-1","1","0","[]","0","2","","","10090","124","7","4","lose","no-go","0"
"pit-trial","243","1400551","0.0-129.0","battery-v0.2","","""event"",""trial"",""time""
""fullscreenenter"",""1"",""1208""
","
","
","""event"",""trial"",""time""
""fullscreenenter"",""1"",""1208""
","
","","","-1","","","19","10090","4711","a","elianto","#f73b6a7A","-1","-1","1","0","[]","0","2","","","10090","125","7","4","lose","no-go","0"
"pit-trial","244","1404086","0.0-130.0","battery-v0.2","","""event"",""trial"",""time""
""fullscreenenter"",""1"",""1208""
","
","
","""event"",""trial"",""time""
""fullscreenenter"",""1"",""1208""
","
","","","682.0999999642372","","","19","10090","4711","l","elianto","#3366ff99"," "," ","1","+10","[1533.199999988079]","1","2","","","10090","126","8","1","win","go","0"
"pit-trial","245","1407863","0.0-131.0","battery-v0.2","","""event"",""trial"",""time""
""fullscreenenter"",""1"",""1208""
","
","
","""event"",""trial"",""time""
""fullscreenenter"",""1"",""1208""
","
","","","923.4000000357628","","","19","10090","4711","g","elianto","#f73b6a7A"," "," ","1","0","[1773.9000000357628]","1","2","","","10090","127","6","3","lose","go","0"
"pit-trial","246","1411495","0.0-132.0","battery-v0.2","","""event"",""trial"",""time""
""fullscreenenter"",""1"",""1208""
","
","
","""event"",""trial"",""time""
""fullscreenenter"",""1"",""1208""
","
","","","779.9000000357628","","","19","10090","4711","u","elianto","#3366ff99"," "," ","1","+10","[1630.300000011921]","1","2","","","10090","128","9","1","win","go","0"
"pit-trial","247","1415020","0.0-133.0","battery-v0.2","","""event"",""trial"",""time""
""fullscreenenter"",""1"",""1208""
","
","
","""event"",""trial"",""time""
""fullscreenenter"",""1"",""1208""
","
","","","672.6999999880791","","","19","10090","4711","g","elianto","#f73b6a7A"," "," ","1","0","[1523.199999988079]","1","2","","","10090","129","6","3","lose","go","0"
"pit-trial","248","1418627","0.0-134.0","battery-v0.2","","""event"",""trial"",""time""
""fullscreenenter"",""1"",""1208""
","
","
","""event"",""trial"",""time""
""fullscreenenter"",""1"",""1208""
","
","","","755.2000000476837","","","19","10090","4711","l","elianto","#3366ff99"," "," ","1","+10","[1605.7000000476837]","1","2","","","10090","130","8","1","win","go","0"
"pit-trial","249","1422212","0.0-135.0","battery-v0.2","","""event"",""trial"",""time""
""fullscreenenter"",""1"",""1208""
","
","
","""event"",""trial"",""time""
""fullscreenenter"",""1"",""1208""
","
","","","730.3999999761581","","","19","10090","4711","u","elianto","#3366ff99"," "," ","1","+10","[1582.0999999642372]","1","2","","","10090","131","9","1","win","go","0"
"pit-trial","250","1427064","0.0-136.0","battery-v0.2","","""event"",""trial"",""time""
""fullscreenenter"",""1"",""1208""
","
","
","""event"",""trial"",""time""
""fullscreenenter"",""1"",""1208""
","
","","","-1","","","19","10090","4711","a","elianto","#f73b6a7A","-1","-1","1","0","[]","0","2","","","10090","132","7","4","lose","no-go","0"
"pit-trial","251","1430544","0.0-137.0","battery-v0.2","","""event"",""trial"",""time""
""fullscreenenter"",""1"",""1208""
","
","
","""event"",""trial"",""time""
""fullscreenenter"",""1"",""1208""
","
","","","625.8000000119209","","","19","10090","4711","g","elianto","#f73b6a7A"," "," ","1","0","[1476.5]","1","2","","","10090","133","6","3","lose","go","0"
"pit-trial","252","1435397","0.0-138.0","battery-v0.2","","""event"",""trial"",""time""
""fullscreenenter"",""1"",""1208""
","
","
","""event"",""trial"",""time""
""fullscreenenter"",""1"",""1208""
","
","","","-1","","","19","10090","4711","a","elianto","#f73b6a7A","-1","-1","1","-10","[]","0","2","","","10090","134","7","4","lose","no-go","1"
"pit-trial","253","1439011","0.0-139.0","battery-v0.2","","""event"",""trial"",""time""
""fullscreenenter"",""1"",""1208""
","
","
","""event"",""trial"",""time""
""fullscreenenter"",""1"",""1208""
","
","","","761.8000000119209","","","19","10090","4711","l","elianto","#3366ff99"," "," ","1","+10","[1612.2000000476837]","1","2","","","10090","135","8","1","win","go","0"
"pit-trial","254","1442455","0.0-140.0","battery-v0.2","","""event"",""trial"",""time""
""fullscreenenter"",""1"",""1208""
","
","
","""event"",""trial"",""time""
""fullscreenenter"",""1"",""1208""
","
","","","590","","","19","10090","4711","u","elianto","#3366ff99"," "," ","1","+10","[1441.1000000238419]","1","2","","","10090","136","9","1","win","go","0"
"pit-trial","255","1445893","0.0-141.0","battery-v0.2","","""event"",""trial"",""time""
""fullscreenenter"",""1"",""1208""
","
","
","""event"",""trial"",""time""
""fullscreenenter"",""1"",""1208""
","
","","","585.1999999880791","","","19","10090","4711","l","elianto","#3366ff99"," "," ","1","+10","[1436.0999999642372]","1","2","","","10090","137","8","1","win","go","0"
"pit-trial","256","1450745","0.0-142.0","battery-v0.2","","""event"",""trial"",""time""
""fullscreenenter"",""1"",""1208""
","
","
","""event"",""trial"",""time""
""fullscreenenter"",""1"",""1208""
","
","","","-1","","","19","10090","4711","a","elianto","#f73b6a7A","-1","-1","1","0","[]","0","2","","","10090","138","7","4","lose","no-go","0"
"pit-trial","257","1454575","0.0-143.0","battery-v0.2","","""event"",""trial"",""time""
""fullscreenenter"",""1"",""1208""
","
","
","""event"",""trial"",""time""
""fullscreenenter"",""1"",""1208""
","
","","","977.3999999761581","","","19","10090","4711","u","elianto","#3366ff99"," "," ","1","0","[1827.7000000476837]","1","2","","","10090","139","9","1","win","go","1"
"pit-trial","258","1458120","0.0-144.0","battery-v0.2","","""event"",""trial"",""time""
""fullscreenenter"",""1"",""1208""
","
","
","""event"",""trial"",""time""
""fullscreenenter"",""1"",""1208""
","
","","","690.2000000476837","","","19","10090","4711","g","elianto","#f73b6a7A"," "," ","1","0","[1542.1000000238419]","1","2","","","10090","140","6","3","lose","go","0"
"pit-instructions","259","1473674","0.0-145.0","battery-v0.2","","""event"",""trial"",""time""
""fullscreenenter"",""1"",""1208""
","
","
","""event"",""trial"",""time""
""fullscreenenter"",""1"",""1208""
","
","","[{""page_index"":0,""viewing_time"":6192.5},{""page_index"":1,""viewing_time"":9360.399999976158}]","15553.199999988079","","","","","","","","","","","","","","","","","","","","","","","",""
"pit-trial","260","1477369","0.0-146.0","battery-v0.2","","""event"",""trial"",""time""
""fullscreenenter"",""1"",""1208""
","
","
","""event"",""trial"",""time""
""fullscreenenter"",""1"",""1208""
","
","","","827.3000000119209","","","19","10090","4711","h","elianto","#f73b6a7A"," "," ","1","0","[1682.699999988079]","1","3","","","10090","141","3","3","lose","go","0"
"pit-trial","261","1481075","0.0-147.0","battery-v0.2","","""event"",""trial"",""time""
""fullscreenenter"",""1"",""1208""
","
","
","""event"",""trial"",""time""
""fullscreenenter"",""1"",""1208""
","
","","","850.5999999642372","","","19","10090","4711","y","elianto","#f73b6a7A","-1"," ","0","-10","[1704.699999988079]","1","3","","","10090","142","2","4","lose","no-go","0"
"pit-trial","262","1484710","0.0-148.0","battery-v0.2","","""event"",""trial"",""time""
""fullscreenenter"",""1"",""1208""
","
","
","""event"",""trial"",""time""
""fullscreenenter"",""1"",""1208""
","
","","","779.4000000357628","","","19","10090","4711","r","elianto","#3366ff99"," "," ","1","+10","[1634]","1","3","","","10090","143","1","1","win","go","0"
"pit-trial","263","1488411","0.0-149.0","battery-v0.2","","""event"",""trial"",""time""
""fullscreenenter"",""1"",""1208""
","
","
","""event"",""trial"",""time""
""fullscreenenter"",""1"",""1208""
","
","","","843.0999999642372","","","19","10090","4711","m","elianto","#f73b6a7A","-1"," ","0","-10","[1697.800000011921]","1","3","","","10090","144","0","4","lose","no-go","0"
"pit-trial","264","1492051","0.0-150.0","battery-v0.2","","""event"",""trial"",""time""
""fullscreenenter"",""1"",""1208""
","
","
","""event"",""trial"",""time""
""fullscreenenter"",""1"",""1208""
","
","","","783.1999999880791","","","19","10090","4711","r","elianto","#3366ff99"," "," ","1","0","[1637]","1","3","","","10090","145","1","1","win","go","1"
"pit-trial","265","1496906","0.0-151.0","battery-v0.2","","""event"",""trial"",""time""
""fullscreenenter"",""1"",""1208""
","
","
","""event"",""trial"",""time""
""fullscreenenter"",""1"",""1208""
","
","","","-1","","","19","10090","4711","m","elianto","#f73b6a7A","-1","-1","1","0","[]","0","3","","","10090","146","0","4","lose","no-go","0"
"pit-trial","266","1500515","0.0-152.0","battery-v0.2","","""event"",""trial"",""time""
""fullscreenenter"",""1"",""1208""
","
","
","""event"",""trial"",""time""
""fullscreenenter"",""1"",""1208""
","
