"trial_type","trial_index","time_elapsed","internal_node_id","task_version","subject_id","interactions","blur_events","focus_events","fullscreenenter_events","fullscreenexit_events","success","view_history","rt","responses","num_errors","age","subject","participantId","rune","rune_set","hex","correct","choice","accuracy","outcome","keys","total_keys","block","practice","value","sub","trial","stimulus","robot","valence","action","sham"
"pavlovia","0","11","0.0-0.0","battery-v0.2","","""event"",""trial"",""time""
""fullscreenenter"",""1"",""3644""
","
","
","""event"",""trial"",""time""
""fullscreenenter"",""1"",""3644""
","
","","","","","","","","","","","","","","","","","","","","","","","","","","",""
"fullscreen","1","4626","0.0-1.0","battery-v0.2","","""event"",""trial"",""time""
""fullscreenenter"",""1"",""3644""
","
","
","""event"",""trial"",""time""
""fullscreenenter"",""1"",""3644""
","
","true","","","","","","","","","","","","","","","","","","","","","","","","","",""
"pit-instructions","2","11183","0.0-2.0-0.0","battery-v0.2","","""event"",""trial"",""time""
""fullscreenenter"",""1"",""3644""
","
","
","""event"",""trial"",""time""
""fullscreenenter"",""1"",""3644""
","
","","[{""page_index"":0,""viewing_time"":6554.70000000298}]","6555","","","","","","","","","","","","","","","","","","","","","","","",""
"pit-comprehension","3","14554","0.0-2.0-1.0-0.0","battery-v0.2","","""event"",""trial"",""time""
""fullscreenenter"",""1"",""3644""
","
","
","""event"",""trial"",""time""
""fullscreenenter"",""1"",""3644""
","
","","","3368.5999999940395","[""shark""]","0","16","17720","5888","","","","","","","","","","","","","","","","","","",""
"pit-instructions","4","18507","0.0-2.0-1.0-1.0","battery-v0.2","","""event"",""trial"",""time""
""fullscreenenter"",""1"",""3644""
","
","
","""event"",""trial"",""time""
""fullscreenenter"",""1"",""3644""
","
","","[{""page_index"":0,""viewing_time"":3949.5999999940395}]","3949.7999999970198","","","","","","","","","","","","","","","","","","","","","","","",""
"pit-comprehension","5","21244","0.0-2.0-2.0-0.0","battery-v0.2","","""event"",""trial"",""time""
""fullscreenenter"",""1"",""3644""
","
","
","""event"",""trial"",""time""
""fullscreenenter"",""1"",""3644""
","
","","","2735.2999999970198","[""tiger""]","0","16","17720","5888","","","","","","","","","","","","","","","","","","",""
"pit-instructions","6","22394","0.0-2.0-2.0-1.0","battery-v0.2","","""event"",""trial"",""time""
""fullscreenenter"",""1"",""3644""
","
","
","""event"",""trial"",""time""
""fullscreenenter"",""1"",""3644""
","
","","[{""page_index"":0,""viewing_time"":1148.0999999940395}]","1148.2999999970198","","","","","","","","","","","","","","","","","","","","","","","",""
"pit-instructions","7","125042","0.0-2.0-3.0","battery-v0.2","","""event"",""trial"",""time""
""fullscreenenter"",""1"",""3644""
","
","
","""event"",""trial"",""time""
""fullscreenenter"",""1"",""3644""
","
","","[{""page_index"":0,""viewing_time"":10626.29999999702},{""page_index"":1,""viewing_time"":7358.5},{""page_index"":2,""viewing_time"":6440.0999999940395},{""page_index"":3,""viewing_time"":6190.4000000059605},{""page_index"":4,""viewing_time"":5806.29999999702},{""page_index"":5,""viewing_time"":5923.20000000298},{""page_index"":6,""viewing_time"":6974.4000000059605},{""page_index"":7,""viewing_time"":6957.5},{""page_index"":8,""viewing_time"":8759.89999999106},{""page_index"":9,""viewing_time"":8876.60000000894},{""page_index"":10,""viewing_time"":7858.29999999702},{""page_index"":11,""viewing_time"":7475.20000000298},{""page_index"":12,""viewing_time"":8283.29999999702},{""page_index"":13,""viewing_time"":5114.5}]","102644.70000000298","","","","","","","","","","","","","","","","","","","","","","","",""
"pit-trial","8","128401","0.0-2.0-4.0-0.0","battery-v0.2","","""event"",""trial"",""time""
""fullscreenenter"",""1"",""3644""
","
","
","""event"",""trial"",""time""
""fullscreenenter"",""1"",""3644""
","
","","","504","","","16","17720","5888","&#9784;","elianto","#FFFFF080"," "," ","1","&#10004","[1356]","1","0","0","","","","","","","",""
"pit-trial","9","131825","0.0-2.0-4.1-0.1","battery-v0.2","","""event"",""trial"",""time""
""fullscreenenter"",""1"",""3644""
","
","
","""event"",""trial"",""time""
""fullscreenenter"",""1"",""3644""
","
","","","569.1000000089407","","","16","17720","5888","&#9784;","elianto","#FFFFF080"," "," ","1","&#10004","[1420.199999988079]","1","0","0","","","","","","","",""
"pit-trial","10","135185","0.0-2.0-4.2-0.2","battery-v0.2","","""event"",""trial"",""time""
""fullscreenenter"",""1"",""3644""
","
","
","""event"",""trial"",""time""
""fullscreenenter"",""1"",""3644""
","
","","","506.20000000298023","","","16","17720","5888","&#9784;","elianto","#FFFFF080"," "," ","1","&#10004","[1356.9000000059605]","1","0","0","","","","","","","",""
"pit-trial","11","138552","0.0-2.0-4.3-0.3","battery-v0.2","","""event"",""trial"",""time""
""fullscreenenter"",""1"",""3644""
","
","
","""event"",""trial"",""time""
""fullscreenenter"",""1"",""3644""
","
","","","513","","","16","17720","5888","&#9784;","elianto","#FFFFF080"," "," ","1","&#10004","[1364.5999999940395]","1","0","0","","","","","","","",""
"pit-trial","12","141848","0.0-2.0-4.4-0.4","battery-v0.2","","""event"",""trial"",""time""
""fullscreenenter"",""1"",""3644""
","
","
","""event"",""trial"",""time""
""fullscreenenter"",""1"",""3644""
","
","","","442.30000001192093","","","16","17720","5888","&#9784;","elianto","#FFFFF080"," "," ","1","&#10004","[1293.300000011921]","1","0","0","","","","","","","",""
"pit-instructions","13","162550","0.0-2.0-5.0","battery-v0.2","","""event"",""trial"",""time""
""fullscreenenter"",""1"",""3644""
","
","
","""event"",""trial"",""time""
""fullscreenenter"",""1"",""3644""
","
","","[{""page_index"":0,""viewing_time"":4848.899999991059},{""page_index"":1,""viewing_time"":5556.20000000298},{""page_index"":2,""viewing_time"":4955.29999999702},{""page_index"":3,""viewing_time"":5339.300000011921}]","20699.89999999106","","","","","","","","","","","","","","","","","","","","","","","",""
"pit-trial","14","167404","0.0-2.0-6.0-0.0","battery-v0.2","","""event"",""trial"",""time""
""fullscreenenter"",""1"",""3644""
","
","
","""event"",""trial"",""time""
""fullscreenenter"",""1"",""3644""
","
","","","-1","","","16","17720","5888","&#9854;","elianto","#FFFFF080","-1","-1","1","&#10004","[]","0","0","1","","","","","","","",""
"pit-trial","15","172258","0.0-2.0-6.1-0.1","battery-v0.2","","""event"",""trial"",""time""
""fullscreenenter"",""1"",""3644""
","
","
","""event"",""trial"",""time""
""fullscreenenter"",""1"",""3644""
","
","","","-1","","","16","17720","5888","&#9854;","elianto","#FFFFF080","-1","-1","1","&#10004","[]","0","0","1","","","","","","","",""
"pit-trial","16","177111","0.0-2.0-6.2-0.2","battery-v0.2","","""event"",""trial"",""time""
""fullscreenenter"",""1"",""3644""
","
","
","""event"",""trial"",""time""
""fullscreenenter"",""1"",""3644""
","
","","","-1","","","16","17720","5888","&#9854;","elianto","#FFFFF080","-1","-1","1","&#10004","[]","0","0","1","","","","","","","",""
"pit-trial","17","181966","0.0-2.0-6.3-0.3","battery-v0.2","","""event"",""trial"",""time""
""fullscreenenter"",""1"",""3644""
","
","
","""event"",""trial"",""time""
""fullscreenenter"",""1"",""3644""
","
","","","-1","","","16","17720","5888","&#9854;","elianto","#FFFFF080","-1","-1","1","&#10004","[]","0","0","1","","","","","","","",""
"pit-trial","18","186820","0.0-2.0-6.4-0.4","battery-v0.2","","""event"",""trial"",""time""
""fullscreenenter"",""1"",""3644""
","
","
","""event"",""trial"",""time""
""fullscreenenter"",""1"",""3644""
","
","","","-1","","","16","17720","5888","&#9854;","elianto","#FFFFF080","-1","-1","1","&#10004","[]","0","0","1","","","","","","","",""
"pit-instructions","19","305491","0.0-2.0-7.0","battery-v0.2","","""event"",""trial"",""time""
""fullscreenenter"",""1"",""3644""
","
","
","""event"",""trial"",""time""
""fullscreenenter"",""1"",""3644""
","
","","[{""page_index"":0,""viewing_time"":5844.399999991059},{""page_index"":1,""viewing_time"":7892.4000000059605},{""page_index"":2,""viewing_time"":6189.899999991059},{""page_index"":3,""viewing_time"":6507.300000011921},{""page_index"":4,""viewing_time"":5939.699999988079},{""page_index"":5,""viewing_time"":6190.4000000059605},{""page_index"":6,""viewing_time"":5138.5},{""page_index"":7,""viewing_time"":7792.29999999702},{""page_index"":8,""viewing_time"":6840.79999999702},{""page_index"":9,""viewing_time"":5973.300000011921},{""page_index"":10,""viewing_time"":6290.399999991059},{""page_index"":11,""viewing_time"":5973.20000000298},{""page_index"":12,""viewing_time"":7074.4000000059605},{""page_index"":13,""viewing_time"":7391.399999991059},{""page_index"":14,""viewing_time"":7558.4000000059605},{""page_index"":15,""viewing_time"":6557.0999999940395},{""page_index"":16,""viewing_time"":6240.20000000298},{""page_index"":17,""viewing_time"":7274.9000000059605}]","118669.19999998808","","","","","","","","","","","","","","","","","","","","","","","",""
"pit-trial","20","309025","0.0-2.0-8.0-0.0","battery-v0.2","","""event"",""trial"",""time""
""fullscreenenter"",""1"",""3644""
","
","
","""event"",""trial"",""time""
""fullscreenenter"",""1"",""3644""
","
","","","679.8999999910593","","","16","17720","5888","&#9776;","elianto","#3366ff99"," "," ","1","+10","[1531.2999999970198]","1","0","1","","","","","","","",""
"pit-trial","21","312634","0.0-2.0-8.0-1.0","battery-v0.2","","""event"",""trial"",""time""
""fullscreenenter"",""1"",""3644""
","
","
","""event"",""trial"",""time""
""fullscreenenter"",""1"",""3644""
","
","","","754.8999999910593","","","16","17720","5888","&#9776;","elianto","#3366ff99"," "," ","1","+10","[1605.5999999940395]","1","0","1","","","","","","","",""
"pit-trial","22","316081","0.0-2.0-8.0-2.0","battery-v0.2","","""event"",""trial"",""time""
""fullscreenenter"",""1"",""3644""
","
","
","""event"",""trial"",""time""
""fullscreenenter"",""1"",""3644""
","
","","","594.1000000089407","","","16","17720","5888","&#9776;","elianto","#3366ff99"," "," ","1","+10","[1445.1000000089407]","1","0","1","","","","","","","",""
"pit-trial","23","319560","0.0-2.0-8.0-3.0","battery-v0.2","","""event"",""trial"",""time""
""fullscreenenter"",""1"",""3644""
","
","
","""event"",""trial"",""time""
""fullscreenenter"",""1"",""3644""
","
","","","625.7000000029802","","","16","17720","5888","&#9776;","elianto","#3366ff99"," "," ","1","0","[1477.5]","1","0","1","","","","","","","",""
"pit-trial","24","323002","0.0-2.0-8.0-4.0","battery-v0.2","","""event"",""trial"",""time""
""fullscreenenter"",""1"",""3644""
","
","
","""event"",""trial"",""time""
""fullscreenenter"",""1"",""3644""
","
","","","588.6000000089407","","","16","17720","5888","&#9776;","elianto","#3366ff99"," "," ","1","+10","[1438.800000011921]","1","0","1","","","","","","","",""
"pit-trial","25","327858","0.0-2.0-8.1-0.1","battery-v0.2","","""event"",""trial"",""time""
""fullscreenenter"",""1"",""3644""
","
","
","""event"",""trial"",""time""
""fullscreenenter"",""1"",""3644""
","
","","","-1","","","16","17720","5888","&#9776;","elianto","#3366ff99"," ","-1","0","0","[]","0","0","1","","","","","","","",""
"pit-trial","26","331306","0.0-2.0-8.1-1.1","battery-v0.2","","""event"",""trial"",""time""
""fullscreenenter"",""1"",""3644""
","
","
","""event"",""trial"",""time""
""fullscreenenter"",""1"",""3644""
","
","","","594.6999999880791","","","16","17720","5888","&#9776;","elianto","#3366ff99"," "," ","1","+10","[1444.9000000059605]","1","0","1","","","","","","","",""
"pit-trial","27","334746","0.0-2.0-8.1-2.1","battery-v0.2","","""event"",""trial"",""time""
""fullscreenenter"",""1"",""3644""
","
","
","""event"",""trial"",""time""
""fullscreenenter"",""1"",""3644""
","
","","","586.8999999910593","","","16","17720","5888","&#9776;","elianto","#3366ff99"," "," ","1","+10","[1437.6000000089407]","1","0","1","","","","","","","",""
"pit-trial","28","339600","0.0-2.0-8.1-3.1","battery-v0.2","","""event"",""trial"",""time""
""fullscreenenter"",""1"",""3644""
","
","
","""event"",""trial"",""time""
""fullscreenenter"",""1"",""3644""
","
","","","-1","","","16","17720","5888","&#9776;","elianto","#3366ff99"," ","-1","0","+10","[]","0","0","1","","","","","","","",""
"pit-trial","29","342880","0.0-2.0-8.1-4.1","battery-v0.2","","""event"",""trial"",""time""
""fullscreenenter"",""1"",""3644""
","
","
","""event"",""trial"",""time""
""fullscreenenter"",""1"",""3644""
","
","","","429","","","16","17720","5888","&#9776;","elianto","#3366ff99"," "," ","1","+10","[1278.9000000059605]","1","0","1","","","","","","","",""
"pit-trial","30","346258","0.0-2.0-8.2-0.2","battery-v0.2","","""event"",""trial"",""time""
""fullscreenenter"",""1"",""3644""
","
","
","""event"",""trial"",""time""
""fullscreenenter"",""1"",""3644""
","
","","","523.5999999940395","","","16","17720","5888","&#9776;","elianto","#3366ff99"," "," ","1","+10","[1374.2000000029802]","1","0","1","","","","","","","",""
"pit-trial","31","349577","0.0-2.0-8.2-1.2","battery-v0.2","","""event"",""trial"",""time""
""fullscreenenter"",""1"",""3644""
","
","
","""event"",""trial"",""time""
""fullscreenenter"",""1"",""3644""
","
","","","466.8999999910593","","","16","17720","5888","&#9776;","elianto","#3366ff99"," "," ","1","+10","[1317.199999988079]","1","0","1","","","","","","","",""
"pit-trial","32","352986","0.0-2.0-8.2-2.2","battery-v0.2","","""event"",""trial"",""time""
""fullscreenenter"",""1"",""3644""
","
","
","""event"",""trial"",""time""
""fullscreenenter"",""1"",""3644""
","
","","","555.1999999880791","","","16","17720","5888","&#9776;","elianto","#3366ff99"," "," ","1","+10","[1405.3999999910593]","1","0","1","","","","","","","",""
"pit-trial","33","356266","0.0-2.0-8.2-3.2","battery-v0.2","","""event"",""trial"",""time""
""fullscreenenter"",""1"",""3644""
","
","
","""event"",""trial"",""time""
""fullscreenenter"",""1"",""3644""
","
","","","426.19999998807907","","","16","17720","5888","&#9776;","elianto","#3366ff99"," "," ","1","0","[1277.0999999940395]","1","0","1","","","","","","","",""
"pit-trial","34","359577","0.0-2.0-8.2-4.2","battery-v0.2","","""event"",""trial"",""time""
""fullscreenenter"",""1"",""3644""
","
","
","""event"",""trial"",""time""
""fullscreenenter"",""1"",""3644""
","
","","","457.5","","","16","17720","5888","&#9776;","elianto","#3366ff99"," "," ","1","+10","[1308.9000000059605]","1","0","1","","","","","","","",""
"call-function","35","359579","0.0-2.0-9.0","battery-v0.2","","""event"",""trial"",""time""
""fullscreenenter"",""1"",""3644""
","
","
","""event"",""trial"",""time""
""fullscreenenter"",""1"",""3644""
","
","","","","","","","","","","","","","","","","","","","","","","","","","","",""
"pit-instructions","36","403016","0.0-2.0-10.0","battery-v0.2","","""event"",""trial"",""time""
""fullscreenenter"",""1"",""3644""
","
","
","""event"",""trial"",""time""
""fullscreenenter"",""1"",""3644""
","
","","[{""page_index"":0,""viewing_time"":5978.79999999702},{""page_index"":1,""viewing_time"":8192.5},{""page_index"":2,""viewing_time"":12397},{""page_index"":3,""viewing_time"":9260.10000000894},{""page_index"":4,""viewing_time"":7608.5}]","43437.10000000894","","","","","","","","","","","","","","","","","","","","","","","",""
"pit-trial","37","406810","0.0-2.0-11.0-0.0","battery-v0.2","","""event"",""trial"",""time""
""fullscreenenter"",""1"",""3644""
","
","
","""event"",""trial"",""time""
""fullscreenenter"",""1"",""3644""
","
","","","939.8999999910593","","","16","17720","5888","&#9761;","elianto","#3366ff99","-1"," ","0","0","[1791]","1","0","2","","","","","","","",""
"pit-trial","38","411664","0.0-2.0-11.0-1.0","battery-v0.2","","""event"",""trial"",""time""
""fullscreenenter"",""1"",""3644""
","
","
","""event"",""trial"",""time""
""fullscreenenter"",""1"",""3644""
","
","","","-1","","","16","17720","5888","&#9761;","elianto","#3366ff99","-1","-1","1","+10","[]","0","0","2","","","","","","","",""
"pit-trial","39","416518","0.0-2.0-11.0-2.0","battery-v0.2","","""event"",""trial"",""time""
""fullscreenenter"",""1"",""3644""
","
","
","""event"",""trial"",""time""
""fullscreenenter"",""1"",""3644""
","
","","","-1","","","16","17720","5888","&#9761;","elianto","#3366ff99","-1","-1","1","+10","[]","0","0","2","","","","","","","",""
"pit-trial","40","421371","0.0-2.0-11.0-3.0","battery-v0.2","","""event"",""trial"",""time""
""fullscreenenter"",""1"",""3644""
","
","
","""event"",""trial"",""time""
""fullscreenenter"",""1"",""3644""
","
","","","-1","","","16","17720","5888","&#9761;","elianto","#3366ff99","-1","-1","1","0","[]","0","0","2","","","","","","","",""
"pit-trial","41","424683","0.0-2.0-11.0-4.0","battery-v0.2","","""event"",""trial"",""time""
""fullscreenenter"",""1"",""3644""
","
","
","""event"",""trial"",""time""
""fullscreenenter"",""1"",""3644""
","
","","","457.6000000089407","","","16","17720","5888","&#9761;","elianto","#3366ff99","-1"," ","0","0","[1308]","1","0","2","","","","","","","",""
"pit-trial","42","429537","0.0-2.0-11.1-0.1","battery-v0.2","","""event"",""trial"",""time""
""fullscreenenter"",""1"",""3644""
","
","
","""event"",""trial"",""time""
""fullscreenenter"",""1"",""3644""
","
","","","-1","","","16","17720","5888","&#9761;","elianto","#3366ff99","-1","-1","1","+10","[]","0","0","2","","","","","","","",""
"pit-trial","43","434391","0.0-2.0-11.1-1.1","battery-v0.2","","""event"",""trial"",""time""
""fullscreenenter"",""1"",""3644""
","
","
","""event"",""trial"",""time""
""fullscreenenter"",""1"",""3644""
","
","","","-1","","","16","17720","5888","&#9761;","elianto","#3366ff99","-1","-1","1","+10","[]","0","0","2","","","","","","","",""
"pit-trial","44","439245","0.0-2.0-11.1-2.1","battery-v0.2","","""event"",""trial"",""time""
""fullscreenenter"",""1"",""3644""
","
","
","""event"",""trial"",""time""
""fullscreenenter"",""1"",""3644""
","
","","","-1","","","16","17720","5888","&#9761;","elianto","#3366ff99","-1","-1","1","+10","[]","0","0","2","","","","","","","",""
"pit-trial","45","444099","0.0-2.0-11.1-3.1","battery-v0.2","","""event"",""trial"",""time""
""fullscreenenter"",""1"",""3644""
","
","
","""event"",""trial"",""time""
""fullscreenenter"",""1"",""3644""
","
","","","-1","","","16","17720","5888","&#9761;","elianto","#3366ff99","-1","-1","1","0","[]","0","0","2","","","","","","","",""
"pit-trial","46","447987","0.0-2.0-11.1-4.1","battery-v0.2","","""event"",""trial"",""time""
""fullscreenenter"",""1"",""3644""
","
","
","""event"",""trial"",""time""
""fullscreenenter"",""1"",""3644""
","
","","","1033.8999999910593","","","16","17720","5888","&#9761;","elianto","#3366ff99","-1"," ","0","0","[1884.3999999910593]","1","0","2","","","","","","","",""
"pit-trial","47","452841","0.0-2.0-11.2-0.2","battery-v0.2","","""event"",""trial"",""time""
""fullscreenenter"",""1"",""3644""
","
","
","""event"",""trial"",""time""
""fullscreenenter"",""1"",""3644""
","
","","","-1","","","16","17720","5888","&#9761;","elianto","#3366ff99","-1","-1","1","+10","[]","0","0","2","","","","","","","",""
"pit-trial","48","457694","0.0-2.0-11.2-1.2","battery-v0.2","","""event"",""trial"",""time""
""fullscreenenter"",""1"",""3644""
","
","
","""event"",""trial"",""time""
""fullscreenenter"",""1"",""3644""
","
","","","-1","","","16","17720","5888","&#9761;","elianto","#3366ff99","-1","-1","1","+10","[]","0","0","2","","","","","","","",""
"pit-trial","49","462548","0.0-2.0-11.2-2.2","battery-v0.2","","""event"",""trial"",""time""
""fullscreenenter"",""1"",""3644""
","
","
","""event"",""trial"",""time""
""fullscreenenter"",""1"",""3644""
","
","","","-1","","","16","17720","5888","&#9761;","elianto","#3366ff99","-1","-1","1","+10","[]","0","0","2","","","","","","","",""
"pit-trial","50","467401","0.0-2.0-11.2-3.2","battery-v0.2","","""event"",""trial"",""time""
""fullscreenenter"",""1"",""3644""
","
","
","""event"",""trial"",""time""
""fullscreenenter"",""1"",""3644""
","
","","","-1","","","16","17720","5888","&#9761;","elianto","#3366ff99","-1","-1","1","0","[]","0","0","2","","","","","","","",""
"pit-trial","51","472255","0.0-2.0-11.2-4.2","battery-v0.2","","""event"",""trial"",""time""
""fullscreenenter"",""1"",""3644""
","
","
","""event"",""trial"",""time""
""fullscreenenter"",""1"",""3644""
","
","","","-1","","","16","17720","5888","&#9761;","elianto","#3366ff99","-1","-1","1","+10","[]","0","0","2","","","","","","","",""
"pit-trial","52","477110","0.0-2.0-11.3-0.3","battery-v0.2","","""event"",""trial"",""time""
""fullscreenenter"",""1"",""3644""
","
","
","""event"",""trial"",""time""
""fullscreenenter"",""1"",""3644""
","
","","","-1","","","16","17720","5888","&#9761;","elianto","#3366ff99","-1","-1","1","+10","[]","0","0","2","","","","","","","",""
"pit-trial","53","481964","0.0-2.0-11.3-1.3","battery-v0.2","","""event"",""trial"",""time""
""fullscreenenter"",""1"",""3644""
","
","
","""event"",""trial"",""time""
""fullscreenenter"",""1"",""3644""
","
","","","-1","","","16","17720","5888","&#9761;","elianto","#3366ff99","-1","-1","1","+10","[]","0","0","2","","","","","","","",""
"pit-trial","54","486819","0.0-2.0-11.3-2.3","battery-v0.2","","""event"",""trial"",""time""
""fullscreenenter"",""1"",""3644""
","
","
","""event"",""trial"",""time""
""fullscreenenter"",""1"",""3644""
","
","","","-1","","","16","17720","5888","&#9761;","elianto","#3366ff99","-1","-1","1","+10","[]","0","0","2","","","","","","","",""
"pit-trial","55","491672","0.0-2.0-11.3-3.3","battery-v0.2","","""event"",""trial"",""time""
""fullscreenenter"",""1"",""3644""
","
","
","""event"",""trial"",""time""
""fullscreenenter"",""1"",""3644""
","
","","","-1","","","16","17720","5888","&#9761;","elianto","#3366ff99","-1","-1","1","0","[]","0","0","2","","","","","","","",""
"pit-trial","56","496526","0.0-2.0-11.3-4.3","battery-v0.2","","""event"",""trial"",""time""
""fullscreenenter"",""1"",""3644""
","
","
","""event"",""trial"",""time""
""fullscreenenter"",""1"",""3644""
","
","","","-1","","","16","17720","5888","&#9761;","elianto","#3366ff99","-1","-1","1","+10","[4560.5]","1","0","2","","","","","","","",""
"call-function","57","496527","0.0-2.0-12.0","battery-v0.2","","""event"",""trial"",""time""
""fullscreenenter"",""1"",""3644""
","
","
","""event"",""trial"",""time""
""fullscreenenter"",""1"",""3644""
","
","","","","","","","","","","","","","","","","","","","","","","","","","","",""
"pit-instructions","58","533244","0.0-2.0-13.0","battery-v0.2","","""event"",""trial"",""time""
""fullscreenenter"",""1"",""3644""
","
","
","""event"",""trial"",""time""
""fullscreenenter"",""1"",""3644""
","
","","[{""page_index"":0,""viewing_time"":7433.5999999940395},{""page_index"":1,""viewing_time"":8642.5},{""page_index"":2,""viewing_time"":4205},{""page_index"":3,""viewing_time"":10444.59999999404},{""page_index"":4,""viewing_time"":5990.100000008941}]","36715.89999999106","","","","","","","","","","","","","","","","","","","","","","","",""
"pit-trial","59","538098","0.0-2.0-14.0-0.0","battery-v0.2","","""event"",""trial"",""time""
""fullscreenenter"",""1"",""3644""
","
","
","""event"",""trial"",""time""
""fullscreenenter"",""1"",""3644""
","
","","","-1","","","16","17720","5888","&#9826;","elianto","#f73b6a7A","-1","-1","1","0","[]","0","0","3","","","","","","","",""
"pit-trial","60","541459","0.0-2.0-14.0-1.0","battery-v0.2","","""event"",""trial"",""time""
""fullscreenenter"",""1"",""3644""
","
","
","""event"",""trial"",""time""
""fullscreenenter"",""1"",""3644""
","
","","","505.79999999701977","","","16","17720","5888","&#9826;","elianto","#f73b6a7A","-1"," ","0","-10","[1357.5]","1","0","3","","","","","","","",""
"pit-trial","61","546313","0.0-2.0-14.0-2.0","battery-v0.2","","""event"",""trial"",""time""
""fullscreenenter"",""1"",""3644""
","
","
","""event"",""trial"",""time""
""fullscreenenter"",""1"",""3644""
","
","","","-1","","","16","17720","5888","&#9826;","elianto","#f73b6a7A","-1","-1","1","0","[]","0","0","3","","","","","","","",""
"pit-trial","62","551166","0.0-2.0-14.0-3.0","battery-v0.2","","""event"",""trial"",""time""
""fullscreenenter"",""1"",""3644""
","
","
","""event"",""trial"",""time""
""fullscreenenter"",""1"",""3644""
","
","","","-1","","","16","17720","5888","&#9826;","elianto","#f73b6a7A","-1","-1","1","-10","[]","0","0","3","","","","","","","",""
"pit-trial","63","556020","0.0-2.0-14.0-4.0","battery-v0.2","","""event"",""trial"",""time""
""fullscreenenter"",""1"",""3644""
","
","
","""event"",""trial"",""time""
""fullscreenenter"",""1"",""3644""
","
","","","-1","","","16","17720","5888","&#9826;","elianto","#f73b6a7A","-1","-1","1","0","[]","0","0","3","","","","","","","",""
"pit-trial","64","560874","0.0-2.0-14.1-0.1","battery-v0.2","","""event"",""trial"",""time""
""fullscreenenter"",""1"",""3644""
","
","
","""event"",""trial"",""time""
""fullscreenenter"",""1"",""3644""
","
","","","-1","","","16","17720","5888","&#9826;","elianto","#f73b6a7A","-1","-1","1","0","[]","0","0","3","","","","","","","",""
"pit-trial","65","565727","0.0-2.0-14.1-1.1","battery-v0.2","","""event"",""trial"",""time""
""fullscreenenter"",""1"",""3644""
","
","
","""event"",""trial"",""time""
""fullscreenenter"",""1"",""3644""
","
","","","-1","","","16","17720","5888","&#9826;","elianto","#f73b6a7A","-1","-1","1","0","[]","0","0","3","","","","","","","",""
"pit-trial","66","570581","0.0-2.0-14.1-2.1","battery-v0.2","","""event"",""trial"",""time""
""fullscreenenter"",""1"",""3644""
","
","
","""event"",""trial"",""time""
""fullscreenenter"",""1"",""3644""
","
","","","-1","","","16","17720","5888","&#9826;","elianto","#f73b6a7A","-1","-1","1","0","[]","0","0","3","","","","","","","",""
"pit-trial","67","575435","0.0-2.0-14.1-3.1","battery-v0.2","","""event"",""trial"",""time""
""fullscreenenter"",""1"",""3644""
","
","
","""event"",""trial"",""time""
""fullscreenenter"",""1"",""3644""
","
","","","-1","","","16","17720","5888","&#9826;","elianto","#f73b6a7A","-1","-1","1","-10","[]","0","0","3","","","","","","","",""
"pit-trial","68","580289","0.0-2.0-14.1-4.1","battery-v0.2","","""event"",""trial"",""time""
""fullscreenenter"",""1"",""3644""
","
","
","""event"",""trial"",""time""
""fullscreenenter"",""1"",""3644""
","
","","","-1","","","16","17720","5888","&#9826;","elianto","#f73b6a7A","-1","-1","1","0","[]","0","0","3","","","","","","","",""
"pit-trial","69","585143","0.0-2.0-14.2-0.2","battery-v0.2","","""event"",""trial"",""time""
""fullscreenenter"",""1"",""3644""
","
","
","""event"",""trial"",""time""
""fullscreenenter"",""1"",""3644""
","
","","","-1","","","16","17720","5888","&#9826;","elianto","#f73b6a7A","-1","-1","1","0","[]","0","0","3","","","","","","","",""
"pit-trial","70","589998","0.0-2.0-14.2-1.2","battery-v0.2","","""event"",""trial"",""time""
""fullscreenenter"",""1"",""3644""
","
","
","""event"",""trial"",""time""
""fullscreenenter"",""1"",""3644""
","
","","","-1","","","16","17720","5888","&#9826;","elianto","#f73b6a7A","-1","-1","1","0","[]","0","0","3","","","","","","","",""
"pit-trial","71","594852","0.0-2.0-14.2-2.2","battery-v0.2","","""event"",""trial"",""time""
""fullscreenenter"",""1"",""3644""
","
","
","""event"",""trial"",""time""
""fullscreenenter"",""1"",""3644""
","
","","","-1","","","16","17720","5888","&#9826;","elianto","#f73b6a7A","-1","-1","1","0","[]","0","0","3","","","","","","","",""
"pit-trial","72","599707","0.0-2.0-14.2-3.2","battery-v0.2","","""event"",""trial"",""time""
""fullscreenenter"",""1"",""3644""
","
","
","""event"",""trial"",""time""
""fullscreenenter"",""1"",""3644""
","
","","","-1","","","16","17720","5888","&#9826;","elianto","#f73b6a7A","-1","-1","1","-10","[]","0","0","3","","","","","","","",""
"pit-trial","73","603034","0.0-2.0-14.2-4.2","battery-v0.2","","""event"",""trial"",""time""
""fullscreenenter"",""1"",""3644""
","
","
","""event"",""trial"",""time""
""fullscreenenter"",""1"",""3644""
","
","","","474.59999999403954","","","16","17720","5888","&#9826;","elianto","#f73b6a7A","-1"," ","0","-10","[1325.2999999970198]","1","0","3","","","","","","","",""
"pit-trial","74","607889","0.0-2.0-14.3-0.3","battery-v0.2","","""event"",""trial"",""time""
""fullscreenenter"",""1"",""3644""
","
","
","""event"",""trial"",""time""
""fullscreenenter"",""1"",""3644""
","
","","","-1","","","16","17720","5888","&#9826;","elianto","#f73b6a7A","-1","-1","1","0","[]","0","0","3","","","","","","","",""
"pit-trial","75","612743","0.0-2.0-14.3-1.3","battery-v0.2","","""event"",""trial"",""time""
""fullscreenenter"",""1"",""3644""
","
","
","""event"",""trial"",""time""
""fullscreenenter"",""1"",""3644""
","
","","","-1","","","16","17720","5888","&#9826;","elianto","#f73b6a7A","-1","-1","1","0","[]","0","0","3","","","","","","","",""
"pit-trial","76","617596","0.0-2.0-14.3-2.3","battery-v0.2","","""event"",""trial"",""time""
""fullscreenenter"",""1"",""3644""
","
","
","""event"",""trial"",""time""
""fullscreenenter"",""1"",""3644""
","
","","","-1","","","16","17720","5888","&#9826;","elianto","#f73b6a7A","-1","-1","1","0","[]","0","0","3","","","","","","","",""
"pit-trial","77","622451","0.0-2.0-14.3-3.3","battery-v0.2","","""event"",""trial"",""time""
""fullscreenenter"",""1"",""3644""
","
","
","""event"",""trial"",""time""
""fullscreenenter"",""1"",""3644""
","
","","","-1","","","16","17720","5888","&#9826;","elianto","#f73b6a7A","-1","-1","1","-10","[]","0","0","3","","","","","","","",""
"pit-trial","78","627306","0.0-2.0-14.3-4.3","battery-v0.2","","""event"",""trial"",""time""
""fullscreenenter"",""1"",""3644""
","
","
","""event"",""trial"",""time""
""fullscreenenter"",""1"",""3644""
","
","","","-1","","","16","17720","5888","&#9826;","elianto","#f73b6a7A","-1","-1","1","0","[]","0","0","3","","","","","","","",""
"call-function","79","627307","0.0-2.0-15.0","battery-v0.2","","""event"",""trial"",""time""
""fullscreenenter"",""1"",""3644""
","
","
","""event"",""trial"",""time""
""fullscreenenter"",""1"",""3644""
","
","","","","","","","","","","","","","","","","","","","","","","","","","","",""
"pit-instructions","80","682609","0.0-2.0-16.0","battery-v0.2","","""event"",""trial"",""time""
""fullscreenenter"",""1"",""3644""
","
","
","""event"",""trial"",""time""
""fullscreenenter"",""1"",""3644""
","
","","[{""page_index"":0,""viewing_time"":7515.9000000059605},{""page_index"":1,""viewing_time"":34421.39999999106},{""page_index"":2,""viewing_time"":7558.100000008941},{""page_index"":3,""viewing_time"":5806.399999991059}]","55301.90000000596","","","","","","","","","","","","","","","","","","","","","","","",""
"pit-trial","81","685931","0.0-2.0-17.0-0.0","battery-v0.2","","""event"",""trial"",""time""
""fullscreenenter"",""1"",""3644""
","
","
","""event"",""trial"",""time""
""fullscreenenter"",""1"",""3644""
","
","","","467.8999999910593","","","16","17720","5888","&#9789;","elianto","#f73b6a7A"," "," ","1","0","[1319.5]","1","0","4","","","","","","","",""
"pit-trial","82","689139","0.0-2.0-17.0-1.0","battery-v0.2","","""event"",""trial"",""time""
""fullscreenenter"",""1"",""3644""
","
","
","""event"",""trial"",""time""
""fullscreenenter"",""1"",""3644""
","
","","","354.90000000596046","","","16","17720","5888","&#9789;","elianto","#f73b6a7A"," "," ","1","0","[1205.7000000029802]","1","0","4","","","","","","","",""
"pit-trial","83","692394","0.0-2.0-17.0-2.0","battery-v0.2","","""event"",""trial"",""time""
""fullscreenenter"",""1"",""3644""
","
","
","""event"",""trial"",""time""
""fullscreenenter"",""1"",""3644""
","
","","","402.09999999403954","","","16","17720","5888","&#9789;","elianto","#f73b6a7A"," "," ","1","0","[1253.3999999910593]","1","0","4","","","","","","","",""
"pit-trial","84","695627","0.0-2.0-17.0-3.0","battery-v0.2","","""event"",""trial"",""time""
""fullscreenenter"",""1"",""3644""
","
","
","""event"",""trial"",""time""
""fullscreenenter"",""1"",""3644""
","
","","","379.29999999701977","","","16","17720","5888","&#9789;","elianto","#f73b6a7A"," "," ","1","-10","[1230.5999999940395]","1","0","4","","","","","","","",""
"pit-trial","85","698819","0.0-2.0-17.0-4.0","battery-v0.2","","""event"",""trial"",""time""
""fullscreenenter"",""1"",""3644""
","
","
","""event"",""trial"",""time""
""fullscreenenter"",""1"",""3644""
","
","","","339.5","","","16","17720","5888","&#9789;","elianto","#f73b6a7A"," "," ","1","0","[1189.699999988079]","1","0","4","","","","","","","",""
"pit-trial","86","702994","0.0-2.0-17.1-0.1","battery-v0.2","","""event"",""trial"",""time""
""fullscreenenter"",""1"",""3644""
","
","
","""event"",""trial"",""time""
""fullscreenenter"",""1"",""3644""
","
","","","1321.7999999970198","","","16","17720","5888","&#9789;","elianto","#f73b6a7A"," "," ","1","0","[2172.5]","1","0","4","","","","","","","",""
"pit-trial","87","706314","0.0-2.0-17.1-1.1","battery-v0.2","","""event"",""trial"",""time""
""fullscreenenter"",""1"",""3644""
","
","
","""event"",""trial"",""time""
""fullscreenenter"",""1"",""3644""
","
","","","467.5","","","16","17720","5888","&#9789;","elianto","#f73b6a7A"," "," ","1","0","[1318.7000000029802]","1","0","4","","","","","","","",""
"pit-trial","88","709939","0.0-2.0-17.1-2.1","battery-v0.2","","""event"",""trial"",""time""
""fullscreenenter"",""1"",""3644""
","
","
","""event"",""trial"",""time""
""fullscreenenter"",""1"",""3644""
","
","","","771","","","16","17720","5888","&#9789;","elianto","#f73b6a7A"," "," ","1","0","[1622.3999999910593]","1","0","4","","","","","","","",""
"pit-trial","89","712924","0.0-2.0-17.1-3.1","battery-v0.2","","""event"",""trial"",""time""
""fullscreenenter"",""1"",""3644""
","
","
","""event"",""trial"",""time""
""fullscreenenter"",""1"",""3644""
","
","","","130.5","","","16","17720","5888","&#9789;","elianto","#f73b6a7A"," "," ","1","-10","[981.9000000059605]","1","0","4","","","","","","","",""
"pit-trial","90","717147","0.0-2.0-17.1-4.1","battery-v0.2","","""event"",""trial"",""time""
""fullscreenenter"",""1"",""3644""
","
","
","""event"",""trial"",""time""
""fullscreenenter"",""1"",""3644""
","
","","","1370.1000000089407","","","16","17720","5888","&#9789;","elianto","#f73b6a7A"," "," ","1","0","[2220.4000000059605]","1","0","4","","","","","","","",""
"pit-trial","91","720796","0.0-2.0-17.2-0.2","battery-v0.2","","""event"",""trial"",""time""
""fullscreenenter"",""1"",""3644""
","
","
","""event"",""trial"",""time""
""fullscreenenter"",""1"",""3644""
","
","","","794.2000000029802","","","16","17720","5888","&#9789;","elianto","#f73b6a7A"," "," ","1","0","[1645.6000000089407]","1","0","4","","","","","","","",""
"pit-trial","92","724276","0.0-2.0-17.2-1.2","battery-v0.2","","""event"",""trial"",""time""
""fullscreenenter"",""1"",""3644""
","
","
","""event"",""trial"",""time""
""fullscreenenter"",""1"",""3644""
","
","","","625.9000000059605","","","16","17720","5888","&#9789;","elianto","#f73b6a7A"," "," ","1","0","[1477.2999999970198]","1","0","4","","","","","","","",""
"pit-trial","93","727987","0.0-2.0-17.2-2.2","battery-v0.2","","""event"",""trial"",""time""
""fullscreenenter"",""1"",""3644""
","
","
","""event"",""trial"",""time""
""fullscreenenter"",""1"",""3644""
","
","","","858.3999999910593","","","16","17720","5888","&#9789;","elianto","#f73b6a7A"," "," ","1","0","[1708.8999999910593]","1","0","4","","","","","","","",""
"pit-trial","94","732243","0.0-2.0-17.2-3.2","battery-v0.2","","""event"",""trial"",""time""
""fullscreenenter"",""1"",""3644""
","
","
","""event"",""trial"",""time""
""fullscreenenter"",""1"",""3644""
","
","","","1402.2999999970198","","","16","17720","5888","&#9789;","elianto","#f73b6a7A"," "," ","1","-10","[2253]","1","0","4","","","","","","","",""
"pit-trial","95","735451","0.0-2.0-17.2-4.2","battery-v0.2","","""event"",""trial"",""time""
""fullscreenenter"",""1"",""3644""
","
","
","""event"",""trial"",""time""
""fullscreenenter"",""1"",""3644""
","
","","","354.5","","","16","17720","5888","&#9789;","elianto","#f73b6a7A"," "," ","1","0","[1206]","1","0","4","","","","","","","",""
"pit-trial","96","739075","0.0-2.0-17.3-0.3","battery-v0.2","","""event"",""trial"",""time""
""fullscreenenter"",""1"",""3644""
","
","
","""event"",""trial"",""time""
""fullscreenenter"",""1"",""3644""
","
","","","769.7000000029802","","","16","17720","5888","&#9789;","elianto","#f73b6a7A"," "," ","1","0","[1621.2999999970198]","1","0","4","","","","","","","",""
"pit-trial","97","742850","0.0-2.0-17.3-1.3","battery-v0.2","","""event"",""trial"",""time""
""fullscreenenter"",""1"",""3644""
","
","
","""event"",""trial"",""time""
""fullscreenenter"",""1"",""3644""
","
","","","922.8999999910593","","","16","17720","5888","&#9789;","elianto","#f73b6a7A"," "," ","1","0","[1773.3999999910593]","1","0","4","","","","","","","",""
"pit-trial","98","746420","0.0-2.0-17.3-2.3","battery-v0.2","","""event"",""trial"",""time""
""fullscreenenter"",""1"",""3644""
","
","
","""event"",""trial"",""time""
""fullscreenenter"",""1"",""3644""
","
","","","715.7999999970198","","","16","17720","5888","&#9789;","elianto","#f73b6a7A"," "," ","1","0","[1566.5]","1","0","4","","","","","","","",""
"pit-trial","99","749578","0.0-2.0-17.3-3.3","battery-v0.2","","""event"",""trial"",""time""
""fullscreenenter"",""1"",""3644""
","
","
","""event"",""trial"",""time""
""fullscreenenter"",""1"",""3644""
","
","","","306.29999999701977","","","16","17720","5888","&#9789;","elianto","#f73b6a7A"," "," ","1","-10","[1157]","1","0","4","","","","","","","",""
"pit-trial","100","752852","0.0-2.0-17.3-4.3","battery-v0.2","","""event"",""trial"",""time""
""fullscreenenter"",""1"",""3644""
","
","
","""event"",""trial"",""time""
""fullscreenenter"",""1"",""3644""
","
","","","419.79999999701977","","","16","17720","5888","&#9789;","elianto","#f73b6a7A"," "," ","1","0","[1270.7999999970198]","1","0","4","","","","","","","",""
"call-function","101","752853","0.0-2.0-18.0","battery-v0.2","","""event"",""trial"",""time""
""fullscreenenter"",""1"",""3644""
","
","
","""event"",""trial"",""time""
""fullscreenenter"",""1"",""3644""
","
","","","","","","","","","","","","","","","","","","","","","","","","","","",""
"pit-instructions","102","859205","0.0-2.0-19.0","battery-v0.2","","""event"",""trial"",""time""
""fullscreenenter"",""1"",""3644""
","
","
","""event"",""trial"",""time""
""fullscreenenter"",""1"",""3644""
","
","","[{""page_index"":0,""viewing_time"":6991.20000000298},{""page_index"":1,""viewing_time"":6157},{""page_index"":2,""viewing_time"":16768.29999999702},{""page_index"":3,""viewing_time"":13531.60000000894},{""page_index"":4,""viewing_time"":19905.29999999702},{""page_index"":5,""viewing_time"":9577.20000000298},{""page_index"":6,""viewing_time"":12263.79999999702},{""page_index"":7,""viewing_time"":15433},{""page_index"":8,""viewing_time"":5723.5}]","106351.10000000894","","","","","","","","","","","","","","","","","","","","","","","",""
"pit-comprehension","103","864495","0.0-2.0-20.0-0.0","battery-v0.2","","""event"",""trial"",""time""
""fullscreenenter"",""1"",""3644""
","
","
","""event"",""trial"",""time""
""fullscreenenter"",""1"",""3644""
","
","","","5287.199999988079","[""SPACE""]","0","16","17720","5888","","","","","","","","","","","","","","","","","","",""
"pit-instructions","104","867130","0.0-2.0-20.0-1.0","battery-v0.2","","""event"",""trial"",""time""
""fullscreenenter"",""1"",""3644""
","
","
","""event"",""trial"",""time""
""fullscreenenter"",""1"",""3644""
","
","","[{""page_index"":0,""viewing_time"":2613}]","2613.2000000029802","","","","","","","","","","","","","","","","","","","","","","","",""
"pit-comprehension","105","874156","0.0-2.0-21.0-0.0","battery-v0.2","","""event"",""trial"",""time""
""fullscreenenter"",""1"",""3644""
","
","
","""event"",""trial"",""time""
""fullscreenenter"",""1"",""3644""
","
","","","7023.29999999702","[""10""]","0","16","17720","5888","","","","","","","","","","","","","","","","","","",""
"pit-instructions","106","876391","0.0-2.0-21.0-1.0","battery-v0.2","","""event"",""trial"",""time""
""fullscreenenter"",""1"",""3644""
","
","
","""event"",""trial"",""time""
""fullscreenenter"",""1"",""3644""
","
","","[{""page_index"":0,""viewing_time"":2210.4000000059605}]","2210.5999999940395","","","","","","","","","","","","","","","","","","","","","","","",""
"pit-comprehension","107","882948","0.0-2.0-22.0-0.0","battery-v0.2","","""event"",""trial"",""time""
""fullscreenenter"",""1"",""3644""
","
","
","""event"",""trial"",""time""
""fullscreenenter"",""1"",""3644""
","
","","","6555.600000008941","[""-10""]","1","16","17720","5888","","","","","","","","","","","","","","","","","","",""
"pit-instructions","108","889155","0.0-2.0-22.0-1.0","battery-v0.2","","""event"",""trial"",""time""
""fullscreenenter"",""1"",""3644""
","
","
","""event"",""trial"",""time""
""fullscreenenter"",""1"",""3644""
","
","","[{""page_index"":0,""viewing_time"":6183.800000011921}]","6184.100000008941","","","","","","","","","","","","","","","","","","","","","","","",""
"pit-instructions","109","890857","0.0-2.0-22.0-2.0-0.0","battery-v0.2","","""event"",""trial"",""time""
""fullscreenenter"",""1"",""3644""
","
","
","""event"",""trial"",""time""
""fullscreenenter"",""1"",""3644""
","
","","[{""page_index"":0,""viewing_time"":1700.7999999970198}]","1700.8999999910593","","","","","","","","","","","","","","","","","","","","","","","",""
"pit-comprehension","110","897331","0.0-2.0-22.1-0.1","battery-v0.2","","""event"",""trial"",""time""
""fullscreenenter"",""1"",""3644""
","
","
","""event"",""trial"",""time""
""fullscreenenter"",""1"",""3644""
","
","","","6472.5","[""0""]","0","16","17720","5888","","","","","","","","","","","","","","","","","","",""
"pit-instructions","111","899132","0.0-2.0-22.1-1.1","battery-v0.2","","""event"",""trial"",""time""
""fullscreenenter"",""1"",""3644""
","
","
","""event"",""trial"",""time""
""fullscreenenter"",""1"",""3644""
","
","","[{""page_index"":0,""viewing_time"":1775.300000011921}]","1775.5","","","","","","","","","","","","","","","","","","","","","","","",""
"pit-comprehension","112","909945","0.0-2.0-23.0-0.0","battery-v0.2","","""event"",""trial"",""time""
""fullscreenenter"",""1"",""3644""
","
","
","""event"",""trial"",""time""
""fullscreenenter"",""1"",""3644""
","
","","","10811.199999988079","[""True""]","0","16","17720","5888","","","","","","","","","","","","","","","","","","",""
"pit-instructions","113","913465","0.0-2.0-23.0-1.0","battery-v0.2","","""event"",""trial"",""time""
""fullscreenenter"",""1"",""3644""
","
","
","""event"",""trial"",""time""
""fullscreenenter"",""1"",""3644""
","
","","[{""page_index"":0,""viewing_time"":3496.4000000059605}]","3496.5","","","","","","","","","","","","","","","","","","","","","","","",""
"pit-comprehension","114","921374","0.0-2.0-24.0-0.0","battery-v0.2","","""event"",""trial"",""time""
""fullscreenenter"",""1"",""3644""
","
","
","""event"",""trial"",""time""
""fullscreenenter"",""1"",""3644""
","
","","","7907.4000000059605","[""True""]","0","16","17720","5888","","","","","","","","","","","","","","","","","","",""
"pit-instructions","115","923142","0.0-2.0-24.0-1.0","battery-v0.2","","""event"",""trial"",""time""
""fullscreenenter"",""1"",""3644""
","
","
","""event"",""trial"",""time""
""fullscreenenter"",""1"",""3644""
","
","","[{""page_index"":0,""viewing_time"":1742.7000000029802}]","1742.7999999970198","","","","","","","","","","","","","","","","","","","","","","","",""
"pit-comprehension","116","929683","0.0-2.0-25.0-0.0","battery-v0.2","","""event"",""trial"",""time""
""fullscreenenter"",""1"",""3644""
","
","
","""event"",""trial"",""time""
""fullscreenenter"",""1"",""3644""
","
","","","6539.5","[""True""]","0","16","17720","5888","","","","","","","","","","","","","","","","","","",""
"pit-instructions","117","931735","0.0-2.0-25.0-1.0","battery-v0.2","","""event"",""trial"",""time""
""fullscreenenter"",""1"",""3644""
","
","
","""event"",""trial"",""time""
""fullscreenenter"",""1"",""3644""
","
","","[{""page_index"":0,""viewing_time"":2027.8999999910593}]","2028.0999999940395","","","","","","","","","","","","","","","","","","","","","","","",""
"pit-comprehension","118","936741","0.0-2.0-26.0-0.0","battery-v0.2","","""event"",""trial"",""time""
""fullscreenenter"",""1"",""3644""
","
","
","""event"",""trial"",""time""
""fullscreenenter"",""1"",""3644""
","
","","","5003.899999991059","[""False""]","0","16","17720","5888","","","","","","","","","","","","","","","","","","",""
"pit-instructions","119","940095","0.0-2.0-26.0-1.0","battery-v0.2","","""event"",""trial"",""time""
""fullscreenenter"",""1"",""3644""
","
","
","""event"",""trial"",""time""
""fullscreenenter"",""1"",""3644""
","
","","[{""page_index"":0,""viewing_time"":3327.7999999970198}]","3327.8999999910593","","","","","","","","","","","","","","","","","","","","","","","",""
"pit-instructions","120","965689","0.0-3.0","battery-v0.2","","""event"",""trial"",""time""
""fullscreenenter"",""1"",""3644""
","
","
","""event"",""trial"",""time""
""fullscreenenter"",""1"",""3644""
","
","","[{""page_index"":0,""viewing_time"":5103.9000000059605},{""page_index"":1,""viewing_time"":7408.29999999702},{""page_index"":2,""viewing_time"":13080.89999999106}]","25593.29999999702","","","","","","","","","","","","","","","","","","","","","","","",""
"pit-trial","121","969821","0.0-4.0","battery-v0.2","","""event"",""trial"",""time""
""fullscreenenter"",""1"",""3644""
","
","
","""event"",""trial"",""time""
""fullscreenenter"",""1"",""3644""
","
","","","1275.4000000059605","","","16","17720","5888","&#9733;","elianto","#3366ff99","-1"," ","0","0","[2127.2000000029802]","1","1","","","17720","1","2","2","win","no-go","0"
"pit-trial","122","974675","0.0-5.0","battery-v0.2","","""event"",""trial"",""time""
""fullscreenenter"",""1"",""3644""
","
","
","""event"",""trial"",""time""
""fullscreenenter"",""1"",""3644""
","
","","","-1","","","16","17720","5888","&#9752;","elianto","#f73b6a7A"," ","-1","0","-10","[]","0","1","","","17720","2","3","3","lose","go","0"
"pit-trial","123","978076","0.0-6.0","battery-v0.2","","""event"",""trial"",""time""
""fullscreenenter"",""1"",""3644""
","
","
","""event"",""trial"",""time""
""fullscreenenter"",""1"",""3644""
","
","","","547.5999999940395","","","16","17720","5888","&#9730;","elianto","#3366ff99"," "," ","1","+10","[1398.2999999970198]","1","1","","","17720","3","1","1","win","go","0"
"pit-trial","124","981765","0.0-7.0","battery-v0.2","","""event"",""trial"",""time""
""fullscreenenter"",""1"",""3644""
","
","
","""event"",""trial"",""time""
""fullscreenenter"",""1"",""3644""
","
","","","835.7999999970198","","","16","17720","5888","&#9728;","elianto","#f73b6a7A","-1"," ","0","0","[1686.2999999970198]","1","1","","","17720","4","0","4","lose","no-go","1"
"pit-trial","125","985692","0.0-8.0","battery-v0.2","","""event"",""trial"",""time""
""fullscreenenter"",""1"",""3644""
","
","
","""event"",""trial"",""time""
""fullscreenenter"",""1"",""3644""
","
","","","1074.1000000089407","","","16","17720","5888","&#9728;","elianto","#f73b6a7A","-1"," ","0","-10","[1925.1000000089407]","1","1","","","17720","5","0","4","lose","no-go","0"
"pit-trial","126","990545","0.0-9.0","battery-v0.2","","""event"",""trial"",""time""
""fullscreenenter"",""1"",""3644""
","
","
","""event"",""trial"",""time""
""fullscreenenter"",""1"",""3644""
","
","","","-1","","","16","17720","5888","&#9752;","elianto","#f73b6a7A"," ","-1","0","-10","[]","0","1","","","17720","6","3","3","lose","go","0"
"pit-trial","127","994492","0.0-10.0","battery-v0.2","","""event"",""trial"",""time""
""fullscreenenter"",""1"",""3644""
","
","
","""event"",""trial"",""time""
""fullscreenenter"",""1"",""3644""
","
","","","1094.300000011921","","","16","17720","5888","&#9733;","elianto","#3366ff99","-1"," ","0","0","[1944.7000000029802]","1","1","","","17720","7","2","2","win","no-go","0"
"pit-trial","128","998284","0.0-11.0","battery-v0.2","","""event"",""trial"",""time""
""fullscreenenter"",""1"",""3644""
","
","
","""event"",""trial"",""time""
""fullscreenenter"",""1"",""3644""
","
","","","939.2000000029802","","","16","17720","5888","&#9730;","elianto","#3366ff99"," "," ","1","+10","[1790.2000000029802]","1","1","","","17720","8","1","1","win","go","0"
"pit-trial","129","1001901","0.0-12.0","battery-v0.2","","""event"",""trial"",""time""
""fullscreenenter"",""1"",""3644""
","
","
","""event"",""trial"",""time""
""fullscreenenter"",""1"",""3644""
","
","","","763.5999999940395","","","16","17720","5888","&#9728;","elianto","#f73b6a7A","-1"," ","0","-10","[1614.4000000059605]","1","1","","","17720","9","0","4","lose","no-go","0"
"pit-trial","130","1005868","0.0-13.0","battery-v0.2","","""event"",""trial"",""time""
""fullscreenenter"",""1"",""3644""
","
","
","""event"",""trial"",""time""
""fullscreenenter"",""1"",""3644""
","
","","","1115.2000000029802","","","16","17720","5888","&#9752;","elianto","#f73b6a7A"," "," ","1","0","[1965.5]","1","1","","","17720","10","3","3","lose","go","0"
"pit-trial","131","1009556","0.0-14.0","battery-v0.2","","""event"",""trial"",""time""
""fullscreenenter"",""1"",""3644""
","
","
","""event"",""trial"",""time""
""fullscreenenter"",""1"",""3644""
","
","","","833.5","","","16","17720","5888","&#9730;","elianto","#3366ff99"," "," ","1","0","[1685.4000000059605]","1","1","","","17720","11","1","1","win","go","1"
"pit-trial","132","1013421","0.0-15.0","battery-v0.2","","""event"",""trial"",""time""
""fullscreenenter"",""1"",""3644""
","
","
","""event"",""trial"",""time""
""fullscreenenter"",""1"",""3644""
","
","","","1011.0999999940395","","","16","17720","5888","&#9733;","elianto","#3366ff99","-1"," ","0","0","[1861.5999999940395]","1","1","","","17720","12","2","2","win","no-go","0"
"pit-trial","133","1017437","0.0-16.0","battery-v0.2","","""event"",""trial"",""time""
""fullscreenenter"",""1"",""3644""
","
","
","""event"",""trial"",""time""
""fullscreenenter"",""1"",""3644""
","
","","","1161.7000000029802","","","16","17720","5888","&#9752;","elianto","#f73b6a7A"," "," ","1","0","[2012.9000000059605]","1","1","","","17720","13","3","3","lose","go","0"
"pit-trial","134","1022289","0.0-17.0","battery-v0.2","","""event"",""trial"",""time""
""fullscreenenter"",""1"",""3644""
","
","
","""event"",""trial"",""time""
""fullscreenenter"",""1"",""3644""
","
","","","-1","","","16","17720","5888","&#9733;","elianto","#3366ff99","-1","-1","1","+10","[]","0","1","","","17720","14","2","2","win","no-go","0"
"pit-trial","135","1026572","0.0-18.0","battery-v0.2","","""event"",""trial"",""time""
""fullscreenenter"",""1"",""3644""
","
","
","""event"",""trial"",""time""
""fullscreenenter"",""1"",""3644""
","
","","","1431.5","","","16","17720","5888","&#9730;","elianto","#3366ff99"," "," ","1","+10","[2281.5]","1","1","","","17720","15","1","1","win","go","0"
"pit-trial","136","1030725","0.0-19.0","battery-v0.2","","""event"",""trial"",""time""
""fullscreenenter"",""1"",""3644""
","
","
","""event"",""trial"",""time""
""fullscreenenter"",""1"",""3644""
","
","","","1298.300000011921","","","16","17720","5888","&#9728;","elianto","#f73b6a7A","-1"," ","0","-10","[2149.5]","1","1","","","17720","16","0","4","lose","no-go","0"
"pit-trial","137","1035579","0.0-20.0","battery-v0.2","","""event"",""trial"",""time""
""fullscreenenter"",""1"",""3644""
","
","
","""event"",""trial"",""time""
""fullscreenenter"",""1"",""3644""
","
","","","-1","","","16","17720","5888","&#9733;","elianto","#3366ff99","-1","-1","1","+10","[]","0","1","","","17720","17","2","2","win","no-go","0"
"pit-trial","138","1039604","0.0-21.0","battery-v0.2","","""event"",""trial"",""time""
""fullscreenenter"",""1"",""3644""
","
","
","""event"",""trial"",""time""
""fullscreenenter"",""1"",""3644""
","
","","","1171.7999999970198","","","16","17720","5888","&#9730;","elianto","#3366ff99"," "," ","1","+10","[2022.6000000089407]","1","1","","","17720","18","1","1","win","go","0"
"pit-trial","139","1043581","0.0-22.0","battery-v0.2","","""event"",""trial"",""time""
""fullscreenenter"",""1"",""3644""
","
","
","""event"",""trial"",""time""
""fullscreenenter"",""1"",""3644""
","
","","","1121.7000000029802","","","16","17720","5888","&#9752;","elianto","#f73b6a7A"," "," ","1","0","[1973.6000000089407]","1","1","","","17720","19","3","3","lose","go","0"
"pit-trial","140","1048436","0.0-23.0","battery-v0.2","","""event"",""trial"",""time""
""fullscreenenter"",""1"",""3644""
","
","
","""event"",""trial"",""time""
""fullscreenenter"",""1"",""3644""
","
","","","-1","","","16","17720","5888","&#9728;","elianto","#f73b6a7A","-1","-1","1","0","[]","0","1","","","17720","20","0","4","lose","no-go","0"
"pit-instructions","141","1073175","0.0-24.0","battery-v0.2","","""event"",""trial"",""time""
""fullscreenenter"",""1"",""3644""
","
","
","""event"",""trial"",""time""
""fullscreenenter"",""1"",""3644""
","
","","[{""page_index"":0,""viewing_time"":17179.90000000596},{""page_index"":1,""viewing_time"":7558.399999991059}]","24738.5","","","","","","","","","","","","","","","","","","","","","","","",""
"pit-trial","142","1077005","0.0-25.0","battery-v0.2","","""event"",""trial"",""time""
""fullscreenenter"",""1"",""3644""
","
","
","""event"",""trial"",""time""
""fullscreenenter"",""1"",""3644""
","
","","","975.7999999970198","","","16","17720","5888","w","elianto","#f73b6a7A","-1"," ","0","0","[1826.7000000029802]","1","2","","","17720","21","3","4","lose","no-go","1"
"pit-trial","143","1080357","0.0-26.0","battery-v0.2","","""event"",""trial"",""time""
""fullscreenenter"",""1"",""3644""
","
","
","""event"",""trial"",""time""
""fullscreenenter"",""1"",""3644""
","
","","","499.09999999403954","","","16","17720","5888","e","elianto","#f73b6a7A"," "," ","1","0","[1349.7000000029802]","1","2","","","17720","22","2","3","lose","go","0"
"pit-trial","144","1083861","0.0-27.0","battery-v0.2","","""event"",""trial"",""time""
""fullscreenenter"",""1"",""3644""
","
","
","""event"",""trial"",""time""
""fullscreenenter"",""1"",""3644""
","
","","","651.0999999940395","","","16","17720","5888","d","elianto","#3366ff99","-1"," ","0","0","[1501.699999988079]","1","2","","","17720","23","1","2","win","no-go","0"
"pit-trial","145","1087460","0.0-28.0","battery-v0.2","","""event"",""trial"",""time""
""fullscreenenter"",""1"",""3644""
","
","
","""event"",""trial"",""time""
""fullscreenenter"",""1"",""3644""
","
","","","746.9000000059605","","","16","17720","5888","j","elianto","#f73b6a7A"," "," ","1","-10","[1597.6000000089407]","1","2","","","17720","24","0","3","lose","go","1"
"pit-trial","146","1091109","0.0-29.0","battery-v0.2","","""event"",""trial"",""time""
""fullscreenenter"",""1"",""3644""
","
","
","""event"",""trial"",""time""
""fullscreenenter"",""1"",""3644""
","
","","","795.2999999970198","","","16","17720","5888","e","elianto","#f73b6a7A"," "," ","1","0","[1645.9000000059605]","1","2","","","17720","25","2","3","lose","go","0"
"pit-trial","147","1094740","0.0-30.0","battery-v0.2","","""event"",""trial"",""time""
""fullscreenenter"",""1"",""3644""
","
","
","""event"",""trial"",""time""
""fullscreenenter"",""1"",""3644""
","
","","","778.1999999880791","","","16","17720","5888","w","elianto","#f73b6a7A","-1"," ","0","-10","[1628.8999999910593]","1","2","","","17720","26","3","4","lose","no-go","0"
"pit-trial","148","1099593","0.0-31.0","battery-v0.2","","""event"",""trial"",""time""
""fullscreenenter"",""1"",""3644""
","
","
","""event"",""trial"",""time""
""fullscreenenter"",""1"",""3644""
","
","","","-1","","","16","17720","5888","j","elianto","#f73b6a7A"," ","-1","0","-10","[]","0","2","","","17720","27","0","3","lose","go","0"
"pit-trial","149","1103238","0.0-32.0","battery-v0.2","","""event"",""trial"",""time""
""fullscreenenter"",""1"",""3644""
","
","
","""event"",""trial"",""time""
""fullscreenenter"",""1"",""3644""
","
","","","790.7999999970198","","","16","17720","5888","d","elianto","#3366ff99","-1"," ","0","0","[1641.4000000059605]","1","2","","","17720","28","1","2","win","no-go","0"
"pit-trial","150","1108091","0.0-33.0","battery-v0.2","","""event"",""trial"",""time""
""fullscreenenter"",""1"",""3644""
","
","
","""event"",""trial"",""time""
""fullscreenenter"",""1"",""3644""
","
","","","-1","","","16","17720","5888","d","elianto","#3366ff99","-1","-1","1","+10","[]","0","2","","","17720","29","1","2","win","no-go","0"
"pit-trial","151","1112190","0.0-34.0","battery-v0.2","","""event"",""trial"",""time""
""fullscreenenter"",""1"",""3644""
","
","
","""event"",""trial"",""time""
""fullscreenenter"",""1"",""3644""
","
","","","1244.2000000029802","","","16","17720","5888","j","elianto","#f73b6a7A"," "," ","1","0","[2095.2000000029802]","1","2","","","17720","30","0","3","lose","go","0"
"pit-trial","152","1115741","0.0-35.0","battery-v0.2","","""event"",""trial"",""time""
""fullscreenenter"",""1"",""3644""
","
","
","""event"",""trial"",""time""
""fullscreenenter"",""1"",""3644""
","
","","","697.7999999970198","","","16","17720","5888","e","elianto","#f73b6a7A"," "," ","1","-10","[1548.7999999970198]","1","2","","","17720","31","2","3","lose","go","1"
"pit-trial","153","1120595","0.0-36.0","battery-v0.2","","""event"",""trial"",""time""
""fullscreenenter"",""1"",""3644""
","
","
","""event"",""trial"",""time""
""fullscreenenter"",""1"",""3644""
","
","","","-1","","","16","17720","5888","w","elianto","#f73b6a7A","-1","-1","1","-10","[]","0","2","","","17720","32","3","4","lose","no-go","1"
"pit-trial","154","1124173","0.0-37.0","battery-v0.2","","""event"",""trial"",""time""
""fullscreenenter"",""1"",""3644""
","
","
","""event"",""trial"",""time""
""fullscreenenter"",""1"",""3644""
","
","","","724.2000000029802","","","16","17720","5888","j","elianto","#f73b6a7A"," "," ","1","0","[1575.2999999970198]","1","2","","","17720","33","0","3","lose","go","0"
"pit-trial","155","1127789","0.0-38.0","battery-v0.2","","""event"",""trial"",""time""
""fullscreenenter"",""1"",""3644""
","
","
","""event"",""trial"",""time""
""fullscreenenter"",""1"",""3644""
","
","","","762.8999999910593","","","16","17720","5888","w","elianto","#f73b6a7A","-1"," ","0","-10","[1613.7999999970198]","1","2","","","17720","34","3","4","lose","no-go","0"
"pit-trial","156","1132642","0.0-39.0","battery-v0.2","","""event"",""trial"",""time""
""fullscreenenter"",""1"",""3644""
","
","
","""event"",""trial"",""time""
""fullscreenenter"",""1"",""3644""
","
","","","-1","","","16","17720","5888","d","elianto","#3366ff99","-1","-1","1","+10","[]","0","2","","","17720","35","1","2","win","no-go","0"
"pit-trial","157","1136700","0.0-40.0","battery-v0.2","","""event"",""trial"",""time""
""fullscreenenter"",""1"",""3644""
","
","
","""event"",""trial"",""time""
""fullscreenenter"",""1"",""3644""
","
","","","1205.3999999910593","","","16","17720","5888","e","elianto","#f73b6a7A"," "," ","1","0","[2056.199999988079]","1","2","","","17720","36","2","3","lose","go","0"
"pit-trial","158","1140590","0.0-41.0","battery-v0.2","","""event"",""trial"",""time""
""fullscreenenter"",""1"",""3644""
","
","
","""event"",""trial"",""time""
""fullscreenenter"",""1"",""3644""
","
","","","1035.2999999970198","","","16","17720","5888","w","elianto","#f73b6a7A","-1"," ","0","0","[1886]","1","2","","","17720","37","3","4","lose","no-go","1"
"pit-trial","159","1145445","0.0-42.0","battery-v0.2","","""event"",""trial"",""time""
""fullscreenenter"",""1"",""3644""
","
","
","""event"",""trial"",""time""
""fullscreenenter"",""1"",""3644""
","
","","","-1","","","16","17720","5888","d","elianto","#3366ff99","-1","-1","1","0","[]","0","2","","","17720","38","1","2","win","no-go","1"
"pit-trial","160","1149301","0.0-43.0","battery-v0.2","","""event"",""trial"",""time""
""fullscreenenter"",""1"",""3644""
","
","
","""event"",""trial"",""time""
""fullscreenenter"",""1"",""3644""
","
","","","1003.2000000029802","","","16","17720","5888","j","elianto","#f73b6a7A"," "," ","1","0","[1854.300000011921]","1","2","","","17720","39","0","3","lose","go","0"
"pit-trial","161","1152877","0.0-44.0","battery-v0.2","","""event"",""trial"",""time""
""fullscreenenter"",""1"",""3644""
","
","
","""event"",""trial"",""time""
""fullscreenenter"",""1"",""3644""
","
","","","722.3999999910593","","","16","17720","5888","e","elianto","#f73b6a7A"," "," ","1","0","[1573.3999999910593]","1","2","","","17720","40","2","3","lose","go","0"
"pit-trial","162","1156405","0.0-45.0","battery-v0.2","","""event"",""trial"",""time""
""fullscreenenter"",""1"",""3644""
","
","
","""event"",""trial"",""time""
""fullscreenenter"",""1"",""3644""
","
","","","674.4000000059605","","","16","17720","5888","w","elianto","#f73b6a7A","-1"," ","0","-10","[1525.5999999940395]","1","2","","","17720","41","3","4","lose","no-go","0"
"pit-trial","163","1161260","0.0-46.0","battery-v0.2","","""event"",""trial"",""time""
""fullscreenenter"",""1"",""3644""
","
","
","""event"",""trial"",""time""
""fullscreenenter"",""1"",""3644""
","
","","","-1","","","16","17720","5888","d","elianto","#3366ff99","-1","-1","1","+10","[]","0","2","","","17720","42","1","2","win","no-go","0"
"pit-trial","164","1165230","0.0-47.0","battery-v0.2","","""event"",""trial"",""time""
""fullscreenenter"",""1"",""3644""
","
","
","""event"",""trial"",""time""
""fullscreenenter"",""1"",""3644""
","
","","","1116.800000011921","","","16","17720","5888","e","elianto","#f73b6a7A"," "," ","1","0","[1967.4000000059605]","1","2","","","17720","43","2","3","lose","go","0"
"pit-trial","165","1168534","0.0-48.0","battery-v0.2","","""event"",""trial"",""time""
""fullscreenenter"",""1"",""3644""
","
","
","""event"",""trial"",""time""
""fullscreenenter"",""1"",""3644""
","
","","","450.40000000596046","","","16","17720","5888","j","elianto","#f73b6a7A"," "," ","1","0","[1301.1000000089407]","1","2","","","17720","44","0","3","lose","go","0"
"pit-trial","166","1173388","0.0-49.0","battery-v0.2","","""event"",""trial"",""time""
""fullscreenenter"",""1"",""3644""
","
","
","""event"",""trial"",""time""
""fullscreenenter"",""1"",""3644""
","
","","","-1","","","16","17720","5888","j","elianto","#f73b6a7A"," ","-1","0","-10","[]","0","2","","","17720","45","0","3","lose","go","0"
"pit-trial","167","1178241","0.0-50.0","battery-v0.2","","""event"",""trial"",""time""
""fullscreenenter"",""1"",""3644""
","
","
","""event"",""trial"",""time""
""fullscreenenter"",""1"",""3644""
","
","","","-1","","","16","17720","5888","d","elianto","#3366ff99","-1","-1","1","+10","[]","0","2","","","17720","46","1","2","win","no-go","0"
"pit-trial","168","1182054","0.0-51.0","battery-v0.2","","""event"",""trial"",""time""
""fullscreenenter"",""1"",""3644""
","
","
","""event"",""trial"",""time""
""fullscreenenter"",""1"",""3644""
","
","","","958.4000000059605","","","16","17720","5888","e","elianto","#f73b6a7A"," "," ","1","0","[1810.2999999970198]","1","2","","","17720","47","2","3","lose","go","0"
"pit-trial","169","1185413","0.0-52.0","battery-v0.2","","""event"",""trial"",""time""
""fullscreenenter"",""1"",""3644""
","
","
","""event"",""trial"",""time""
""fullscreenenter"",""1"",""3644""
","
","","","505.90000000596046","","","16","17720","5888","w","elianto","#f73b6a7A","-1"," ","0","-10","[1356.5999999940395]","1","2","","","17720","48","3","4","lose","no-go","0"
"pit-trial","170","1190268","0.0-53.0","battery-v0.2","","""event"",""trial"",""time""
""fullscreenenter"",""1"",""3644""
","
","
","""event"",""trial"",""time""
""fullscreenenter"",""1"",""3644""
","
","","","-1","","","16","17720","5888","d","elianto","#3366ff99","-1","-1","1","+10","[]","0","2","","","17720","49","1","2","win","no-go","0"
"pit-trial","171","1194462","0.0-54.0","battery-v0.2","","""event"",""trial"",""time""
""fullscreenenter"",""1"",""3644""
","
","
","""event"",""trial"",""time""
""fullscreenenter"",""1"",""3644""
","
","","","1339","","","16","17720","5888","e","elianto","#f73b6a7A"," "," ","1","0","[2190.8999999910593]","1","2","","","17720","50","2","3","lose","go","0"
"pit-trial","172","1198381","0.0-55.0","battery-v0.2","","""event"",""trial"",""time""
""fullscreenenter"",""1"",""3644""
","
","
","""event"",""trial"",""time""
""fullscreenenter"",""1"",""3644""
","
","","","1066.199999988079","","","16","17720","5888","j","elianto","#f73b6a7A"," "," ","1","-10","[1917]","1","2","","","17720","51","0","3","lose","go","1"
"pit-trial","173","1203236","0.0-56.0","battery-v0.2","","""event"",""trial"",""time""
""fullscreenenter"",""1"",""3644""
","
","
","""event"",""trial"",""time""
""fullscreenenter"",""1"",""3644""
","
","","","-1","","","16","17720","5888","w","elianto","#f73b6a7A","-1","-1","1","0","[]","0","2","","","17720","52","3","4","lose","no-go","0"
"pit-trial","174","1208090","0.0-57.0","battery-v0.2","","""event"",""trial"",""time""
""fullscreenenter"",""1"",""3644""
","
","
","""event"",""trial"",""time""
""fullscreenenter"",""1"",""3644""
","
","","","-1","","","16","17720","5888","d","elianto","#3366ff99","-1","-1","1","+10","[]","0","2","","","17720","53","1","2","win","no-go","0"
"pit-trial","175","1212006","0.0-58.0","battery-v0.2","","""event"",""trial"",""time""
""fullscreenenter"",""1"",""3644""
","
","
","""event"",""trial"",""time""
""fullscreenenter"",""1"",""3644""
","
","","","1061.5","","","16","17720","5888","w","elianto","#f73b6a7A","-1"," ","0","-10","[1913]","1","2","","","17720","54","3","4","lose","no-go","0"
"pit-trial","176","1216861","0.0-59.0","battery-v0.2","","""event"",""trial"",""time""
""fullscreenenter"",""1"",""3644""
","
","
","""event"",""trial"",""time""
""fullscreenenter"",""1"",""3644""
","
","","","-1","","","16","17720","5888","j","elianto","#f73b6a7A"," ","-1","0","-10","[]","0","2","","","17720","55","0","3","lose","go","0"
"pit-trial","177","1220397","0.0-60.0","battery-v0.2","","""event"",""trial"",""time""
""fullscreenenter"",""1"",""3644""
","
","
","""event"",""trial"",""time""
""fullscreenenter"",""1"",""3644""
","
","","","683.3999999910593","","","16","17720","5888","e","elianto","#f73b6a7A"," "," ","1","0","[1533.8999999910593]","1","2","","","17720","56","2","3","lose","go","0"
"pit-trial","178","1225251","0.0-61.0","battery-v0.2","","""event"",""trial"",""time""
""fullscreenenter"",""1"",""3644""
","
","
","""event"",""trial"",""time""
""fullscreenenter"",""1"",""3644""
","
","","","-1","","","16","17720","5888","w","elianto","#f73b6a7A","-1","-1","1","0","[]","0","2","","","17720","57","3","4","lose","no-go","0"
"pit-trial","179","1228926","0.0-62.0","battery-v0.2","","""event"",""trial"",""time""
""fullscreenenter"",""1"",""3644""
","
","
","""event"",""trial"",""time""
""fullscreenenter"",""1"",""3644""
","
","","","821.7000000029802","","","16","17720","5888","e","elianto","#f73b6a7A"," "," ","1","0","[1672.5]","1","2","","","17720","58","2","3","lose","go","0"
"pit-trial","180","1233157","0.0-63.0","battery-v0.2","","""event"",""trial"",""time""
""fullscreenenter"",""1"",""3644""
","
","
","""event"",""trial"",""time""
""fullscreenenter"",""1"",""3644""
","
","","","1377.3999999910593","","","16","17720","5888","j","elianto","#f73b6a7A"," "," ","1","-10","[2228.5]","1","2","","","17720","59","0","3","lose","go","1"
"pit-trial","181","1237070","0.0-64.0","battery-v0.2","","""event"",""trial"",""time""
""fullscreenenter"",""1"",""3644""
","
","
","""event"",""trial"",""time""
""fullscreenenter"",""1"",""3644""
","
","","","1058.9000000059605","","","16","17720","5888","s","elianto","#3366ff99"," "," ","1","+10","[1909.4000000059605]","1","2","","","17720","60","4","1","win","go","0"
"pit-trial","182","1240646","0.0-65.0","battery-v0.2","","""event"",""trial"",""time""
""fullscreenenter"",""1"",""3644""
","
","
","""event"",""trial"",""time""
""fullscreenenter"",""1"",""3644""
","
","","","721.8000000119209","","","16","17720","5888","e","elianto","#f73b6a7A"," "," ","1","0","[1573.2000000029802]","1","2","","","17720","61","2","3","lose","go","0"
"pit-trial","183","1244182","0.0-66.0","battery-v0.2","","""event"",""trial"",""time""
""fullscreenenter"",""1"",""3644""
","
","
","""event"",""trial"",""time""
""fullscreenenter"",""1"",""3644""
","
","","","682.2000000029802","","","16","17720","5888","d","elianto","#3366ff99","-1"," ","0","0","[1533.0999999940395]","1","2","","","17720","62","1","2","win","no-go","0"
"pit-trial","184","1247814","0.0-67.0","battery-v0.2","","""event"",""trial"",""time""
""fullscreenenter"",""1"",""3644""
","
","
","""event"",""trial"",""time""
""fullscreenenter"",""1"",""3644""
","
","","","777.8999999910593","","","16","17720","5888","s","elianto","#3366ff99"," "," ","1","0","[1629.3999999910593]","1","2","","","17720","63","4","1","win","go","1"
"pit-trial","185","1252667","0.0-68.0","battery-v0.2","","""event"",""trial"",""time""
""fullscreenenter"",""1"",""3644""
","
","
","""event"",""trial"",""time""
""fullscreenenter"",""1"",""3644""
","
","","","-1","","","16","17720","5888","w","elianto","#f73b6a7A","-1","-1","1","0","[]","0","2","","","17720","64","3","4","lose","no-go","0"
"pit-trial","186","1256542","0.0-69.0","battery-v0.2","","""event"",""trial"",""time""
""fullscreenenter"",""1"",""3644""
","
","
","""event"",""trial"",""time""
""fullscreenenter"",""1"",""3644""
","
","","","1021.7000000029802","","","16","17720","5888","p","elianto","#3366ff99","-1"," ","0","0","[1872.5]","1","2","","","17720","65","5","2","win","no-go","0"
"pit-trial","187","1261397","0.0-70.0","battery-v0.2","","""event"",""trial"",""time""
""fullscreenenter"",""1"",""3644""
","
","
","""event"",""trial"",""time""
""fullscreenenter"",""1"",""3644""
","
","","","-1","","","16","17720","5888","w","elianto","#f73b6a7A","-1","-1","1","-10","[]","0","2","","","17720","66","3","4","lose","no-go","1"
"pit-trial","188","1265118","0.0-71.0","battery-v0.2","","""event"",""trial"",""time""
""fullscreenenter"",""1"",""3644""
","
","
","""event"",""trial"",""time""
""fullscreenenter"",""1"",""3644""
","
","","","867.2000000029802","","","16","17720","5888","s","elianto","#3366ff99"," "," ","1","+10","[1718.5]","1","2","","","17720","67","4","1","win","go","0"
"pit-trial","189","1269972","0.0-72.0","battery-v0.2","","""event"",""trial"",""time""
""fullscreenenter"",""1"",""3644""
","
","
","""event"",""trial"",""time""
""fullscreenenter"",""1"",""3644""
","
","","","-1","","","16","17720","5888","d","elianto","#3366ff99","-1","-1","1","+10","[]","0","2","","","17720","68","1","2","win","no-go","0"
"pit-trial","190","1273830","0.0-73.0","battery-v0.2","","""event"",""trial"",""time""
""fullscreenenter"",""1"",""3644""
","
","
","""event"",""trial"",""time""
""fullscreenenter"",""1"",""3644""
","
","","","1005.5","","","16","17720","5888","e","elianto","#f73b6a7A"," "," ","1","0","[1855.9000000059605]","1","2","","","17720","69","2","3","lose","go","0"
"pit-trial","191","1277662","0.0-74.0","battery-v0.2","","""event"",""trial"",""time""
""fullscreenenter"",""1"",""3644""
","
","
","""event"",""trial"",""time""
""fullscreenenter"",""1"",""3644""
","
","","","977.5999999940395","","","16","17720","5888","s","elianto","#3366ff99"," "," ","1","0","[1829.0999999940395]","1","2","","","17720","70","4","1","win","go","1"
"pit-trial","192","1282515","0.0-75.0","battery-v0.2","","""event"",""trial"",""time""
""fullscreenenter"",""1"",""3644""
","
","
","""event"",""trial"",""time""
""fullscreenenter"",""1"",""3644""
","
","","","-1","","","16","17720","5888","d","elianto","#3366ff99","-1","-1","1","+10","[]","0","2","","","17720","71","1","2","win","no-go","0"
"pit-trial","193","1286230","0.0-76.0","battery-v0.2","","""event"",""trial"",""time""
""fullscreenenter"",""1"",""3644""
","
","
","""event"",""trial"",""time""
""fullscreenenter"",""1"",""3644""
","
","","","861","","","16","17720","5888","p","elianto","#3366ff99","-1"," ","0","0","[1712.3999999910593]","1","2","","","17720","72","5","2","win","no-go","0"
"pit-trial","194","1289926","0.0-77.0","battery-v0.2","","""event"",""trial"",""time""
""fullscreenenter"",""1"",""3644""
","
","
","""event"",""trial"",""time""
""fullscreenenter"",""1"",""3644""
","
","","","842.1999999880791","","","16","17720","5888","s","elianto","#3366ff99"," "," ","1","+10","[1693]","1","2","","","17720","73","4","1","win","go","0"
"pit-trial","195","1294780","0.0-78.0","battery-v0.2","","""event"",""trial"",""time""
""fullscreenenter"",""1"",""3644""
","
","
","""event"",""trial"",""time""
""fullscreenenter"",""1"",""3644""
","
","","","-1","","","16","17720","5888","w","elianto","#f73b6a7A","-1","-1","1","0","[]","0","2","","","17720","74","3","4","lose","no-go","0"
"pit-trial","196","1298174","0.0-79.0","battery-v0.2","","""event"",""trial"",""time""
""fullscreenenter"",""1"",""3644""
","
","
","""event"",""trial"",""time""
""fullscreenenter"",""1"",""3644""
","
","","","540.4000000059605","","","16","17720","5888","p","elianto","#3366ff99","-1"," ","0","0","[1391.3999999910593]","1","2","","","17720","75","5","2","win","no-go","0"
"pit-trial","197","1303028","0.0-80.0","battery-v0.2","","""event"",""trial"",""time""
""fullscreenenter"",""1"",""3644""
","
","
","""event"",""trial"",""time""
""fullscreenenter"",""1"",""3644""
","
","","","-1","","","16","17720","5888","d","elianto","#3366ff99","-1","-1","1","+10","[]","0","2","","","17720","76","1","2","win","no-go","0"
"pit-trial","198","1307883","0.0-81.0","battery-v0.2","","""event"",""trial"",""time""
""fullscreenenter"",""1"",""3644""
","
","
","""event"",""trial"",""time""
""fullscreenenter"",""1"",""3644""
","
","","","-1","","","16","17720","5888","w","elianto","#f73b6a7A","-1","-1","1","0","[]","0","2","","","17720","77","3","4","lose","no-go","0"
"pit-trial","199","1312737","0.0-82.0","battery-v0.2","","""event"",""trial"",""time""
""fullscreenenter"",""1"",""3644""
","
","
","""event"",""trial"",""time""
""fullscreenenter"",""1"",""3644""
","
","","","-1","","","16","17720","5888","p","elianto","#3366ff99","-1","-1","1","+10","[]","0","2","","","17720","78","5","2","win","no-go","0"
"pit-trial","200","1316542","0.0-83.0","battery-v0.2","","""event"",""trial"",""time""
""fullscreenenter"",""1"",""3644""
","
","
","""event"",""trial"",""time""
""fullscreenenter"",""1"",""3644""
","
","","","950.6000000089407","","","16","17720","5888","s","elianto","#3366ff99"," "," ","1","+10","[1802.6000000089407]","1","2","","","17720","79","4","1","win","go","0"
"pit-trial","201","1320326","0.0-84.0","battery-v0.2","","""event"",""trial"",""time""
""fullscreenenter"",""1"",""3644""
","
","
","""event"",""trial"",""time""
""fullscreenenter"",""1"",""3644""
","
","","","930.1999999880791","","","16","17720","5888","s","elianto","#3366ff99"," "," ","1","+10","[1780.7999999970198]","1","2","","","17720","80","4","1","win","go","0"
"pit-trial","202","1324637","0.0-85.0","battery-v0.2","","""event"",""trial"",""time""
""fullscreenenter"",""1"",""3644""
","
","
","""event"",""trial"",""time""
""fullscreenenter"",""1"",""3644""
","
","","","1458.4000000059605","","","16","17720","5888","a","elianto","#f73b6a7A","-1"," ","0","-10","[2308.6000000089407]","1","2","","","17720","81","7","4","lose","no-go","0"
"pit-trial","203","1329492","0.0-86.0","battery-v0.2","","""event"",""trial"",""time""
""fullscreenenter"",""1"",""3644""
","
","
","""event"",""trial"",""time""
""fullscreenenter"",""1"",""3644""
","
","","","-1","","","16","17720","5888","w","elianto","#f73b6a7A","-1","-1","1","0","[]","0","2","","","17720","82","3","4","lose","no-go","0"
"pit-trial","204","1333230","0.0-87.0","battery-v0.2","","""event"",""trial"",""time""
""fullscreenenter"",""1"",""3644""
","
","
","""event"",""trial"",""time""
""fullscreenenter"",""1"",""3644""
","
","","","883.4000000059605","","","16","17720","5888","s","elianto","#3366ff99"," "," ","1","+10","[1735.0999999940395]","1","2","","","17720","83","4","1","win","go","0"
"pit-trial","205","1338085","0.0-88.0","battery-v0.2","","""event"",""trial"",""time""
""fullscreenenter"",""1"",""3644""
","
","
","""event"",""trial"",""time""
""fullscreenenter"",""1"",""3644""
","
","","","-1","","","16","17720","5888","p","elianto","#3366ff99","-1","-1","1","+10","[]","0","2","","","17720","84","5","2","win","no-go","0"
"pit-trial","206","1341628","0.0-89.0","battery-v0.2","","""event"",""trial"",""time""
""fullscreenenter"",""1"",""3644""
","
","
","""event"",""trial"",""time""
""fullscreenenter"",""1"",""3644""
","
","","","688","","","16","17720","5888","s","elianto","#3366ff99"," "," ","1","+10","[1539.7999999970198]","1","2","","","17720","85","4","1","win","go","0"
"pit-trial","207","1345758","0.0-90.0","battery-v0.2","","""event"",""trial"",""time""
""fullscreenenter"",""1"",""3644""
","
","
","""event"",""trial"",""time""
""fullscreenenter"",""1"",""3644""
","
","","","1276.7999999970198","","","16","17720","5888","g","elianto","#f73b6a7A"," "," ","1","0","[2127.2999999970198]","1","2","","","17720","86","6","3","lose","go","0"
"pit-trial","208","1350612","0.0-91.0","battery-v0.2","","""event"",""trial"",""time""
""fullscreenenter"",""1"",""3644""
","
","
","""event"",""trial"",""time""
""fullscreenenter"",""1"",""3644""
","
","","","-1","","","16","17720","5888","a","elianto","#f73b6a7A","-1","-1","1","0","[]","0","2","","","17720","87","7","4","lose","no-go","0"
"pit-trial","209","1354359","0.0-92.0","battery-v0.2","","""event"",""trial"",""time""
""fullscreenenter"",""1"",""3644""
","
","
","""event"",""trial"",""time""
""fullscreenenter"",""1"",""3644""
","
","","","891.9000000059605","","","16","17720","5888","p","elianto","#3366ff99","-1"," ","0","0","[1743.7000000029802]","1","2","","","17720","88","5","2","win","no-go","0"
"pit-trial","210","1359212","0.0-93.0","battery-v0.2","","""event"",""trial"",""time""
""fullscreenenter"",""1"",""3644""
","
","
","""event"",""trial"",""time""
""fullscreenenter"",""1"",""3644""
","
","","","-1","","","16","17720","5888","a","elianto","#f73b6a7A","-1","-1","1","0","[]","0","2","","","17720","89","7","4","lose","no-go","0"
"pit-trial","211","1364066","0.0-94.0","battery-v0.2","","""event"",""trial"",""time""
""fullscreenenter"",""1"",""3644""
","
","
","""event"",""trial"",""time""
""fullscreenenter"",""1"",""3644""
","
","","","-1","","","16","17720","5888","p","elianto","#3366ff99","-1","-1","1","0","[]","0","2","","","17720","90","5","2","win","no-go","1"
"pit-trial","212","1367583","0.0-95.0","battery-v0.2","","""event"",""trial"",""time""
""fullscreenenter"",""1"",""3644""
","
","
","""event"",""trial"",""time""
""fullscreenenter"",""1"",""3644""
","
","","","663","","","16","17720","5888","s","elianto","#3366ff99"," "," ","1","+10","[1513.5]","1","2","","","17720","91","4","1","win","go","0"
"pit-trial","213","1372438","0.0-96.0","battery-v0.2","","""event"",""trial"",""time""
""fullscreenenter"",""1"",""3644""
","
","
","""event"",""trial"",""time""
""fullscreenenter"",""1"",""3644""
","
","","","-1","","","16","17720","5888","g","elianto","#f73b6a7A"," ","-1","0","-10","[]","0","2","","","17720","92","6","3","lose","go","0"
"pit-trial","214","1377293","0.0-97.0","battery-v0.2","","""event"",""trial"",""time""
""fullscreenenter"",""1"",""3644""
","
","
","""event"",""trial"",""time""
""fullscreenenter"",""1"",""3644""
","
","","","-1","","","16","17720","5888","a","elianto","#f73b6a7A","-1","-1","1","-10","[]","0","2","","","17720","93","7","4","lose","no-go","1"
"pit-trial","215","1380903","0.0-98.0","battery-v0.2","","""event"",""trial"",""time""
""fullscreenenter"",""1"",""3644""
","
","
","""event"",""trial"",""time""
""fullscreenenter"",""1"",""3644""
","
","","","756.1000000089407","","","16","17720","5888","l","elianto","#3366ff99"," "," ","1","+10","[1607]","1","2","","","17720","94","8","1","win","go","0"
"pit-trial","216","1385757","0.0-99.0","battery-v0.2","","""event"",""trial"",""time""
""fullscreenenter"",""1"",""3644""
","
","
","""event"",""trial"",""time""
""fullscreenenter"",""1"",""3644""
","
","","","-1","","","16","17720","5888","g","elianto","#f73b6a7A"," ","-1","0","-10","[]","0","2","","","17720","95","6","3","lose","go","0"
"pit-trial","217","1390610","0.0-100.0","battery-v0.2","","""event"",""trial"",""time""
""fullscreenenter"",""1"",""3644""
","
","
","""event"",""trial"",""time""
""fullscreenenter"",""1"",""3644""
","
","","","-1","","","16","17720","5888","p","elianto","#3366ff99","-1","-1","1","+10","[]","0","2","","","17720","96","5","2","win","no-go","0"
"pit-trial","218","1395463","0.0-101.0","battery-v0.2","","""event"",""trial"",""time""
""fullscreenenter"",""1"",""3644""
","
","
","""event"",""trial"",""time""
""fullscreenenter"",""1"",""3644""
","
","","","-1","","","16","17720","5888","a","elianto","#f73b6a7A","-1","-1","1","0","[]","0","2","","","17720","97","7","4","lose","no-go","0"
"pit-trial","219","1399039","0.0-102.0","battery-v0.2","","""event"",""trial"",""time""
""fullscreenenter"",""1"",""3644""
","
","
","""event"",""trial"",""time""
""fullscreenenter"",""1"",""3644""
","
","","","721.7999999970198","","","16","17720","5888","l","elianto","#3366ff99"," "," ","1","+10","[1572.5]","1","2","","","17720","98","8","1","win","go","0"
"pit-trial","220","1403893","0.0-103.0","battery-v0.2","","""event"",""trial"",""time""
""fullscreenenter"",""1"",""3644""
","
","
","""event"",""trial"",""time""
""fullscreenenter"",""1"",""3644""
","
","","","-1","","","16","17720","5888","p","elianto","#3366ff99","-1","-1","1","+10","[]","0","2","","","17720","99","5","2","win","no-go","0"
"pit-trial","221","1408746","0.0-104.0","battery-v0.2","","""event"",""trial"",""time""
""fullscreenenter"",""1"",""3644""
","
","
","""event"",""trial"",""time""
""fullscreenenter"",""1"",""3644""
","
","","","-1","","","16","17720","5888","g","elianto","#f73b6a7A"," ","-1","0","-10","[]","0","2","","","17720","100","6","3","lose","go","0"
"pit-trial","222","1412455","0.0-105.0","battery-v0.2","","""event"",""trial"",""time""
""fullscreenenter"",""1"",""3644""
","
","
","""event"",""trial"",""time""
""fullscreenenter"",""1"",""3644""
","
","","","854.3000000119209","","","16","17720","5888","u","elianto","#3366ff99"," "," ","1","+10","[1705.800000011921]","1","2","","","17720","101","9","1","win","go","0"
"pit-trial","223","1417310","0.0-106.0","battery-v0.2","","""event"",""trial"",""time""
""fullscreenenter"",""1"",""3644""
","
","
","""event"",""trial"",""time""
""fullscreenenter"",""1"",""3644""
","
","","","-1","","","16","17720","5888","p","elianto","#3366ff99","-1","-1","1","+10","[]","0","2","","","17720","102","5","2","win","no-go","0"
"pit-trial","224","1420806","0.0-107.0","battery-v0.2","","""event"",""trial"",""time""
""fullscreenenter"",""1"",""3644""
","
","
","""event"",""trial"",""time""
""fullscreenenter"",""1"",""3644""
","
","","","644.2000000029802","","","16","17720","5888","l","elianto","#3366ff99"," "," ","1","+10","[1494.2000000029802]","1","2","","","17720","103","8","1","win","go","0"
"pit-trial","225","1425659","0.0-108.0","battery-v0.2","","""event"",""trial"",""time""
""fullscreenenter"",""1"",""3644""
","
","
","""event"",""trial"",""time""
""fullscreenenter"",""1"",""3644""
","
","","","-1","","","16","17720","5888","a","elianto","#f73b6a7A","-1","-1","1","0","[]","0","2","","","17720","104","7","4","lose","no-go","0"
"pit-trial","226","1429383","0.0-109.0","battery-v0.2","","""event"",""trial"",""time""
""fullscreenenter"",""1"",""3644""
","
","
","""event"",""trial"",""time""
""fullscreenenter"",""1"",""3644""
","
","","","869.2000000029802","","","16","17720","5888","l","elianto","#3366ff99"," "," ","1","+10","[1721]","1","2","","","17720","105","8","1","win","go","0"
"pit-trial","227","1433254","0.0-110.0","battery-v0.2","","""event"",""trial"",""time""
""fullscreenenter"",""1"",""3644""
","
","
","""event"",""trial"",""time""
""fullscreenenter"",""1"",""3644""
","
","","","1017.2000000029802","","","16","17720","5888","g","elianto","#f73b6a7A"," "," ","1","0","[1868.7000000029802]","1","2","","","17720","106","6","3","lose","go","0"
"pit-trial","228","1436903","0.0-111.0","battery-v0.2","","""event"",""trial"",""time""
""fullscreenenter"",""1"",""3644""
","
","
","""event"",""trial"",""time""
""fullscreenenter"",""1"",""3644""
","
","","","794","","","16","17720","5888","s","elianto","#3366ff99"," "," ","1","+10","[1645.5]","1","2","","","17720","107","4","1","win","go","0"
"pit-trial","229","1441063","0.0-112.0","battery-v0.2","","""event"",""trial"",""time""
""fullscreenenter"",""1"",""3644""
","
","
","""event"",""trial"",""time""
""fullscreenenter"",""1"",""3644""
","
","","","1305.5","","","16","17720","5888","u","elianto","#3366ff99"," "," ","1","+10","[2157]","1","2","","","17720","108","9","1","win","go","0"
"pit-trial","230","1445916","0.0-113.0","battery-v0.2","","""event"",""trial"",""time""
""fullscreenenter"",""1"",""3644""
","
","
","""event"",""trial"",""time""
""fullscreenenter"",""1"",""3644""
","
","","","-1","","","16","17720","5888","p","elianto","#3366ff99","-1","-1","1","+10","[]","0","2","","","17720","109","5","2","win","no-go","0"
"pit-trial","231","1450771","0.0-114.0","battery-v0.2","","""event"",""trial"",""time""
""fullscreenenter"",""1"",""3644""
","
","
","""event"",""trial"",""time""
""fullscreenenter"",""1"",""3644""
","
","","","-1","","","16","17720","5888","u","elianto","#3366ff99"," ","-1","0","0","[3400.1000000089407]","1","2","","","17720","110","9","1","win","go","0"
"pit-trial","232","1454238","0.0-115.0","battery-v0.2","","""event"",""trial"",""time""
""fullscreenenter"",""1"",""3644""
","
","
","""event"",""trial"",""time""
""fullscreenenter"",""1"",""3644""
","
","","","613.9000000059605","","","16","17720","5888","g","elianto","#f73b6a7A"," "," ","1","0","[1464.7999999970198]","1","2","","","17720","111","6","3","lose","go","0"
"pit-trial","233","1457726","0.0-116.0","battery-v0.2","","""event"",""trial"",""time""
""fullscreenenter"",""1"",""3644""
","
","
","""event"",""trial"",""time""
""fullscreenenter"",""1"",""3644""
","
","","","634","","","16","17720","5888","l","elianto","#3366ff99"," "," ","1","+10","[1485.5]","1","2","","","17720","112","8","1","win","go","0"
"pit-trial","234","1462581","0.0-117.0","battery-v0.2","","""event"",""trial"",""time""
""fullscreenenter"",""1"",""3644""
","
","
","""event"",""trial"",""time""
""fullscreenenter"",""1"",""3644""
","
","","","-1","","","16","17720","5888","p","elianto","#3366ff99","-1","-1","1","+10","[]","0","2","","","17720","113","5","2","win","no-go","0"
"pit-trial","235","1466271","0.0-118.0","battery-v0.2","","""event"",""trial"",""time""
""fullscreenenter"",""1"",""3644""
","
","
","""event"",""trial"",""time""
""fullscreenenter"",""1"",""3644""
","
","","","836.2999999970198","","","16","17720","5888","g","elianto","#f73b6a7A"," "," ","1","-10","[1687.5999999940395]","1","2","","","17720","114","6","3","lose","go","1"
"pit-trial","236","1469774","0.0-119.0","battery-v0.2","","""event"",""trial"",""time""
""fullscreenenter"",""1"",""3644""
","
","
","""event"",""trial"",""time""
""fullscreenenter"",""1"",""3644""
","
","","","649.5","","","16","17720","5888","l","elianto","#3366ff99"," "," ","1","+10","[1501]","1","2","","","17720","115","8","1","win","go","0"
"pit-trial","237","1473175","0.0-120.0","battery-v0.2","","""event"",""trial"",""time""
""fullscreenenter"",""1"",""3644""
","
","
","""event"",""trial"",""time""
""fullscreenenter"",""1"",""3644""
","
","","","546.7000000029802","","","16","17720","5888","u","elianto","#3366ff99"," "," ","1","0","[1397.7000000029802]","1","2","","","17720","116","9","1","win","go","1"
"pit-trial","238","1478029","0.0-121.0","battery-v0.2","","""event"",""trial"",""time""
""fullscreenenter"",""1"",""3644""
","
","
","""event"",""trial"",""time""
""fullscreenenter"",""1"",""3644""
","
","","","-1","","","16","17720","5888","p","elianto","#3366ff99","-1","-1","1","+10","[]","0","2","","","17720","117","5","2","win","no-go","0"
"pit-trial","239","1482079","0.0-122.0","battery-v0.2","","""event"",""trial"",""time""
""fullscreenenter"",""1"",""3644""
","
","
","""event"",""trial"",""time""
""fullscreenenter"",""1"",""3644""
","
","","","1196.800000011921","","","16","17720","5888","u","elianto","#3366ff99"," "," ","1","+10","[2047.300000011921]","1","2","","","17720","118","9","1","win","go","0"
"pit-trial","240","1486237","0.0-123.0","battery-v0.2","","""event"",""trial"",""time""
""fullscreenenter"",""1"",""3644""
","
","
","""event"",""trial"",""time""
""fullscreenenter"",""1"",""3644""
","
","","","1306.0999999940395","","","16","17720","5888","l","elianto","#3366ff99"," "," ","1","+10","[2157]","1","2","","","17720","119","8","1","win","go","0"
"pit-trial","241","1491063","0.0-124.0","battery-v0.2","","""event"",""trial"",""time""
""fullscreenenter"",""1"",""3644""
","
","
","""event"",""trial"",""time""
""fullscreenenter"",""1"",""3644""
","
","","","1971.7999999970198","","","16","17720","5888","g","elianto","#f73b6a7A"," "," ","1","0","[2822.5999999940395]","1","2","","","17720","120","6","3","lose","go","0"
"pit-trial","242","1495917","0.0-125.0","battery-v0.2","","""event"",""trial"",""time""
""fullscreenenter"",""1"",""3644""
","
","
","""event"",""trial"",""time""
""fullscreenenter"",""1"",""3644""
","
","","","-1","","","16","17720","5888","a","elianto","#f73b6a7A","-1","-1","1","0","[]","0","2","","","17720","121","7","4","lose","no-go","0"
"pit-trial","243","1499543","0.0-126.0","battery-v0.2","","""event"",""trial"",""time""
""fullscreenenter"",""1"",""3644""
","
","
","""event"",""trial"",""time""
""fullscreenenter"",""1"",""3644""
","
","","","772.1000000089407","","","16","17720","5888","u","elianto","#3366ff99"," "," ","1","+10","[1623]","1","2","","","17720","122","9","1","win","go","0"
"pit-trial","244","1503239","0.0-127.0","battery-v0.2","","""event"",""trial"",""time""
""fullscreenenter"",""1"",""3644""
","
","
","""event"",""trial"",""time""
""fullscreenenter"",""1"",""3644""
","
","","","842.2999999970198","","","16","17720","5888","l","elianto","#3366ff99"," "," ","1","+10","[1693.5]","1","2","","","17720","123","8","1","win","go","0"
"pit-trial","245","1507015","0.0-128.0","battery-v0.2","","""event"",""trial"",""time""
""fullscreenenter"",""1"",""3644""
","
","
","""event"",""trial"",""time""
""fullscreenenter"",""1"",""3644""
","
","","","922.7999999970198","","","16","17720","5888","g","elianto","#f73b6a7A"," "," ","1","0","[1773.6000000089407]","1","2","","","17720","124","6","3","lose","go","0"
"pit-trial","246","1510343","0.0-129.0","battery-v0.2","","""event"",""trial"",""time""
""fullscreenenter"",""1"",""3644""
","
","
","""event"",""trial"",""time""
""fullscreenenter"",""1"",""3644""
","
","","","474.29999999701977","","","16","17720","5888","l","elianto","#3366ff99"," "," ","1","0","[1325.2999999970198]","1","2","","","17720","125","8","1","win","go","1"
"pit-trial","247","1514023","0.0-130.0","battery-v0.2","","""event"",""trial"",""time""
""fullscreenenter"",""1"",""3644""
","
","
","""event"",""trial"",""time""
""fullscreenenter"",""1"",""3644""
","
","","","826.3999999910593","","","16","17720","5888","g","elianto","#f73b6a7A"," "," ","1","0","[1677.2000000029802]","1","2","","","17720","126","6","3","lose","go","0"
"pit-trial","248","1518878","0.0-131.0","battery-v0.2","","""event"",""trial"",""time""
""fullscreenenter"",""1"",""3644""
","
","
","""event"",""trial"",""time""
""fullscreenenter"",""1"",""3644""
","
","","","-1","","","16","17720","5888","a","elianto","#f73b6a7A","-1","-1","1","-10","[]","0","2","","","17720","127","7","4","lose","no-go","1"
"pit-trial","249","1522368","0.0-132.0","battery-v0.2","","""event"",""trial"",""time""
""fullscreenenter"",""1"",""3644""
","
","
","""event"",""trial"",""time""
""fullscreenenter"",""1"",""3644""
","
","","","635.0999999940395","","","16","17720","5888","u","elianto","#3366ff99"," "," ","1","+10","[1486.7999999970198]","1","2","","","17720","128","9","1","win","go","0"
"pit-trial","250","1526367","0.0-133.0","battery-v0.2","","""event"",""trial"",""time""
""fullscreenenter"",""1"",""3644""
","
","
","""event"",""trial"",""time""
""fullscreenenter"",""1"",""3644""
","
","","","1146.3999999910593","","","16","17720","5888","g","elianto","#f73b6a7A"," "," ","1","0","[1996.5]","1","2","","","17720","129","6","3","lose","go","0"
"pit-trial","251","1529855","0.0-134.0","battery-v0.2","","""event"",""trial"",""time""
""fullscreenenter"",""1"",""3644""
","
","
","""event"",""trial"",""time""
""fullscreenenter"",""1"",""3644""
","
","","","634.5","","","16","17720","5888","l","elianto","#3366ff99"," "," ","1","0","[1485.2000000029802]","1","2","","","17720","130","8","1","win","go","1"
"pit-trial","252","1533983","0.0-135.0","battery-v0.2","","""event"",""trial"",""time""
""fullscreenenter"",""1"",""3644""
","
","
","""event"",""trial"",""time""
""fullscreenenter"",""1"",""3644""
","
","","","1274.1000000089407","","","16","17720","5888","u","elianto","#3366ff99"," "," ","1","+10","[2125.2999999970198]","1","2","","","17720","131","9","1","win","go","0"
"pit-trial","253","1538837","0.0-136.0","battery-v0.2","","""event"",""trial"",""time""
""fullscreenenter"",""1"",""3644""
","
","
","""event"",""trial"",""time""
""fullscreenenter"",""1"",""3644""
","
","","","-1","","","16","17720","5888","a","elianto","#f73b6a7A","-1","-1","1","0","[]","0","2","","","17720","132","7","4","lose","no-go","0"
"pit-trial","254","1542839","0.0-137.0","battery-v0.2","","""event"",""trial"",""time""
""fullscreenenter"",""1"",""3644""
","
","
","""event"",""trial"",""time""
""fullscreenenter"",""1"",""3644""
","
","","","1148.7999999970198","","","16","17720","5888","a","elianto","#f73b6a7A","-1"," ","0","-10","[1999.7000000029802]","1","2","","","17720","133","7","4","lose","no-go","0"
"pit-trial","255","1546360","0.0-138.0","battery-v0.2","","""event"",""trial"",""time""
""fullscreenenter"",""1"",""3644""
","
","
","""event"",""trial"",""time""
""fullscreenenter"",""1"",""3644""
","
","","","665.7999999970198","","","16","17720","5888","u","elianto","#3366ff99"," "," ","1","+10","[1517.2999999970198]","1","2","","","17720","134","9","1","win","go","0"
"pit-trial","256","1550047","0.0-139.0","battery-v0.2","","""event"",""trial"",""time""
""fullscreenenter"",""1"",""3644""
","
","
","""event"",""trial"",""time""
""fullscreenenter"",""1"",""3644""
","
","","","834","","","16","17720","5888","g","elianto","#f73b6a7A"," "," ","1","0","[1684.699999988079]","1","2","","","17720","135","6","3","lose","go","0"
"pit-trial","257","1554199","0.0-140.0","battery-v0.2","","""event"",""trial"",""time""
""fullscreenenter"",""1"",""3644""
","
","
","""event"",""trial"",""time""
""fullscreenenter"",""1"",""3644""
","
","","","1298","","","16","17720","5888","l","elianto","#3366ff99"," "," ","1","+10","[2148.9000000059605]","1","2","","","17720","136","8","1","win","go","0"
"pit-trial","258","1557664","0.0-141.0","battery-v0.2","","""event"",""trial"",""time""
""fullscreenenter"",""1"",""3644""
","
","
","""event"",""trial"",""time""
""fullscreenenter"",""1"",""3644""
","
","","","611.4000000059605","","","16","17720","5888","u","elianto","#3366ff99"," "," ","1","+10","[1461.9000000059605,3093.7999999970198]","2","2","","","17720","137","9","1","win","go","0"
"pit-trial","259","1561167","0.0-142.0","battery-v0.2","","""event"",""trial"",""time""
""fullscreenenter"",""1"",""3644""
","
","
","""event"",""trial"",""time""
""fullscreenenter"",""1"",""3644""
","
","","","650.5999999940395","","","16","17720","5888","l","elianto","#3366ff99"," "," ","1","+10","[1501]","1","2","","","17720","138","8","1","win","go","0"
"pit-trial","260","1564814","0.0-143.0","battery-v0.2","","""event"",""trial"",""time""
""fullscreenenter"",""1"",""3644""
","
","
","""event"",""trial"",""time""
""fullscreenenter"",""1"",""3644""
","
","","","793.5","","","16","17720","5888","a","elianto","#f73b6a7A","-1"," ","0","-10","[1645.2000000029802]","1","2","","","17720","139","7","4","lose","no-go","0"
"pit-trial","261","1568599","0.0-144.0","battery-v0.2","","""event"",""trial"",""time""
""fullscreenenter"",""1"",""3644""
","
","
","""event"",""trial"",""time""
""fullscreenenter"",""1"",""3644""
","
","","","931.3999999910593","","","16","17720","5888","g","elianto","#f73b6a7A"," "," ","1","0","[1782.3999999910593]","1","2","","","17720","140","6","3","lose","go","0"
"pit-instructions","262","1759152","0.0-145.0","battery-v0.2","","""event"",""trial"",""time""
""fullscreenenter"",""1"",""3644""
","
","
","""event"",""trial"",""time""
""fullscreenenter"",""1"",""3644""
","
","","[{""page_index"":0,""viewing_time"":180756.40000000596},{""page_index"":1,""viewing_time"":9794.40000000596}]","190551","","","","","","","","","","","","","","","","","","","","","","","",""
"pit-trial","263","1763408","0.0-146.0","battery-v0.2","","""event"",""trial"",""time""
""fullscreenenter"",""1"",""3644""
","
","
","""event"",""trial"",""time""
""fullscreenenter"",""1"",""3644""
","
","","","1400.7999999970198","","","16","17720","5888","y","elianto","#f73b6a7A","-1"," ","0","-10","[2252.7000000029802]","1","3","","","17720","141","2","4","lose","no-go","0"
"pit-trial","264","1766808","0.0-147.0","battery-v0.2","","""event"",""trial"",""time""
""fullscreenenter"",""1"",""3644""
","
","
","""event"",""trial"",""time""
""fullscreenenter"",""1"",""3644""
","
","","","546","","","16","17720","5888","m","elianto","#f73b6a7A","-1"," ","0","0","[1397.5]","1","3","","","17720","142","0","4","lose","no-go","1"
"pit-trial","265","1770215","0.0-148.0","battery-v0.2","","""event"",""trial"",""time""
""fullscreenenter"",""1"",""3644""
","
","
","""event"",""trial"",""time""
""fullscreenenter"",""1"",""3644""
","
","","","554.7000000029802","","","16","17720","5888","r","elianto","#3366ff99"," "," ","1","+10","[1405.7999999970198]","1","3","","","17720","143","1","1","win","go","0"
