"trial_type","trial_index","time_elapsed","internal_node_id","task_version","subject_id","interactions","blur_events","focus_events","fullscreenenter_events","fullscreenexit_events","success","view_history","rt","responses","num_errors","age","subject","participantId","rune","rune_set","hex","correct","choice","accuracy","outcome","keys","total_keys","block","practice","value","sub","trial","stimulus","robot","valence","action","sham"
"pavlovia","0","20","0.0-0.0","battery-v0.2","","""event"",""trial"",""time""
""fullscreenenter"",""1"",""2156""
","
","
","""event"",""trial"",""time""
""fullscreenenter"",""1"",""2156""
","
","","","","","","","","","","","","","","","","","","","","","","","","","","",""
"fullscreen","1","3156","0.0-1.0","battery-v0.2","","""event"",""trial"",""time""
""fullscreenenter"",""1"",""2156""
","
","
","""event"",""trial"",""time""
""fullscreenenter"",""1"",""2156""
","
","true","","","","","","","","","","","","","","","","","","","","","","","","","",""
"pit-instructions","2","8565","0.0-2.0-0.0","battery-v0.2","","""event"",""trial"",""time""
""fullscreenenter"",""1"",""2156""
","
","
","""event"",""trial"",""time""
""fullscreenenter"",""1"",""2156""
","
","","[{""page_index"":0,""viewing_time"":5405.099999904633}]","5406.5","","","","","","","","","","","","","","","","","","","","","","","",""
"pit-comprehension","3","11398","0.0-2.0-1.0-0.0","battery-v0.2","","""event"",""trial"",""time""
""fullscreenenter"",""1"",""2156""
","
","
","""event"",""trial"",""time""
""fullscreenenter"",""1"",""2156""
","
","","","2827.899999856949","[""shark""]","0","14","3754","1571","","","","","","","","","","","","","","","","","","",""
"pit-instructions","4","13664","0.0-2.0-1.0-1.0","battery-v0.2","","""event"",""trial"",""time""
""fullscreenenter"",""1"",""2156""
","
","
","""event"",""trial"",""time""
""fullscreenenter"",""1"",""2156""
","
","","[{""page_index"":0,""viewing_time"":2259.0999999046326}]","2259.7999999523163","","","","","","","","","","","","","","","","","","","","","","","",""
"pit-comprehension","5","16648","0.0-2.0-2.0-0.0","battery-v0.2","","""event"",""trial"",""time""
""fullscreenenter"",""1"",""2156""
","
","
","""event"",""trial"",""time""
""fullscreenenter"",""1"",""2156""
","
","","","2977.899999856949","[""tiger""]","0","14","3754","1571","","","","","","","","","","","","","","","","","","",""
"pit-instructions","6","17797","0.0-2.0-2.0-1.0","battery-v0.2","","""event"",""trial"",""time""
""fullscreenenter"",""1"",""2156""
","
","
","""event"",""trial"",""time""
""fullscreenenter"",""1"",""2156""
","
","","[{""page_index"":0,""viewing_time"":1143.4000000953674}]","1144.2000000476837","","","","","","","","","","","","","","","","","","","","","","","",""
"pit-instructions","7","133781","0.0-2.0-3.0","battery-v0.2","","""event"",""trial"",""time""
""fullscreenenter"",""1"",""2156""
","
","
","""event"",""trial"",""time""
""fullscreenenter"",""1"",""2156""
","
","","[{""page_index"":0,""viewing_time"":8964.099999904633},{""page_index"":1,""viewing_time"":6998.700000047684},{""page_index"":2,""viewing_time"":7800.799999952316},{""page_index"":3,""viewing_time"":4182.400000095367},{""page_index"":2,""viewing_time"":1650.2999999523163},{""page_index"":3,""viewing_time"":5333.700000047684},{""page_index"":4,""viewing_time"":6533.5},{""page_index"":5,""viewing_time"":10017.399999856949},{""page_index"":6,""viewing_time"":8366.299999952316},{""page_index"":7,""viewing_time"":7916.700000047684},{""page_index"":8,""viewing_time"":7034.299999952316},{""page_index"":9,""viewing_time"":10033.700000047684},{""page_index"":10,""viewing_time"":9333.400000095367},{""page_index"":11,""viewing_time"":8717},{""page_index"":12,""viewing_time"":7467.099999904633},{""page_index"":13,""viewing_time"":5633.400000095367}]","115984.09999990463","","","","","","","","","","","","","","","","","","","","","","","",""
"pit-trial","8","137284","0.0-2.0-4.0-0.0","battery-v0.2","","""event"",""trial"",""time""
""fullscreenenter"",""1"",""2156""
","
","
","""event"",""trial"",""time""
""fullscreenenter"",""1"",""2156""
","
","","","641.6000001430511","","","14","3754","1571","&#9784;","elianto","#FFFFF080"," "," ","1","&#10004","[1496.7999999523163]","1","0","0","","","","","","","",""
"pit-trial","9","140806","0.0-2.0-4.1-0.1","battery-v0.2","","""event"",""trial"",""time""
""fullscreenenter"",""1"",""2156""
","
","
","""event"",""trial"",""time""
""fullscreenenter"",""1"",""2156""
","
","","","658.2999999523163","","","14","3754","1571","&#9784;","elianto","#FFFFF080"," "," ","1","&#10004","[1510.2999999523163]","1","0","0","","","","","","","",""
"pit-trial","10","144206","0.0-2.0-4.2-0.2","battery-v0.2","","""event"",""trial"",""time""
""fullscreenenter"",""1"",""2156""
","
","
","""event"",""trial"",""time""
""fullscreenenter"",""1"",""2156""
","
","","","529.2000000476837","","","14","3754","1571","&#9784;","elianto","#FFFFF080"," "," ","1","&#10004","[1388.2999999523163]","1","0","0","","","","","","","",""
"pit-trial","11","147561","0.0-2.0-4.3-0.3","battery-v0.2","","""event"",""trial"",""time""
""fullscreenenter"",""1"",""2156""
","
","
","""event"",""trial"",""time""
""fullscreenenter"",""1"",""2156""
","
","","","490.7999999523163","","","14","3754","1571","&#9784;","elianto","#FFFFF080"," "," ","1","&#10004","[1341.6000001430511]","1","0","0","","","","","","","",""
"pit-trial","12","150854","0.0-2.0-4.4-0.4","battery-v0.2","","""event"",""trial"",""time""
""fullscreenenter"",""1"",""2156""
","
","
","""event"",""trial"",""time""
""fullscreenenter"",""1"",""2156""
","
","","","424.09999990463257","","","14","3754","1571","&#9784;","elianto","#FFFFF080"," "," ","1","&#10004","[1283]","1","0","0","","","","","","","",""
"pit-instructions","13","173680","0.0-2.0-5.0","battery-v0.2","","""event"",""trial"",""time""
""fullscreenenter"",""1"",""2156""
","
","
","""event"",""trial"",""time""
""fullscreenenter"",""1"",""2156""
","
","","[{""page_index"":0,""viewing_time"":5571.599999904633},{""page_index"":1,""viewing_time"":6450.300000190735},{""page_index"":2,""viewing_time"":5200.099999904633},{""page_index"":3,""viewing_time"":5599.099999904633}]","22821.799999952316","","","","","","","","","","","","","","","","","","","","","","","",""
"pit-trial","14","178548","0.0-2.0-6.0-0.0","battery-v0.2","","""event"",""trial"",""time""
""fullscreenenter"",""1"",""2156""
","
","
","""event"",""trial"",""time""
""fullscreenenter"",""1"",""2156""
","
","","","-1","","","14","3754","1571","&#9854;","elianto","#FFFFF080","-1","-1","1","&#10004","[]","0","0","1","","","","","","","",""
"pit-trial","15","183419","0.0-2.0-6.1-0.1","battery-v0.2","","""event"",""trial"",""time""
""fullscreenenter"",""1"",""2156""
","
","
","""event"",""trial"",""time""
""fullscreenenter"",""1"",""2156""
","
","","","-1","","","14","3754","1571","&#9854;","elianto","#FFFFF080","-1","-1","1","&#10004","[]","0","0","1","","","","","","","",""
"pit-trial","16","188287","0.0-2.0-6.2-0.2","battery-v0.2","","""event"",""trial"",""time""
""fullscreenenter"",""1"",""2156""
","
","
","""event"",""trial"",""time""
""fullscreenenter"",""1"",""2156""
","
","","","-1","","","14","3754","1571","&#9854;","elianto","#FFFFF080","-1","-1","1","&#10004","[]","0","0","1","","","","","","","",""
"pit-trial","17","193158","0.0-2.0-6.3-0.3","battery-v0.2","","""event"",""trial"",""time""
""fullscreenenter"",""1"",""2156""
","
","
","""event"",""trial"",""time""
""fullscreenenter"",""1"",""2156""
","
","","","-1","","","14","3754","1571","&#9854;","elianto","#FFFFF080","-1","-1","1","&#10004","[]","0","0","1","","","","","","","",""
"pit-trial","18","198026","0.0-2.0-6.4-0.4","battery-v0.2","","""event"",""trial"",""time""
""fullscreenenter"",""1"",""2156""
","
","
","""event"",""trial"",""time""
""fullscreenenter"",""1"",""2156""
","
","","","-1","","","14","3754","1571","&#9854;","elianto","#FFFFF080","-1","-1","1","&#10004","[]","0","0","1","","","","","","","",""
"pit-instructions","19","330698","0.0-2.0-7.0","battery-v0.2","","""event"",""trial"",""time""
""fullscreenenter"",""1"",""2156""
","
","
","""event"",""trial"",""time""
""fullscreenenter"",""1"",""2156""
","
","","[{""page_index"":0,""viewing_time"":5830.799999952316},{""page_index"":1,""viewing_time"":7434.900000095367},{""page_index"":2,""viewing_time"":6700.5},{""page_index"":3,""viewing_time"":7199.799999952316},{""page_index"":4,""viewing_time"":6899.200000047684},{""page_index"":5,""viewing_time"":6100.599999904633},{""page_index"":6,""viewing_time"":6084.299999952316},{""page_index"":7,""viewing_time"":8066.799999952316},{""page_index"":8,""viewing_time"":7516.900000095367},{""page_index"":9,""viewing_time"":6550},{""page_index"":10,""viewing_time"":7251},{""page_index"":11,""viewing_time"":6332.299999952316},{""page_index"":12,""viewing_time"":12634.600000143051},{""page_index"":13,""viewing_time"":8650.399999856949},{""page_index"":14,""viewing_time"":7399.5},{""page_index"":15,""viewing_time"":6767},{""page_index"":16,""viewing_time"":7533.600000143051},{""page_index"":17,""viewing_time"":7717.699999809265}]","132671.20000004768","","","","","","","","","","","","","","","","","","","","","","","",""
"pit-trial","20","334214","0.0-2.0-8.0-0.0","battery-v0.2","","""event"",""trial"",""time""
""fullscreenenter"",""1"",""2156""
","
","
","""event"",""trial"",""time""
""fullscreenenter"",""1"",""2156""
","
","","","648.3999998569489","","","14","3754","1571","&#9776;","elianto","#3366ff99"," "," ","1","+10","[1504.5]","1","0","1","","","","","","","",""
"pit-trial","21","337593","0.0-2.0-8.0-1.0","battery-v0.2","","""event"",""trial"",""time""
""fullscreenenter"",""1"",""2156""
","
","
","""event"",""trial"",""time""
""fullscreenenter"",""1"",""2156""
","
","","","509.2999999523163","","","14","3754","1571","&#9776;","elianto","#3366ff99"," "," ","1","+10","[1365.3999998569489]","1","0","1","","","","","","","",""
"pit-trial","22","341018","0.0-2.0-8.0-2.0","battery-v0.2","","""event"",""trial"",""time""
""fullscreenenter"",""1"",""2156""
","
","
","""event"",""trial"",""time""
""fullscreenenter"",""1"",""2156""
","
","","","550.9000000953674","","","14","3754","1571","&#9776;","elianto","#3366ff99"," "," ","1","+10","[1410.5999999046326]","1","0","1","","","","","","","",""
"pit-trial","23","344374","0.0-2.0-8.0-3.0","battery-v0.2","","""event"",""trial"",""time""
""fullscreenenter"",""1"",""2156""
","
","
","""event"",""trial"",""time""
""fullscreenenter"",""1"",""2156""
","
","","","494.7999999523163","","","14","3754","1571","&#9776;","elianto","#3366ff99"," "," ","1","0","[1347.5999999046326]","1","0","1","","","","","","","",""
"pit-trial","24","347766","0.0-2.0-8.0-4.0","battery-v0.2","","""event"",""trial"",""time""
""fullscreenenter"",""1"",""2156""
","
","
","""event"",""trial"",""time""
""fullscreenenter"",""1"",""2156""
","
","","","526.7000000476837","","","14","3754","1571","&#9776;","elianto","#3366ff99"," "," ","1","+10","[1381.2000000476837]","1","0","1","","","","","","","",""
"pit-trial","25","351097","0.0-2.0-8.1-0.1","battery-v0.2","","""event"",""trial"",""time""
""fullscreenenter"",""1"",""2156""
","
","
","""event"",""trial"",""time""
""fullscreenenter"",""1"",""2156""
","
","","","460.39999985694885","","","14","3754","1571","&#9776;","elianto","#3366ff99"," "," ","1","+10","[1314.2000000476837]","1","0","1","","","","","","","",""
"pit-trial","26","354495","0.0-2.0-8.1-1.1","battery-v0.2","","""event"",""trial"",""time""
""fullscreenenter"",""1"",""2156""
","
","
","""event"",""trial"",""time""
""fullscreenenter"",""1"",""2156""
","
","","","526.5999999046326","","","14","3754","1571","&#9776;","elianto","#3366ff99"," "," ","1","+10","[1383.6000001430511]","1","0","1","","","","","","","",""
"pit-trial","27","357726","0.0-2.0-8.1-2.1","battery-v0.2","","""event"",""trial"",""time""
""fullscreenenter"",""1"",""2156""
","
","
","""event"",""trial"",""time""
""fullscreenenter"",""1"",""2156""
","
","","","358.90000009536743","","","14","3754","1571","&#9776;","elianto","#3366ff99"," "," ","1","+10","[1218]","1","0","1","","","","","","","",""
"pit-trial","28","360807","0.0-2.0-8.1-3.1","battery-v0.2","","""event"",""trial"",""time""
""fullscreenenter"",""1"",""2156""
","
","
","""event"",""trial"",""time""
""fullscreenenter"",""1"",""2156""
","
","","","219.90000009536743","","","14","3754","1571","&#9776;","elianto","#3366ff99"," "," ","1","0","[1072.2999999523163]","1","0","1","","","","","","","",""
"pit-trial","29","364165","0.0-2.0-8.1-4.1","battery-v0.2","","""event"",""trial"",""time""
""fullscreenenter"",""1"",""2156""
","
","
","""event"",""trial"",""time""
""fullscreenenter"",""1"",""2156""
","
","","","488.90000009536743","","","14","3754","1571","&#9776;","elianto","#3366ff99"," "," ","1","+10","[1347.7000000476837]","1","0","1","","","","","","","",""
"pit-trial","30","367757","0.0-2.0-8.2-0.2","battery-v0.2","","""event"",""trial"",""time""
""fullscreenenter"",""1"",""2156""
","
","
","""event"",""trial"",""time""
""fullscreenenter"",""1"",""2156""
","
","","","730.0999999046326","","","14","3754","1571","&#9776;","elianto","#3366ff99"," "," ","1","+10","[1585.5]","1","0","1","","","","","","","",""
"pit-trial","31","371189","0.0-2.0-8.2-1.2","battery-v0.2","","""event"",""trial"",""time""
""fullscreenenter"",""1"",""2156""
","
","
","""event"",""trial"",""time""
""fullscreenenter"",""1"",""2156""
","
","","","570.5","","","14","3754","1571","&#9776;","elianto","#3366ff99"," "," ","1","+10","[1425.5]","1","0","1","","","","","","","",""
"pit-trial","32","374461","0.0-2.0-8.2-2.2","battery-v0.2","","""event"",""trial"",""time""
""fullscreenenter"",""1"",""2156""
","
","
","""event"",""trial"",""time""
""fullscreenenter"",""1"",""2156""
","
","","","408.7000000476837","","","14","3754","1571","&#9776;","elianto","#3366ff99"," "," ","1","+10","[1259.2000000476837]","1","0","1","","","","","","","",""
"pit-trial","33","377756","0.0-2.0-8.2-3.2","battery-v0.2","","""event"",""trial"",""time""
""fullscreenenter"",""1"",""2156""
","
","
","""event"",""trial"",""time""
""fullscreenenter"",""1"",""2156""
","
","","","437.90000009536743","","","14","3754","1571","&#9776;","elianto","#3366ff99"," "," ","1","0","[1290.2000000476837]","1","0","1","","","","","","","",""
"pit-trial","34","381061","0.0-2.0-8.2-4.2","battery-v0.2","","""event"",""trial"",""time""
""fullscreenenter"",""1"",""2156""
","
","
","""event"",""trial"",""time""
""fullscreenenter"",""1"",""2156""
","
","","","437.59999990463257","","","14","3754","1571","&#9776;","elianto","#3366ff99"," "," ","1","+10","[1292.7999999523163]","1","0","1","","","","","","","",""
"call-function","35","381064","0.0-2.0-9.0","battery-v0.2","","""event"",""trial"",""time""
""fullscreenenter"",""1"",""2156""
","
","
","""event"",""trial"",""time""
""fullscreenenter"",""1"",""2156""
","
","","","","","","","","","","","","","","","","","","","","","","","","","","",""
"pit-instructions","36","420998","0.0-2.0-10.0","battery-v0.2","","""event"",""trial"",""time""
""fullscreenenter"",""1"",""2156""
","
","
","""event"",""trial"",""time""
""fullscreenenter"",""1"",""2156""
","
","","[{""page_index"":0,""viewing_time"":5864.700000047684},{""page_index"":1,""viewing_time"":7167.599999904633},{""page_index"":2,""viewing_time"":9633.200000047684},{""page_index"":3,""viewing_time"":9400.599999904633},{""page_index"":4,""viewing_time"":7866.700000047684}]","39934.200000047684","","","","","","","","","","","","","","","","","","","","","","","",""
"pit-trial","37","424324","0.0-2.0-11.0-0.0","battery-v0.2","","""event"",""trial"",""time""
""fullscreenenter"",""1"",""2156""
","
","
","""event"",""trial"",""time""
""fullscreenenter"",""1"",""2156""
","
","","","461.89999985694885","","","14","3754","1571","&#9761;","elianto","#3366ff99","-1"," ","0","0","[1318.7999999523163]","1","0","2","","","","","","","",""
"pit-trial","38","427619","0.0-2.0-11.0-1.0","battery-v0.2","","""event"",""trial"",""time""
""fullscreenenter"",""1"",""2156""
","
","
","""event"",""trial"",""time""
""fullscreenenter"",""1"",""2156""
","
","","","432.90000009536743","","","14","3754","1571","&#9761;","elianto","#3366ff99","-1"," ","0","0","[1283.5999999046326]","1","0","2","","","","","","","",""
"pit-trial","39","430964","0.0-2.0-11.0-2.0","battery-v0.2","","""event"",""trial"",""time""
""fullscreenenter"",""1"",""2156""
","
","
","""event"",""trial"",""time""
""fullscreenenter"",""1"",""2156""
","
","","","484","","","14","3754","1571","&#9761;","elianto","#3366ff99","-1"," ","0","0","[1336]","1","0","2","","","","","","","",""
"pit-trial","40","434396","0.0-2.0-11.0-3.0","battery-v0.2","","""event"",""trial"",""time""
""fullscreenenter"",""1"",""2156""
","
","
","""event"",""trial"",""time""
""fullscreenenter"",""1"",""2156""
","
","","","565.6000001430511","","","14","3754","1571","&#9761;","elianto","#3366ff99","-1"," ","0","+10","[1420.6999998092651]","1","0","2","","","","","","","",""
"pit-trial","41","437687","0.0-2.0-11.0-4.0","battery-v0.2","","""event"",""trial"",""time""
""fullscreenenter"",""1"",""2156""
","
","
","""event"",""trial"",""time""
""fullscreenenter"",""1"",""2156""
","
","","","423.2000000476837","","","14","3754","1571","&#9761;","elianto","#3366ff99","-1"," ","0","0","[1278.5]","1","0","2","","","","","","","",""
"pit-trial","42","441059","0.0-2.0-11.1-0.1","battery-v0.2","","""event"",""trial"",""time""
""fullscreenenter"",""1"",""2156""
","
","
","""event"",""trial"",""time""
""fullscreenenter"",""1"",""2156""
","
","","","509.2000000476837","","","14","3754","1571","&#9761;","elianto","#3366ff99","-1"," ","0","0","[1359.7000000476837]","1","0","2","","","","","","","",""
"pit-trial","43","444309","0.0-2.0-11.1-1.1","battery-v0.2","","""event"",""trial"",""time""
""fullscreenenter"",""1"",""2156""
","
","
","""event"",""trial"",""time""
""fullscreenenter"",""1"",""2156""
","
","","","384.7000000476837","","","14","3754","1571","&#9761;","elianto","#3366ff99","-1"," ","0","0","[1237.5999999046326]","1","0","2","","","","","","","",""
"pit-trial","44","447621","0.0-2.0-11.1-2.1","battery-v0.2","","""event"",""trial"",""time""
""fullscreenenter"",""1"",""2156""
","
","
","""event"",""trial"",""time""
""fullscreenenter"",""1"",""2156""
","
","","","435.59999990463257","","","14","3754","1571","&#9761;","elianto","#3366ff99","-1"," ","0","0","[1296.9000000953674]","1","0","2","","","","","","","",""
"pit-trial","45","452490","0.0-2.0-11.1-3.1","battery-v0.2","","""event"",""trial"",""time""
""fullscreenenter"",""1"",""2156""
","
","
","""event"",""trial"",""time""
""fullscreenenter"",""1"",""2156""
","
","","","-1","","","14","3754","1571","&#9761;","elianto","#3366ff99","-1","-1","1","0","[]","0","0","2","","","","","","","",""
"pit-trial","46","457354","0.0-2.0-11.1-4.1","battery-v0.2","","""event"",""trial"",""time""
""fullscreenenter"",""1"",""2156""
","
","
","""event"",""trial"",""time""
""fullscreenenter"",""1"",""2156""
","
","","","-1","","","14","3754","1571","&#9761;","elianto","#3366ff99","-1","-1","1","+10","[]","0","0","2","","","","","","","",""
"pit-trial","47","462219","0.0-2.0-11.2-0.2","battery-v0.2","","""event"",""trial"",""time""
""fullscreenenter"",""1"",""2156""
","
","
","""event"",""trial"",""time""
""fullscreenenter"",""1"",""2156""
","
","","","-1","","","14","3754","1571","&#9761;","elianto","#3366ff99","-1","-1","1","+10","[]","0","0","2","","","","","","","",""
"pit-trial","48","467081","0.0-2.0-11.2-1.2","battery-v0.2","","""event"",""trial"",""time""
""fullscreenenter"",""1"",""2156""
","
","
","""event"",""trial"",""time""
""fullscreenenter"",""1"",""2156""
","
","","","-1","","","14","3754","1571","&#9761;","elianto","#3366ff99","-1","-1","1","+10","[]","0","0","2","","","","","","","",""
"pit-trial","49","471945","0.0-2.0-11.2-2.2","battery-v0.2","","""event"",""trial"",""time""
""fullscreenenter"",""1"",""2156""
","
","
","""event"",""trial"",""time""
""fullscreenenter"",""1"",""2156""
","
","","","-1","","","14","3754","1571","&#9761;","elianto","#3366ff99","-1","-1","1","+10","[]","0","0","2","","","","","","","",""
"pit-trial","50","476809","0.0-2.0-11.2-3.2","battery-v0.2","","""event"",""trial"",""time""
""fullscreenenter"",""1"",""2156""
","
","
","""event"",""trial"",""time""
""fullscreenenter"",""1"",""2156""
","
","","","-1","","","14","3754","1571","&#9761;","elianto","#3366ff99","-1","-1","1","0","[]","0","0","2","","","","","","","",""
"pit-trial","51","481676","0.0-2.0-11.2-4.2","battery-v0.2","","""event"",""trial"",""time""
""fullscreenenter"",""1"",""2156""
","
","
","""event"",""trial"",""time""
""fullscreenenter"",""1"",""2156""
","
","","","-1","","","14","3754","1571","&#9761;","elianto","#3366ff99","-1","-1","1","+10","[]","0","0","2","","","","","","","",""
"pit-trial","52","486545","0.0-2.0-11.3-0.3","battery-v0.2","","""event"",""trial"",""time""
""fullscreenenter"",""1"",""2156""
","
","
","""event"",""trial"",""time""
""fullscreenenter"",""1"",""2156""
","
","","","-1","","","14","3754","1571","&#9761;","elianto","#3366ff99","-1","-1","1","+10","[]","0","0","2","","","","","","","",""
"pit-trial","53","491412","0.0-2.0-11.3-1.3","battery-v0.2","","""event"",""trial"",""time""
""fullscreenenter"",""1"",""2156""
","
","
","""event"",""trial"",""time""
""fullscreenenter"",""1"",""2156""
","
","","","-1","","","14","3754","1571","&#9761;","elianto","#3366ff99","-1","-1","1","+10","[]","0","0","2","","","","","","","",""
"pit-trial","54","496281","0.0-2.0-11.3-2.3","battery-v0.2","","""event"",""trial"",""time""
""fullscreenenter"",""1"",""2156""
","
","
","""event"",""trial"",""time""
""fullscreenenter"",""1"",""2156""
","
","","","-1","","","14","3754","1571","&#9761;","elianto","#3366ff99","-1","-1","1","+10","[]","0","0","2","","","","","","","",""
"pit-trial","55","501145","0.0-2.0-11.3-3.3","battery-v0.2","","""event"",""trial"",""time""
""fullscreenenter"",""1"",""2156""
","
","
","""event"",""trial"",""time""
""fullscreenenter"",""1"",""2156""
","
","","","-1","","","14","3754","1571","&#9761;","elianto","#3366ff99","-1","-1","1","0","[]","0","0","2","","","","","","","",""
"pit-trial","56","506008","0.0-2.0-11.3-4.3","battery-v0.2","","""event"",""trial"",""time""
""fullscreenenter"",""1"",""2156""
","
","
","""event"",""trial"",""time""
""fullscreenenter"",""1"",""2156""
","
","","","-1","","","14","3754","1571","&#9761;","elianto","#3366ff99","-1","-1","1","+10","[]","0","0","2","","","","","","","",""
"call-function","57","506011","0.0-2.0-12.0","battery-v0.2","","""event"",""trial"",""time""
""fullscreenenter"",""1"",""2156""
","
","
","""event"",""trial"",""time""
""fullscreenenter"",""1"",""2156""
","
","","","","","","","","","","","","","","","","","","","","","","","","","","",""
"pit-instructions","58","539248","0.0-2.0-13.0","battery-v0.2","","""event"",""trial"",""time""
""fullscreenenter"",""1"",""2156""
","
","
","""event"",""trial"",""time""
""fullscreenenter"",""1"",""2156""
","
","","[{""page_index"":0,""viewing_time"":5467.799999952316},{""page_index"":1,""viewing_time"":7517.200000047684},{""page_index"":2,""viewing_time"":3733.4000000953674},{""page_index"":3,""viewing_time"":11316.399999856949},{""page_index"":4,""viewing_time"":5200.900000095367}]","33237.200000047684","","","","","","","","","","","","","","","","","","","","","","","",""
"pit-trial","59","542698","0.0-2.0-14.0-0.0","battery-v0.2","","""event"",""trial"",""time""
""fullscreenenter"",""1"",""2156""
","
","
","""event"",""trial"",""time""
""fullscreenenter"",""1"",""2156""
","
","","","579.5999999046326","","","14","3754","1571","&#9826;","elianto","#f73b6a7A","-1"," ","0","-10","[1435.3999998569489]","1","0","3","","","","","","","",""
"pit-trial","60","546016","0.0-2.0-14.0-1.0","battery-v0.2","","""event"",""trial"",""time""
""fullscreenenter"",""1"",""2156""
","
","
","""event"",""trial"",""time""
""fullscreenenter"",""1"",""2156""
","
","","","450.90000009536743","","","14","3754","1571","&#9826;","elianto","#f73b6a7A","-1"," ","0","-10","[1308.1999998092651]","1","0","3","","","","","","","",""
"pit-trial","61","550881","0.0-2.0-14.0-2.0","battery-v0.2","","""event"",""trial"",""time""
""fullscreenenter"",""1"",""2156""
","
","
","""event"",""trial"",""time""
""fullscreenenter"",""1"",""2156""
","
","","","-1","","","14","3754","1571","&#9826;","elianto","#f73b6a7A","-1","-1","1","0","[]","0","0","3","","","","","","","",""
"pit-trial","62","555755","0.0-2.0-14.0-3.0","battery-v0.2","","""event"",""trial"",""time""
""fullscreenenter"",""1"",""2156""
","
","
","""event"",""trial"",""time""
""fullscreenenter"",""1"",""2156""
","
","","","-1","","","14","3754","1571","&#9826;","elianto","#f73b6a7A","-1","-1","1","-10","[]","0","0","3","","","","","","","",""
"pit-trial","63","560627","0.0-2.0-14.0-4.0","battery-v0.2","","""event"",""trial"",""time""
""fullscreenenter"",""1"",""2156""
","
","
","""event"",""trial"",""time""
""fullscreenenter"",""1"",""2156""
","
","","","-1","","","14","3754","1571","&#9826;","elianto","#f73b6a7A","-1","-1","1","0","[]","0","0","3","","","","","","","",""
"pit-trial","64","565494","0.0-2.0-14.1-0.1","battery-v0.2","","""event"",""trial"",""time""
""fullscreenenter"",""1"",""2156""
","
","
","""event"",""trial"",""time""
""fullscreenenter"",""1"",""2156""
","
","","","-1","","","14","3754","1571","&#9826;","elianto","#f73b6a7A","-1","-1","1","0","[]","0","0","3","","","","","","","",""
"pit-trial","65","570360","0.0-2.0-14.1-1.1","battery-v0.2","","""event"",""trial"",""time""
""fullscreenenter"",""1"",""2156""
","
","
","""event"",""trial"",""time""
""fullscreenenter"",""1"",""2156""
","
","","","-1","","","14","3754","1571","&#9826;","elianto","#f73b6a7A","-1","-1","1","0","[]","0","0","3","","","","","","","",""
"pit-trial","66","575222","0.0-2.0-14.1-2.1","battery-v0.2","","""event"",""trial"",""time""
""fullscreenenter"",""1"",""2156""
","
","
","""event"",""trial"",""time""
""fullscreenenter"",""1"",""2156""
","
","","","-1","","","14","3754","1571","&#9826;","elianto","#f73b6a7A","-1","-1","1","0","[]","0","0","3","","","","","","","",""
"pit-trial","67","580086","0.0-2.0-14.1-3.1","battery-v0.2","","""event"",""trial"",""time""
""fullscreenenter"",""1"",""2156""
","
","
","""event"",""trial"",""time""
""fullscreenenter"",""1"",""2156""
","
","","","-1","","","14","3754","1571","&#9826;","elianto","#f73b6a7A","-1","-1","1","-10","[]","0","0","3","","","","","","","",""
"pit-trial","68","584950","0.0-2.0-14.1-4.1","battery-v0.2","","""event"",""trial"",""time""
""fullscreenenter"",""1"",""2156""
","
","
","""event"",""trial"",""time""
""fullscreenenter"",""1"",""2156""
","
","","","-1","","","14","3754","1571","&#9826;","elianto","#f73b6a7A","-1","-1","1","0","[]","0","0","3","","","","","","","",""
"pit-trial","69","589815","0.0-2.0-14.2-0.2","battery-v0.2","","""event"",""trial"",""time""
""fullscreenenter"",""1"",""2156""
","
","
","""event"",""trial"",""time""
""fullscreenenter"",""1"",""2156""
","
","","","-1","","","14","3754","1571","&#9826;","elianto","#f73b6a7A","-1","-1","1","0","[]","0","0","3","","","","","","","",""
"pit-trial","70","594685","0.0-2.0-14.2-1.2","battery-v0.2","","""event"",""trial"",""time""
""fullscreenenter"",""1"",""2156""
","
","
","""event"",""trial"",""time""
""fullscreenenter"",""1"",""2156""
","
","","","-1","","","14","3754","1571","&#9826;","elianto","#f73b6a7A","-1","-1","1","0","[]","0","0","3","","","","","","","",""
"pit-trial","71","599549","0.0-2.0-14.2-2.2","battery-v0.2","","""event"",""trial"",""time""
""fullscreenenter"",""1"",""2156""
","
","
","""event"",""trial"",""time""
""fullscreenenter"",""1"",""2156""
","
","","","-1","","","14","3754","1571","&#9826;","elianto","#f73b6a7A","-1","-1","1","0","[]","0","0","3","","","","","","","",""
"pit-trial","72","604413","0.0-2.0-14.2-3.2","battery-v0.2","","""event"",""trial"",""time""
""fullscreenenter"",""1"",""2156""
","
","
","""event"",""trial"",""time""
""fullscreenenter"",""1"",""2156""
","
","","","-1","","","14","3754","1571","&#9826;","elianto","#f73b6a7A","-1","-1","1","-10","[]","0","0","3","","","","","","","",""
"pit-trial","73","609280","0.0-2.0-14.2-4.2","battery-v0.2","","""event"",""trial"",""time""
""fullscreenenter"",""1"",""2156""
","
","
","""event"",""trial"",""time""
""fullscreenenter"",""1"",""2156""
","
","","","-1","","","14","3754","1571","&#9826;","elianto","#f73b6a7A","-1","-1","1","0","[]","0","0","3","","","","","","","",""
"pit-trial","74","614149","0.0-2.0-14.3-0.3","battery-v0.2","","""event"",""trial"",""time""
""fullscreenenter"",""1"",""2156""
","
","
","""event"",""trial"",""time""
""fullscreenenter"",""1"",""2156""
","
","","","-1","","","14","3754","1571","&#9826;","elianto","#f73b6a7A","-1","-1","1","0","[]","0","0","3","","","","","","","",""
"pit-trial","75","619013","0.0-2.0-14.3-1.3","battery-v0.2","","""event"",""trial"",""time""
""fullscreenenter"",""1"",""2156""
","
","
","""event"",""trial"",""time""
""fullscreenenter"",""1"",""2156""
","
","","","-1","","","14","3754","1571","&#9826;","elianto","#f73b6a7A","-1","-1","1","0","[]","0","0","3","","","","","","","",""
"pit-trial","76","623877","0.0-2.0-14.3-2.3","battery-v0.2","","""event"",""trial"",""time""
""fullscreenenter"",""1"",""2156""
","
","
","""event"",""trial"",""time""
""fullscreenenter"",""1"",""2156""
","
","","","-1","","","14","3754","1571","&#9826;","elianto","#f73b6a7A","-1","-1","1","0","[]","0","0","3","","","","","","","",""
"pit-trial","77","628741","0.0-2.0-14.3-3.3","battery-v0.2","","""event"",""trial"",""time""
""fullscreenenter"",""1"",""2156""
","
","
","""event"",""trial"",""time""
""fullscreenenter"",""1"",""2156""
","
","","","-1","","","14","3754","1571","&#9826;","elianto","#f73b6a7A","-1","-1","1","-10","[]","0","0","3","","","","","","","",""
"pit-trial","78","633606","0.0-2.0-14.3-4.3","battery-v0.2","","""event"",""trial"",""time""
""fullscreenenter"",""1"",""2156""
","
","
","""event"",""trial"",""time""
""fullscreenenter"",""1"",""2156""
","
","","","-1","","","14","3754","1571","&#9826;","elianto","#f73b6a7A","-1","-1","1","0","[]","0","0","3","","","","","","","",""
"call-function","79","633609","0.0-2.0-15.0","battery-v0.2","","""event"",""trial"",""time""
""fullscreenenter"",""1"",""2156""
","
","
","""event"",""trial"",""time""
""fullscreenenter"",""1"",""2156""
","
","","","","","","","","","","","","","","","","","","","","","","","","","","",""
"pit-instructions","80","659668","0.0-2.0-16.0","battery-v0.2","","""event"",""trial"",""time""
""fullscreenenter"",""1"",""2156""
","
","
","""event"",""trial"",""time""
""fullscreenenter"",""1"",""2156""
","
","","[{""page_index"":0,""viewing_time"":6905.299999952316},{""page_index"":1,""viewing_time"":8600.200000047684},{""page_index"":2,""viewing_time"":5400.199999809265},{""page_index"":3,""viewing_time"":5150}]","26057.199999809265","","","","","","","","","","","","","","","","","","","","","","","",""
"pit-trial","81","663104","0.0-2.0-17.0-0.0","battery-v0.2","","""event"",""trial"",""time""
""fullscreenenter"",""1"",""2156""
","
","
","""event"",""trial"",""time""
""fullscreenenter"",""1"",""2156""
","
","","","572.0999999046326","","","14","3754","1571","&#9789;","elianto","#f73b6a7A"," "," ","1","0","[1428.2999999523163]","1","0","4","","","","","","","",""
"pit-trial","82","666407","0.0-2.0-17.0-1.0","battery-v0.2","","""event"",""trial"",""time""
""fullscreenenter"",""1"",""2156""
","
","
","""event"",""trial"",""time""
""fullscreenenter"",""1"",""2156""
","
","","","436.2000000476837","","","14","3754","1571","&#9789;","elianto","#f73b6a7A"," "," ","1","0","[1289.3999998569489,1489.6999998092651]","2","0","4","","","","","","","",""
"pit-trial","83","669667","0.0-2.0-17.0-2.0","battery-v0.2","","""event"",""trial"",""time""
""fullscreenenter"",""1"",""2156""
","
","
","""event"",""trial"",""time""
""fullscreenenter"",""1"",""2156""
","
","","","397.09999990463257","","","14","3754","1571","&#9789;","elianto","#f73b6a7A"," "," ","1","0","[1248]","1","0","4","","","","","","","",""
"pit-trial","84","672951","0.0-2.0-17.0-3.0","battery-v0.2","","""event"",""trial"",""time""
""fullscreenenter"",""1"",""2156""
","
","
","""event"",""trial"",""time""
""fullscreenenter"",""1"",""2156""
","
","","","415.69999980926514","","","14","3754","1571","&#9789;","elianto","#f73b6a7A"," "," ","1","-10","[1272.6999998092651]","1","0","4","","","","","","","",""
"pit-trial","85","676227","0.0-2.0-17.0-4.0","battery-v0.2","","""event"",""trial"",""time""
""fullscreenenter"",""1"",""2156""
","
","
","""event"",""trial"",""time""
""fullscreenenter"",""1"",""2156""
","
","","","409.7000000476837","","","14","3754","1571","&#9789;","elianto","#f73b6a7A"," "," ","1","0","[1261.5,2171.7000000476837]","2","0","4","","","","","","","",""
"pit-trial","86","679857","0.0-2.0-17.1-0.1","battery-v0.2","","""event"",""trial"",""time""
""fullscreenenter"",""1"",""2156""
","
","
","""event"",""trial"",""time""
""fullscreenenter"",""1"",""2156""
","
","","","765.7999999523163","","","14","3754","1571","&#9789;","elianto","#f73b6a7A"," "," ","1","0","[1619.2999999523163]","1","0","4","","","","","","","",""
"pit-trial","87","683093","0.0-2.0-17.1-1.1","battery-v0.2","","""event"",""trial"",""time""
""fullscreenenter"",""1"",""2156""
","
","
","""event"",""trial"",""time""
""fullscreenenter"",""1"",""2156""
","
","","","380.39999985694885","","","14","3754","1571","&#9789;","elianto","#f73b6a7A"," "," ","1","0","[1230.5]","1","0","4","","","","","","","",""
"pit-trial","88","686537","0.0-2.0-17.1-2.1","battery-v0.2","","""event"",""trial"",""time""
""fullscreenenter"",""1"",""2156""
","
","
","""event"",""trial"",""time""
""fullscreenenter"",""1"",""2156""
","
","","","573.5","","","14","3754","1571","&#9789;","elianto","#f73b6a7A"," "," ","1","0","[1428.5999999046326]","1","0","4","","","","","","","",""
"pit-trial","89","689813","0.0-2.0-17.1-3.1","battery-v0.2","","""event"",""trial"",""time""
""fullscreenenter"",""1"",""2156""
","
","
","""event"",""trial"",""time""
""fullscreenenter"",""1"",""2156""
","
","","","415.40000009536743","","","14","3754","1571","&#9789;","elianto","#f73b6a7A"," "," ","1","-10","[1269.5999999046326]","1","0","4","","","","","","","",""
"pit-trial","90","693037","0.0-2.0-17.1-4.1","battery-v0.2","","""event"",""trial"",""time""
""fullscreenenter"",""1"",""2156""
","
","
","""event"",""trial"",""time""
""fullscreenenter"",""1"",""2156""
","
","","","364.09999990463257","","","14","3754","1571","&#9789;","elianto","#f73b6a7A"," "," ","1","0","[1215.8999998569489]","1","0","4","","","","","","","",""
"pit-trial","91","696413","0.0-2.0-17.2-0.2","battery-v0.2","","""event"",""trial"",""time""
""fullscreenenter"",""1"",""2156""
","
","
","""event"",""trial"",""time""
""fullscreenenter"",""1"",""2156""
","
","","","514.5","","","14","3754","1571","&#9789;","elianto","#f73b6a7A"," "," ","1","0","[1366.9000000953674]","1","0","4","","","","","","","",""
"pit-trial","92","699613","0.0-2.0-17.2-1.2","battery-v0.2","","""event"",""trial"",""time""
""fullscreenenter"",""1"",""2156""
","
","
","""event"",""trial"",""time""
""fullscreenenter"",""1"",""2156""
","
","","","337","","","14","3754","1571","&#9789;","elianto","#f73b6a7A"," "," ","1","0","[1190.8000001907349]","1","0","4","","","","","","","",""
"pit-trial","93","702981","0.0-2.0-17.2-2.2","battery-v0.2","","""event"",""trial"",""time""
""fullscreenenter"",""1"",""2156""
","
","
","""event"",""trial"",""time""
""fullscreenenter"",""1"",""2156""
","
","","","506","","","14","3754","1571","&#9789;","elianto","#f73b6a7A"," "," ","1","0","[1357.8000001907349]","1","0","4","","","","","","","",""
"pit-trial","94","707845","0.0-2.0-17.2-3.2","battery-v0.2","","""event"",""trial"",""time""
""fullscreenenter"",""1"",""2156""
","
","
","""event"",""trial"",""time""
""fullscreenenter"",""1"",""2156""
","
","","","-1","","","14","3754","1571","&#9789;","elianto","#f73b6a7A"," ","-1","0","0","[]","0","0","4","","","","","","","",""
"pit-trial","95","711487","0.0-2.0-17.2-4.2","battery-v0.2","","""event"",""trial"",""time""
""fullscreenenter"",""1"",""2156""
","
","
","""event"",""trial"",""time""
""fullscreenenter"",""1"",""2156""
","
","","","778.8000001907349","","","14","3754","1571","&#9789;","elianto","#f73b6a7A"," "," ","1","0","[1632.2000000476837]","1","0","4","","","","","","","",""
"pit-trial","96","714829","0.0-2.0-17.3-0.3","battery-v0.2","","""event"",""trial"",""time""
""fullscreenenter"",""1"",""2156""
","
","
","""event"",""trial"",""time""
""fullscreenenter"",""1"",""2156""
","
","","","482.40000009536743","","","14","3754","1571","&#9789;","elianto","#f73b6a7A"," "," ","1","0","[1336.0999999046326]","1","0","4","","","","","","","",""
"pit-trial","97","718101","0.0-2.0-17.3-1.3","battery-v0.2","","""event"",""trial"",""time""
""fullscreenenter"",""1"",""2156""
","
","
","""event"",""trial"",""time""
""fullscreenenter"",""1"",""2156""
","
","","","410.2999999523163","","","14","3754","1571","&#9789;","elianto","#f73b6a7A"," "," ","1","0","[1264.2000000476837]","1","0","4","","","","","","","",""
"pit-trial","98","721512","0.0-2.0-17.3-2.3","battery-v0.2","","""event"",""trial"",""time""
""fullscreenenter"",""1"",""2156""
","
","
","""event"",""trial"",""time""
""fullscreenenter"",""1"",""2156""
","
","","","539.4000000953674","","","14","3754","1571","&#9789;","elianto","#f73b6a7A"," "," ","1","0","[1395.2999999523163]","1","0","4","","","","","","","",""
"pit-trial","99","726381","0.0-2.0-17.3-3.3","battery-v0.2","","""event"",""trial"",""time""
""fullscreenenter"",""1"",""2156""
","
","
","""event"",""trial"",""time""
""fullscreenenter"",""1"",""2156""
","
","","","-1","","","14","3754","1571","&#9789;","elianto","#f73b6a7A"," ","-1","0","0","[]","0","0","4","","","","","","","",""
"pit-trial","100","729692","0.0-2.0-17.3-4.3","battery-v0.2","","""event"",""trial"",""time""
""fullscreenenter"",""1"",""2156""
","
","
","""event"",""trial"",""time""
""fullscreenenter"",""1"",""2156""
","
","","","448.80000019073486","","","14","3754","1571","&#9789;","elianto","#f73b6a7A"," "," ","1","0","[1300.7000000476837]","1","0","4","","","","","","","",""
"call-function","101","729695","0.0-2.0-18.0","battery-v0.2","","""event"",""trial"",""time""
""fullscreenenter"",""1"",""2156""
","
","
","""event"",""trial"",""time""
""fullscreenenter"",""1"",""2156""
","
","","","","","","","","","","","","","","","","","","","","","","","","","","",""
"pit-instructions","102","803017","0.0-2.0-19.0","battery-v0.2","","""event"",""trial"",""time""
""fullscreenenter"",""1"",""2156""
","
","
","""event"",""trial"",""time""
""fullscreenenter"",""1"",""2156""
","
","","[{""page_index"":0,""viewing_time"":6554.5},{""page_index"":1,""viewing_time"":7050.099999904633},{""page_index"":2,""viewing_time"":14250.200000047684},{""page_index"":3,""viewing_time"":7934.299999952316},{""page_index"":4,""viewing_time"":8783.5},{""page_index"":5,""viewing_time"":8316.299999952316},{""page_index"":6,""viewing_time"":8900.5},{""page_index"":7,""viewing_time"":6749.900000095367},{""page_index"":8,""viewing_time"":4783.400000095367}]","73324","","","","","","","","","","","","","","","","","","","","","","","",""
"pit-comprehension","103","809452","0.0-2.0-20.0-0.0","battery-v0.2","","""event"",""trial"",""time""
""fullscreenenter"",""1"",""2156""
","
","
","""event"",""trial"",""time""
""fullscreenenter"",""1"",""2156""
","
","","","6428.200000047684","[""SPACE""]","0","14","3754","1571","","","","","","","","","","","","","","","","","","",""
"pit-instructions","104","812901","0.0-2.0-20.0-1.0","battery-v0.2","","""event"",""trial"",""time""
""fullscreenenter"",""1"",""2156""
","
","
","""event"",""trial"",""time""
""fullscreenenter"",""1"",""2156""
","
","","[{""page_index"":0,""viewing_time"":3422}]","3422.800000190735","","","","","","","","","","","","","","","","","","","","","","","",""
"pit-comprehension","105","821485","0.0-2.0-21.0-0.0","battery-v0.2","","""event"",""trial"",""time""
""fullscreenenter"",""1"",""2156""
","
","
","""event"",""trial"",""time""
""fullscreenenter"",""1"",""2156""
","
","","","8578.5","[""10""]","0","14","3754","1571","","","","","","","","","","","","","","","","","","",""
"pit-instructions","106","826868","0.0-2.0-21.0-1.0","battery-v0.2","","""event"",""trial"",""time""
""fullscreenenter"",""1"",""2156""
","
","
","""event"",""trial"",""time""
""fullscreenenter"",""1"",""2156""
","
","","[{""page_index"":0,""viewing_time"":5356.5}]","5357.299999952316","","","","","","","","","","","","","","","","","","","","","","","",""
"pit-comprehension","107","834466","0.0-2.0-22.0-0.0","battery-v0.2","","""event"",""trial"",""time""
""fullscreenenter"",""1"",""2156""
","
","
","""event"",""trial"",""time""
""fullscreenenter"",""1"",""2156""
","
","","","7594","[""0""]","0","14","3754","1571","","","","","","","","","","","","","","","","","","",""
"pit-instructions","108","838234","0.0-2.0-22.0-1.0","battery-v0.2","","""event"",""trial"",""time""
""fullscreenenter"",""1"",""2156""
","
","
","""event"",""trial"",""time""
""fullscreenenter"",""1"",""2156""
","
","","[{""page_index"":0,""viewing_time"":3744.5}]","3745.2000000476837","","","","","","","","","","","","","","","","","","","","","","","",""
"pit-comprehension","109","852701","0.0-2.0-23.0-0.0","battery-v0.2","","""event"",""trial"",""time""
""fullscreenenter"",""1"",""2156""
","
","
","""event"",""trial"",""time""
""fullscreenenter"",""1"",""2156""
","
","","","14462.5","[""True""]","0","14","3754","1571","","","","","","","","","","","","","","","","","","",""
"pit-instructions","110","856116","0.0-2.0-23.0-1.0","battery-v0.2","","""event"",""trial"",""time""
""fullscreenenter"",""1"",""2156""
","
","
","""event"",""trial"",""time""
""fullscreenenter"",""1"",""2156""
","
","","[{""page_index"":0,""viewing_time"":3388.7000000476837}]","3389.2000000476837","","","","","","","","","","","","","","","","","","","","","","","",""
"pit-comprehension","111","868885","0.0-2.0-24.0-0.0","battery-v0.2","","""event"",""trial"",""time""
""fullscreenenter"",""1"",""2156""
","
","
","""event"",""trial"",""time""
""fullscreenenter"",""1"",""2156""
","
","","","12763.900000095367","[""True""]","0","14","3754","1571","","","","","","","","","","","","","","","","","","",""
"pit-instructions","112","873601","0.0-2.0-24.0-1.0","battery-v0.2","","""event"",""trial"",""time""
""fullscreenenter"",""1"",""2156""
","
","
","""event"",""trial"",""time""
""fullscreenenter"",""1"",""2156""
","
","","[{""page_index"":0,""viewing_time"":4689}]","4689.600000143051","","","","","","","","","","","","","","","","","","","","","","","",""
"pit-comprehension","113","882885","0.0-2.0-25.0-0.0","battery-v0.2","","""event"",""trial"",""time""
""fullscreenenter"",""1"",""2156""
","
","
","""event"",""trial"",""time""
""fullscreenenter"",""1"",""2156""
","
","","","9279.200000047684","[""True""]","0","14","3754","1571","","","","","","","","","","","","","","","","","","",""
"pit-instructions","114","885868","0.0-2.0-25.0-1.0","battery-v0.2","","""event"",""trial"",""time""
""fullscreenenter"",""1"",""2156""
","
","
","""event"",""trial"",""time""
""fullscreenenter"",""1"",""2156""
","
","","[{""page_index"":0,""viewing_time"":2953.600000143051}]","2954.600000143051","","","","","","","","","","","","","","","","","","","","","","","",""
"pit-comprehension","115","891318","0.0-2.0-26.0-0.0","battery-v0.2","","""event"",""trial"",""time""
""fullscreenenter"",""1"",""2156""
","
","
","""event"",""trial"",""time""
""fullscreenenter"",""1"",""2156""
","
","","","5444.899999856949","[""False""]","0","14","3754","1571","","","","","","","","","","","","","","","","","","",""
"pit-instructions","116","896667","0.0-2.0-26.0-1.0","battery-v0.2","","""event"",""trial"",""time""
""fullscreenenter"",""1"",""2156""
","
","
","""event"",""trial"",""time""
""fullscreenenter"",""1"",""2156""
","
","","[{""page_index"":0,""viewing_time"":5320.799999952316}]","5321.599999904633","","","","","","","","","","","","","","","","","","","","","","","",""
"pit-instructions","117","914835","0.0-3.0","battery-v0.2","","""event"",""trial"",""time""
""fullscreenenter"",""1"",""2156""
","
","
","""event"",""trial"",""time""
""fullscreenenter"",""1"",""2156""
","
","","[{""page_index"":0,""viewing_time"":4711.299999952316},{""page_index"":1,""viewing_time"":5701.700000047684},{""page_index"":2,""viewing_time"":7750.799999952316}]","18164.799999952316","","","","","","","","","","","","","","","","","","","","","","","",""
"pit-trial","118","918298","0.0-4.0","battery-v0.2","","""event"",""trial"",""time""
""fullscreenenter"",""1"",""2156""
","
","
","""event"",""trial"",""time""
""fullscreenenter"",""1"",""2156""
","
","","","597.2999999523163","","","14","3754","1571","&#9728;","elianto","#f73b6a7A","-1"," ","0","-10","[1450]","1","1","","","3754","1","0","4","lose","no-go","0"
"pit-trial","119","921834","0.0-5.0","battery-v0.2","","""event"",""trial"",""time""
""fullscreenenter"",""1"",""2156""
","
","
","""event"",""trial"",""time""
""fullscreenenter"",""1"",""2156""
","
","","","661.2000000476837","","","14","3754","1571","&#9730;","elianto","#3366ff99"," "," ","1","+10","[1519.7000000476837]","1","1","","","3754","2","1","1","win","go","0"
"pit-trial","120","925433","0.0-6.0","battery-v0.2","","""event"",""trial"",""time""
""fullscreenenter"",""1"",""2156""
","
","
","""event"",""trial"",""time""
""fullscreenenter"",""1"",""2156""
","
","","","728.4000000953674","","","14","3754","1571","&#9733;","elianto","#3366ff99","-1"," ","0","0","[1584.8999998569489]","1","1","","","3754","3","2","2","win","no-go","0"
"pit-trial","121","929486","0.0-7.0","battery-v0.2","","""event"",""trial"",""time""
""fullscreenenter"",""1"",""2156""
","
","
","""event"",""trial"",""time""
""fullscreenenter"",""1"",""2156""
","
","","","1184.3999998569489","","","14","3754","1571","&#9752;","elianto","#f73b6a7A"," "," ","1","0","[2042.2999999523163]","1","1","","","3754","4","3","3","lose","go","0"
"pit-trial","122","933016","0.0-8.0","battery-v0.2","","""event"",""trial"",""time""
""fullscreenenter"",""1"",""2156""
","
","
","""event"",""trial"",""time""
""fullscreenenter"",""1"",""2156""
","
","","","663.5","","","14","3754","1571","&#9733;","elianto","#3366ff99","-1"," ","0","0","[1518.5999999046326]","1","1","","","3754","5","2","2","win","no-go","0"
"pit-trial","123","936462","0.0-9.0","battery-v0.2","","""event"",""trial"",""time""
""fullscreenenter"",""1"",""2156""
","
","
","""event"",""trial"",""time""
""fullscreenenter"",""1"",""2156""
","
","","","575.7999999523163","","","14","3754","1571","&#9730;","elianto","#3366ff99"," "," ","1","0","[1433.9000000953674]","1","1","","","3754","6","1","1","win","go","1"
"pit-trial","124","940150","0.0-10.0","battery-v0.2","","""event"",""trial"",""time""
""fullscreenenter"",""1"",""2156""
","
","
","""event"",""trial"",""time""
""fullscreenenter"",""1"",""2156""
","
","","","822.2999999523163","","","14","3754","1571","&#9752;","elianto","#f73b6a7A"," "," ","1","0","[1675.2000000476837]","1","1","","","3754","7","3","3","lose","go","0"
"pit-trial","125","945017","0.0-11.0","battery-v0.2","","""event"",""trial"",""time""
""fullscreenenter"",""1"",""2156""
","
","
","""event"",""trial"",""time""
""fullscreenenter"",""1"",""2156""
","
","","","-1","","","14","3754","1571","&#9728;","elianto","#f73b6a7A","-1","-1","1","0","[]","0","1","","","3754","8","0","4","lose","no-go","0"
"pit-trial","126","948709","0.0-12.0","battery-v0.2","","""event"",""trial"",""time""
""fullscreenenter"",""1"",""2156""
","
","
","""event"",""trial"",""time""
""fullscreenenter"",""1"",""2156""
","
","","","828.3999998569489","","","14","3754","1571","&#9730;","elianto","#3366ff99"," "," ","1","+10","[1685]","1","1","","","3754","9","1","1","win","go","0"
"pit-trial","127","952255","0.0-13.0","battery-v0.2","","""event"",""trial"",""time""
""fullscreenenter"",""1"",""2156""
","
","
","""event"",""trial"",""time""
""fullscreenenter"",""1"",""2156""
","
","","","685.2000000476837","","","14","3754","1571","&#9733;","elianto","#3366ff99","-1"," ","0","0","[1535.2999999523163]","1","1","","","3754","10","2","2","win","no-go","0"
"pit-trial","128","957129","0.0-14.0","battery-v0.2","","""event"",""trial"",""time""
""fullscreenenter"",""1"",""2156""
","
","
","""event"",""trial"",""time""
""fullscreenenter"",""1"",""2156""
","
","","","-1","","","14","3754","1571","&#9728;","elianto","#f73b6a7A","-1","-1","1","0","[]","0","1","","","3754","11","0","4","lose","no-go","0"
"pit-trial","129","961549","0.0-15.0","battery-v0.2","","""event"",""trial"",""time""
""fullscreenenter"",""1"",""2156""
","
","
","""event"",""trial"",""time""
""fullscreenenter"",""1"",""2156""
","
","","","1548.5999999046326","","","14","3754","1571","&#9752;","elianto","#f73b6a7A"," "," ","1","0","[2408.7999999523163]","1","1","","","3754","12","3","3","lose","go","0"
"pit-trial","130","966413","0.0-16.0","battery-v0.2","","""event"",""trial"",""time""
""fullscreenenter"",""1"",""2156""
","
","
","""event"",""trial"",""time""
""fullscreenenter"",""1"",""2156""
","
","","","-1","","","14","3754","1571","&#9733;","elianto","#3366ff99","-1","-1","1","0","[]","0","1","","","3754","13","2","2","win","no-go","1"
"pit-trial","131","970653","0.0-17.0","battery-v0.2","","""event"",""trial"",""time""
""fullscreenenter"",""1"",""2156""
","
","
","""event"",""trial"",""time""
""fullscreenenter"",""1"",""2156""
","
","","","1374.5999999046326","","","14","3754","1571","&#9728;","elianto","#f73b6a7A","-1"," ","0","-10","[2228.7000000476837]","1","1","","","3754","14","0","4","lose","no-go","0"
"pit-trial","132","974933","0.0-18.0","battery-v0.2","","""event"",""trial"",""time""
""fullscreenenter"",""1"",""2156""
","
","
","""event"",""trial"",""time""
""fullscreenenter"",""1"",""2156""
","
","","","1419.4000000953674","","","14","3754","1571","&#9752;","elianto","#f73b6a7A"," "," ","1","0","[2273.5]","1","1","","","3754","15","3","3","lose","go","0"
"pit-trial","133","979797","0.0-19.0","battery-v0.2","","""event"",""trial"",""time""
""fullscreenenter"",""1"",""2156""
","
","
","""event"",""trial"",""time""
""fullscreenenter"",""1"",""2156""
","
","","","-1","","","14","3754","1571","&#9730;","elianto","#3366ff99"," ","-1","0","0","[]","0","1","","","3754","16","1","1","win","go","0"
"pit-trial","134","984661","0.0-20.0","battery-v0.2","","""event"",""trial"",""time""
""fullscreenenter"",""1"",""2156""
","
","
","""event"",""trial"",""time""
""fullscreenenter"",""1"",""2156""
","
","","","-1","","","14","3754","1571","&#9752;","elianto","#f73b6a7A"," ","-1","0","0","[3058]","1","1","","","3754","17","3","3","lose","go","1"
"pit-trial","135","988679","0.0-21.0","battery-v0.2","","""event"",""trial"",""time""
""fullscreenenter"",""1"",""2156""
","
","
","""event"",""trial"",""time""
""fullscreenenter"",""1"",""2156""
","
","","","1156.2000000476837","","","14","3754","1571","&#9733;","elianto","#3366ff99","-1"," ","0","0","[2006.3999998569489]","1","1","","","3754","18","2","2","win","no-go","0"
"pit-trial","136","992492","0.0-22.0","battery-v0.2","","""event"",""trial"",""time""
""fullscreenenter"",""1"",""2156""
","
","
","""event"",""trial"",""time""
""fullscreenenter"",""1"",""2156""
","
","","","944.9000000953674","","","14","3754","1571","&#9730;","elianto","#3366ff99"," "," ","1","0","[1805.7000000476837]","1","1","","","3754","19","1","1","win","go","1"
"pit-trial","137","997356","0.0-23.0","battery-v0.2","","""event"",""trial"",""time""
""fullscreenenter"",""1"",""2156""
","
","
","""event"",""trial"",""time""
""fullscreenenter"",""1"",""2156""
","
","","","-1","","","14","3754","1571","&#9728;","elianto","#f73b6a7A","-1","-1","1","-10","[]","0","1","","","3754","20","0","4","lose","no-go","1"
"pit-instructions","138","1011751","0.0-24.0","battery-v0.2","","""event"",""trial"",""time""
""fullscreenenter"",""1"",""2156""
","
","
","""event"",""trial"",""time""
""fullscreenenter"",""1"",""2156""
","
","","[{""page_index"":0,""viewing_time"":6590.200000047684},{""page_index"":1,""viewing_time"":7800.700000047684}]","14392.299999952316","","","","","","","","","","","","","","","","","","","","","","","",""
"pit-trial","139","1015728","0.0-25.0","battery-v0.2","","""event"",""trial"",""time""
""fullscreenenter"",""1"",""2156""
","
","
","""event"",""trial"",""time""
""fullscreenenter"",""1"",""2156""
","
","","","1103.5","","","14","3754","1571","l","elianto","#3366ff99"," "," ","1","+10","[1958.0999999046326]","1","2","","","3754","21","1","1","win","go","0"
"pit-trial","140","1019555","0.0-26.0","battery-v0.2","","""event"",""trial"",""time""
""fullscreenenter"",""1"",""2156""
","
","
","""event"",""trial"",""time""
""fullscreenenter"",""1"",""2156""
","
","","","957.7000000476837","","","14","3754","1571","a","elianto","#f73b6a7A","-1"," ","0","-10","[1817.2000000476837]","1","2","","","3754","22","2","4","lose","no-go","0"
"pit-trial","141","1023267","0.0-27.0","battery-v0.2","","""event"",""trial"",""time""
""fullscreenenter"",""1"",""2156""
","
","
","""event"",""trial"",""time""
""fullscreenenter"",""1"",""2156""
","
","","","852.5","","","14","3754","1571","u","elianto","#f73b6a7A","-1"," ","0","-10","[1705.7000000476837]","1","2","","","3754","23","0","4","lose","no-go","0"
"pit-trial","142","1027179","0.0-28.0","battery-v0.2","","""event"",""trial"",""time""
""fullscreenenter"",""1"",""2156""
","
","
","""event"",""trial"",""time""
""fullscreenenter"",""1"",""2156""
","
","","","1052.2000000476837","","","14","3754","1571","g","elianto","#f73b6a7A"," "," ","1","0","[1905.5]","1","2","","","3754","24","3","3","lose","go","0"
"pit-trial","143","1030939","0.0-29.0","battery-v0.2","","""event"",""trial"",""time""
""fullscreenenter"",""1"",""2156""
","
","
","""event"",""trial"",""time""
""fullscreenenter"",""1"",""2156""
","
","","","897.9000000953674","","","14","3754","1571","g","elianto","#f73b6a7A"," "," ","1","0","[1751.4000000953674]","1","2","","","3754","25","3","3","lose","go","0"
"pit-trial","144","1035802","0.0-30.0","battery-v0.2","","""event"",""trial"",""time""
""fullscreenenter"",""1"",""2156""
","
","
","""event"",""trial"",""time""
""fullscreenenter"",""1"",""2156""
","
","","","-1","","","14","3754","1571","a","elianto","#f73b6a7A","-1","-1","1","-10","[]","0","2","","","3754","26","2","4","lose","no-go","1"
"pit-trial","145","1039563","0.0-31.0","battery-v0.2","","""event"",""trial"",""time""
""fullscreenenter"",""1"",""2156""
","
","
","""event"",""trial"",""time""
""fullscreenenter"",""1"",""2156""
","
","","","895.7000000476837","","","14","3754","1571","l","elianto","#3366ff99"," "," ","1","+10","[1750.7999999523163]","1","2","","","3754","27","1","1","win","go","0"
"pit-trial","146","1044426","0.0-32.0","battery-v0.2","","""event"",""trial"",""time""
""fullscreenenter"",""1"",""2156""
","
","
","""event"",""trial"",""time""
""fullscreenenter"",""1"",""2156""
","
","","","-1","","","14","3754","1571","u","elianto","#f73b6a7A","-1","-1","1","0","[]","0","2","","","3754","28","0","4","lose","no-go","0"
"pit-trial","147","1049290","0.0-33.0","battery-v0.2","","""event"",""trial"",""time""
""fullscreenenter"",""1"",""2156""
","
","
","""event"",""trial"",""time""
""fullscreenenter"",""1"",""2156""
","
","","","-1","","","14","3754","1571","a","elianto","#f73b6a7A","-1","-1","1","0","[]","0","2","","","3754","29","2","4","lose","no-go","0"
"pit-trial","148","1054154","0.0-34.0","battery-v0.2","","""event"",""trial"",""time""
""fullscreenenter"",""1"",""2156""
","
","
","""event"",""trial"",""time""
""fullscreenenter"",""1"",""2156""
","
","","","-1","","","14","3754","1571","u","elianto","#f73b6a7A","-1","-1","1","0","[]","0","2","","","3754","30","0","4","lose","no-go","0"
"pit-trial","149","1057834","0.0-35.0","battery-v0.2","","""event"",""trial"",""time""
""fullscreenenter"",""1"",""2156""
","
","
","""event"",""trial"",""time""
""fullscreenenter"",""1"",""2156""
","
","","","816.5","","","14","3754","1571","g","elianto","#f73b6a7A"," "," ","1","0","[1670]","1","2","","","3754","31","3","3","lose","go","0"
"pit-trial","150","1061210","0.0-36.0","battery-v0.2","","""event"",""trial"",""time""
""fullscreenenter"",""1"",""2156""
","
","
","""event"",""trial"",""time""
""fullscreenenter"",""1"",""2156""
","
","","","511","","","14","3754","1571","l","elianto","#3366ff99"," "," ","1","+10","[1362.7999999523163]","1","2","","","3754","32","1","1","win","go","0"
"pit-trial","151","1066074","0.0-37.0","battery-v0.2","","""event"",""trial"",""time""
""fullscreenenter"",""1"",""2156""
","
","
","""event"",""trial"",""time""
""fullscreenenter"",""1"",""2156""
","
","","","-1","","","14","3754","1571","u","elianto","#f73b6a7A","-1","-1","1","0","[]","0","2","","","3754","33","0","4","lose","no-go","0"
"pit-trial","152","1069586","0.0-38.0","battery-v0.2","","""event"",""trial"",""time""
""fullscreenenter"",""1"",""2156""
","
","
","""event"",""trial"",""time""
""fullscreenenter"",""1"",""2156""
","
","","","651.5","","","14","3754","1571","l","elianto","#3366ff99"," "," ","1","+10","[1502.2000000476837]","1","2","","","3754","34","1","1","win","go","0"
"pit-trial","153","1073018","0.0-39.0","battery-v0.2","","""event"",""trial"",""time""
""fullscreenenter"",""1"",""2156""
","
","
","""event"",""trial"",""time""
""fullscreenenter"",""1"",""2156""
","
","","","565.8000001907349","","","14","3754","1571","g","elianto","#f73b6a7A"," "," ","1","0","[1420.5999999046326]","1","2","","","3754","35","3","3","lose","go","0"
"pit-trial","154","1077882","0.0-40.0","battery-v0.2","","""event"",""trial"",""time""
""fullscreenenter"",""1"",""2156""
","
","
","""event"",""trial"",""time""
""fullscreenenter"",""1"",""2156""
","
","","","-1","","","14","3754","1571","a","elianto","#f73b6a7A","-1","-1","1","0","[]","0","2","","","3754","36","2","4","lose","no-go","0"
"pit-trial","155","1081314","0.0-41.0","battery-v0.2","","""event"",""trial"",""time""
""fullscreenenter"",""1"",""2156""
","
","
","""event"",""trial"",""time""
""fullscreenenter"",""1"",""2156""
","
","","","571.5","","","14","3754","1571","l","elianto","#3366ff99"," "," ","1","+10","[1423]","1","2","","","3754","37","1","1","win","go","0"
"pit-trial","156","1086178","0.0-42.0","battery-v0.2","","""event"",""trial"",""time""
""fullscreenenter"",""1"",""2156""
","
","
","""event"",""trial"",""time""
""fullscreenenter"",""1"",""2156""
","
","","","-1","","","14","3754","1571","a","elianto","#f73b6a7A","-1","-1","1","0","[]","0","2","","","3754","38","2","4","lose","no-go","0"
"pit-trial","157","1089777","0.0-43.0","battery-v0.2","","""event"",""trial"",""time""
""fullscreenenter"",""1"",""2156""
","
","
","""event"",""trial"",""time""
""fullscreenenter"",""1"",""2156""
","
","","","739.2000000476837","","","14","3754","1571","g","elianto","#f73b6a7A"," "," ","1","-10","[1593.2000000476837]","1","2","","","3754","39","3","3","lose","go","1"
"pit-trial","158","1094641","0.0-44.0","battery-v0.2","","""event"",""trial"",""time""
""fullscreenenter"",""1"",""2156""
","
","
","""event"",""trial"",""time""
""fullscreenenter"",""1"",""2156""
","
","","","-1","","","14","3754","1571","u","elianto","#f73b6a7A","-1","-1","1","0","[]","0","2","","","3754","40","0","4","lose","no-go","0"
"pit-trial","159","1098267","0.0-45.0","battery-v0.2","","""event"",""trial"",""time""
""fullscreenenter"",""1"",""2156""
","
","
","""event"",""trial"",""time""
""fullscreenenter"",""1"",""2156""
","
","","","763.4000000953674","","","14","3754","1571","g","elianto","#f73b6a7A"," "," ","1","0","[1615.0999999046326]","1","2","","","3754","41","3","3","lose","go","0"
"pit-trial","160","1103137","0.0-46.0","battery-v0.2","","""event"",""trial"",""time""
""fullscreenenter"",""1"",""2156""
","
","
","""event"",""trial"",""time""
""fullscreenenter"",""1"",""2156""
","
","","","-1","","","14","3754","1571","u","elianto","#f73b6a7A","-1","-1","1","0","[]","0","2","","","3754","42","0","4","lose","no-go","0"
"pit-trial","161","1106577","0.0-47.0","battery-v0.2","","""event"",""trial"",""time""
""fullscreenenter"",""1"",""2156""
","
","
","""event"",""trial"",""time""
""fullscreenenter"",""1"",""2156""
","
","","","579.0999999046326","","","14","3754","1571","l","elianto","#3366ff99"," "," ","1","+10","[1432.5]","1","2","","","3754","43","1","1","win","go","0"
"pit-trial","162","1111441","0.0-48.0","battery-v0.2","","""event"",""trial"",""time""
""fullscreenenter"",""1"",""2156""
","
","
","""event"",""trial"",""time""
""fullscreenenter"",""1"",""2156""
","
","","","-1","","","14","3754","1571","a","elianto","#f73b6a7A","-1","-1","1","-10","[]","0","2","","","3754","44","2","4","lose","no-go","1"
"pit-trial","163","1115392","0.0-49.0","battery-v0.2","","""event"",""trial"",""time""
""fullscreenenter"",""1"",""2156""
","
","
","""event"",""trial"",""time""
""fullscreenenter"",""1"",""2156""
","
","","","1090.8999998569489","","","14","3754","1571","a","elianto","#f73b6a7A","-1"," ","0","-10","[1941.2000000476837]","1","2","","","3754","45","2","4","lose","no-go","0"
"pit-trial","164","1118944","0.0-50.0","battery-v0.2","","""event"",""trial"",""time""
""fullscreenenter"",""1"",""2156""
","
","
","""event"",""trial"",""time""
""fullscreenenter"",""1"",""2156""
","
","","","693.2000000476837","","","14","3754","1571","g","elianto","#f73b6a7A"," "," ","1","0","[1545]","1","2","","","3754","46","3","3","lose","go","0"
"pit-trial","165","1123808","0.0-51.0","battery-v0.2","","""event"",""trial"",""time""
""fullscreenenter"",""1"",""2156""
","
","
","""event"",""trial"",""time""
""fullscreenenter"",""1"",""2156""
","
","","","-1","","","14","3754","1571","u","elianto","#f73b6a7A","-1","-1","1","0","[]","0","2","","","3754","47","0","4","lose","no-go","0"
"pit-trial","166","1128008","0.0-52.0","battery-v0.2","","""event"",""trial"",""time""
""fullscreenenter"",""1"",""2156""
","
","
","""event"",""trial"",""time""
""fullscreenenter"",""1"",""2156""
","
","","","1339.0999999046326","","","14","3754","1571","p","elianto","#3366ff99","-1"," ","0","0","[2189.7000000476837]","1","2","","","3754","48","4","2","win","no-go","0"
"pit-trial","167","1132871","0.0-53.0","battery-v0.2","","""event"",""trial"",""time""
""fullscreenenter"",""1"",""2156""
","
","
","""event"",""trial"",""time""
""fullscreenenter"",""1"",""2156""
","
","","","-1","","","14","3754","1571","u","elianto","#f73b6a7A","-1","-1","1","-10","[]","0","2","","","3754","49","0","4","lose","no-go","1"
"pit-trial","168","1137735","0.0-54.0","battery-v0.2","","""event"",""trial"",""time""
""fullscreenenter"",""1"",""2156""
","
","
","""event"",""trial"",""time""
""fullscreenenter"",""1"",""2156""
","
","","","-1","","","14","3754","1571","p","elianto","#3366ff99","-1","-1","1","+10","[]","0","2","","","3754","50","4","2","win","no-go","0"
"pit-trial","169","1141551","0.0-55.0","battery-v0.2","","""event"",""trial"",""time""
""fullscreenenter"",""1"",""2156""
","
","
","""event"",""trial"",""time""
""fullscreenenter"",""1"",""2156""
","
","","","954.2000000476837","","","14","3754","1571","g","elianto","#f73b6a7A"," "," ","1","0","[1809.6000001430511]","1","2","","","3754","51","3","3","lose","go","0"
"pit-trial","170","1145071","0.0-56.0","battery-v0.2","","""event"",""trial"",""time""
""fullscreenenter"",""1"",""2156""
","
","
","""event"",""trial"",""time""
""fullscreenenter"",""1"",""2156""
","
","","","658.9000000953674","","","14","3754","1571","l","elianto","#3366ff99"," "," ","1","+10","[1514.9000000953674]","1","2","","","3754","52","1","1","win","go","0"
"pit-trial","171","1149935","0.0-57.0","battery-v0.2","","""event"",""trial"",""time""
""fullscreenenter"",""1"",""2156""
","
","
","""event"",""trial"",""time""
""fullscreenenter"",""1"",""2156""
","
","","","-1","","","14","3754","1571","p","elianto","#3366ff99","-1","-1","1","+10","[]","0","2","","","3754","53","4","2","win","no-go","0"
"pit-trial","172","1153663","0.0-58.0","battery-v0.2","","""event"",""trial"",""time""
""fullscreenenter"",""1"",""2156""
","
","
","""event"",""trial"",""time""
""fullscreenenter"",""1"",""2156""
","
","","","867","","","14","3754","1571","l","elianto","#3366ff99"," "," ","1","+10","[1722.7999999523163]","1","2","","","3754","54","1","1","win","go","0"
"pit-trial","173","1158527","0.0-59.0","battery-v0.2","","""event"",""trial"",""time""
""fullscreenenter"",""1"",""2156""
","
","
","""event"",""trial"",""time""
""fullscreenenter"",""1"",""2156""
","
","","","-1","","","14","3754","1571","a","elianto","#f73b6a7A","-1","-1","1","0","[]","0","2","","","3754","55","2","4","lose","no-go","0"
"pit-trial","174","1163390","0.0-60.0","battery-v0.2","","""event"",""trial"",""time""
""fullscreenenter"",""1"",""2156""
","
","
","""event"",""trial"",""time""
""fullscreenenter"",""1"",""2156""
","
","","","-1","","","14","3754","1571","u","elianto","#f73b6a7A","-1","-1","1","0","[]","0","2","","","3754","56","0","4","lose","no-go","0"
"pit-trial","175","1166962","0.0-61.0","battery-v0.2","","""event"",""trial"",""time""
""fullscreenenter"",""1"",""2156""
","
","
","""event"",""trial"",""time""
""fullscreenenter"",""1"",""2156""
","
","","","710.2000000476837","","","14","3754","1571","g","elianto","#f73b6a7A"," "," ","1","-10","[1560.7000000476837]","1","2","","","3754","57","3","3","lose","go","1"
"pit-trial","176","1171831","0.0-62.0","battery-v0.2","","""event"",""trial"",""time""
""fullscreenenter"",""1"",""2156""
","
","
","""event"",""trial"",""time""
""fullscreenenter"",""1"",""2156""
","
","","","-1","","","14","3754","1571","u","elianto","#f73b6a7A","-1","-1","1","0","[]","0","2","","","3754","58","0","4","lose","no-go","0"
"pit-trial","177","1176696","0.0-63.0","battery-v0.2","","""event"",""trial"",""time""
""fullscreenenter"",""1"",""2156""
","
","
","""event"",""trial"",""time""
""fullscreenenter"",""1"",""2156""
","
","","","-1","","","14","3754","1571","p","elianto","#3366ff99","-1","-1","1","+10","[]","0","2","","","3754","59","4","2","win","no-go","0"
"pit-trial","178","1180191","0.0-64.0","battery-v0.2","","""event"",""trial"",""time""
""fullscreenenter"",""1"",""2156""
","
","
","""event"",""trial"",""time""
""fullscreenenter"",""1"",""2156""
","
","","","626","","","14","3754","1571","l","elianto","#3366ff99"," "," ","1","+10","[1486.8999998569489]","1","2","","","3754","60","1","1","win","go","0"
"pit-trial","179","1185054","0.0-65.0","battery-v0.2","","""event"",""trial"",""time""
""fullscreenenter"",""1"",""2156""
","
","
","""event"",""trial"",""time""
""fullscreenenter"",""1"",""2156""
","
","","","-1","","","14","3754","1571","p","elianto","#3366ff99","-1","-1","1","0","[]","0","2","","","3754","61","4","2","win","no-go","1"
"pit-trial","180","1188558","0.0-66.0","battery-v0.2","","""event"",""trial"",""time""
""fullscreenenter"",""1"",""2156""
","
","
","""event"",""trial"",""time""
""fullscreenenter"",""1"",""2156""
","
","","","640.0999999046326","","","14","3754","1571","l","elianto","#3366ff99"," "," ","1","+10","[1493.3999998569489]","1","2","","","3754","62","1","1","win","go","0"
"pit-trial","181","1192318","0.0-67.0","battery-v0.2","","""event"",""trial"",""time""
""fullscreenenter"",""1"",""2156""
","
","
","""event"",""trial"",""time""
""fullscreenenter"",""1"",""2156""
","
","","","899","","","14","3754","1571","g","elianto","#f73b6a7A"," "," ","1","0","[1749.7000000476837]","1","2","","","3754","63","3","3","lose","go","0"
"pit-trial","182","1197182","0.0-68.0","battery-v0.2","","""event"",""trial"",""time""
""fullscreenenter"",""1"",""2156""
","
","
","""event"",""trial"",""time""
""fullscreenenter"",""1"",""2156""
","
","","","-1","","","14","3754","1571","a","elianto","#f73b6a7A","-1","-1","1","0","[]","0","2","","","3754","64","2","4","lose","no-go","0"
"pit-trial","183","1200853","0.0-69.0","battery-v0.2","","""event"",""trial"",""time""
""fullscreenenter"",""1"",""2156""
","
","
","""event"",""trial"",""time""
""fullscreenenter"",""1"",""2156""
","
","","","813.2999999523163","","","14","3754","1571","g","elianto","#f73b6a7A"," "," ","1","-10","[1664]","1","2","","","3754","65","3","3","lose","go","1"
"pit-trial","184","1204262","0.0-70.0","battery-v0.2","","""event"",""trial"",""time""
""fullscreenenter"",""1"",""2156""
","
","
","""event"",""trial"",""time""
""fullscreenenter"",""1"",""2156""
","
","","","546.0999999046326","","","14","3754","1571","l","elianto","#3366ff99"," "," ","1","+10","[1402.2000000476837]","1","2","","","3754","66","1","1","win","go","0"
"pit-trial","185","1209126","0.0-71.0","battery-v0.2","","""event"",""trial"",""time""
""fullscreenenter"",""1"",""2156""
","
","
","""event"",""trial"",""time""
""fullscreenenter"",""1"",""2156""
","
","","","-1","","","14","3754","1571","a","elianto","#f73b6a7A","-1","-1","1","0","[]","0","2","","","3754","67","2","4","lose","no-go","0"
"pit-trial","186","1213989","0.0-72.0","battery-v0.2","","""event"",""trial"",""time""
""fullscreenenter"",""1"",""2156""
","
","
","""event"",""trial"",""time""
""fullscreenenter"",""1"",""2156""
","
","","","-1","","","14","3754","1571","p","elianto","#3366ff99","-1","-1","1","+10","[]","0","2","","","3754","68","4","2","win","no-go","0"
"pit-trial","187","1218301","0.0-73.0","battery-v0.2","","""event"",""trial"",""time""
""fullscreenenter"",""1"",""2156""
","
","
","""event"",""trial"",""time""
""fullscreenenter"",""1"",""2156""
","
","","","1453","","","14","3754","1571","s","elianto","#3366ff99"," "," ","1","+10","[2304.5]","1","2","","","3754","69","5","1","win","go","0"
"pit-trial","188","1223165","0.0-74.0","battery-v0.2","","""event"",""trial"",""time""
""fullscreenenter"",""1"",""2156""
","
","
","""event"",""trial"",""time""
""fullscreenenter"",""1"",""2156""
","
","","","-1","","","14","3754","1571","p","elianto","#3366ff99","-1","-1","1","0","[]","0","2","","","3754","70","4","2","win","no-go","1"
"pit-trial","189","1226910","0.0-75.0","battery-v0.2","","""event"",""trial"",""time""
""fullscreenenter"",""1"",""2156""
","
","
","""event"",""trial"",""time""
""fullscreenenter"",""1"",""2156""
","
","","","880.6000001430511","","","14","3754","1571","g","elianto","#f73b6a7A"," "," ","1","0","[1735.3999998569489]","1","2","","","3754","71","3","3","lose","go","0"
"pit-trial","190","1230572","0.0-76.0","battery-v0.2","","""event"",""trial"",""time""
""fullscreenenter"",""1"",""2156""
","
","
","""event"",""trial"",""time""
""fullscreenenter"",""1"",""2156""
","
","","","795.1000001430511","","","14","3754","1571","l","elianto","#3366ff99"," "," ","1","0","[1655.5]","1","2","","","3754","72","1","1","win","go","1"
"pit-trial","191","1234644","0.0-77.0","battery-v0.2","","""event"",""trial"",""time""
""fullscreenenter"",""1"",""2156""
","
","
","""event"",""trial"",""time""
""fullscreenenter"",""1"",""2156""
","
","","","1214.0999999046326","","","14","3754","1571","s","elianto","#3366ff99"," "," ","1","+10","[2066.0999999046326]","1","2","","","3754","73","5","1","win","go","0"
"pit-trial","192","1239508","0.0-78.0","battery-v0.2","","""event"",""trial"",""time""
""fullscreenenter"",""1"",""2156""
","
","
","""event"",""trial"",""time""
""fullscreenenter"",""1"",""2156""
","
","","","-1","","","14","3754","1571","p","elianto","#3366ff99","-1","-1","1","+10","[]","0","2","","","3754","74","4","2","win","no-go","0"
"pit-trial","193","1242951","0.0-79.0","battery-v0.2","","""event"",""trial"",""time""
""fullscreenenter"",""1"",""2156""
","
","
","""event"",""trial"",""time""
""fullscreenenter"",""1"",""2156""
","
","","","583","","","14","3754","1571","l","elianto","#3366ff99"," "," ","1","+10","[1434.2999999523163]","1","2","","","3754","75","1","1","win","go","0"
"pit-trial","194","1247036","0.0-80.0","battery-v0.2","","""event"",""trial"",""time""
""fullscreenenter"",""1"",""2156""
","
","
","""event"",""trial"",""time""
""fullscreenenter"",""1"",""2156""
","
","","","1217.5","","","14","3754","1571","g","elianto","#f73b6a7A"," "," ","1","0","[2074.5]","1","2","","","3754","76","3","3","lose","go","0"
"pit-trial","195","1250484","0.0-81.0","battery-v0.2","","""event"",""trial"",""time""
""fullscreenenter"",""1"",""2156""
","
","
","""event"",""trial"",""time""
""fullscreenenter"",""1"",""2156""
","
","","","584.2999999523163","","","14","3754","1571","s","elianto","#3366ff99"," "," ","1","+10","[1439.0999999046326]","1","2","","","3754","77","5","1","win","go","0"
"pit-trial","196","1254220","0.0-82.0","battery-v0.2","","""event"",""trial"",""time""
""fullscreenenter"",""1"",""2156""
","
","
","""event"",""trial"",""time""
""fullscreenenter"",""1"",""2156""
","
","","","872.5","","","14","3754","1571","g","elianto","#f73b6a7A"," "," ","1","0","[1724.4000000953674]","1","2","","","3754","78","3","3","lose","go","0"
"pit-trial","197","1258300","0.0-83.0","battery-v0.2","","""event"",""trial"",""time""
""fullscreenenter"",""1"",""2156""
","
","
","""event"",""trial"",""time""
""fullscreenenter"",""1"",""2156""
","
","","","1214.3999998569489","","","14","3754","1571","w","elianto","#f73b6a7A","-1"," ","0","-10","[2067.7000000476837]","1","2","","","3754","79","6","4","lose","no-go","0"
"pit-trial","198","1263164","0.0-84.0","battery-v0.2","","""event"",""trial"",""time""
""fullscreenenter"",""1"",""2156""
","
","
","""event"",""trial"",""time""
""fullscreenenter"",""1"",""2156""
","
","","","-1","","","14","3754","1571","p","elianto","#3366ff99","-1","-1","1","0","[]","0","2","","","3754","80","4","2","win","no-go","1"
"pit-trial","199","1266732","0.0-85.0","battery-v0.2","","""event"",""trial"",""time""
""fullscreenenter"",""1"",""2156""
","
","
","""event"",""trial"",""time""
""fullscreenenter"",""1"",""2156""
","
","","","703.2000000476837","","","14","3754","1571","s","elianto","#3366ff99"," "," ","1","+10","[1554.7000000476837]","1","2","","","3754","81","5","1","win","go","0"
"pit-trial","200","1271597","0.0-86.0","battery-v0.2","","""event"",""trial"",""time""
""fullscreenenter"",""1"",""2156""
","
","
","""event"",""trial"",""time""
""fullscreenenter"",""1"",""2156""
","
","","","-1","","","14","3754","1571","w","elianto","#f73b6a7A","-1","-1","1","0","[]","0","2","","","3754","82","6","4","lose","no-go","0"
"pit-trial","201","1276471","0.0-87.0","battery-v0.2","","""event"",""trial"",""time""
""fullscreenenter"",""1"",""2156""
","
","
","""event"",""trial"",""time""
""fullscreenenter"",""1"",""2156""
","
","","","-1","","","14","3754","1571","p","elianto","#3366ff99","-1","-1","1","+10","[]","0","2","","","3754","83","4","2","win","no-go","0"
"pit-trial","202","1280987","0.0-88.0","battery-v0.2","","""event"",""trial"",""time""
""fullscreenenter"",""1"",""2156""
","
","
","""event"",""trial"",""time""
""fullscreenenter"",""1"",""2156""
","
","","","1650.6000001430511","","","14","3754","1571","e","elianto","#f73b6a7A"," "," ","1","-10","[2503.7999999523163]","1","2","","","3754","84","7","3","lose","go","1"
"pit-trial","203","1285851","0.0-89.0","battery-v0.2","","""event"",""trial"",""time""
""fullscreenenter"",""1"",""2156""
","
","
","""event"",""trial"",""time""
""fullscreenenter"",""1"",""2156""
","
","","","-1","","","14","3754","1571","e","elianto","#f73b6a7A"," ","-1","0","-10","[]","0","2","","","3754","85","7","3","lose","go","0"
"pit-trial","204","1290715","0.0-90.0","battery-v0.2","","""event"",""trial"",""time""
""fullscreenenter"",""1"",""2156""
","
","
","""event"",""trial"",""time""
""fullscreenenter"",""1"",""2156""
","
","","","-1","","","14","3754","1571","w","elianto","#f73b6a7A","-1","-1","1","0","[]","0","2","","","3754","86","6","4","lose","no-go","0"
"pit-trial","205","1294603","0.0-91.0","battery-v0.2","","""event"",""trial"",""time""
""fullscreenenter"",""1"",""2156""
","
","
","""event"",""trial"",""time""
""fullscreenenter"",""1"",""2156""
","
","","","1026.8999998569489","","","14","3754","1571","s","elianto","#3366ff99"," "," ","1","0","[1878.2000000476837]","1","2","","","3754","87","5","1","win","go","1"
"pit-trial","206","1299469","0.0-92.0","battery-v0.2","","""event"",""trial"",""time""
""fullscreenenter"",""1"",""2156""
","
","
","""event"",""trial"",""time""
""fullscreenenter"",""1"",""2156""
","
","","","-1","","","14","3754","1571","p","elianto","#3366ff99","-1","-1","1","+10","[]","0","2","","","3754","88","4","2","win","no-go","0"
"pit-trial","207","1304339","0.0-93.0","battery-v0.2","","""event"",""trial"",""time""
""fullscreenenter"",""1"",""2156""
","
","
","""event"",""trial"",""time""
""fullscreenenter"",""1"",""2156""
","
","","","-1","","","14","3754","1571","p","elianto","#3366ff99","-1","-1","1","0","[]","0","2","","","3754","89","4","2","win","no-go","1"
"pit-trial","208","1308338","0.0-94.0","battery-v0.2","","""event"",""trial"",""time""
""fullscreenenter"",""1"",""2156""
","
","
","""event"",""trial"",""time""
""fullscreenenter"",""1"",""2156""
","
","","","1139.2999999523163","","","14","3754","1571","e","elianto","#f73b6a7A"," "," ","1","0","[1991.5]","1","2","","","3754","90","7","3","lose","go","0"
"pit-trial","209","1312394","0.0-95.0","battery-v0.2","","""event"",""trial"",""time""
""fullscreenenter"",""1"",""2156""
","
","
","""event"",""trial"",""time""
""fullscreenenter"",""1"",""2156""
","
","","","1192.0999999046326","","","14","3754","1571","s","elianto","#3366ff99"," "," ","1","+10","[2044.4000000953674]","1","2","","","3754","91","5","1","win","go","0"
"pit-trial","210","1317258","0.0-96.0","battery-v0.2","","""event"",""trial"",""time""
""fullscreenenter"",""1"",""2156""
","
","
","""event"",""trial"",""time""
""fullscreenenter"",""1"",""2156""
","
","","","-1","","","14","3754","1571","w","elianto","#f73b6a7A","-1","-1","1","0","[]","0","2","","","3754","92","6","4","lose","no-go","0"
"pit-trial","211","1322123","0.0-97.0","battery-v0.2","","""event"",""trial"",""time""
""fullscreenenter"",""1"",""2156""
","
","
","""event"",""trial"",""time""
""fullscreenenter"",""1"",""2156""
","
","","","-1","","","14","3754","1571","w","elianto","#f73b6a7A","-1","-1","1","0","[]","0","2","","","3754","93","6","4","lose","no-go","0"
"pit-trial","212","1326113","0.0-98.0","battery-v0.2","","""event"",""trial"",""time""
""fullscreenenter"",""1"",""2156""
","
","
","""event"",""trial"",""time""
""fullscreenenter"",""1"",""2156""
","
","","","1128.2000000476837","","","14","3754","1571","d","elianto","#3366ff99","-1"," ","0","0","[1979.4000000953674]","1","2","","","3754","94","8","2","win","no-go","0"
"pit-trial","213","1330137","0.0-99.0","battery-v0.2","","""event"",""trial"",""time""
""fullscreenenter"",""1"",""2156""
","
","
","""event"",""trial"",""time""
""fullscreenenter"",""1"",""2156""
","
","","","1163.7000000476837","","","14","3754","1571","e","elianto","#f73b6a7A"," "," ","1","-10","[2015.6000001430511]","1","2","","","3754","95","7","3","lose","go","1"
"pit-trial","214","1333609","0.0-100.0","battery-v0.2","","""event"",""trial"",""time""
""fullscreenenter"",""1"",""2156""
","
","
","""event"",""trial"",""time""
""fullscreenenter"",""1"",""2156""
","
","","","612.8999998569489","","","14","3754","1571","s","elianto","#3366ff99"," "," ","1","0","[1465.2000000476837]","1","2","","","3754","96","5","1","win","go","1"
"pit-trial","215","1337609","0.0-101.0","battery-v0.2","","""event"",""trial"",""time""
""fullscreenenter"",""1"",""2156""
","
","
","""event"",""trial"",""time""
""fullscreenenter"",""1"",""2156""
","
","","","1135","","","14","3754","1571","d","elianto","#3366ff99","-1"," ","0","0","[1986.5]","1","2","","","3754","97","8","2","win","no-go","0"
"pit-trial","216","1342473","0.0-102.0","battery-v0.2","","""event"",""trial"",""time""
""fullscreenenter"",""1"",""2156""
","
","
","""event"",""trial"",""time""
""fullscreenenter"",""1"",""2156""
","
","","","-1","","","14","3754","1571","w","elianto","#f73b6a7A","-1","-1","1","-10","[]","0","2","","","3754","98","6","4","lose","no-go","1"
"pit-trial","217","1346049","0.0-103.0","battery-v0.2","","""event"",""trial"",""time""
""fullscreenenter"",""1"",""2156""
","
","
","""event"",""trial"",""time""
""fullscreenenter"",""1"",""2156""
","
","","","713.5999999046326","","","14","3754","1571","s","elianto","#3366ff99"," "," ","1","+10","[1564.7999999523163]","1","2","","","3754","99","5","1","win","go","0"
"pit-trial","218","1349761","0.0-104.0","battery-v0.2","","""event"",""trial"",""time""
""fullscreenenter"",""1"",""2156""
","
","
","""event"",""trial"",""time""
""fullscreenenter"",""1"",""2156""
","
","","","852","","","14","3754","1571","e","elianto","#f73b6a7A"," "," ","1","0","[1703.9000000953674]","1","2","","","3754","100","7","3","lose","go","0"
"pit-trial","219","1353396","0.0-105.0","battery-v0.2","","""event"",""trial"",""time""
""fullscreenenter"",""1"",""2156""
","
","
","""event"",""trial"",""time""
""fullscreenenter"",""1"",""2156""
","
","","","770.9000000953674","","","14","3754","1571","s","elianto","#3366ff99"," "," ","1","+10","[1625.4000000953674]","1","2","","","3754","101","5","1","win","go","0"
"pit-trial","220","1357505","0.0-106.0","battery-v0.2","","""event"",""trial"",""time""
""fullscreenenter"",""1"",""2156""
","
","
","""event"",""trial"",""time""
""fullscreenenter"",""1"",""2156""
","
","","","1244.2000000476837","","","14","3754","1571","j","elianto","#3366ff99","-1"," ","0","0","[2100.399999856949]","1","2","","","3754","102","9","2","win","no-go","0"
"pit-trial","221","1362369","0.0-107.0","battery-v0.2","","""event"",""trial"",""time""
""fullscreenenter"",""1"",""2156""
","
","
","""event"",""trial"",""time""
""fullscreenenter"",""1"",""2156""
","
","","","-1","","","14","3754","1571","d","elianto","#3366ff99","-1","-1","1","0","[]","0","2","","","3754","103","8","2","win","no-go","1"
"pit-trial","222","1367233","0.0-108.0","battery-v0.2","","""event"",""trial"",""time""
""fullscreenenter"",""1"",""2156""
","
","
","""event"",""trial"",""time""
""fullscreenenter"",""1"",""2156""
","
","","","-1","","","14","3754","1571","w","elianto","#f73b6a7A","-1","-1","1","0","[]","0","2","","","3754","104","6","4","lose","no-go","0"
"pit-trial","223","1370712","0.0-109.0","battery-v0.2","","""event"",""trial"",""time""
""fullscreenenter"",""1"",""2156""
","
","
","""event"",""trial"",""time""
""fullscreenenter"",""1"",""2156""
","
","","","616.7999999523163","","","14","3754","1571","j","elianto","#3366ff99","-1"," ","0","0","[1468.3999998569489]","1","2","","","3754","105","9","2","win","no-go","0"
"pit-trial","224","1374568","0.0-110.0","battery-v0.2","","""event"",""trial"",""time""
""fullscreenenter"",""1"",""2156""
","
","
","""event"",""trial"",""time""
""fullscreenenter"",""1"",""2156""
","
","","","991.7999999523163","","","14","3754","1571","s","elianto","#3366ff99"," "," ","1","+10","[1844.7999999523163]","1","2","","","3754","106","5","1","win","go","0"
"pit-trial","225","1379435","0.0-111.0","battery-v0.2","","""event"",""trial"",""time""
""fullscreenenter"",""1"",""2156""
","
","
","""event"",""trial"",""time""
""fullscreenenter"",""1"",""2156""
","
","","","-1","","","14","3754","1571","w","elianto","#f73b6a7A","-1","-1","1","0","[]","0","2","","","3754","107","6","4","lose","no-go","0"
"pit-trial","226","1383096","0.0-112.0","battery-v0.2","","""event"",""trial"",""time""
""fullscreenenter"",""1"",""2156""
","
","
","""event"",""trial"",""time""
""fullscreenenter"",""1"",""2156""
","
","","","795.6000001430511","","","14","3754","1571","d","elianto","#3366ff99","-1"," ","0","0","[1651.4000000953674]","1","2","","","3754","108","8","2","win","no-go","0"
"pit-trial","227","1387960","0.0-113.0","battery-v0.2","","""event"",""trial"",""time""
""fullscreenenter"",""1"",""2156""
","
","
","""event"",""trial"",""time""
""fullscreenenter"",""1"",""2156""
","
","","","-1","","","14","3754","1571","w","elianto","#f73b6a7A","-1","-1","1","0","[]","0","2","","","3754","109","6","4","lose","no-go","0"
"pit-trial","228","1391520","0.0-114.0","battery-v0.2","","""event"",""trial"",""time""
""fullscreenenter"",""1"",""2156""
","
","
","""event"",""trial"",""time""
""fullscreenenter"",""1"",""2156""
","
","","","695.9000000953674","","","14","3754","1571","s","elianto","#3366ff99"," "," ","1","+10","[1550.8999998569489,2881.7999999523163]","2","2","","","3754","110","5","1","win","go","0"
"pit-trial","229","1396387","0.0-115.0","battery-v0.2","","""event"",""trial"",""time""
""fullscreenenter"",""1"",""2156""
","
","
","""event"",""trial"",""time""
""fullscreenenter"",""1"",""2156""
","
","","","-1","","","14","3754","1571","j","elianto","#3366ff99","-1","-1","1","+10","[]","0","2","","","3754","111","9","2","win","no-go","0"
"pit-trial","230","1400232","0.0-116.0","battery-v0.2","","""event"",""trial"",""time""
""fullscreenenter"",""1"",""2156""
","
","
","""event"",""trial"",""time""
""fullscreenenter"",""1"",""2156""
","
","","","981","","","14","3754","1571","d","elianto","#3366ff99","-1"," ","0","0","[1835.5]","1","2","","","3754","112","8","2","win","no-go","0"
"pit-trial","231","1405096","0.0-117.0","battery-v0.2","","""event"",""trial"",""time""
""fullscreenenter"",""1"",""2156""
","
","
","""event"",""trial"",""time""
""fullscreenenter"",""1"",""2156""
","
","","","-1","","","14","3754","1571","j","elianto","#3366ff99","-1","-1","1","+10","[]","0","2","","","3754","113","9","2","win","no-go","0"
"pit-trial","232","1408953","0.0-118.0","battery-v0.2","","""event"",""trial"",""time""
""fullscreenenter"",""1"",""2156""
","
","
","""event"",""trial"",""time""
""fullscreenenter"",""1"",""2156""
","
","","","983.7000000476837","","","14","3754","1571","s","elianto","#3366ff99"," "," ","1","+10","[1844.7000000476837]","1","2","","","3754","114","5","1","win","go","0"
"pit-trial","233","1413274","0.0-119.0","battery-v0.2","","""event"",""trial"",""time""
""fullscreenenter"",""1"",""2156""
","
","
","""event"",""trial"",""time""
""fullscreenenter"",""1"",""2156""
","
","","","1449.5","","","14","3754","1571","e","elianto","#f73b6a7A"," "," ","1","0","[2305]","1","2","","","3754","115","7","3","lose","go","0"
"pit-trial","234","1418142","0.0-120.0","battery-v0.2","","""event"",""trial"",""time""
""fullscreenenter"",""1"",""2156""
","
","
","""event"",""trial"",""time""
""fullscreenenter"",""1"",""2156""
","
","","","-1","","","14","3754","1571","d","elianto","#3366ff99","-1","-1","1","+10","[]","0","2","","","3754","116","8","2","win","no-go","0"
"pit-trial","235","1423006","0.0-121.0","battery-v0.2","","""event"",""trial"",""time""
""fullscreenenter"",""1"",""2156""
","
","
","""event"",""trial"",""time""
""fullscreenenter"",""1"",""2156""
","
","","","-1","","","14","3754","1571","d","elianto","#3366ff99","-1","-1","1","+10","[]","0","2","","","3754","117","8","2","win","no-go","0"
"pit-trial","236","1426936","0.0-122.0","battery-v0.2","","""event"",""trial"",""time""
""fullscreenenter"",""1"",""2156""
","
","
","""event"",""trial"",""time""
""fullscreenenter"",""1"",""2156""
","
","","","1066.7000000476837","","","14","3754","1571","s","elianto","#3366ff99"," "," ","1","+10","[1917.8999998569489]","1","2","","","3754","118","5","1","win","go","0"
"pit-trial","237","1431806","0.0-123.0","battery-v0.2","","""event"",""trial"",""time""
""fullscreenenter"",""1"",""2156""
","
","
","""event"",""trial"",""time""
""fullscreenenter"",""1"",""2156""
","
","","","-1","","","14","3754","1571","w","elianto","#f73b6a7A","-1","-1","1","-10","[]","0","2","","","3754","119","6","4","lose","no-go","1"
"pit-trial","238","1436673","0.0-124.0","battery-v0.2","","""event"",""trial"",""time""
""fullscreenenter"",""1"",""2156""
","
","
","""event"",""trial"",""time""
""fullscreenenter"",""1"",""2156""
","
","","","-1","","","14","3754","1571","j","elianto","#3366ff99","-1","-1","1","0","[]","0","2","","","3754","120","9","2","win","no-go","1"
"pit-trial","239","1441161","0.0-125.0","battery-v0.2","","""event"",""trial"",""time""
""fullscreenenter"",""1"",""2156""
","
","
","""event"",""trial"",""time""
""fullscreenenter"",""1"",""2156""
","
","","","1626.7000000476837","","","14","3754","1571","e","elianto","#f73b6a7A"," "," ","1","0","[2478.5,3603.800000190735]","2","2","","","3754","121","7","3","lose","go","0"
"pit-trial","240","1445160","0.0-126.0","battery-v0.2","","""event"",""trial"",""time""
""fullscreenenter"",""1"",""2156""
","
","
","""event"",""trial"",""time""
""fullscreenenter"",""1"",""2156""
","
","","","1126","","","14","3754","1571","j","elianto","#3366ff99","-1"," ","0","0","[1986.3999998569489]","1","2","","","3754","122","9","2","win","no-go","0"
"pit-trial","241","1448734","0.0-127.0","battery-v0.2","","""event"",""trial"",""time""
""fullscreenenter"",""1"",""2156""
","
","
","""event"",""trial"",""time""
""fullscreenenter"",""1"",""2156""
","
","","","712.5","","","14","3754","1571","s","elianto","#3366ff99"," "," ","1","+10","[689.5,1562.6000001430511]","2","2","","","3754","123","5","1","win","go","0"
"pit-trial","242","1453598","0.0-128.0","battery-v0.2","","""event"",""trial"",""time""
""fullscreenenter"",""1"",""2156""
","
","
","""event"",""trial"",""time""
""fullscreenenter"",""1"",""2156""
","
","","","-1","","","14","3754","1571","d","elianto","#3366ff99","-1","-1","1","+10","[]","0","2","","","3754","124","8","2","win","no-go","0"
"pit-trial","243","1458461","0.0-129.0","battery-v0.2","","""event"",""trial"",""time""
""fullscreenenter"",""1"",""2156""
","
","
","""event"",""trial"",""time""
""fullscreenenter"",""1"",""2156""
","
","","","-1","","","14","3754","1571","j","elianto","#3366ff99","-1","-1","1","+10","[]","0","2","","","3754","125","9","2","win","no-go","0"
"pit-trial","244","1463325","0.0-130.0","battery-v0.2","","""event"",""trial"",""time""
""fullscreenenter"",""1"",""2156""
","
","
","""event"",""trial"",""time""
""fullscreenenter"",""1"",""2156""
","
","","","-1","","","14","3754","1571","w","elianto","#f73b6a7A","-1","-1","1","-10","[]","0","2","","","3754","126","6","4","lose","no-go","1"
"pit-trial","245","1468191","0.0-131.0","battery-v0.2","","""event"",""trial"",""time""
""fullscreenenter"",""1"",""2156""
","
","
","""event"",""trial"",""time""
""fullscreenenter"",""1"",""2156""
","
","","","-1","","","14","3754","1571","d","elianto","#3366ff99","-1","-1","1","+10","[]","0","2","","","3754","127","8","2","win","no-go","0"
"pit-trial","246","1472125","0.0-132.0","battery-v0.2","","""event"",""trial"",""time""
""fullscreenenter"",""1"",""2156""
","
","
","""event"",""trial"",""time""
""fullscreenenter"",""1"",""2156""
","
","","","1069.2000000476837","","","14","3754","1571","e","elianto","#f73b6a7A"," "," ","1","0","[1921.2000000476837]","1","2","","","3754","128","7","3","lose","go","0"
"pit-trial","247","1476988","0.0-133.0","battery-v0.2","","""event"",""trial"",""time""
""fullscreenenter"",""1"",""2156""
","
","
","""event"",""trial"",""time""
""fullscreenenter"",""1"",""2156""
","
","","","-1","","","14","3754","1571","j","elianto","#3366ff99","-1","-1","1","+10","[]","0","2","","","3754","129","9","2","win","no-go","0"
"pit-trial","248","1480749","0.0-134.0","battery-v0.2","","""event"",""trial"",""time""
""fullscreenenter"",""1"",""2156""
","
","
","""event"",""trial"",""time""
""fullscreenenter"",""1"",""2156""
","
","","","897.5","","","14","3754","1571","e","elianto","#f73b6a7A"," "," ","1","0","[1752.1000001430511]","1","2","","","3754","130","7","3","lose","go","0"
"pit-trial","249","1485613","0.0-135.0","battery-v0.2","","""event"",""trial"",""time""
""fullscreenenter"",""1"",""2156""
","
","
","""event"",""trial"",""time""
""fullscreenenter"",""1"",""2156""
","
","","","-1","","","14","3754","1571","w","elianto","#f73b6a7A","-1","-1","1","0","[]","0","2","","","3754","131","6","4","lose","no-go","0"
"pit-trial","250","1490477","0.0-136.0","battery-v0.2","","""event"",""trial"",""time""
""fullscreenenter"",""1"",""2156""
","
","
","""event"",""trial"",""time""
""fullscreenenter"",""1"",""2156""
","
","","","-1","","","14","3754","1571","d","elianto","#3366ff99","-1","-1","1","+10","[]","0","2","","","3754","132","8","2","win","no-go","0"
"pit-trial","251","1494341","0.0-137.0","battery-v0.2","","""event"",""trial"",""time""
""fullscreenenter"",""1"",""2156""
","
","
","""event"",""trial"",""time""
""fullscreenenter"",""1"",""2156""
","
","","","1003.4000000953674","","","14","3754","1571","e","elianto","#f73b6a7A"," "," ","1","0","[1853.5]","1","2","","","3754","133","7","3","lose","go","0"
"pit-trial","252","1499205","0.0-138.0","battery-v0.2","","""event"",""trial"",""time""
""fullscreenenter"",""1"",""2156""
","
","
","""event"",""trial"",""time""
""fullscreenenter"",""1"",""2156""
","
","","","-1","","","14","3754","1571","w","elianto","#f73b6a7A","-1","-1","1","0","[]","0","2","","","3754","134","6","4","lose","no-go","0"
"pit-trial","253","1504070","0.0-139.0","battery-v0.2","","""event"",""trial"",""time""
""fullscreenenter"",""1"",""2156""
","
","
","""event"",""trial"",""time""
""fullscreenenter"",""1"",""2156""
","
","","","-1","","","14","3754","1571","j","elianto","#3366ff99","-1","-1","1","+10","[]","0","2","","","3754","135","9","2","win","no-go","0"
"pit-trial","254","1508939","0.0-140.0","battery-v0.2","","""event"",""trial"",""time""
""fullscreenenter"",""1"",""2156""
","
","
","""event"",""trial"",""time""
""fullscreenenter"",""1"",""2156""
","
","","","-1","","","14","3754","1571","d","elianto","#3366ff99","-1","-1","1","0","[]","0","2","","","3754","136","8","2","win","no-go","1"
"pit-trial","255","1513803","0.0-141.0","battery-v0.2","","""event"",""trial"",""time""
""fullscreenenter"",""1"",""2156""
","
","
","""event"",""trial"",""time""
""fullscreenenter"",""1"",""2156""
","
","","","-1","","","14","3754","1571","j","elianto","#3366ff99","-1","-1","1","+10","[]","0","2","","","3754","137","9","2","win","no-go","0"
"pit-trial","256","1518669","0.0-142.0","battery-v0.2","","""event"",""trial"",""time""
""fullscreenenter"",""1"",""2156""
","
","
","""event"",""trial"",""time""
""fullscreenenter"",""1"",""2156""
","
","","","-1","","","14","3754","1571","w","elianto","#f73b6a7A","-1","-1","1","0","[]","0","2","","","3754","138","6","4","lose","no-go","0"
"pit-trial","257","1523539","0.0-143.0","battery-v0.2","","""event"",""trial"",""time""
""fullscreenenter"",""1"",""2156""
","
","
","""event"",""trial"",""time""
""fullscreenenter"",""1"",""2156""
","
","","","-1","","","14","3754","1571","d","elianto","#3366ff99","-1","-1","1","+10","[]","0","2","","","3754","139","8","2","win","no-go","0"
"pit-trial","258","1528406","0.0-144.0","battery-v0.2","","""event"",""trial"",""time""
""fullscreenenter"",""1"",""2156""
","
","
","""event"",""trial"",""time""
""fullscreenenter"",""1"",""2156""
","
","","","-1","","","14","3754","1571","e","elianto","#f73b6a7A"," ","-1","0","-10","[]","0","2","","","3754","140","7","3","lose","go","0"
"pit-instructions","259","1568218","0.0-145.0","battery-v0.2","","""event"",""trial"",""time""
""fullscreenenter"",""1"",""2156""
","
","
","""event"",""trial"",""time""
""fullscreenenter"",""1"",""2156""
","
","","[{""page_index"":0,""viewing_time"":12974.299999952316},{""page_index"":1,""viewing_time"":26834.60000014305}]","39809.799999952316","","","","","","","","","","","","","","","","","","","","","","","",""
"pit-trial","260","1571714","0.0-146.0","battery-v0.2","","""event"",""trial"",""time""
""fullscreenenter"",""1"",""2156""
","
","
","""event"",""trial"",""time""
""fullscreenenter"",""1"",""2156""
","
","","","625","","","14","3754","1571","n","elianto","#f73b6a7A"," "," ","1","0","[1480]","1","3","","","3754","141","0","3","lose","go","0"
"pit-trial","261","1575262","0.0-147.0","battery-v0.2","","""event"",""trial"",""time""
""fullscreenenter"",""1"",""2156""
","
","
","""event"",""trial"",""time""
""fullscreenenter"",""1"",""2156""
","
","","","682.5","","","14","3754","1571","b","elianto","#f73b6a7A","-1"," ","0","-10","[1534.3999998569489]","1","3","","","3754","142","3","4","lose","no-go","0"
"pit-trial","262","1578958","0.0-148.0","battery-v0.2","","""event"",""trial"",""time""
""fullscreenenter"",""1"",""2156""
","
","
","""event"",""trial"",""time""
""fullscreenenter"",""1"",""2156""
","
","","","818.5999999046326","","","14","3754","1571","f","elianto","#3366ff99","-1"," ","0","0","[1679.0999999046326]","1","3","","","3754","143","1","2","win","no-go","0"
"pit-trial","263","1583017","0.0-149.0","battery-v0.2","","""event"",""trial"",""time""
""fullscreenenter"",""1"",""2156""
","
","
","""event"",""trial"",""time""
""fullscreenenter"",""1"",""2156""
","
","","","1198.8000001907349","","","14","3754","1571","t","elianto","#f73b6a7A"," "," ","1","0","[2049.399999856949]","1","3","","","3754","144","2","3","lose","go","0"
"pit-trial","264","1586729","0.0-150.0","battery-v0.2","","""event"",""trial"",""time""
""fullscreenenter"",""1"",""2156""
","
","
","""event"",""trial"",""time""
""fullscreenenter"",""1"",""2156""
","
","","","851.6000001430511","","","14","3754","1571","n","elianto","#f73b6a7A"," "," ","1","0","[1703.5]","1","3","","","3754","145","0","3","lose","go","0"
"pit-trial","265","1591593","0.0-151.0","battery-v0.2","","""event"",""trial"",""time""
""fullscreenenter"",""1"",""2156""
","
","
","""event"",""trial"",""time""
""fullscreenenter"",""1"",""2156""
","
","","","-1","","","14","3754","1571","f","elianto","#3366ff99","-1","-1","1","+10","[]","0","3","","","3754","146","1","2","win","no-go","0"
"pit-trial","266","1595529","0.0-152.0","battery-v0.2","","""event"",""trial"",""time""
""fullscreenenter"",""1"",""2156""
","
","
","""event"",""trial"",""time""
""fullscreenenter"",""1"",""2156""
","
","","","1074.2000000476837","","","14","3754","1571","t","elianto","#f73b6a7A"," "," ","1","0","[1929.5]","1","3","","","3754","147","2","3","lose","go","0"
"pit-trial","267","1599245","0.0-153.0","battery-v0.2","","""event"",""trial"",""time""
""fullscreenenter"",""1"",""2156""
","
","
","""event"",""trial"",""time""
