"trial_type","trial_index","time_elapsed","internal_node_id","task_version","subject_id","interactions","blur_events","focus_events","fullscreenenter_events","fullscreenexit_events","success","view_history","rt","responses","num_errors","age","subject","participantId","rune","rune_set","hex","correct","choice","accuracy","outcome","keys","total_keys","block","practice","value","sub","trial","stimulus","robot","valence","action","sham"
"pavlovia","0","64","0.0-0.0","battery-v0.2","","""event"",""trial"",""time""
""fullscreenenter"",""1"",""20381""
","
","
","""event"",""trial"",""time""
""fullscreenenter"",""1"",""20381""
","
","","","","","","","","","","","","","","","","","","","","","","","","","","",""
"fullscreen","1","21375","0.0-1.0","battery-v0.2","","""event"",""trial"",""time""
""fullscreenenter"",""1"",""20381""
","
","
","""event"",""trial"",""time""
""fullscreenenter"",""1"",""20381""
","
","true","","","","","","","","","","","","","","","","","","","","","","","","","",""
"pit-instructions","2","25968","0.0-2.0-0.0","battery-v0.2","","""event"",""trial"",""time""
""fullscreenenter"",""1"",""20381""
","
","
","""event"",""trial"",""time""
""fullscreenenter"",""1"",""20381""
","
","","[{""page_index"":0,""viewing_time"":4585.699999988079}]","4587","","","","","","","","","","","","","","","","","","","","","","","",""
"pit-comprehension","3","29151","0.0-2.0-1.0-0.0","battery-v0.2","","""event"",""trial"",""time""
""fullscreenenter"",""1"",""20381""
","
","
","""event"",""trial"",""time""
""fullscreenenter"",""1"",""20381""
","
","","","3174.699999988079","[""shark""]","0","13","4226","1846","","","","","","","","","","","","","","","","","","",""
"pit-instructions","4","30424","0.0-2.0-1.0-1.0","battery-v0.2","","""event"",""trial"",""time""
""fullscreenenter"",""1"",""20381""
","
","
","""event"",""trial"",""time""
""fullscreenenter"",""1"",""20381""
","
","","[{""page_index"":0,""viewing_time"":1259}]","1259.300000011921","","","","","","","","","","","","","","","","","","","","","","","",""
"pit-comprehension","5","33817","0.0-2.0-2.0-0.0","battery-v0.2","","""event"",""trial"",""time""
""fullscreenenter"",""1"",""20381""
","
","
","""event"",""trial"",""time""
""fullscreenenter"",""1"",""20381""
","
","","","3387.199999988079","[""tiger""]","0","13","4226","1846","","","","","","","","","","","","","","","","","","",""
"pit-instructions","6","35241","0.0-2.0-2.0-1.0","battery-v0.2","","""event"",""trial"",""time""
""fullscreenenter"",""1"",""20381""
","
","
","""event"",""trial"",""time""
""fullscreenenter"",""1"",""20381""
","
","","[{""page_index"":0,""viewing_time"":1419.0999999940395}]","1419.699999988079","","","","","","","","","","","","","","","","","","","","","","","",""
"pit-instructions","7","128508","0.0-2.0-3.0","battery-v0.2","","""event"",""trial"",""time""
""fullscreenenter"",""1"",""20381""
","
","
","""event"",""trial"",""time""
""fullscreenenter"",""1"",""20381""
","
","","[{""page_index"":0,""viewing_time"":8113},{""page_index"":1,""viewing_time"":5588.600000023842},{""page_index"":2,""viewing_time"":6877.5},{""page_index"":3,""viewing_time"":6318.899999976158},{""page_index"":4,""viewing_time"":5737.700000017881},{""page_index"":5,""viewing_time"":5384.9000000059605},{""page_index"":6,""viewing_time"":6686.199999988079},{""page_index"":7,""viewing_time"":6852.4000000059605},{""page_index"":8,""viewing_time"":6746.299999982119},{""page_index"":9,""viewing_time"":8057},{""page_index"":10,""viewing_time"":8901.700000017881},{""page_index"":11,""viewing_time"":6671},{""page_index"":12,""viewing_time"":6205.0999999940395},{""page_index"":13,""viewing_time"":5118.300000011921}]","93258.80000001192","","","","","","","","","","","","","","","","","","","","","","","",""
"pit-trial","8","132023","0.0-2.0-4.0-0.0","battery-v0.2","","""event"",""trial"",""time""
""fullscreenenter"",""1"",""20381""
","
","
","""event"",""trial"",""time""
""fullscreenenter"",""1"",""20381""
","
","","","657.5","","","13","4226","1846","&#9784;","elianto","#FFFFF080"," "," ","1","&#10004","[1507.6000000238419]","1","0","0","","","","","","","",""
"pit-trial","9","135355","0.0-2.0-4.1-0.1","battery-v0.2","","""event"",""trial"",""time""
""fullscreenenter"",""1"",""20381""
","
","
","""event"",""trial"",""time""
""fullscreenenter"",""1"",""20381""
","
","","","476.89999997615814","","","13","4226","1846","&#9784;","elianto","#FFFFF080"," "," ","1","&#10004","[1327.2999999821186]","1","0","0","","","","","","","",""
"pit-trial","10","138757","0.0-2.0-4.2-0.2","battery-v0.2","","""event"",""trial"",""time""
""fullscreenenter"",""1"",""20381""
","
","
","""event"",""trial"",""time""
""fullscreenenter"",""1"",""20381""
","
","","","544.8000000119209","","","13","4226","1846","&#9784;","elianto","#FFFFF080"," "," ","1","&#10004","[1396]","1","0","0","","","","","","","",""
"pit-trial","11","142478","0.0-2.0-4.3-0.3","battery-v0.2","","""event"",""trial"",""time""
""fullscreenenter"",""1"",""20381""
","
","
","""event"",""trial"",""time""
""fullscreenenter"",""1"",""20381""
","
","","","860.8000000119209","","","13","4226","1846","&#9784;","elianto","#FFFFF080"," "," ","1","&#10004","[1711.9000000059605]","1","0","0","","","","","","","",""
"pit-trial","12","146071","0.0-2.0-4.4-0.4","battery-v0.2","","""event"",""trial"",""time""
""fullscreenenter"",""1"",""20381""
","
","
","""event"",""trial"",""time""
""fullscreenenter"",""1"",""20381""
","
","","","735.0999999940395","","","13","4226","1846","&#9784;","elianto","#FFFFF080"," "," ","1","&#10004","[1585.7999999821186]","1","0","0","","","","","","","",""
"pit-instructions","13","167014","0.0-2.0-5.0","battery-v0.2","","""event"",""trial"",""time""
""fullscreenenter"",""1"",""20381""
","
","
","""event"",""trial"",""time""
""fullscreenenter"",""1"",""20381""
","
","","[{""page_index"":0,""viewing_time"":4726.4000000059605},{""page_index"":1,""viewing_time"":5713},{""page_index"":2,""viewing_time"":5157.700000017881},{""page_index"":3,""viewing_time"":5340.5}]","20937.90000000596","","","","","","","","","","","","","","","","","","","","","","","",""
"pit-trial","14","171875","0.0-2.0-6.0-0.0","battery-v0.2","","""event"",""trial"",""time""
""fullscreenenter"",""1"",""20381""
","
","
","""event"",""trial"",""time""
""fullscreenenter"",""1"",""20381""
","
","","","-1","","","13","4226","1846","&#9854;","elianto","#FFFFF080","-1","-1","1","&#10004","[]","0","0","1","","","","","","","",""
"pit-trial","15","176734","0.0-2.0-6.1-0.1","battery-v0.2","","""event"",""trial"",""time""
""fullscreenenter"",""1"",""20381""
","
","
","""event"",""trial"",""time""
""fullscreenenter"",""1"",""20381""
","
","","","-1","","","13","4226","1846","&#9854;","elianto","#FFFFF080","-1","-1","1","&#10004","[]","0","0","1","","","","","","","",""
"pit-trial","16","181593","0.0-2.0-6.2-0.2","battery-v0.2","","""event"",""trial"",""time""
""fullscreenenter"",""1"",""20381""
","
","
","""event"",""trial"",""time""
""fullscreenenter"",""1"",""20381""
","
","","","-1","","","13","4226","1846","&#9854;","elianto","#FFFFF080","-1","-1","1","&#10004","[]","0","0","1","","","","","","","",""
"pit-trial","17","186452","0.0-2.0-6.3-0.3","battery-v0.2","","""event"",""trial"",""time""
""fullscreenenter"",""1"",""20381""
","
","
","""event"",""trial"",""time""
""fullscreenenter"",""1"",""20381""
","
","","","-1","","","13","4226","1846","&#9854;","elianto","#FFFFF080","-1","-1","1","&#10004","[]","0","0","1","","","","","","","",""
"pit-trial","18","191309","0.0-2.0-6.4-0.4","battery-v0.2","","""event"",""trial"",""time""
""fullscreenenter"",""1"",""20381""
","
","
","""event"",""trial"",""time""
""fullscreenenter"",""1"",""20381""
","
","","","-1","","","13","4226","1846","&#9854;","elianto","#FFFFF080","-1","-1","1","&#10004","[]","0","0","1","","","","","","","",""
"pit-instructions","19","302088","0.0-2.0-7.0","battery-v0.2","","""event"",""trial"",""time""
""fullscreenenter"",""1"",""20381""
","
","
","""event"",""trial"",""time""
""fullscreenenter"",""1"",""20381""
","
","","[{""page_index"":0,""viewing_time"":5306.299999982119},{""page_index"":1,""viewing_time"":6434.0999999940395},{""page_index"":2,""viewing_time"":5384.4000000059605},{""page_index"":3,""viewing_time"":5684.4000000059605},{""page_index"":4,""viewing_time"":5044.199999988079},{""page_index"":5,""viewing_time"":5454.300000011921},{""page_index"":6,""viewing_time"":4267.800000011921},{""page_index"":7,""viewing_time"":7371},{""page_index"":8,""viewing_time"":6100},{""page_index"":9,""viewing_time"":5366.899999976158},{""page_index"":10,""viewing_time"":7033.5},{""page_index"":11,""viewing_time"":4104.5},{""page_index"":12,""viewing_time"":6925.9000000059605},{""page_index"":13,""viewing_time"":9408.09999999404},{""page_index"":14,""viewing_time"":7280.700000017881},{""page_index"":15,""viewing_time"":6549.699999988079},{""page_index"":16,""viewing_time"":6199.4000000059605},{""page_index"":17,""viewing_time"":6855.5999999940395}]","110771.09999999404","","","","","","","","","","","","","","","","","","","","","","","",""
"pit-trial","20","305643","0.0-2.0-8.0-0.0","battery-v0.2","","""event"",""trial"",""time""
""fullscreenenter"",""1"",""20381""
","
","
","""event"",""trial"",""time""
""fullscreenenter"",""1"",""20381""
","
","","","697.5","","","13","4226","1846","&#9776;","elianto","#3366ff99"," "," ","1","+10","[1551]","1","0","1","","","","","","","",""
"pit-trial","21","309132","0.0-2.0-8.0-1.0","battery-v0.2","","""event"",""trial"",""time""
""fullscreenenter"",""1"",""20381""
","
","
","""event"",""trial"",""time""
""fullscreenenter"",""1"",""20381""
","
","","","632.6000000238419","","","13","4226","1846","&#9776;","elianto","#3366ff99"," "," ","1","+10","[1483.1000000238419]","1","0","1","","","","","","","",""
"pit-trial","22","312720","0.0-2.0-8.0-2.0","battery-v0.2","","""event"",""trial"",""time""
""fullscreenenter"",""1"",""20381""
","
","
","""event"",""trial"",""time""
""fullscreenenter"",""1"",""20381""
","
","","","732.5999999940395","","","13","4226","1846","&#9776;","elianto","#3366ff99"," "," ","1","+10","[1582.7999999821186]","1","0","1","","","","","","","",""
"pit-trial","23","316267","0.0-2.0-8.0-3.0","battery-v0.2","","""event"",""trial"",""time""
""fullscreenenter"",""1"",""20381""
","
","
","""event"",""trial"",""time""
""fullscreenenter"",""1"",""20381""
","
","","","692.1000000238419","","","13","4226","1846","&#9776;","elianto","#3366ff99"," "," ","1","0","[1543.1000000238419]","1","0","1","","","","","","","",""
"pit-trial","24","319837","0.0-2.0-8.0-4.0","battery-v0.2","","""event"",""trial"",""time""
""fullscreenenter"",""1"",""20381""
","
","
","""event"",""trial"",""time""
""fullscreenenter"",""1"",""20381""
","
","","","710.6999999880791","","","13","4226","1846","&#9776;","elianto","#3366ff99"," "," ","1","+10","[1562.8999999761581]","1","0","1","","","","","","","",""
"pit-trial","25","323555","0.0-2.0-8.1-0.1","battery-v0.2","","""event"",""trial"",""time""
""fullscreenenter"",""1"",""20381""
","
","
","""event"",""trial"",""time""
""fullscreenenter"",""1"",""20381""
","
","","","858.4000000059605","","","13","4226","1846","&#9776;","elianto","#3366ff99"," "," ","1","+10","[1711]","1","0","1","","","","","","","",""
"pit-trial","26","327099","0.0-2.0-8.1-1.1","battery-v0.2","","""event"",""trial"",""time""
""fullscreenenter"",""1"",""20381""
","
","
","""event"",""trial"",""time""
""fullscreenenter"",""1"",""20381""
","
","","","683.4000000059605","","","13","4226","1846","&#9776;","elianto","#3366ff99"," "," ","1","+10","[1538]","1","0","1","","","","","","","",""
"pit-trial","27","330426","0.0-2.0-8.1-2.1","battery-v0.2","","""event"",""trial"",""time""
""fullscreenenter"",""1"",""20381""
","
","
","""event"",""trial"",""time""
""fullscreenenter"",""1"",""20381""
","
","","","472.09999999403954","","","13","4226","1846","&#9776;","elianto","#3366ff99"," "," ","1","+10","[1322.7000000178814]","1","0","1","","","","","","","",""
"pit-trial","28","333840","0.0-2.0-8.1-3.1","battery-v0.2","","""event"",""trial"",""time""
""fullscreenenter"",""1"",""20381""
","
","
","""event"",""trial"",""time""
""fullscreenenter"",""1"",""20381""
","
","","","556.5","","","13","4226","1846","&#9776;","elianto","#3366ff99"," "," ","1","0","[1407.800000011921]","1","0","1","","","","","","","",""
"pit-trial","29","337376","0.0-2.0-8.1-4.1","battery-v0.2","","""event"",""trial"",""time""
""fullscreenenter"",""1"",""20381""
","
","
","""event"",""trial"",""time""
""fullscreenenter"",""1"",""20381""
","
","","","674.0999999940395","","","13","4226","1846","&#9776;","elianto","#3366ff99"," "," ","1","+10","[1527.2999999821186]","1","0","1","","","","","","","",""
"pit-trial","30","340870","0.0-2.0-8.2-0.2","battery-v0.2","","""event"",""trial"",""time""
""fullscreenenter"",""1"",""20381""
","
","
","""event"",""trial"",""time""
""fullscreenenter"",""1"",""20381""
","
","","","633.3999999761581","","","13","4226","1846","&#9776;","elianto","#3366ff99"," "," ","1","+10","[1483.4000000059605]","1","0","1","","","","","","","",""
"pit-trial","31","344353","0.0-2.0-8.2-1.2","battery-v0.2","","""event"",""trial"",""time""
""fullscreenenter"",""1"",""20381""
","
","
","""event"",""trial"",""time""
""fullscreenenter"",""1"",""20381""
","
","","","620.7999999821186","","","13","4226","1846","&#9776;","elianto","#3366ff99"," "," ","1","+10","[1473]","1","0","1","","","","","","","",""
"pit-trial","32","347767","0.0-2.0-8.2-2.2","battery-v0.2","","""event"",""trial"",""time""
""fullscreenenter"",""1"",""20381""
","
","
","""event"",""trial"",""time""
""fullscreenenter"",""1"",""20381""
","
","","","552.3000000119209","","","13","4226","1846","&#9776;","elianto","#3366ff99"," "," ","1","+10","[1403.6000000238419]","1","0","1","","","","","","","",""
"pit-trial","33","351232","0.0-2.0-8.2-3.2","battery-v0.2","","""event"",""trial"",""time""
""fullscreenenter"",""1"",""20381""
","
","
","""event"",""trial"",""time""
""fullscreenenter"",""1"",""20381""
","
","","","608","","","13","4226","1846","&#9776;","elianto","#3366ff99"," "," ","1","0","[1459.8999999761581]","1","0","1","","","","","","","",""
"pit-trial","34","354809","0.0-2.0-8.2-4.2","battery-v0.2","","""event"",""trial"",""time""
""fullscreenenter"",""1"",""20381""
","
","
","""event"",""trial"",""time""
""fullscreenenter"",""1"",""20381""
","
","","","720.4000000059605","","","13","4226","1846","&#9776;","elianto","#3366ff99"," "," ","1","+10","[1570.5999999940395]","1","0","1","","","","","","","",""
"call-function","35","354814","0.0-2.0-9.0","battery-v0.2","","""event"",""trial"",""time""
""fullscreenenter"",""1"",""20381""
","
","
","""event"",""trial"",""time""
""fullscreenenter"",""1"",""20381""
","
","","","","","","","","","","","","","","","","","","","","","","","","","","",""
"pit-instructions","36","397847","0.0-2.0-10.0","battery-v0.2","","""event"",""trial"",""time""
""fullscreenenter"",""1"",""20381""
","
","
","""event"",""trial"",""time""
""fullscreenenter"",""1"",""20381""
","
","","[{""page_index"":0,""viewing_time"":6801.9000000059605},{""page_index"":1,""viewing_time"":7476.300000011921},{""page_index"":2,""viewing_time"":11125.90000000596},{""page_index"":3,""viewing_time"":9753.299999982119},{""page_index"":4,""viewing_time"":7873.300000011921}]","43031","","","","","","","","","","","","","","","","","","","","","","","",""
"pit-trial","37","401668","0.0-2.0-11.0-0.0","battery-v0.2","","""event"",""trial"",""time""
""fullscreenenter"",""1"",""20381""
","
","
","""event"",""trial"",""time""
""fullscreenenter"",""1"",""20381""
","
","","","961.1999999880791","","","13","4226","1846","&#9761;","elianto","#3366ff99","-1"," ","0","0","[1814.0999999940395]","1","0","2","","","","","","","",""
"pit-trial","38","405854","0.0-2.0-11.0-1.0","battery-v0.2","","""event"",""trial"",""time""
""fullscreenenter"",""1"",""20381""
","
","
","""event"",""trial"",""time""
""fullscreenenter"",""1"",""20381""
","
","","","1331.5","","","13","4226","1846","&#9761;","elianto","#3366ff99","-1"," ","0","0","[2181.699999988079]","1","0","2","","","","","","","",""
"pit-trial","39","410715","0.0-2.0-11.0-2.0","battery-v0.2","","""event"",""trial"",""time""
""fullscreenenter"",""1"",""20381""
","
","
","""event"",""trial"",""time""
""fullscreenenter"",""1"",""20381""
","
","","","-1","","","13","4226","1846","&#9761;","elianto","#3366ff99","-1","-1","1","+10","[4625.700000017881]","1","0","2","","","","","","","",""
"pit-trial","40","414637","0.0-2.0-11.0-3.0","battery-v0.2","","""event"",""trial"",""time""
""fullscreenenter"",""1"",""20381""
","
","
","""event"",""trial"",""time""
""fullscreenenter"",""1"",""20381""
","
","","","1064.1000000238419","","","13","4226","1846","&#9761;","elianto","#3366ff99","-1"," ","0","+10","[1914.9000000059605]","1","0","2","","","","","","","",""
"pit-trial","41","417954","0.0-2.0-11.0-4.0","battery-v0.2","","""event"",""trial"",""time""
""fullscreenenter"",""1"",""20381""
","
","
","""event"",""trial"",""time""
""fullscreenenter"",""1"",""20381""
","
","","","460.7000000178814","","","13","4226","1846","&#9761;","elianto","#3366ff99","-1"," ","0","0","[1311.300000011921]","1","0","2","","","","","","","",""
"pit-trial","42","421365","0.0-2.0-11.1-0.1","battery-v0.2","","""event"",""trial"",""time""
""fullscreenenter"",""1"",""20381""
","
","
","""event"",""trial"",""time""
""fullscreenenter"",""1"",""20381""
","
","","","555.5999999940395","","","13","4226","1846","&#9761;","elianto","#3366ff99","-1"," ","0","0","[1406.0999999940395]","1","0","2","","","","","","","",""
"pit-trial","43","425396","0.0-2.0-11.1-1.1","battery-v0.2","","""event"",""trial"",""time""
""fullscreenenter"",""1"",""20381""
","
","
","""event"",""trial"",""time""
""fullscreenenter"",""1"",""20381""
","
","","","1172.1000000238419","","","13","4226","1846","&#9761;","elianto","#3366ff99","-1"," ","0","0","[2025.3999999761581]","1","0","2","","","","","","","",""
"pit-trial","44","429492","0.0-2.0-11.1-2.1","battery-v0.2","","""event"",""trial"",""time""
""fullscreenenter"",""1"",""20381""
","
","
","""event"",""trial"",""time""
""fullscreenenter"",""1"",""20381""
","
","","","1235.800000011921","","","13","4226","1846","&#9761;","elianto","#3366ff99","-1"," ","0","0","[2087.7000000178814]","1","0","2","","","","","","","",""
"pit-trial","45","434352","0.0-2.0-11.1-3.1","battery-v0.2","","""event"",""trial"",""time""
""fullscreenenter"",""1"",""20381""
","
","
","""event"",""trial"",""time""
""fullscreenenter"",""1"",""20381""
","
","","","-1","","","13","4226","1846","&#9761;","elianto","#3366ff99","-1","-1","1","0","[]","0","0","2","","","","","","","",""
"pit-trial","46","437899","0.0-2.0-11.1-4.1","battery-v0.2","","""event"",""trial"",""time""
""fullscreenenter"",""1"",""20381""
","
","
","""event"",""trial"",""time""
""fullscreenenter"",""1"",""20381""
","
","","","688.5","","","13","4226","1846","&#9761;","elianto","#3366ff99","-1"," ","0","0","[1538.800000011921]","1","0","2","","","","","","","",""
"pit-trial","47","442758","0.0-2.0-11.2-0.2","battery-v0.2","","""event"",""trial"",""time""
""fullscreenenter"",""1"",""20381""
","
","
","""event"",""trial"",""time""
""fullscreenenter"",""1"",""20381""
","
","","","-1","","","13","4226","1846","&#9761;","elianto","#3366ff99","-1","-1","1","+10","[4841.5999999940395]","1","0","2","","","","","","","",""
"pit-trial","48","447159","0.0-2.0-11.2-1.2","battery-v0.2","","""event"",""trial"",""time""
""fullscreenenter"",""1"",""20381""
","
","
","""event"",""trial"",""time""
""fullscreenenter"",""1"",""20381""
","
","","","1542.7000000178814","","","13","4226","1846","&#9761;","elianto","#3366ff99","-1"," ","0","0","[2392.9000000059605]","1","0","2","","","","","","","",""
"pit-trial","49","451341","0.0-2.0-11.2-2.2","battery-v0.2","","""event"",""trial"",""time""
""fullscreenenter"",""1"",""20381""
","
","
","""event"",""trial"",""time""
""fullscreenenter"",""1"",""20381""
","
","","","1321.5","","","13","4226","1846","&#9761;","elianto","#3366ff99","-1"," ","0","0","[2172.2000000178814]","1","0","2","","","","","","","",""
"pit-trial","50","455623","0.0-2.0-11.2-3.2","battery-v0.2","","""event"",""trial"",""time""
""fullscreenenter"",""1"",""20381""
","
","
","""event"",""trial"",""time""
""fullscreenenter"",""1"",""20381""
","
","","","1425.0999999940395","","","13","4226","1846","&#9761;","elianto","#3366ff99","-1"," ","0","+10","[2276.199999988079]","1","0","2","","","","","","","",""
"pit-trial","51","459497","0.0-2.0-11.2-4.2","battery-v0.2","","""event"",""trial"",""time""
""fullscreenenter"",""1"",""20381""
","
","
","""event"",""trial"",""time""
""fullscreenenter"",""1"",""20381""
","
","","","1016.0999999940395","","","13","4226","1846","&#9761;","elianto","#3366ff99","-1"," ","0","0","[1866.199999988079]","1","0","2","","","","","","","",""
"pit-trial","52","462774","0.0-2.0-11.3-0.3","battery-v0.2","","""event"",""trial"",""time""
""fullscreenenter"",""1"",""20381""
","
","
","""event"",""trial"",""time""
""fullscreenenter"",""1"",""20381""
","
","","","417.5","","","13","4226","1846","&#9761;","elianto","#3366ff99","-1"," ","0","0","[1268.4000000059605]","1","0","2","","","","","","","",""
"pit-trial","53","467635","0.0-2.0-11.3-1.3","battery-v0.2","","""event"",""trial"",""time""
""fullscreenenter"",""1"",""20381""
","
","
","""event"",""trial"",""time""
""fullscreenenter"",""1"",""20381""
","
","","","-1","","","13","4226","1846","&#9761;","elianto","#3366ff99","-1","-1","1","+10","[4160.800000011921]","1","0","2","","","","","","","",""
"pit-trial","54","471238","0.0-2.0-11.3-2.3","battery-v0.2","","""event"",""trial"",""time""
""fullscreenenter"",""1"",""20381""
","
","
","""event"",""trial"",""time""
""fullscreenenter"",""1"",""20381""
","
","","","740.5999999940395","","","13","4226","1846","&#9761;","elianto","#3366ff99","-1"," ","0","0","[82.5,1594.800000011921]","2","0","2","","","","","","","",""
"pit-trial","55","476103","0.0-2.0-11.3-3.3","battery-v0.2","","""event"",""trial"",""time""
""fullscreenenter"",""1"",""20381""
","
","
","""event"",""trial"",""time""
""fullscreenenter"",""1"",""20381""
","
","","","-1","","","13","4226","1846","&#9761;","elianto","#3366ff99","-1","-1","1","0","[]","0","0","2","","","","","","","",""
"pit-trial","56","480058","0.0-2.0-11.3-4.3","battery-v0.2","","""event"",""trial"",""time""
""fullscreenenter"",""1"",""20381""
","
","
","""event"",""trial"",""time""
""fullscreenenter"",""1"",""20381""
","
","","","1095.2000000178814","","","13","4226","1846","&#9761;","elianto","#3366ff99","-1"," ","0","0","[1949.2000000178814]","1","0","2","","","","","","","",""
"call-function","57","480063","0.0-2.0-12.0","battery-v0.2","","""event"",""trial"",""time""
""fullscreenenter"",""1"",""20381""
","
","
","""event"",""trial"",""time""
""fullscreenenter"",""1"",""20381""
","
","","","","","","","","","","","","","","","","","","","","","","","","","","",""
"pit-instructions","58","517170","0.0-2.0-13.0","battery-v0.2","","""event"",""trial"",""time""
""fullscreenenter"",""1"",""20381""
","
","
","""event"",""trial"",""time""
""fullscreenenter"",""1"",""20381""
","
","","[{""page_index"":0,""viewing_time"":4957.300000011921},{""page_index"":1,""viewing_time"":6679},{""page_index"":2,""viewing_time"":3183.899999976158},{""page_index"":3,""viewing_time"":15100.200000017881},{""page_index"":4,""viewing_time"":7184.5}]","37105.09999999404","","","","","","","","","","","","","","","","","","","","","","","",""
"pit-trial","59","522030","0.0-2.0-14.0-0.0","battery-v0.2","","""event"",""trial"",""time""
""fullscreenenter"",""1"",""20381""
","
","
","""event"",""trial"",""time""
""fullscreenenter"",""1"",""20381""
","
","","","-1","","","13","4226","1846","&#9826;","elianto","#f73b6a7A","-1","-1","1","0","[]","0","0","3","","","","","","","",""
"pit-trial","60","526889","0.0-2.0-14.0-1.0","battery-v0.2","","""event"",""trial"",""time""
""fullscreenenter"",""1"",""20381""
","
","
","""event"",""trial"",""time""
""fullscreenenter"",""1"",""20381""
","
","","","-1","","","13","4226","1846","&#9826;","elianto","#f73b6a7A","-1","-1","1","0","[]","0","0","3","","","","","","","",""
"pit-trial","61","531748","0.0-2.0-14.0-2.0","battery-v0.2","","""event"",""trial"",""time""
""fullscreenenter"",""1"",""20381""
","
","
","""event"",""trial"",""time""
""fullscreenenter"",""1"",""20381""
","
","","","-1","","","13","4226","1846","&#9826;","elianto","#f73b6a7A","-1","-1","1","0","[]","0","0","3","","","","","","","",""
"pit-trial","62","536607","0.0-2.0-14.0-3.0","battery-v0.2","","""event"",""trial"",""time""
""fullscreenenter"",""1"",""20381""
","
","
","""event"",""trial"",""time""
""fullscreenenter"",""1"",""20381""
","
","","","-1","","","13","4226","1846","&#9826;","elianto","#f73b6a7A","-1","-1","1","-10","[]","0","0","3","","","","","","","",""
"pit-trial","63","541465","0.0-2.0-14.0-4.0","battery-v0.2","","""event"",""trial"",""time""
""fullscreenenter"",""1"",""20381""
","
","
","""event"",""trial"",""time""
""fullscreenenter"",""1"",""20381""
","
","","","-1","","","13","4226","1846","&#9826;","elianto","#f73b6a7A","-1","-1","1","0","[]","0","0","3","","","","","","","",""
"pit-trial","64","546326","0.0-2.0-14.1-0.1","battery-v0.2","","""event"",""trial"",""time""
""fullscreenenter"",""1"",""20381""
","
","
","""event"",""trial"",""time""
""fullscreenenter"",""1"",""20381""
","
","","","-1","","","13","4226","1846","&#9826;","elianto","#f73b6a7A","-1","-1","1","0","[]","0","0","3","","","","","","","",""
"pit-trial","65","551185","0.0-2.0-14.1-1.1","battery-v0.2","","""event"",""trial"",""time""
""fullscreenenter"",""1"",""20381""
","
","
","""event"",""trial"",""time""
""fullscreenenter"",""1"",""20381""
","
","","","-1","","","13","4226","1846","&#9826;","elianto","#f73b6a7A","-1","-1","1","0","[]","0","0","3","","","","","","","",""
"pit-trial","66","556044","0.0-2.0-14.1-2.1","battery-v0.2","","""event"",""trial"",""time""
""fullscreenenter"",""1"",""20381""
","
","
","""event"",""trial"",""time""
""fullscreenenter"",""1"",""20381""
","
","","","-1","","","13","4226","1846","&#9826;","elianto","#f73b6a7A","-1","-1","1","0","[]","0","0","3","","","","","","","",""
"pit-trial","67","560903","0.0-2.0-14.1-3.1","battery-v0.2","","""event"",""trial"",""time""
""fullscreenenter"",""1"",""20381""
","
","
","""event"",""trial"",""time""
""fullscreenenter"",""1"",""20381""
","
","","","-1","","","13","4226","1846","&#9826;","elianto","#f73b6a7A","-1","-1","1","-10","[]","0","0","3","","","","","","","",""
"pit-trial","68","565762","0.0-2.0-14.1-4.1","battery-v0.2","","""event"",""trial"",""time""
""fullscreenenter"",""1"",""20381""
","
","
","""event"",""trial"",""time""
""fullscreenenter"",""1"",""20381""
","
","","","-1","","","13","4226","1846","&#9826;","elianto","#f73b6a7A","-1","-1","1","0","[]","0","0","3","","","","","","","",""
"pit-trial","69","570621","0.0-2.0-14.2-0.2","battery-v0.2","","""event"",""trial"",""time""
""fullscreenenter"",""1"",""20381""
","
","
","""event"",""trial"",""time""
""fullscreenenter"",""1"",""20381""
","
","","","-1","","","13","4226","1846","&#9826;","elianto","#f73b6a7A","-1","-1","1","0","[]","0","0","3","","","","","","","",""
"pit-trial","70","575480","0.0-2.0-14.2-1.2","battery-v0.2","","""event"",""trial"",""time""
""fullscreenenter"",""1"",""20381""
","
","
","""event"",""trial"",""time""
""fullscreenenter"",""1"",""20381""
","
","","","-1","","","13","4226","1846","&#9826;","elianto","#f73b6a7A","-1","-1","1","0","[]","0","0","3","","","","","","","",""
"pit-trial","71","580339","0.0-2.0-14.2-2.2","battery-v0.2","","""event"",""trial"",""time""
""fullscreenenter"",""1"",""20381""
","
","
","""event"",""trial"",""time""
""fullscreenenter"",""1"",""20381""
","
","","","-1","","","13","4226","1846","&#9826;","elianto","#f73b6a7A","-1","-1","1","0","[]","0","0","3","","","","","","","",""
"pit-trial","72","585198","0.0-2.0-14.2-3.2","battery-v0.2","","""event"",""trial"",""time""
""fullscreenenter"",""1"",""20381""
","
","
","""event"",""trial"",""time""
""fullscreenenter"",""1"",""20381""
","
","","","-1","","","13","4226","1846","&#9826;","elianto","#f73b6a7A","-1","-1","1","-10","[]","0","0","3","","","","","","","",""
"pit-trial","73","590056","0.0-2.0-14.2-4.2","battery-v0.2","","""event"",""trial"",""time""
""fullscreenenter"",""1"",""20381""
","
","
","""event"",""trial"",""time""
""fullscreenenter"",""1"",""20381""
","
","","","-1","","","13","4226","1846","&#9826;","elianto","#f73b6a7A","-1","-1","1","0","[]","0","0","3","","","","","","","",""
"pit-trial","74","594915","0.0-2.0-14.3-0.3","battery-v0.2","","""event"",""trial"",""time""
""fullscreenenter"",""1"",""20381""
","
","
","""event"",""trial"",""time""
""fullscreenenter"",""1"",""20381""
","
","","","-1","","","13","4226","1846","&#9826;","elianto","#f73b6a7A","-1","-1","1","0","[]","0","0","3","","","","","","","",""
"pit-trial","75","599774","0.0-2.0-14.3-1.3","battery-v0.2","","""event"",""trial"",""time""
""fullscreenenter"",""1"",""20381""
","
","
","""event"",""trial"",""time""
""fullscreenenter"",""1"",""20381""
","
","","","-1","","","13","4226","1846","&#9826;","elianto","#f73b6a7A","-1","-1","1","0","[]","0","0","3","","","","","","","",""
"pit-trial","76","604633","0.0-2.0-14.3-2.3","battery-v0.2","","""event"",""trial"",""time""
""fullscreenenter"",""1"",""20381""
","
","
","""event"",""trial"",""time""
""fullscreenenter"",""1"",""20381""
","
","","","-1","","","13","4226","1846","&#9826;","elianto","#f73b6a7A","-1","-1","1","0","[]","0","0","3","","","","","","","",""
"pit-trial","77","609492","0.0-2.0-14.3-3.3","battery-v0.2","","""event"",""trial"",""time""
""fullscreenenter"",""1"",""20381""
","
","
","""event"",""trial"",""time""
""fullscreenenter"",""1"",""20381""
","
","","","-1","","","13","4226","1846","&#9826;","elianto","#f73b6a7A","-1","-1","1","-10","[]","0","0","3","","","","","","","",""
"pit-trial","78","614351","0.0-2.0-14.3-4.3","battery-v0.2","","""event"",""trial"",""time""
""fullscreenenter"",""1"",""20381""
","
","
","""event"",""trial"",""time""
""fullscreenenter"",""1"",""20381""
","
","","","-1","","","13","4226","1846","&#9826;","elianto","#f73b6a7A","-1","-1","1","0","[]","0","0","3","","","","","","","",""
"call-function","79","614356","0.0-2.0-15.0","battery-v0.2","","""event"",""trial"",""time""
""fullscreenenter"",""1"",""20381""
","
","
","""event"",""trial"",""time""
""fullscreenenter"",""1"",""20381""
","
","","","","","","","","","","","","","","","","","","","","","","","","","","",""
"pit-instructions","80","641669","0.0-2.0-16.0","battery-v0.2","","""event"",""trial"",""time""
""fullscreenenter"",""1"",""20381""
","
","
","""event"",""trial"",""time""
""fullscreenenter"",""1"",""20381""
","
","","[{""page_index"":0,""viewing_time"":6700.800000011921},{""page_index"":1,""viewing_time"":11134.90000000596},{""page_index"":2,""viewing_time"":4060.699999988079},{""page_index"":3,""viewing_time"":5414.4000000059605}]","27311.30000001192","","","","","","","","","","","","","","","","","","","","","","","",""
"pit-trial","81","646528","0.0-2.0-17.0-0.0","battery-v0.2","","""event"",""trial"",""time""
""fullscreenenter"",""1"",""20381""
","
","
","""event"",""trial"",""time""
""fullscreenenter"",""1"",""20381""
","
","","","-1","","","13","4226","1846","&#9789;","elianto","#f73b6a7A"," ","-1","0","-10","[]","0","0","4","","","","","","","",""
"pit-trial","82","651387","0.0-2.0-17.0-1.0","battery-v0.2","","""event"",""trial"",""time""
""fullscreenenter"",""1"",""20381""
","
","
","""event"",""trial"",""time""
""fullscreenenter"",""1"",""20381""
","
","","","-1","","","13","4226","1846","&#9789;","elianto","#f73b6a7A"," ","-1","0","-10","[]","0","0","4","","","","","","","",""
"pit-trial","83","656245","0.0-2.0-17.0-2.0","battery-v0.2","","""event"",""trial"",""time""
""fullscreenenter"",""1"",""20381""
","
","
","""event"",""trial"",""time""
""fullscreenenter"",""1"",""20381""
","
","","","-1","","","13","4226","1846","&#9789;","elianto","#f73b6a7A"," ","-1","0","-10","[]","0","0","4","","","","","","","",""
"pit-trial","84","661104","0.0-2.0-17.0-3.0","battery-v0.2","","""event"",""trial"",""time""
""fullscreenenter"",""1"",""20381""
","
","
","""event"",""trial"",""time""
""fullscreenenter"",""1"",""20381""
","
","","","-1","","","13","4226","1846","&#9789;","elianto","#f73b6a7A"," ","-1","0","0","[]","0","0","4","","","","","","","",""
"pit-trial","85","665963","0.0-2.0-17.0-4.0","battery-v0.2","","""event"",""trial"",""time""
""fullscreenenter"",""1"",""20381""
","
","
","""event"",""trial"",""time""
""fullscreenenter"",""1"",""20381""
","
","","","-1","","","13","4226","1846","&#9789;","elianto","#f73b6a7A"," ","-1","0","-10","[]","0","0","4","","","","","","","",""
"pit-trial","86","670822","0.0-2.0-17.1-0.1","battery-v0.2","","""event"",""trial"",""time""
""fullscreenenter"",""1"",""20381""
","
","
","""event"",""trial"",""time""
""fullscreenenter"",""1"",""20381""
","
","","","-1","","","13","4226","1846","&#9789;","elianto","#f73b6a7A"," ","-1","0","-10","[]","0","0","4","","","","","","","",""
"pit-trial","87","675682","0.0-2.0-17.1-1.1","battery-v0.2","","""event"",""trial"",""time""
""fullscreenenter"",""1"",""20381""
","
","
","""event"",""trial"",""time""
""fullscreenenter"",""1"",""20381""
","
","","","-1","","","13","4226","1846","&#9789;","elianto","#f73b6a7A"," ","-1","0","-10","[]","0","0","4","","","","","","","",""
"pit-trial","88","680541","0.0-2.0-17.1-2.1","battery-v0.2","","""event"",""trial"",""time""
""fullscreenenter"",""1"",""20381""
","
","
","""event"",""trial"",""time""
""fullscreenenter"",""1"",""20381""
","
","","","-1","","","13","4226","1846","&#9789;","elianto","#f73b6a7A"," ","-1","0","-10","[]","0","0","4","","","","","","","",""
"pit-trial","89","685404","0.0-2.0-17.1-3.1","battery-v0.2","","""event"",""trial"",""time""
""fullscreenenter"",""1"",""20381""
","
","
","""event"",""trial"",""time""
""fullscreenenter"",""1"",""20381""
","
","","","-1","","","13","4226","1846","&#9789;","elianto","#f73b6a7A"," ","-1","0","0","[]","0","0","4","","","","","","","",""
"pit-trial","90","690265","0.0-2.0-17.1-4.1","battery-v0.2","","""event"",""trial"",""time""
""fullscreenenter"",""1"",""20381""
","
","
","""event"",""trial"",""time""
""fullscreenenter"",""1"",""20381""
","
","","","-1","","","13","4226","1846","&#9789;","elianto","#f73b6a7A"," ","-1","0","-10","[]","0","0","4","","","","","","","",""
"pit-trial","91","695124","0.0-2.0-17.2-0.2","battery-v0.2","","""event"",""trial"",""time""
""fullscreenenter"",""1"",""20381""
","
","
","""event"",""trial"",""time""
""fullscreenenter"",""1"",""20381""
","
","","","-1","","","13","4226","1846","&#9789;","elianto","#f73b6a7A"," ","-1","0","-10","[]","0","0","4","","","","","","","",""
"pit-trial","92","699983","0.0-2.0-17.2-1.2","battery-v0.2","","""event"",""trial"",""time""
""fullscreenenter"",""1"",""20381""
","
","
","""event"",""trial"",""time""
""fullscreenenter"",""1"",""20381""
","
","","","-1","","","13","4226","1846","&#9789;","elianto","#f73b6a7A"," ","-1","0","-10","[]","0","0","4","","","","","","","",""
"pit-trial","93","704841","0.0-2.0-17.2-2.2","battery-v0.2","","""event"",""trial"",""time""
""fullscreenenter"",""1"",""20381""
","
","
","""event"",""trial"",""time""
""fullscreenenter"",""1"",""20381""
","
","","","-1","","","13","4226","1846","&#9789;","elianto","#f73b6a7A"," ","-1","0","-10","[]","0","0","4","","","","","","","",""
"pit-trial","94","709700","0.0-2.0-17.2-3.2","battery-v0.2","","""event"",""trial"",""time""
""fullscreenenter"",""1"",""20381""
","
","
","""event"",""trial"",""time""
""fullscreenenter"",""1"",""20381""
","
","","","-1","","","13","4226","1846","&#9789;","elianto","#f73b6a7A"," ","-1","0","0","[]","0","0","4","","","","","","","",""
"pit-trial","95","714559","0.0-2.0-17.2-4.2","battery-v0.2","","""event"",""trial"",""time""
""fullscreenenter"",""1"",""20381""
","
","
","""event"",""trial"",""time""
""fullscreenenter"",""1"",""20381""
","
","","","-1","","","13","4226","1846","&#9789;","elianto","#f73b6a7A"," ","-1","0","-10","[]","0","0","4","","","","","","","",""
"pit-trial","96","719418","0.0-2.0-17.3-0.3","battery-v0.2","","""event"",""trial"",""time""
""fullscreenenter"",""1"",""20381""
","
","
","""event"",""trial"",""time""
""fullscreenenter"",""1"",""20381""
","
","","","-1","","","13","4226","1846","&#9789;","elianto","#f73b6a7A"," ","-1","0","-10","[]","0","0","4","","","","","","","",""
"pit-trial","97","724277","0.0-2.0-17.3-1.3","battery-v0.2","","""event"",""trial"",""time""
""fullscreenenter"",""1"",""20381""
","
","
","""event"",""trial"",""time""
""fullscreenenter"",""1"",""20381""
","
","","","-1","","","13","4226","1846","&#9789;","elianto","#f73b6a7A"," ","-1","0","-10","[]","0","0","4","","","","","","","",""
"pit-trial","98","729137","0.0-2.0-17.3-2.3","battery-v0.2","","""event"",""trial"",""time""
""fullscreenenter"",""1"",""20381""
","
","
","""event"",""trial"",""time""
""fullscreenenter"",""1"",""20381""
","
","","","-1","","","13","4226","1846","&#9789;","elianto","#f73b6a7A"," ","-1","0","-10","[]","0","0","4","","","","","","","",""
"pit-trial","99","733995","0.0-2.0-17.3-3.3","battery-v0.2","","""event"",""trial"",""time""
""fullscreenenter"",""1"",""20381""
","
","
","""event"",""trial"",""time""
""fullscreenenter"",""1"",""20381""
","
","","","-1","","","13","4226","1846","&#9789;","elianto","#f73b6a7A"," ","-1","0","0","[]","0","0","4","","","","","","","",""
"pit-trial","100","738854","0.0-2.0-17.3-4.3","battery-v0.2","","""event"",""trial"",""time""
""fullscreenenter"",""1"",""20381""
","
","
","""event"",""trial"",""time""
""fullscreenenter"",""1"",""20381""
","
","","","-1","","","13","4226","1846","&#9789;","elianto","#f73b6a7A"," ","-1","0","-10","[]","0","0","4","","","","","","","",""
"call-function","101","738859","0.0-2.0-18.0","battery-v0.2","","""event"",""trial"",""time""
""fullscreenenter"",""1"",""20381""
","
","
","""event"",""trial"",""time""
""fullscreenenter"",""1"",""20381""
","
","","","","","","","","","","","","","","","","","","","","","","","","","","",""
"pit-instructions","102","820250","0.0-2.0-19.0","battery-v0.2","","""event"",""trial"",""time""
""fullscreenenter"",""1"",""20381""
","
","
","""event"",""trial"",""time""
""fullscreenenter"",""1"",""20381""
","
","","[{""page_index"":0,""viewing_time"":9798.40000000596},{""page_index"":1,""viewing_time"":7038.9000000059605},{""page_index"":2,""viewing_time"":16865.90000000596},{""page_index"":3,""viewing_time"":7738},{""page_index"":4,""viewing_time"":10207.199999988079},{""page_index"":5,""viewing_time"":8350.700000017881},{""page_index"":6,""viewing_time"":10219.199999988079},{""page_index"":7,""viewing_time"":6232.0999999940395},{""page_index"":8,""viewing_time"":4936.4000000059605}]","81387.10000002384","","","","","","","","","","","","","","","","","","","","","","","",""
"pit-comprehension","103","831231","0.0-2.0-20.0-0.0","battery-v0.2","","""event"",""trial"",""time""
""fullscreenenter"",""1"",""20381""
","
","
","""event"",""trial"",""time""
""fullscreenenter"",""1"",""20381""
","
","","","10975.800000011921","[""SPACE""]","0","13","4226","1846","","","","","","","","","","","","","","","","","","",""
"pit-instructions","104","836056","0.0-2.0-20.0-1.0","battery-v0.2","","""event"",""trial"",""time""
""fullscreenenter"",""1"",""20381""
","
","
","""event"",""trial"",""time""
""fullscreenenter"",""1"",""20381""
","
","","[{""page_index"":0,""viewing_time"":4788.399999976158}]","4788.5999999940395","","","","","","","","","","","","","","","","","","","","","","","",""
"pit-comprehension","105","844106","0.0-2.0-21.0-0.0","battery-v0.2","","""event"",""trial"",""time""
""fullscreenenter"",""1"",""20381""
","
","
","""event"",""trial"",""time""
""fullscreenenter"",""1"",""20381""
","
","","","8044.300000011921","[""10""]","0","13","4226","1846","","","","","","","","","","","","","","","","","","",""
"pit-instructions","106","846446","0.0-2.0-21.0-1.0","battery-v0.2","","""event"",""trial"",""time""
""fullscreenenter"",""1"",""20381""
","
","
","""event"",""trial"",""time""
""fullscreenenter"",""1"",""20381""
","
","","[{""page_index"":0,""viewing_time"":2303.4000000059605}]","2303.699999988079","","","","","","","","","","","","","","","","","","","","","","","",""
"pit-comprehension","107","854489","0.0-2.0-22.0-0.0","battery-v0.2","","""event"",""trial"",""time""
""fullscreenenter"",""1"",""20381""
","
","
","""event"",""trial"",""time""
""fullscreenenter"",""1"",""20381""
","
","","","8038.5","[""-10""]","1","13","4226","1846","","","","","","","","","","","","","","","","","","",""
"pit-instructions","108","859663","0.0-2.0-22.0-1.0","battery-v0.2","","""event"",""trial"",""time""
""fullscreenenter"",""1"",""20381""
","
","
","""event"",""trial"",""time""
""fullscreenenter"",""1"",""20381""
","
","","[{""page_index"":0,""viewing_time"":5136.199999988079}]","5136.5","","","","","","","","","","","","","","","","","","","","","","","",""
"pit-instructions","109","860408","0.0-2.0-22.0-2.0-0.0","battery-v0.2","","""event"",""trial"",""time""
""fullscreenenter"",""1"",""20381""
","
","
","""event"",""trial"",""time""
""fullscreenenter"",""1"",""20381""
","
","","[{""page_index"":0,""viewing_time"":740.9000000059605}]","741.0999999940395","","","","","","","","","","","","","","","","","","","","","","","",""
"pit-comprehension","110","866595","0.0-2.0-22.1-0.1","battery-v0.2","","""event"",""trial"",""time""
""fullscreenenter"",""1"",""20381""
","
","
","""event"",""trial"",""time""
""fullscreenenter"",""1"",""20381""
","
","","","6182","[""0""]","0","13","4226","1846","","","","","","","","","","","","","","","","","","",""
"pit-instructions","111","868844","0.0-2.0-22.1-1.1","battery-v0.2","","""event"",""trial"",""time""
""fullscreenenter"",""1"",""20381""
","
","
","""event"",""trial"",""time""
""fullscreenenter"",""1"",""20381""
","
","","[{""page_index"":0,""viewing_time"":2212.800000011921}]","2213.0999999940395","","","","","","","","","","","","","","","","","","","","","","","",""
"pit-comprehension","112","877922","0.0-2.0-23.0-0.0","battery-v0.2","","""event"",""trial"",""time""
""fullscreenenter"",""1"",""20381""
","
","
","""event"",""trial"",""time""
""fullscreenenter"",""1"",""20381""
","
","","","9069.90000000596","[""True""]","0","13","4226","1846","","","","","","","","","","","","","","","","","","",""
"pit-instructions","113","879531","0.0-2.0-23.0-1.0","battery-v0.2","","""event"",""trial"",""time""
""fullscreenenter"",""1"",""20381""
","
","
","""event"",""trial"",""time""
""fullscreenenter"",""1"",""20381""
","
","","[{""page_index"":0,""viewing_time"":1571}]","1571.199999988079","","","","","","","","","","","","","","","","","","","","","","","",""
"pit-comprehension","114","887376","0.0-2.0-24.0-0.0","battery-v0.2","","""event"",""trial"",""time""
""fullscreenenter"",""1"",""20381""
","
","
","""event"",""trial"",""time""
""fullscreenenter"",""1"",""20381""
","
","","","7841","[""True""]","0","13","4226","1846","","","","","","","","","","","","","","","","","","",""
"pit-instructions","115","888866","0.0-2.0-24.0-1.0","battery-v0.2","","""event"",""trial"",""time""
""fullscreenenter"",""1"",""20381""
","
","
","""event"",""trial"",""time""
""fullscreenenter"",""1"",""20381""
","
","","[{""page_index"":0,""viewing_time"":1450.7999999821186}]","1451.199999988079","","","","","","","","","","","","","","","","","","","","","","","",""
"pit-comprehension","116","894894","0.0-2.0-25.0-0.0","battery-v0.2","","""event"",""trial"",""time""
""fullscreenenter"",""1"",""20381""
","
","
","""event"",""trial"",""time""
""fullscreenenter"",""1"",""20381""
","
","","","6022.9000000059605","[""True""]","0","13","4226","1846","","","","","","","","","","","","","","","","","","",""
"pit-instructions","117","896511","0.0-2.0-25.0-1.0","battery-v0.2","","""event"",""trial"",""time""
""fullscreenenter"",""1"",""20381""
","
","
","""event"",""trial"",""time""
""fullscreenenter"",""1"",""20381""
","
","","[{""page_index"":0,""viewing_time"":1577.9000000059605}]","1578.199999988079","","","","","","","","","","","","","","","","","","","","","","","",""
"pit-comprehension","118","904476","0.0-2.0-26.0-0.0","battery-v0.2","","""event"",""trial"",""time""
""fullscreenenter"",""1"",""20381""
","
","
","""event"",""trial"",""time""
""fullscreenenter"",""1"",""20381""
","
","","","7960.199999988079","[""True""]","1","13","4226","1846","","","","","","","","","","","","","","","","","","",""
"pit-instructions","119","907056","0.0-2.0-26.0-1.0","battery-v0.2","","""event"",""trial"",""time""
""fullscreenenter"",""1"",""20381""
","
","
","""event"",""trial"",""time""
""fullscreenenter"",""1"",""20381""
","
","","[{""page_index"":0,""viewing_time"":2541.300000011921}]","2541.5999999940395","","","","","","","","","","","","","","","","","","","","","","","",""
"pit-instructions","120","907609","0.0-2.0-26.0-2.0-0.0","battery-v0.2","","""event"",""trial"",""time""
""fullscreenenter"",""1"",""20381""
","
","
","""event"",""trial"",""time""
""fullscreenenter"",""1"",""20381""
","
","","[{""page_index"":0,""viewing_time"":549.5}]","549.6999999880791","","","","","","","","","","","","","","","","","","","","","","","",""
"pit-comprehension","121","912024","0.0-2.0-26.1-0.1","battery-v0.2","","""event"",""trial"",""time""
""fullscreenenter"",""1"",""20381""
","
","
","""event"",""trial"",""time""
""fullscreenenter"",""1"",""20381""
","
","","","4409.699999988079","[""False""]","0","13","4226","1846","","","","","","","","","","","","","","","","","","",""
"pit-instructions","122","913769","0.0-2.0-26.1-1.1","battery-v0.2","","""event"",""trial"",""time""
""fullscreenenter"",""1"",""20381""
","
","
","""event"",""trial"",""time""
""fullscreenenter"",""1"",""20381""
","
","","[{""page_index"":0,""viewing_time"":1704.300000011921}]","1704.7000000178814","","","","","","","","","","","","","","","","","","","","","","","",""
"pit-instructions","123","930747","0.0-3.0","battery-v0.2","","""event"",""trial"",""time""
""fullscreenenter"",""1"",""20381""
","
","
","""event"",""trial"",""time""
""fullscreenenter"",""1"",""20381""
","
","","[{""page_index"":0,""viewing_time"":4689.699999988079},{""page_index"":1,""viewing_time"":5157.9000000059605},{""page_index"":2,""viewing_time"":7125.700000017881}]","16973.5","","","","","","","","","","","","","","","","","","","","","","","",""
"pit-trial","124","934765","0.0-4.0","battery-v0.2","","""event"",""trial"",""time""
""fullscreenenter"",""1"",""20381""
","
","
","""event"",""trial"",""time""
""fullscreenenter"",""1"",""20381""
","
","","","1157.7999999821186","","","13","4226","1846","&#9733;","elianto","#3366ff99","-1"," ","0","0","[2009.199999988079]","1","1","","","4226","1","2","2","win","no-go","0"
"pit-trial","125","938253","0.0-5.0","battery-v0.2","","""event"",""trial"",""time""
""fullscreenenter"",""1"",""20381""
","
","
","""event"",""trial"",""time""
""fullscreenenter"",""1"",""20381""
","
","","","628.4000000059605","","","13","4226","1846","&#9730;","elianto","#3366ff99"," "," ","1","+10","[1479.199999988079]","1","1","","","4226","2","1","1","win","go","0"
"pit-trial","126","943113","0.0-6.0","battery-v0.2","","""event"",""trial"",""time""
""fullscreenenter"",""1"",""20381""
","
","
","""event"",""trial"",""time""
""fullscreenenter"",""1"",""20381""
","
","","","-1","","","13","4226","1846","&#9752;","elianto","#f73b6a7A"," ","-1","0","-10","[]","0","1","","","4226","3","3","3","lose","go","0"
"pit-trial","127","947975","0.0-7.0","battery-v0.2","","""event"",""trial"",""time""
""fullscreenenter"",""1"",""20381""
","
","
","""event"",""trial"",""time""
""fullscreenenter"",""1"",""20381""
","
","","","-1","","","13","4226","1846","&#9728;","elianto","#f73b6a7A","-1","-1","1","0","[]","0","1","","","4226","4","0","4","lose","no-go","0"
"pit-trial","128","951495","0.0-8.0","battery-v0.2","","""event"",""trial"",""time""
""fullscreenenter"",""1"",""20381""
","
","
","""event"",""trial"",""time""
""fullscreenenter"",""1"",""20381""
","
","","","661.6000000238419","","","13","4226","1846","&#9730;","elianto","#3366ff99"," "," ","1","0","[1511.5999999940395]","1","1","","","4226","5","1","1","win","go","1"
"pit-trial","129","955195","0.0-9.0","battery-v0.2","","""event"",""trial"",""time""
""fullscreenenter"",""1"",""20381""
","
","
","""event"",""trial"",""time""
""fullscreenenter"",""1"",""20381""
","
","","","840.5999999940395","","","13","4226","1846","&#9733;","elianto","#3366ff99","-1"," ","0","0","[1691.4000000059605]","1","1","","","4226","6","2","2","win","no-go","0"
"pit-trial","130","960056","0.0-10.0","battery-v0.2","","""event"",""trial"",""time""
""fullscreenenter"",""1"",""20381""
","
","
","""event"",""trial"",""time""
""fullscreenenter"",""1"",""20381""
","
","","","-1","","","13","4226","1846","&#9728;","elianto","#f73b6a7A","-1","-1","1","0","[]","0","1","","","4226","7","0","4","lose","no-go","0"
"pit-trial","131","964917","0.0-11.0","battery-v0.2","","""event"",""trial"",""time""
""fullscreenenter"",""1"",""20381""
","
","
","""event"",""trial"",""time""
""fullscreenenter"",""1"",""20381""
","
","","","-1","","","13","4226","1846","&#9752;","elianto","#f73b6a7A"," ","-1","0","0","[]","0","1","","","4226","8","3","3","lose","go","1"
"pit-trial","132","969777","0.0-12.0","battery-v0.2","","""event"",""trial"",""time""
""fullscreenenter"",""1"",""20381""
","
","
","""event"",""trial"",""time""
""fullscreenenter"",""1"",""20381""
","
","","","-1","","","13","4226","1846","&#9752;","elianto","#f73b6a7A"," ","-1","0","0","[]","0","1","","","4226","9","3","3","lose","go","1"
"pit-trial","133","973642","0.0-13.0","battery-v0.2","","""event"",""trial"",""time""
""fullscreenenter"",""1"",""20381""
","
","
","""event"",""trial"",""time""
""fullscreenenter"",""1"",""20381""
","
","","","1001.7000000178814","","","13","4226","1846","&#9733;","elianto","#3366ff99","-1"," ","0","0","[1853.7000000178814]","1","1","","","4226","10","2","2","win","no-go","0"
"pit-trial","134","978504","0.0-14.0","battery-v0.2","","""event"",""trial"",""time""
""fullscreenenter"",""1"",""20381""
","
","
","""event"",""trial"",""time""
""fullscreenenter"",""1"",""20381""
","
","","","-1","","","13","4226","1846","&#9728;","elianto","#f73b6a7A","-1","-1","1","-10","[]","0","1","","","4226","11","0","4","lose","no-go","1"
"pit-trial","135","982370","0.0-15.0","battery-v0.2","","""event"",""trial"",""time""
""fullscreenenter"",""1"",""20381""
","
","
","""event"",""trial"",""time""
""fullscreenenter"",""1"",""20381""
","
","","","1009.6999999880791","","","13","4226","1846","&#9730;","elianto","#3366ff99"," "," ","1","+10","[1859.800000011921]","1","1","","","4226","12","1","1","win","go","0"
"pit-trial","136","987230","0.0-16.0","battery-v0.2","","""event"",""trial"",""time""
""fullscreenenter"",""1"",""20381""
","
","
","""event"",""trial"",""time""
""fullscreenenter"",""1"",""20381""
","
","","","-1","","","13","4226","1846","&#9728;","elianto","#f73b6a7A","-1","-1","1","0","[]","0","1","","","4226","13","0","4","lose","no-go","0"
"pit-trial","137","992094","0.0-17.0","battery-v0.2","","""event"",""trial"",""time""
""fullscreenenter"",""1"",""20381""
","
","
","""event"",""trial"",""time""
""fullscreenenter"",""1"",""20381""
","
","","","-1","","","13","4226","1846","&#9730;","elianto","#3366ff99"," ","-1","0","0","[]","0","1","","","4226","14","1","1","win","go","0"
"pit-trial","138","996953","0.0-18.0","battery-v0.2","","""event"",""trial"",""time""
""fullscreenenter"",""1"",""20381""
","
","
","""event"",""trial"",""time""
""fullscreenenter"",""1"",""20381""
","
","","","-1","","","13","4226","1846","&#9733;","elianto","#3366ff99","-1","-1","1","+10","[2851.2000000178814]","1","1","","","4226","15","2","2","win","no-go","0"
"pit-trial","139","1001812","0.0-19.0","battery-v0.2","","""event"",""trial"",""time""
""fullscreenenter"",""1"",""20381""
","
","
","""event"",""trial"",""time""
""fullscreenenter"",""1"",""20381""
","
","","","-1","","","13","4226","1846","&#9752;","elianto","#f73b6a7A"," ","-1","0","-10","[]","0","1","","","4226","16","3","3","lose","go","0"
"pit-trial","140","1005371","0.0-20.0","battery-v0.2","","""event"",""trial"",""time""
""fullscreenenter"",""1"",""20381""
","
","
","""event"",""trial"",""time""
""fullscreenenter"",""1"",""20381""
","
","","","696.5","","","13","4226","1846","&#9733;","elianto","#3366ff99","-1"," ","0","0","[1548.7000000178814]","1","1","","","4226","17","2","2","win","no-go","0"
"pit-trial","141","1010230","0.0-21.0","battery-v0.2","","""event"",""trial"",""time""
""fullscreenenter"",""1"",""20381""
","
","
","""event"",""trial"",""time""
""fullscreenenter"",""1"",""20381""
","
","","","-1","","","13","4226","1846","&#9728;","elianto","#f73b6a7A","-1","-1","1","0","[]","0","1","","","4226","18","0","4","lose","no-go","0"
"pit-trial","142","1013800","0.0-22.0","battery-v0.2","","""event"",""trial"",""time""
""fullscreenenter"",""1"",""20381""
","
","
","""event"",""trial"",""time""
""fullscreenenter"",""1"",""20381""
","
","","","707.9000000059605","","","13","4226","1846","&#9730;","elianto","#3366ff99"," "," ","1","+10","[1559.5]","1","1","","","4226","19","1","1","win","go","0"
"pit-trial","143","1018659","0.0-23.0","battery-v0.2","","""event"",""trial"",""time""
""fullscreenenter"",""1"",""20381""
","
","
","""event"",""trial"",""time""
""fullscreenenter"",""1"",""20381""
","
","","","-1","","","13","4226","1846","&#9752;","elianto","#f73b6a7A"," ","-1","0","-10","[]","0","1","","","4226","20","3","3","lose","go","0"
"pit-instructions","144","1033578","0.0-24.0","battery-v0.2","","""event"",""trial"",""time""
""fullscreenenter"",""1"",""20381""
","
","
","""event"",""trial"",""time""
""fullscreenenter"",""1"",""20381""
","
","","[{""page_index"":0,""viewing_time"":5553.5},{""page_index"":1,""viewing_time"":9359.09999999404}]","14912.800000011921","","","","","","","","","","","","","","","","","","","","","","","",""
"pit-trial","145","1038437","0.0-25.0","battery-v0.2","","""event"",""trial"",""time""
""fullscreenenter"",""1"",""20381""
","
","
","""event"",""trial"",""time""
""fullscreenenter"",""1"",""20381""
","
","","","-1","","","13","4226","1846","t","elianto","#f73b6a7A","-1","-1","1","0","[]","0","2","","","4226","21","2","4","lose","no-go","0"
"pit-trial","146","1043296","0.0-26.0","battery-v0.2","","""event"",""trial"",""time""
""fullscreenenter"",""1"",""20381""
","
","
","""event"",""trial"",""time""
""fullscreenenter"",""1"",""20381""
","
","","","-1","","","13","4226","1846","n","elianto","#f73b6a7A","-1","-1","1","0","[]","0","2","","","4226","22","0","4","lose","no-go","0"
"pit-trial","147","1047791","0.0-27.0","battery-v0.2","","""event"",""trial"",""time""
""fullscreenenter"",""1"",""20381""
","
","
","""event"",""trial"",""time""
""fullscreenenter"",""1"",""20381""
","
","","","1639.199999988079","","","13","4226","1846","f","elianto","#3366ff99"," "," ","1","+10","[2490.4000000059605]","1","2","","","4226","23","1","1","win","go","0"
"pit-trial","148","1052654","0.0-28.0","battery-v0.2","","""event"",""trial"",""time""
""fullscreenenter"",""1"",""20381""
","
","
","""event"",""trial"",""time""
""fullscreenenter"",""1"",""20381""
","
","","","-1","","","13","4226","1846","b","elianto","#f73b6a7A"," ","-1","0","0","[]","0","2","","","4226","24","3","3","lose","go","1"
"pit-trial","149","1057513","0.0-29.0","battery-v0.2","","""event"",""trial"",""time""
""fullscreenenter"",""1"",""20381""
","
","
","""event"",""trial"",""time""
""fullscreenenter"",""1"",""20381""
","
","","","-1","","","13","4226","1846","b","elianto","#f73b6a7A"," ","-1","0","0","[]","0","2","","","4226","25","3","3","lose","go","1"
"pit-trial","150","1062372","0.0-30.0","battery-v0.2","","""event"",""trial"",""time""
""fullscreenenter"",""1"",""20381""
","
","
","""event"",""trial"",""time""
""fullscreenenter"",""1"",""20381""
","
","","","-1","","","13","4226","1846","n","elianto","#f73b6a7A","-1","-1","1","0","[]","0","2","","","4226","26","0","4","lose","no-go","0"
"pit-trial","151","1067232","0.0-31.0","battery-v0.2","","""event"",""trial"",""time""
""fullscreenenter"",""1"",""20381""
","
","
","""event"",""trial"",""time""
""fullscreenenter"",""1"",""20381""
","
","","","-1","","","13","4226","1846","t","elianto","#f73b6a7A","-1","-1","1","-10","[]","0","2","","","4226","27","2","4","lose","no-go","1"
"pit-trial","152","1070944","0.0-32.0","battery-v0.2","","""event"",""trial"",""time""
""fullscreenenter"",""1"",""20381""
","
","
","""event"",""trial"",""time""
""fullscreenenter"",""1"",""20381""
","
","","","850.5","","","13","4226","1846","f","elianto","#3366ff99"," "," ","1","+10","[1701]","1","2","","","4226","28","1","1","win","go","0"
"pit-trial","153","1075807","0.0-33.0","battery-v0.2","","""event"",""trial"",""time""
""fullscreenenter"",""1"",""20381""
","
","
","""event"",""trial"",""time""
""fullscreenenter"",""1"",""20381""
","
","","","-1","","","13","4226","1846","b","elianto","#f73b6a7A"," ","-1","0","-10","[]","0","2","","","4226","29","3","3","lose","go","0"
"pit-trial","154","1080666","0.0-34.0","battery-v0.2","","""event"",""trial"",""time""
""fullscreenenter"",""1"",""20381""
","
","
","""event"",""trial"",""time""
""fullscreenenter"",""1"",""20381""
","
","","","-1","","","13","4226","1846","n","elianto","#f73b6a7A","-1","-1","1","0","[]","0","2","","","4226","30","0","4","lose","no-go","0"
"pit-trial","155","1085524","0.0-35.0","battery-v0.2","","""event"",""trial"",""time""
""fullscreenenter"",""1"",""20381""
","
","
","""event"",""trial"",""time""
""fullscreenenter"",""1"",""20381""
","
","","","-1","","","13","4226","1846","t","elianto","#f73b6a7A","-1","-1","1","0","[]","0","2","","","4226","31","2","4","lose","no-go","0"
"pit-trial","156","1089338","0.0-36.0","battery-v0.2","","""event"",""trial"",""time""
""fullscreenenter"",""1"",""20381""
","
","
","""event"",""trial"",""time""
""fullscreenenter"",""1"",""20381""
","
","","","958.2000000178814","","","13","4226","1846","f","elianto","#3366ff99"," "," ","1","+10","[1808.5]","1","2","","","4226","32","1","1","win","go","0"
"pit-trial","157","1094197","0.0-37.0","battery-v0.2","","""event"",""trial"",""time""
""fullscreenenter"",""1"",""20381""
","
","
","""event"",""trial"",""time""
""fullscreenenter"",""1"",""20381""
","
","","","-1","","","13","4226","1846","n","elianto","#f73b6a7A","-1","-1","1","0","[]","0","2","","","4226","33","0","4","lose","no-go","0"
"pit-trial","158","1099056","0.0-38.0","battery-v0.2","","""event"",""trial"",""time""
""fullscreenenter"",""1"",""20381""
","
","
","""event"",""trial"",""time""
""fullscreenenter"",""1"",""20381""
","
","","","-1","","","13","4226","1846","b","elianto","#f73b6a7A"," ","-1","0","-10","[]","0","2","","","4226","34","3","3","lose","go","0"
"pit-trial","159","1103915","0.0-39.0","battery-v0.2","","""event"",""trial"",""time""
""fullscreenenter"",""1"",""20381""
","
","
","""event"",""trial"",""time""
""fullscreenenter"",""1"",""20381""
","
","","","-1","","","13","4226","1846","t","elianto","#f73b6a7A","-1","-1","1","0","[]","0","2","","","4226","35","2","4","lose","no-go","0"
"pit-trial","160","1107647","0.0-40.0","battery-v0.2","","""event"",""trial"",""time""
""fullscreenenter"",""1"",""20381""
","
","
","""event"",""trial"",""time""
""fullscreenenter"",""1"",""20381""
","
","","","869.9000000059605","","","13","4226","1846","f","elianto","#3366ff99"," "," ","1","+10","[1720.800000011921]","1","2","","","4226","36","1","1","win","go","0"
"pit-trial","161","1112507","0.0-41.0","battery-v0.2","","""event"",""trial"",""time""
""fullscreenenter"",""1"",""20381""
","
","
","""event"",""trial"",""time""
""fullscreenenter"",""1"",""20381""
","
","","","-1","","","13","4226","1846","b","elianto","#f73b6a7A"," ","-1","0","-10","[]","0","2","","","4226","37","3","3","lose","go","0"
"pit-trial","162","1117366","0.0-42.0","battery-v0.2","","""event"",""trial"",""time""
""fullscreenenter"",""1"",""20381""
","
","
","""event"",""trial"",""time""
""fullscreenenter"",""1"",""20381""
","
","","","-1","","","13","4226","1846","t","elianto","#f73b6a7A","-1","-1","1","0","[]","0","2","","","4226","38","2","4","lose","no-go","0"
"pit-trial","163","1122225","0.0-43.0","battery-v0.2","","""event"",""trial"",""time""
""fullscreenenter"",""1"",""20381""
","
","
","""event"",""trial"",""time""
""fullscreenenter"",""1"",""20381""
","
","","","-1","","","13","4226","1846","n","elianto","#f73b6a7A","-1","-1","1","0","[]","0","2","","","4226","39","0","4","lose","no-go","0"
"pit-trial","164","1125748","0.0-44.0","battery-v0.2","","""event"",""trial"",""time""
""fullscreenenter"",""1"",""20381""
","
","
","""event"",""trial"",""time""
""fullscreenenter"",""1"",""20381""
","
","","","663","","","13","4226","1846","f","elianto","#3366ff99"," "," ","1","+10","[1514.300000011921]","1","2","","","4226","40","1","1","win","go","0"
"pit-trial","165","1129313","0.0-45.0","battery-v0.2","","""event"",""trial"",""time""
""fullscreenenter"",""1"",""20381""
","
","
","""event"",""trial"",""time""
""fullscreenenter"",""1"",""20381""
","
","","","706.2999999821186","","","13","4226","1846","f","elianto","#3366ff99"," "," ","1","+10","[1558]","1","2","","","4226","41","1","1","win","go","0"
"pit-trial","166","1134172","0.0-46.0","battery-v0.2","","""event"",""trial"",""time""
""fullscreenenter"",""1"",""20381""
","
","
","""event"",""trial"",""time""
""fullscreenenter"",""1"",""20381""
","
","","","-1","","","13","4226","1846","t","elianto","#f73b6a7A","-1","-1","1","0","[]","0","2","","","4226","42","2","4","lose","no-go","0"
"pit-trial","167","1139031","0.0-47.0","battery-v0.2","","""event"",""trial"",""time""
""fullscreenenter"",""1"",""20381""
","
","
","""event"",""trial"",""time""
""fullscreenenter"",""1"",""20381""
","
","","","-1","","","13","4226","1846","b","elianto","#f73b6a7A"," ","-1","0","0","[]","0","2","","","4226","43","3","3","lose","go","1"
"pit-trial","168","1143889","0.0-48.0","battery-v0.2","","""event"",""trial"",""time""
""fullscreenenter"",""1"",""20381""
","
","
","""event"",""trial"",""time""
""fullscreenenter"",""1"",""20381""
","
","","","-1","","","13","4226","1846","n","elianto","#f73b6a7A","-1","-1","1","-10","[]","0","2","","","4226","44","0","4","lose","no-go","1"
"pit-trial","169","1148748","0.0-49.0","battery-v0.2","","""event"",""trial"",""time""
""fullscreenenter"",""1"",""20381""
","
","
","""event"",""trial"",""time""
""fullscreenenter"",""1"",""20381""
","
","","","-1","","","13","4226","1846","t","elianto","#f73b6a7A","-1","-1","1","0","[]","0","2","","","4226","45","2","4","lose","no-go","0"
"pit-trial","170","1152203","0.0-50.0","battery-v0.2","","""event"",""trial"",""time""
""fullscreenenter"",""1"",""20381""
","
","
","""event"",""trial"",""time""
""fullscreenenter"",""1"",""20381""
","
","","","594.5","","","13","4226","1846","c","elianto","#3366ff99","-1"," ","0","0","[1445.6000000238419]","1","2","","","4226","46","4","2","win","no-go","0"
"pit-trial","171","1157067","0.0-51.0","battery-v0.2","","""event"",""trial"",""time""
""fullscreenenter"",""1"",""20381""
","
","
","""event"",""trial"",""time""
""fullscreenenter"",""1"",""20381""
","
","","","-1","","","13","4226","1846","n","elianto","#f73b6a7A","-1","-1","1","0","[]","0","2","","","4226","47","0","4","lose","no-go","0"
"pit-trial","172","1161926","0.0-52.0","battery-v0.2","","""event"",""trial"",""time""
""fullscreenenter"",""1"",""20381""
","
","
","""event"",""trial"",""time""
""fullscreenenter"",""1"",""20381""
","
","","","-1","","","13","4226","1846","b","elianto","#f73b6a7A"," ","-1","0","-10","[]","0","2","","","4226","48","3","3","lose","go","0"
"pit-trial","173","1165642","0.0-53.0","battery-v0.2","","""event"",""trial"",""time""
""fullscreenenter"",""1"",""20381""
","
","
","""event"",""trial"",""time""
""fullscreenenter"",""1"",""20381""
","
","","","856","","","13","4226","1846","c","elianto","#3366ff99","-1"," ","0","0","[1706.5]","1","2","","","4226","49","4","2","win","no-go","0"
"pit-trial","174","1169259","0.0-54.0","battery-v0.2","","""event"",""trial"",""time""
""fullscreenenter"",""1"",""20381""
","
","
","""event"",""trial"",""time""
""fullscreenenter"",""1"",""20381""
","
","","","755.8000000119209","","","13","4226","1846","f","elianto","#3366ff99"," "," ","1","0","[1606.2000000178814]","1","2","","","4226","50","1","1","win","go","1"
"pit-trial","175","1174123","0.0-55.0","battery-v0.2","","""event"",""trial"",""time""
""fullscreenenter"",""1"",""20381""
","
","
","""event"",""trial"",""time""
""fullscreenenter"",""1"",""20381""
","
","","","-1","","","13","4226","1846","b","elianto","#f73b6a7A"," ","-1","0","-10","[]","0","2","","","4226","51","3","3","lose","go","0"
"pit-trial","176","1178982","0.0-56.0","battery-v0.2","","""event"",""trial"",""time""
""fullscreenenter"",""1"",""20381""
","
","
","""event"",""trial"",""time""
""fullscreenenter"",""1"",""20381""
","
","","","-1","","","13","4226","1846","n","elianto","#f73b6a7A","-1","-1","1","0","[]","0","2","","","4226","52","0","4","lose","no-go","0"
"pit-trial","177","1183841","0.0-57.0","battery-v0.2","","""event"",""trial"",""time""
""fullscreenenter"",""1"",""20381""
","
","
","""event"",""trial"",""time""
""fullscreenenter"",""1"",""20381""
","
","","","-1","","","13","4226","1846","n","elianto","#f73b6a7A","-1","-1","1","0","[]","0","2","","","4226","53","0","4","lose","no-go","0"
"pit-trial","178","1187359","0.0-58.0","battery-v0.2","","""event"",""trial"",""time""
""fullscreenenter"",""1"",""20381""
","
","
","""event"",""trial"",""time""
""fullscreenenter"",""1"",""20381""
","
","","","658.0999999940395","","","13","4226","1846","c","elianto","#3366ff99","-1"," ","0","0","[1508.5999999940395]","1","2","","","4226","54","4","2","win","no-go","0"
"pit-trial","179","1190804","0.0-59.0","battery-v0.2","","""event"",""trial"",""time""
""fullscreenenter"",""1"",""20381""
","
","
","""event"",""trial"",""time""
""fullscreenenter"",""1"",""20381""
","
","","","586.5999999940395","","","13","4226","1846","f","elianto","#3366ff99"," "," ","1","+10","[1436.699999988079]","1","2","","","4226","55","1","1","win","go","0"
"pit-trial","180","1195666","0.0-60.0","battery-v0.2","","""event"",""trial"",""time""
""fullscreenenter"",""1"",""20381""
","
","
","""event"",""trial"",""time""
""fullscreenenter"",""1"",""20381""
","
","","","-1","","","13","4226","1846","t","elianto","#f73b6a7A","-1","-1","1","0","[]","0","2","","","4226","56","2","4","lose","no-go","0"
"pit-trial","181","1200525","0.0-61.0","battery-v0.2","","""event"",""trial"",""time""
""fullscreenenter"",""1"",""20381""
","
","
","""event"",""trial"",""time""
""fullscreenenter"",""1"",""20381""
","
","","","-1","","","13","4226","1846","n","elianto","#f73b6a7A","-1","-1","1","0","[]","0","2","","","4226","57","0","4","lose","no-go","0"
"pit-trial","182","1204194","0.0-62.0","battery-v0.2","","""event"",""trial"",""time""
""fullscreenenter"",""1"",""20381""
","
","
","""event"",""trial"",""time""
""fullscreenenter"",""1"",""20381""
","
","","","806.8999999761581","","","13","4226","1846","f","elianto","#3366ff99"," "," ","1","+10","[1658]","1","2","","","4226","58","1","1","win","go","0"
"pit-trial","183","1207926","0.0-63.0","battery-v0.2","","""event"",""trial"",""time""
""fullscreenenter"",""1"",""20381""
","
","
","""event"",""trial"",""time""
""fullscreenenter"",""1"",""20381""
","
","","","872.0999999940395","","","13","4226","1846","c","elianto","#3366ff99","-1"," ","0","0","[1722.199999988079]","1","2","","","4226","59","4","2","win","no-go","0"
"pit-trial","184","1212785","0.0-64.0","battery-v0.2","","""event"",""trial"",""time""
""fullscreenenter"",""1"",""20381""
","
","
","""event"",""trial"",""time""
""fullscreenenter"",""1"",""20381""
","
","","","-1","","","13","4226","1846","b","elianto","#f73b6a7A"," ","-1","0","-10","[]","0","2","","","4226","60","3","3","lose","go","0"
"pit-trial","185","1216390","0.0-65.0","battery-v0.2","","""event"",""trial"",""time""
""fullscreenenter"",""1"",""20381""
","
","
","""event"",""trial"",""time""
""fullscreenenter"",""1"",""20381""
","
","","","743.2000000178814","","","13","4226","1846","f","elianto","#3366ff99"," "," ","1","0","[1594.9000000059605]","1","2","","","4226","61","1","1","win","go","1"
"pit-trial","186","1219821","0.0-66.0","battery-v0.2","","""event"",""trial"",""time""
""fullscreenenter"",""1"",""20381""
","
","
","""event"",""trial"",""time""
""fullscreenenter"",""1"",""20381""
","
","","","564.3000000119209","","","13","4226","1846","t","elianto","#f73b6a7A","-1"," ","0","-10","[1419.4000000059605]","1","2","","","4226","62","2","4","lose","no-go","0"
"pit-trial","187","1224685","0.0-67.0","battery-v0.2","","""event"",""trial"",""time""
""fullscreenenter"",""1"",""20381""
","
","
","""event"",""trial"",""time""
""fullscreenenter"",""1"",""20381""
","
","","","-1","","","13","4226","1846","b","elianto","#f73b6a7A"," ","-1","0","-10","[]","0","2","","","4226","63","3","3","lose","go","0"
"pit-trial","188","1228616","0.0-68.0","battery-v0.2","","""event"",""trial"",""time""
""fullscreenenter"",""1"",""20381""
","
","
","""event"",""trial"",""time""
""fullscreenenter"",""1"",""20381""
","
","","","1070.4000000059605","","","13","4226","1846","c","elianto","#3366ff99","-1"," ","0","0","[1922.2000000178814]","1","2","","","4226","64","4","2","win","no-go","0"
"pit-trial","189","1233475","0.0-69.0","battery-v0.2","","""event"",""trial"",""time""
""fullscreenenter"",""1"",""20381""
","
","
","""event"",""trial"",""time""
""fullscreenenter"",""1"",""20381""
","
","","","-1","","","13","4226","1846","t","elianto","#f73b6a7A","-1","-1","1","-10","[]","0","2","","","4226","65","2","4","lose","no-go","1"
"pit-trial","190","1237132","0.0-70.0","battery-v0.2","","""event"",""trial"",""time""
""fullscreenenter"",""1"",""20381""
","
","
","""event"",""trial"",""time""
""fullscreenenter"",""1"",""20381""
","
","","","793.3000000119209","","","13","4226","1846","f","elianto","#3366ff99"," "," ","1","+10","[1645.7000000178814]","1","2","","","4226","66","1","1","win","go","0"
"pit-trial","191","1240784","0.0-71.0","battery-v0.2","","""event"",""trial"",""time""
""fullscreenenter"",""1"",""20381""
","
","
","""event"",""trial"",""time""
""fullscreenenter"",""1"",""20381""
","
","","","790.7999999821186","","","13","4226","1846","c","elianto","#3366ff99","-1"," ","0","0","[1640.8999999761581]","1","2","","","4226","67","4","2","win","no-go","0"
"pit-trial","192","1245642","0.0-72.0","battery-v0.2","","""event"",""trial"",""time""
""fullscreenenter"",""1"",""20381""
","
","
","""event"",""trial"",""time""
""fullscreenenter"",""1"",""20381""
","
","","","-1","","","13","4226","1846","b","elianto","#f73b6a7A"," ","-1","0","0","[]","0","2","","","4226","68","3","3","lose","go","1"
"pit-trial","193","1250501","0.0-73.0","battery-v0.2","","""event"",""trial"",""time""
""fullscreenenter"",""1"",""20381""
","
","
","""event"",""trial"",""time""
""fullscreenenter"",""1"",""20381""
","
","","","-1","","","13","4226","1846","b","elianto","#f73b6a7A"," ","-1","0","-10","[]","0","2","","","4226","69","3","3","lose","go","0"
"pit-trial","194","1254089","0.0-74.0","battery-v0.2","","""event"",""trial"",""time""
""fullscreenenter"",""1"",""20381""
","
","
","""event"",""trial"",""time""
""fullscreenenter"",""1"",""20381""
","
","","","731.6999999880791","","","13","4226","1846","z","elianto","#3366ff99"," "," ","1","+10","[1581.9000000059605]","1","2","","","4226","70","5","1","win","go","0"
"pit-trial","195","1258019","0.0-75.0","battery-v0.2","","""event"",""trial"",""time""
""fullscreenenter"",""1"",""20381""
","
","
","""event"",""trial"",""time""
""fullscreenenter"",""1"",""20381""
","
","","","1068.0999999940395","","","13","4226","1846","c","elianto","#3366ff99","-1"," ","0","+10","[1920.0999999940395]","1","2","","","4226","71","4","2","win","no-go","1"
"pit-trial","196","1262123","0.0-76.0","battery-v0.2","","""event"",""trial"",""time""
""fullscreenenter"",""1"",""20381""
","
","
","""event"",""trial"",""time""
""fullscreenenter"",""1"",""20381""
","
","","","1246.2000000178814","","","13","4226","1846","f","elianto","#3366ff99"," "," ","1","0","[2097.2000000178814]","1","2","","","4226","72","1","1","win","go","1"
"pit-trial","197","1265881","0.0-77.0","battery-v0.2","","""event"",""trial"",""time""
""fullscreenenter"",""1"",""20381""
","
","
","""event"",""trial"",""time""
""fullscreenenter"",""1"",""20381""
","
","","","897.9000000059605","","","13","4226","1846","f","elianto","#3366ff99"," "," ","1","+10","[1750.0999999940395]","1","2","","","4226","73","1","1","win","go","0"
"pit-trial","198","1269496","0.0-78.0","battery-v0.2","","""event"",""trial"",""time""
""fullscreenenter"",""1"",""20381""
","
","
","""event"",""trial"",""time""
""fullscreenenter"",""1"",""20381""
","
","","","755.8000000119209","","","13","4226","1846","z","elianto","#3366ff99"," "," ","1","+10","[1606.1000000238419]","1","2","","","4226","74","5","1","win","go","0"
"pit-trial","199","1274355","0.0-79.0","battery-v0.2","","""event"",""trial"",""time""
""fullscreenenter"",""1"",""20381""
","
","
","""event"",""trial"",""time""
""fullscreenenter"",""1"",""20381""
","
","","","-1","","","13","4226","1846","b","elianto","#f73b6a7A"," ","-1","0","-10","[]","0","2","","","4226","75","3","3","lose","go","0"
"pit-trial","200","1277884","0.0-80.0","battery-v0.2","","""event"",""trial"",""time""
""fullscreenenter"",""1"",""20381""
","
","
","""event"",""trial"",""time""
""fullscreenenter"",""1"",""20381""
","
","","","672.0999999940395","","","13","4226","1846","c","elianto","#3366ff99","-1"," ","0","0","[1523.7000000178814]","1","2","","","4226","76","4","2","win","no-go","0"
"pit-trial","201","1282749","0.0-81.0","battery-v0.2","","""event"",""trial"",""time""
""fullscreenenter"",""1"",""20381""
","
","
","""event"",""trial"",""time""
""fullscreenenter"",""1"",""20381""
","
","","","-1","","","13","4226","1846","h","elianto","#f73b6a7A","-1","-1","1","0","[]","0","2","","","4226","77","6","4","lose","no-go","0"
"pit-trial","202","1287608","0.0-82.0","battery-v0.2","","""event"",""trial"",""time""
""fullscreenenter"",""1"",""20381""
","
","
","""event"",""trial"",""time""
""fullscreenenter"",""1"",""20381""
","
","","","-1","","","13","4226","1846","b","elianto","#f73b6a7A"," ","-1","0","-10","[]","0","2","","","4226","78","3","3","lose","go","0"
"pit-trial","203","1291079","0.0-83.0","battery-v0.2","","""event"",""trial"",""time""
""fullscreenenter"",""1"",""20381""
","
","
","""event"",""trial"",""time""
""fullscreenenter"",""1"",""20381""
","
","","","609","","","13","4226","1846","c","elianto","#3366ff99","-1"," ","0","0","[1460.5999999940395]","1","2","","","4226","79","4","2","win","no-go","0"
"pit-trial","204","1294911","0.0-84.0","battery-v0.2","","""event"",""trial"",""time""
""fullscreenenter"",""1"",""20381""
","
","
","""event"",""trial"",""time""
""fullscreenenter"",""1"",""20381""
","
","","","967","","","13","4226","1846","z","elianto","#3366ff99"," "," ","1","+10","[1822]","1","2","","","4226","80","5","1","win","go","0"
"pit-trial","205","1299032","0.0-85.0","battery-v0.2","","""event"",""trial"",""time""
""fullscreenenter"",""1"",""20381""
","
","
","""event"",""trial"",""time""
""fullscreenenter"",""1"",""20381""
","
","","","1258.9000000059605","","","13","4226","1846","z","elianto","#3366ff99"," "," ","1","+10","[2110.9000000059605]","1","2","","","4226","81","5","1","win","go","0"
"pit-trial","206","1303897","0.0-86.0","battery-v0.2","","""event"",""trial"",""time""
""fullscreenenter"",""1"",""20381""
","
","
","""event"",""trial"",""time""
""fullscreenenter"",""1"",""20381""
","
","","","-1","","","13","4226","1846","h","elianto","#f73b6a7A","-1","-1","1","0","[]","0","2","","","4226","82","6","4","lose","no-go","0"
"pit-trial","207","1307328","0.0-87.0","battery-v0.2","","""event"",""trial"",""time""
""fullscreenenter"",""1"",""20381""
","
","
","""event"",""trial"",""time""
""fullscreenenter"",""1"",""20381""
","
","","","572.4000000059605","","","13","4226","1846","c","elianto","#3366ff99","-1"," ","0","0","[1423.4000000059605]","1","2","","","4226","83","4","2","win","no-go","0"
"pit-trial","208","1312187","0.0-88.0","battery-v0.2","","""event"",""trial"",""time""
""fullscreenenter"",""1"",""20381""
","
","
","""event"",""trial"",""time""
""fullscreenenter"",""1"",""20381""
","
","","","-1","","","13","4226","1846","y","elianto","#f73b6a7A"," ","-1","0","-10","[]","0","2","","","4226","84","7","3","lose","go","0"
"pit-trial","209","1317045","0.0-89.0","battery-v0.2","","""event"",""trial"",""time""
""fullscreenenter"",""1"",""20381""
","
","
","""event"",""trial"",""time""
""fullscreenenter"",""1"",""20381""
","
","","","-1","","","13","4226","1846","y","elianto","#f73b6a7A"," ","-1","0","-10","[]","0","2","","","4226","85","7","3","lose","go","0"
"pit-trial","210","1321905","0.0-90.0","battery-v0.2","","""event"",""trial"",""time""
""fullscreenenter"",""1"",""20381""
","
","
","""event"",""trial"",""time""
""fullscreenenter"",""1"",""20381""
","
","","","-1","","","13","4226","1846","c","elianto","#3366ff99","-1","-1","1","+10","[]","0","2","","","4226","86","4","2","win","no-go","0"
"pit-trial","211","1326764","0.0-91.0","battery-v0.2","","""event"",""trial"",""time""
""fullscreenenter"",""1"",""20381""
","
","
","""event"",""trial"",""time""
""fullscreenenter"",""1"",""20381""
","
","","","-1","","","13","4226","1846","h","elianto","#f73b6a7A","-1","-1","1","0","[]","0","2","","","4226","87","6","4","lose","no-go","0"
"pit-trial","212","1330386","0.0-92.0","battery-v0.2","","""event"",""trial"",""time""
""fullscreenenter"",""1"",""20381""
","
","
","""event"",""trial"",""time""
""fullscreenenter"",""1"",""20381""
","
","","","760.9000000059605","","","13","4226","1846","z","elianto","#3366ff99"," "," ","1","+10","[1613.199999988079]","1","2","","","4226","88","5","1","win","go","0"
"pit-trial","213","1333968","0.0-93.0","battery-v0.2","","""event"",""trial"",""time""
""fullscreenenter"",""1"",""20381""
","
","
","""event"",""trial"",""time""
""fullscreenenter"",""1"",""20381""
","
","","","719.7000000178814","","","13","4226","1846","c","elianto","#3366ff99","-1"," ","0","0","[1572.0999999940395]","1","2","","","4226","89","4","2","win","no-go","0"
"pit-trial","214","1338827","0.0-94.0","battery-v0.2","","""event"",""trial"",""time""
""fullscreenenter"",""1"",""20381""
","
","
","""event"",""trial"",""time""
""fullscreenenter"",""1"",""20381""
","
","","","-1","","","13","4226","1846","y","elianto","#f73b6a7A"," ","-1","0","-10","[]","0","2","","","4226","90","7","3","lose","go","0"
"pit-trial","215","1342763","0.0-95.0","battery-v0.2","","""event"",""trial"",""time""
""fullscreenenter"",""1"",""20381""
","
","
","""event"",""trial"",""time""
""fullscreenenter"",""1"",""20381""
","
","","","1077.199999988079","","","13","4226","1846","z","elianto","#3366ff99"," "," ","1","+10","[1927.9000000059605]","1","2","","","4226","91","5","1","win","go","0"
"pit-trial","216","1347621","0.0-96.0","battery-v0.2","","""event"",""trial"",""time""
""fullscreenenter"",""1"",""20381""
","
","
","""event"",""trial"",""time""
""fullscreenenter"",""1"",""20381""
","
","","","-1","","","13","4226","1846","h","elianto","#f73b6a7A","-1","-1","1","0","[]","0","2","","","4226","92","6","4","lose","no-go","0"
"pit-trial","217","1352481","0.0-97.0","battery-v0.2","","""event"",""trial"",""time""
""fullscreenenter"",""1"",""20381""
","
","
","""event"",""trial"",""time""
""fullscreenenter"",""1"",""20381""
","
","","","-1","","","13","4226","1846","y","elianto","#f73b6a7A"," ","-1","0","-10","[]","0","2","","","4226","93","7","3","lose","go","0"
"pit-trial","218","1356289","0.0-98.0","battery-v0.2","","""event"",""trial"",""time""
""fullscreenenter"",""1"",""20381""
","
","
","""event"",""trial"",""time""
""fullscreenenter"",""1"",""20381""
","
","","","946.2000000178814","","","13","4226","1846","r","elianto","#3366ff99","-1"," ","0","0","[1798.6000000238419]","1","2","","","4226","94","8","2","win","no-go","0"
"pit-trial","219","1361148","0.0-99.0","battery-v0.2","","""event"",""trial"",""time""
""fullscreenenter"",""1"",""20381""
","
","
","""event"",""trial"",""time""
""fullscreenenter"",""1"",""20381""
","
","","","-1","","","13","4226","1846","h","elianto","#f73b6a7A","-1","-1","1","0","[]","0","2","","","4226","95","6","4","lose","no-go","0"
"pit-trial","220","1364868","0.0-100.0","battery-v0.2","","""event"",""trial"",""time""
""fullscreenenter"",""1"",""20381""
","
","
","""event"",""trial"",""time""
""fullscreenenter"",""1"",""20381""
","
","","","858.0999999940395","","","13","4226","1846","z","elianto","#3366ff99"," "," ","1","+10","[1709.5999999940395]","1","2","","","4226","96","5","1","win","go","0"
"pit-trial","221","1368654","0.0-101.0","battery-v0.2","","""event"",""trial"",""time""
""fullscreenenter"",""1"",""20381""
","
","
","""event"",""trial"",""time""
""fullscreenenter"",""1"",""20381""
","
","","","923.5999999940395","","","13","4226","1846","r","elianto","#3366ff99","-1"," ","0","0","[1774.699999988079]","1","2","","","4226","97","8","2","win","no-go","0"
"pit-trial","222","1373515","0.0-102.0","battery-v0.2","","""event"",""trial"",""time""
""fullscreenenter"",""1"",""20381""
","
","
","""event"",""trial"",""time""
""fullscreenenter"",""1"",""20381""
","
","","","-1","","","13","4226","1846","h","elianto","#f73b6a7A","-1","-1","1","0","[]","0","2","","","4226","98","6","4","lose","no-go","0"
"pit-trial","223","1377234","0.0-103.0","battery-v0.2","","""event"",""trial"",""time""
""fullscreenenter"",""1"",""20381""
","
","
","""event"",""trial"",""time""
""fullscreenenter"",""1"",""20381""
","
","","","861","","","13","4226","1846","z","elianto","#3366ff99"," "," ","1","+10","[1711.800000011921]","1","2","","","4226","99","5","1","win","go","0"
"pit-trial","224","1382093","0.0-104.0","battery-v0.2","","""event"",""trial"",""time""
""fullscreenenter"",""1"",""20381""
","
","
","""event"",""trial"",""time""
""fullscreenenter"",""1"",""20381""
","
","","","-1","","","13","4226","1846","y","elianto","#f73b6a7A"," ","-1","0","-10","[]","0","2","","","4226","100","7","3","lose","go","0"
"pit-trial","225","1385152","0.0-105.0","battery-v0.2","","""event"",""trial"",""time""
""fullscreenenter"",""1"",""20381""
","
","
","""event"",""trial"",""time""
""fullscreenenter"",""1"",""20381""
","
","","","201.90000000596046","","","13","4226","1846","z","elianto","#3366ff99"," "," ","1","0","[1052.4000000059605]","1","2","","","4226","101","5","1","win","go","1"
"pit-trial","226","1389041","0.0-106.0","battery-v0.2","","""event"",""trial"",""time""
""fullscreenenter"",""1"",""20381""
","
","
","""event"",""trial"",""time""
""fullscreenenter"",""1"",""20381""
","
","","","1026.9000000059605","","","13","4226","1846","r","elianto","#3366ff99","-1"," ","0","0","[1879.699999988079]","1","2","","","4226","102","8","2","win","no-go","0"
"pit-trial","227","1392796","0.0-107.0","battery-v0.2","","""event"",""trial"",""time""
""fullscreenenter"",""1"",""20381""
","
","
","""event"",""trial"",""time""
""fullscreenenter"",""1"",""20381""
","
","","","890.5","","","13","4226","1846","m","elianto","#3366ff99","-1"," ","0","0","[1744.199999988079]","1","2","","","4226","103","9","2","win","no-go","0"
"pit-trial","228","1397656","0.0-108.0","battery-v0.2","","""event"",""trial"",""time""
""fullscreenenter"",""1"",""20381""
","
","
","""event"",""trial"",""time""
""fullscreenenter"",""1"",""20381""
","
","","","-1","","","13","4226","1846","h","elianto","#f73b6a7A","-1","-1","1","0","[]","0","2","","","4226","104","6","4","lose","no-go","0"
"pit-trial","229","1401470","0.0-109.0","battery-v0.2","","""event"",""trial"",""time""
""fullscreenenter"",""1"",""20381""
","
","
","""event"",""trial"",""time""
""fullscreenenter"",""1"",""20381""
","
","","","951.6999999880791","","","13","4226","1846","m","elianto","#3366ff99","-1"," ","0","0","[1803.2999999821186]","1","2","","","4226","105","9","2","win","no-go","0"
"pit-trial","230","1405348","0.0-110.0","battery-v0.2","","""event"",""trial"",""time""
""fullscreenenter"",""1"",""20381""
","
","
","""event"",""trial"",""time""
""fullscreenenter"",""1"",""20381""
","
","","","1021.1000000238419","","","13","4226","1846","r","elianto","#3366ff99","-1"," ","0","0","[1871.6000000238419]","1","2","","","4226","106","8","2","win","no-go","0"
"pit-trial","231","1410208","0.0-111.0","battery-v0.2","","""event"",""trial"",""time""
""fullscreenenter"",""1"",""20381""
","
","
","""event"",""trial"",""time""
""fullscreenenter"",""1"",""20381""
","
","","","-1","","","13","4226","1846","h","elianto","#f73b6a7A","-1","-1","1","0","[]","0","2","","","4226","107","6","4","lose","no-go","0"
"pit-trial","232","1413794","0.0-112.0","battery-v0.2","","""event"",""trial"",""time""
""fullscreenenter"",""1"",""20381""
","
","
","""event"",""trial"",""time""
""fullscreenenter"",""1"",""20381""
","
","","","721.1999999880791","","","13","4226","1846","z","elianto","#3366ff99"," "," ","1","+10","[1574.5999999940395]","1","2","","","4226","108","5","1","win","go","0"
"pit-trial","233","1417272","0.0-113.0","battery-v0.2","","""event"",""trial"",""time""
""fullscreenenter"",""1"",""20381""
","
","
","""event"",""trial"",""time""
""fullscreenenter"",""1"",""20381""
","
","","","619.6999999880791","","","13","4226","1846","z","elianto","#3366ff99"," "," ","1","+10","[1471.5]","1","2","","","4226","109","5","1","win","go","0"
"pit-trial","234","1422131","0.0-114.0","battery-v0.2","","""event"",""trial"",""time""
""fullscreenenter"",""1"",""20381""
","
","
","""event"",""trial"",""time""
""fullscreenenter"",""1"",""20381""
","
","","","-1","","","13","4226","1846","m","elianto","#3366ff99","-1","-1","1","0","[]","0","2","","","4226","110","9","2","win","no-go","1"
"pit-trial","235","1426990","0.0-115.0","battery-v0.2","","""event"",""trial"",""time""
""fullscreenenter"",""1"",""20381""
","
","
","""event"",""trial"",""time""
""fullscreenenter"",""1"",""20381""
","
","","","-1","","","13","4226","1846","h","elianto","#f73b6a7A","-1","-1","1","0","[]","0","2","","","4226","111","6","4","lose","no-go","0"
"pit-trial","236","1431146","0.0-116.0","battery-v0.2","","""event"",""trial"",""time""
""fullscreenenter"",""1"",""20381""
","
","
","""event"",""trial"",""time""
""fullscreenenter"",""1"",""20381""
","
","","","1296","","","13","4226","1846","r","elianto","#3366ff99","-1"," ","0","0","[2148.800000011921]","1","2","","","4226","112","8","2","win","no-go","0"
"pit-trial","237","1436011","0.0-117.0","battery-v0.2","","""event"",""trial"",""time""
""fullscreenenter"",""1"",""20381""
","
","
","""event"",""trial"",""time""
""fullscreenenter"",""1"",""20381""
","
","","","-1","","","13","4226","1846","y","elianto","#f73b6a7A"," ","-1","0","-10","[]","0","2","","","4226","113","7","3","lose","go","0"
"pit-trial","238","1440876","0.0-118.0","battery-v0.2","","""event"",""trial"",""time""
""fullscreenenter"",""1"",""20381""
","
","
","""event"",""trial"",""time""
""fullscreenenter"",""1"",""20381""
","
","","","-1","","","13","4226","1846","r","elianto","#3366ff99","-1","-1","1","+10","[]","0","2","","","4226","114","8","2","win","no-go","0"
"pit-trial","239","1445590","0.0-119.0","battery-v0.2","","""event"",""trial"",""time""
""fullscreenenter"",""1"",""20381""
","
","
","""event"",""trial"",""time""
""fullscreenenter"",""1"",""20381""
","
","","","1851.5","","","13","4226","1846","z","elianto","#3366ff99"," "," ","1","+10","[2703.9000000059605]","1","2","","","4226","115","5","1","win","go","0"
"pit-trial","240","1450449","0.0-120.0","battery-v0.2","","""event"",""trial"",""time""
""fullscreenenter"",""1"",""20381""
","
","
","""event"",""trial"",""time""
""fullscreenenter"",""1"",""20381""
","
","","","-1","","","13","4226","1846","m","elianto","#3366ff99","-1","-1","1","+10","[3694.5999999940395]","1","2","","","4226","116","9","2","win","no-go","0"
"pit-trial","241","1454042","0.0-121.0","battery-v0.2","","""event"",""trial"",""time""
""fullscreenenter"",""1"",""20381""
","
","
","""event"",""trial"",""time""
""fullscreenenter"",""1"",""20381""
","
","","","732.1999999880791","","","13","4226","1846","z","elianto","#3366ff99"," "," ","1","+10","[1584]","1","2","","","4226","117","5","1","win","go","0"
"pit-trial","242","1457641","0.0-122.0","battery-v0.2","","""event"",""trial"",""time""
""fullscreenenter"",""1"",""20381""
","
","
","""event"",""trial"",""time""
""fullscreenenter"",""1"",""20381""
","
","","","736.5","","","13","4226","1846","m","elianto","#3366ff99","-1"," ","0","0","[1588.5999999940395]","1","2","","","4226","118","9","2","win","no-go","0"
"pit-trial","243","1461594","0.0-123.0","battery-v0.2","","""event"",""trial"",""time""
""fullscreenenter"",""1"",""20381""
","
","
","""event"",""trial"",""time""
""fullscreenenter"",""1"",""20381""
","
","","","1091","","","13","4226","1846","r","elianto","#3366ff99","-1"," ","0","0","[1942.199999988079]","1","2","","","4226","119","8","2","win","no-go","0"
"pit-trial","244","1466453","0.0-124.0","battery-v0.2","","""event"",""trial"",""time""
""fullscreenenter"",""1"",""20381""
","
","
","""event"",""trial"",""time""
""fullscreenenter"",""1"",""20381""
","
","","","-1","","","13","4226","1846","h","elianto","#f73b6a7A","-1","-1","1","0","[]","0","2","","","4226","120","6","4","lose","no-go","0"
"pit-trial","245","1470238","0.0-125.0","battery-v0.2","","""event"",""trial"",""time""
""fullscreenenter"",""1"",""20381""
","
","
","""event"",""trial"",""time""
""fullscreenenter"",""1"",""20381""
","
","","","923.7000000178814","","","13","4226","1846","z","elianto","#3366ff99"," "," ","1","0","[1774]","1","2","","","4226","121","5","1","win","go","1"
"pit-trial","246","1475097","0.0-126.0","battery-v0.2","","""event"",""trial"",""time""
""fullscreenenter"",""1"",""20381""
","
","
","""event"",""trial"",""time""
""fullscreenenter"",""1"",""20381""
","
","","","-1","","","13","4226","1846","y","elianto","#f73b6a7A"," ","-1","0","-10","[]","0","2","","","4226","122","7","3","lose","go","0"
"pit-trial","247","1478858","0.0-127.0","battery-v0.2","","""event"",""trial"",""time""
""fullscreenenter"",""1"",""20381""
","
","
","""event"",""trial"",""time""
""fullscreenenter"",""1"",""20381""
","
","","","902.5999999940395","","","13","4226","1846","m","elianto","#3366ff99","-1"," ","0","0","[1754.0999999940395,1842.0999999940395]","2","2","","","4226","123","9","2","win","no-go","0"
"pit-trial","248","1483718","0.0-128.0","battery-v0.2","","""event"",""trial"",""time""
""fullscreenenter"",""1"",""20381""
","
","
","""event"",""trial"",""time""
""fullscreenenter"",""1"",""20381""
","
","","","-1","","","13","4226","1846","r","elianto","#3366ff99","-1","-1","1","0","[]","0","2","","","4226","124","8","2","win","no-go","1"
"pit-trial","249","1488577","0.0-129.0","battery-v0.2","","""event"",""trial"",""time""
""fullscreenenter"",""1"",""20381""
","
","
","""event"",""trial"",""time""
""fullscreenenter"",""1"",""20381""
","
","","","-1","","","13","4226","1846","m","elianto","#3366ff99","-1","-1","1","+10","[3765.5]","1","2","","","4226","125","9","2","win","no-go","0"
"pit-trial","250","1492448","0.0-130.0","battery-v0.2","","""event"",""trial"",""time""
""fullscreenenter"",""1"",""20381""
","
","
","""event"",""trial"",""time""
""fullscreenenter"",""1"",""20381""
","
","","","1011.4000000059605","","","13","4226","1846","r","elianto","#3366ff99","-1"," ","0","0","[1862.1000000238419]","1","2","","","4226","126","8","2","win","no-go","0"
"pit-trial","251","1497309","0.0-131.0","battery-v0.2","","""event"",""trial"",""time""
""fullscreenenter"",""1"",""20381""
","
","
","""event"",""trial"",""time""
""fullscreenenter"",""1"",""20381""
","
","","","-1","","","13","4226","1846","h","elianto","#f73b6a7A","-1","-1","1","-10","[]","0","2","","","4226","127","6","4","lose","no-go","1"
"pit-trial","252","1502173","0.0-132.0","battery-v0.2","","""event"",""trial"",""time""
""fullscreenenter"",""1"",""20381""
","
","
","""event"",""trial"",""time""
""fullscreenenter"",""1"",""20381""
","
","","","-1","","","13","4226","1846","y","elianto","#f73b6a7A"," ","-1","0","-10","[]","0","2","","","4226","128","7","3","lose","go","0"
"pit-trial","253","1507031","0.0-133.0","battery-v0.2","","""event"",""trial"",""time""
""fullscreenenter"",""1"",""20381""
","
","
","""event"",""trial"",""time""
""fullscreenenter"",""1"",""20381""
","
","","","-1","","","13","4226","1846","h","elianto","#f73b6a7A","-1","-1","1","0","[]","0","2","","","4226","129","6","4","lose","no-go","0"
"pit-trial","254","1510714","0.0-134.0","battery-v0.2","","""event"",""trial"",""time""
""fullscreenenter"",""1"",""20381""
","
","
","""event"",""trial"",""time""
""fullscreenenter"",""1"",""20381""
","
","","","819.6999999880791","","","13","4226","1846","r","elianto","#3366ff99","-1"," ","0","0","[1671.7999999821186]","1","2","","","4226","130","8","2","win","no-go","0"
"pit-trial","255","1515577","0.0-135.0","battery-v0.2","","""event"",""trial"",""time""
""fullscreenenter"",""1"",""20381""
","
","
","""event"",""trial"",""time""
""fullscreenenter"",""1"",""20381""
","
","","","-1","","","13","4226","1846","y","elianto","#f73b6a7A"," ","-1","0","-10","[]","0","2","","","4226","131","7","3","lose","go","0"
"pit-trial","256","1519304","0.0-136.0","battery-v0.2","","""event"",""trial"",""time""
""fullscreenenter"",""1"",""20381""
","
","
","""event"",""trial"",""time""
""fullscreenenter"",""1"",""20381""
","
","","","865.5999999940395","","","13","4226","1846","m","elianto","#3366ff99","-1"," ","0","0","[1716.300000011921]","1","2","","","4226","132","9","2","win","no-go","0"
"pit-trial","257","1523164","0.0-137.0","battery-v0.2","","""event"",""trial"",""time""
""fullscreenenter"",""1"",""20381""
","
","
","""event"",""trial"",""time""
""fullscreenenter"",""1"",""20381""
","
","","","1000.6999999880791","","","13","4226","1846","m","elianto","#3366ff99","-1"," ","0","0","[1853.4000000059605]","1","2","","","4226","133","9","2","win","no-go","0"
"pit-trial","258","1528023","0.0-138.0","battery-v0.2","","""event"",""trial"",""time""
""fullscreenenter"",""1"",""20381""
","
","
","""event"",""trial"",""time""
""fullscreenenter"",""1"",""20381""
","
","","","-1","","","13","4226","1846","y","elianto","#f73b6a7A"," ","-1","0","-10","[]","0","2","","","4226","134","7","3","lose","go","0"
"pit-trial","259","1531785","0.0-139.0","battery-v0.2","","""event"",""trial"",""time""
""fullscreenenter"",""1"",""20381""
","
","
","""event"",""trial"",""time""
""fullscreenenter"",""1"",""20381""
","
","","","902.9000000059605","","","13","4226","1846","r","elianto","#3366ff99","-1"," ","0","0","[1754]","1","2","","","4226","135","8","2","win","no-go","0"
"pit-trial","260","1536643","0.0-140.0","battery-v0.2","","""event"",""trial"",""time""
""fullscreenenter"",""1"",""20381""
","
","
","""event"",""trial"",""time""
""fullscreenenter"",""1"",""20381""
","
","","","-1","","","13","4226","1846","h","elianto","#f73b6a7A","-1","-1","1","0","[]","0","2","","","4226","136","6","4","lose","no-go","0"
"pit-trial","261","1541032","0.0-141.0","battery-v0.2","","""event"",""trial"",""time""
""fullscreenenter"",""1"",""20381""
","
","
","""event"",""trial"",""time""
""fullscreenenter"",""1"",""20381""
","
","","","1526.4000000059605","","","13","4226","1846","r","elianto","#3366ff99","-1"," ","0","0","[2377.300000011921]","1","2","","","4226","137","8","2","win","no-go","0"
"pit-trial","262","1545891","0.0-142.0","battery-v0.2","","""event"",""trial"",""time""
""fullscreenenter"",""1"",""20381""
","
","
","""event"",""trial"",""time""
""fullscreenenter"",""1"",""20381""
","
","","","-1","","","13","4226","1846","m","elianto","#3366ff99","-1","-1","1","0","[]","0","2","","","4226","138","9","2","win","no-go","1"
"pit-trial","263","1550750","0.0-143.0","battery-v0.2","","""event"",""trial"",""time""
""fullscreenenter"",""1"",""20381""
","
","
","""event"",""trial"",""time""
""fullscreenenter"",""1"",""20381""
","
","","","-1","","","13","4226","1846","y","elianto","#f73b6a7A"," ","-1","0","-10","[]","0","2","","","4226","139","7","3","lose","go","0"
"pit-trial","264","1555609","0.0-144.0","battery-v0.2","","""event"",""trial"",""time""
""fullscreenenter"",""1"",""20381""
","
","
","""event"",""trial"",""time""
""fullscreenenter"",""1"",""20381""
","
","","","-1","","","13","4226","1846","h","elianto","#f73b6a7A","-1","-1","1","0","[]","0","2","","","4226","140","6","4","lose","no-go","0"
"pit-instructions","265","1570438","0.0-145.0","battery-v0.2","","""event"",""trial"",""time""
""fullscreenenter"",""1"",""20381""
","
","
","""event"",""trial"",""time""
""fullscreenenter"",""1"",""20381""
","
","","[{""page_index"":0,""viewing_time"":6671.799999982119},{""page_index"":1,""viewing_time"":8151.800000011921}]","14823.90000000596","","","","","","","","","","","","","","","","","","","","","","","",""
"pit-trial","266","1575302","0.0-146.0","battery-v0.2","","""event"",""trial"",""time""
""fullscreenenter"",""1"",""20381""
","
","
","""event"",""trial"",""time""
""fullscreenenter"",""1"",""20381""
","
","","","-1","","","13","4226","1846","u","elianto","#f73b6a7A"," ","-1","0","-10","[]","0","3","","","4226","141","0","3","lose","go","0"
"pit-trial","267","1580161","0.0-147.0","battery-v0.2","","""event"",""trial"",""time""
""fullscreenenter"",""1"",""20381""
","
","
","""event"",""trial"",""time""
""fullscreenenter"",""1"",""20381""
","
","","","-1","","","13","4226","1846","a","elianto","#f73b6a7A"," ","-1","0","-10","[]","0","3","","","4226","142","2","3","lose","go","0"
