"trial_type","trial_index","time_elapsed","internal_node_id","task_version","subject_id","interactions","blur_events","focus_events","fullscreenenter_events","fullscreenexit_events","success","view_history","rt","responses","num_errors","age","subject","participantId","rune","rune_set","hex","correct","choice","accuracy","outcome","keys","total_keys","block","practice","value","sub","trial","stimulus","robot","valence","action","sham"
"pavlovia","0","4","0.0-0.0","battery-v0.2","","""event"",""trial"",""time""
""fullscreenenter"",""1"",""3318""
","
","
","""event"",""trial"",""time""
""fullscreenenter"",""1"",""3318""
","
","","","","","","","","","","","","","","","","","","","","","","","","","","",""
"fullscreen","1","4318","0.0-1.0","battery-v0.2","","""event"",""trial"",""time""
""fullscreenenter"",""1"",""3318""
","
","
","""event"",""trial"",""time""
""fullscreenenter"",""1"",""3318""
","
","true","","","","","","","","","","","","","","","","","","","","","","","","","",""
"pit-instructions","2","7843","0.0-2.0-0.0","battery-v0.2","","""event"",""trial"",""time""
""fullscreenenter"",""1"",""3318""
","
","
","""event"",""trial"",""time""
""fullscreenenter"",""1"",""3318""
","
","","[{""page_index"":0,""viewing_time"":3519.7000000476837}]","3519.9000000953674","","","","","","","","","","","","","","","","","","","","","","","",""
"pit-comprehension","3","10583","0.0-2.0-1.0-0.0","battery-v0.2","","""event"",""trial"",""time""
""fullscreenenter"",""1"",""3318""
","
","
","""event"",""trial"",""time""
""fullscreenenter"",""1"",""3318""
","
","","","2736.600000023842","[""shark""]","0","24","10842","5038","","","","","","","","","","","","","","","","","","",""
"pit-instructions","4","12346","0.0-2.0-1.0-1.0","battery-v0.2","","""event"",""trial"",""time""
""fullscreenenter"",""1"",""3318""
","
","
","""event"",""trial"",""time""
""fullscreenenter"",""1"",""3318""
","
","","[{""page_index"":0,""viewing_time"":1751.6000000238419}]","1752","","","","","","","","","","","","","","","","","","","","","","","",""
"pit-comprehension","5","15871","0.0-2.0-2.0-0.0","battery-v0.2","","""event"",""trial"",""time""
""fullscreenenter"",""1"",""3318""
","
","
","""event"",""trial"",""time""
""fullscreenenter"",""1"",""3318""
","
","","","3520.899999976158","[""tiger""]","0","24","10842","5038","","","","","","","","","","","","","","","","","","",""
"pit-instructions","6","17199","0.0-2.0-2.0-1.0","battery-v0.2","","""event"",""trial"",""time""
""fullscreenenter"",""1"",""3318""
","
","
","""event"",""trial"",""time""
""fullscreenenter"",""1"",""3318""
","
","","[{""page_index"":0,""viewing_time"":1323.8999999761581}]","1324.2999999523163","","","","","","","","","","","","","","","","","","","","","","","",""
"pit-instructions","7","117494","0.0-2.0-3.0","battery-v0.2","","""event"",""trial"",""time""
""fullscreenenter"",""1"",""3318""
","
","
","""event"",""trial"",""time""
""fullscreenenter"",""1"",""3318""
","
","","[{""page_index"":0,""viewing_time"":7666},{""page_index"":1,""viewing_time"":6055},{""page_index"":2,""viewing_time"":6645.300000071526},{""page_index"":3,""viewing_time"":5276.699999928474},{""page_index"":4,""viewing_time"":5822.200000047684},{""page_index"":5,""viewing_time"":7116.899999976158},{""page_index"":6,""viewing_time"":10127},{""page_index"":7,""viewing_time"":7522.100000023842},{""page_index"":8,""viewing_time"":8013},{""page_index"":9,""viewing_time"":8041.399999976158},{""page_index"":10,""viewing_time"":8000.399999976158},{""page_index"":11,""viewing_time"":7455.200000047684},{""page_index"":12,""viewing_time"":6896.100000023842},{""page_index"":13,""viewing_time"":5655.699999928474}]","100293.60000002384","","","","","","","","","","","","","","","","","","","","","","","",""
"pit-trial","8","120997","0.0-2.0-4.0-0.0","battery-v0.2","","""event"",""trial"",""time""
""fullscreenenter"",""1"",""3318""
","
","
","""event"",""trial"",""time""
""fullscreenenter"",""1"",""3318""
","
","","","633.8999999761581","","","24","10842","5038","&#9784;","elianto","#FFFFF080"," "," ","1","&#10004","[1490.2000000476837]","1","0","0","","","","","","","",""
"pit-trial","9","124501","0.0-2.0-4.1-0.1","battery-v0.2","","""event"",""trial"",""time""
""fullscreenenter"",""1"",""3318""
","
","
","""event"",""trial"",""time""
""fullscreenenter"",""1"",""3318""
","
","","","635.6999999284744","","","24","10842","5038","&#9784;","elianto","#FFFFF080"," "," ","1","&#10004","[1487.4000000953674]","1","0","0","","","","","","","",""
"pit-trial","10","127896","0.0-2.0-4.2-0.2","battery-v0.2","","""event"",""trial"",""time""
""fullscreenenter"",""1"",""3318""
","
","
","""event"",""trial"",""time""
""fullscreenenter"",""1"",""3318""
","
","","","529.5","","","24","10842","5038","&#9784;","elianto","#FFFFF080"," "," ","1","&#10004","[1384.1000000238419]","1","0","0","","","","","","","",""
"pit-trial","11","131341","0.0-2.0-4.3-0.3","battery-v0.2","","""event"",""trial"",""time""
""fullscreenenter"",""1"",""3318""
","
","
","""event"",""trial"",""time""
""fullscreenenter"",""1"",""3318""
","
","","","579.3000000715256","","","24","10842","5038","&#9784;","elianto","#FFFFF080"," "," ","1","&#10004","[1433.3999999761581]","1","0","0","","","","","","","",""
"pit-trial","12","134717","0.0-2.0-4.4-0.4","battery-v0.2","","""event"",""trial"",""time""
""fullscreenenter"",""1"",""3318""
","
","
","""event"",""trial"",""time""
""fullscreenenter"",""1"",""3318""
","
","","","506","","","24","10842","5038","&#9784;","elianto","#FFFFF080"," "," ","1","&#10004","[1361.8999999761581]","1","0","0","","","","","","","",""
"pit-instructions","13","160197","0.0-2.0-5.0","battery-v0.2","","""event"",""trial"",""time""
""fullscreenenter"",""1"",""3318""
","
","
","""event"",""trial"",""time""
""fullscreenenter"",""1"",""3318""
","
","","[{""page_index"":0,""viewing_time"":5840.399999976158},{""page_index"":1,""viewing_time"":8338.100000023842},{""page_index"":2,""viewing_time"":5323.799999952316},{""page_index"":3,""viewing_time"":5970.5}]","25473.100000023842","","","","","","","","","","","","","","","","","","","","","","","",""
"pit-trial","14","165068","0.0-2.0-6.0-0.0","battery-v0.2","","""event"",""trial"",""time""
""fullscreenenter"",""1"",""3318""
","
","
","""event"",""trial"",""time""
""fullscreenenter"",""1"",""3318""
","
","","","-1","","","24","10842","5038","&#9854;","elianto","#FFFFF080","-1","-1","1","&#10004","[]","0","0","1","","","","","","","",""
"pit-trial","15","169940","0.0-2.0-6.1-0.1","battery-v0.2","","""event"",""trial"",""time""
""fullscreenenter"",""1"",""3318""
","
","
","""event"",""trial"",""time""
""fullscreenenter"",""1"",""3318""
","
","","","-1","","","24","10842","5038","&#9854;","elianto","#FFFFF080","-1","-1","1","&#10004","[]","0","0","1","","","","","","","",""
"pit-trial","16","174813","0.0-2.0-6.2-0.2","battery-v0.2","","""event"",""trial"",""time""
""fullscreenenter"",""1"",""3318""
","
","
","""event"",""trial"",""time""
""fullscreenenter"",""1"",""3318""
","
","","","-1","","","24","10842","5038","&#9854;","elianto","#FFFFF080","-1","-1","1","&#10004","[]","0","0","1","","","","","","","",""
"pit-trial","17","179680","0.0-2.0-6.3-0.3","battery-v0.2","","""event"",""trial"",""time""
""fullscreenenter"",""1"",""3318""
","
","
","""event"",""trial"",""time""
""fullscreenenter"",""1"",""3318""
","
","","","-1","","","24","10842","5038","&#9854;","elianto","#FFFFF080","-1","-1","1","&#10004","[]","0","0","1","","","","","","","",""
"pit-trial","18","184556","0.0-2.0-6.4-0.4","battery-v0.2","","""event"",""trial"",""time""
""fullscreenenter"",""1"",""3318""
","
","
","""event"",""trial"",""time""
""fullscreenenter"",""1"",""3318""
","
","","","-1","","","24","10842","5038","&#9854;","elianto","#FFFFF080","-1","-1","1","&#10004","[]","0","0","1","","","","","","","",""
"pit-instructions","19","308551","0.0-2.0-7.0","battery-v0.2","","""event"",""trial"",""time""
""fullscreenenter"",""1"",""3318""
","
","
","""event"",""trial"",""time""
""fullscreenenter"",""1"",""3318""
","
","","[{""page_index"":0,""viewing_time"":5886},{""page_index"":1,""viewing_time"":7537.800000071526},{""page_index"":2,""viewing_time"":6776.699999928474},{""page_index"":3,""viewing_time"":6671.300000071526},{""page_index"":4,""viewing_time"":5162.399999976158},{""page_index"":5,""viewing_time"":5838.199999928474},{""page_index"":6,""viewing_time"":5756.600000023842},{""page_index"":7,""viewing_time"":7983.5},{""page_index"":8,""viewing_time"":6797.300000071526},{""page_index"":9,""viewing_time"":6689.299999952316},{""page_index"":10,""viewing_time"":6604.899999976158},{""page_index"":11,""viewing_time"":4929.200000047684},{""page_index"":12,""viewing_time"":7530},{""page_index"":13,""viewing_time"":7730.5},{""page_index"":14,""viewing_time"":7833},{""page_index"":15,""viewing_time"":7215.399999976158},{""page_index"":16,""viewing_time"":8864},{""page_index"":17,""viewing_time"":8183.799999952316}]","123990.5","","","","","","","","","","","","","","","","","","","","","","","",""
"pit-trial","20","311894","0.0-2.0-8.0-0.0","battery-v0.2","","""event"",""trial"",""time""
""fullscreenenter"",""1"",""3318""
","
","
","""event"",""trial"",""time""
""fullscreenenter"",""1"",""3318""
","
","","","477.39999997615814","","","24","10842","5038","&#9776;","elianto","#3366ff99"," "," ","1","+10","[1329.3999999761581]","1","0","1","","","","","","","",""
"pit-trial","21","315337","0.0-2.0-8.0-1.0","battery-v0.2","","""event"",""trial"",""time""
""fullscreenenter"",""1"",""3318""
","
","
","""event"",""trial"",""time""
""fullscreenenter"",""1"",""3318""
","
","","","572.5","","","24","10842","5038","&#9776;","elianto","#3366ff99"," "," ","1","+10","[1426.1000000238419]","1","0","1","","","","","","","",""
"pit-trial","22","318688","0.0-2.0-8.0-2.0","battery-v0.2","","""event"",""trial"",""time""
""fullscreenenter"",""1"",""3318""
","
","
","""event"",""trial"",""time""
""fullscreenenter"",""1"",""3318""
","
","","","479.89999997615814","","","24","10842","5038","&#9776;","elianto","#3366ff99"," "," ","1","+10","[1335.0999999046326]","1","0","1","","","","","","","",""
"pit-trial","23","322025","0.0-2.0-8.0-3.0","battery-v0.2","","""event"",""trial"",""time""
""fullscreenenter"",""1"",""3318""
","
","
","""event"",""trial"",""time""
""fullscreenenter"",""1"",""3318""
","
","","","462.8000000715256","","","24","10842","5038","&#9776;","elianto","#3366ff99"," "," ","1","0","[1319.3000000715256]","1","0","1","","","","","","","",""
"pit-trial","24","325360","0.0-2.0-8.0-4.0","battery-v0.2","","""event"",""trial"",""time""
""fullscreenenter"",""1"",""3318""
","
","
","""event"",""trial"",""time""
""fullscreenenter"",""1"",""3318""
","
","","","464.2000000476837","","","24","10842","5038","&#9776;","elianto","#3366ff99"," "," ","1","+10","[1319.8999999761581]","1","0","1","","","","","","","",""
"pit-trial","25","328710","0.0-2.0-8.1-0.1","battery-v0.2","","""event"",""trial"",""time""
""fullscreenenter"",""1"",""3318""
","
","
","""event"",""trial"",""time""
""fullscreenenter"",""1"",""3318""
","
","","","483.7000000476837","","","24","10842","5038","&#9776;","elianto","#3366ff99"," "," ","1","+10","[1336]","1","0","1","","","","","","","",""
"pit-trial","26","332064","0.0-2.0-8.1-1.1","battery-v0.2","","""event"",""trial"",""time""
""fullscreenenter"",""1"",""3318""
","
","
","""event"",""trial"",""time""
""fullscreenenter"",""1"",""3318""
","
","","","484.39999997615814","","","24","10842","5038","&#9776;","elianto","#3366ff99"," "," ","1","+10","[1338.6000000238419]","1","0","1","","","","","","","",""
"pit-trial","27","335417","0.0-2.0-8.1-2.1","battery-v0.2","","""event"",""trial"",""time""
""fullscreenenter"",""1"",""3318""
","
","
","""event"",""trial"",""time""
""fullscreenenter"",""1"",""3318""
","
","","","489.39999997615814","","","24","10842","5038","&#9776;","elianto","#3366ff99"," "," ","1","+10","[1339.7000000476837]","1","0","1","","","","","","","",""
"pit-trial","28","338762","0.0-2.0-8.1-3.1","battery-v0.2","","""event"",""trial"",""time""
""fullscreenenter"",""1"",""3318""
","
","
","""event"",""trial"",""time""
""fullscreenenter"",""1"",""3318""
","
","","","482.3000000715256","","","24","10842","5038","&#9776;","elianto","#3366ff99"," "," ","1","0","[1332.2999999523163]","1","0","1","","","","","","","",""
"pit-trial","29","342142","0.0-2.0-8.1-4.1","battery-v0.2","","""event"",""trial"",""time""
""fullscreenenter"",""1"",""3318""
","
","
","""event"",""trial"",""time""
""fullscreenenter"",""1"",""3318""
","
","","","519.2999999523163","","","24","10842","5038","&#9776;","elianto","#3366ff99"," "," ","1","+10","[1372.1000000238419]","1","0","1","","","","","","","",""
"pit-trial","30","345460","0.0-2.0-8.2-0.2","battery-v0.2","","""event"",""trial"",""time""
""fullscreenenter"",""1"",""3318""
","
","
","""event"",""trial"",""time""
""fullscreenenter"",""1"",""3318""
","
","","","453.5","","","24","10842","5038","&#9776;","elianto","#3366ff99"," "," ","1","+10","[1308.6999999284744]","1","0","1","","","","","","","",""
"pit-trial","31","348736","0.0-2.0-8.2-1.2","battery-v0.2","","""event"",""trial"",""time""
""fullscreenenter"",""1"",""3318""
","
","
","""event"",""trial"",""time""
""fullscreenenter"",""1"",""3318""
","
","","","407.6999999284744","","","24","10842","5038","&#9776;","elianto","#3366ff99"," "," ","1","+10","[1262.1000000238419]","1","0","1","","","","","","","",""
"pit-trial","32","352049","0.0-2.0-8.2-2.2","battery-v0.2","","""event"",""trial"",""time""
""fullscreenenter"",""1"",""3318""
","
","
","""event"",""trial"",""time""
""fullscreenenter"",""1"",""3318""
","
","","","443.7999999523163","","","24","10842","5038","&#9776;","elianto","#3366ff99"," "," ","1","+10","[1301]","1","0","1","","","","","","","",""
"pit-trial","33","355357","0.0-2.0-8.2-3.2","battery-v0.2","","""event"",""trial"",""time""
""fullscreenenter"",""1"",""3318""
","
","
","""event"",""trial"",""time""
""fullscreenenter"",""1"",""3318""
","
","","","445.89999997615814","","","24","10842","5038","&#9776;","elianto","#3366ff99"," "," ","1","0","[1296.5]","1","0","1","","","","","","","",""
"pit-trial","34","358656","0.0-2.0-8.2-4.2","battery-v0.2","","""event"",""trial"",""time""
""fullscreenenter"",""1"",""3318""
","
","
","""event"",""trial"",""time""
""fullscreenenter"",""1"",""3318""
","
","","","426.1999999284744","","","24","10842","5038","&#9776;","elianto","#3366ff99"," "," ","1","+10","[1284.6999999284744]","1","0","1","","","","","","","",""
"call-function","35","358663","0.0-2.0-9.0","battery-v0.2","","""event"",""trial"",""time""
""fullscreenenter"",""1"",""3318""
","
","
","""event"",""trial"",""time""
""fullscreenenter"",""1"",""3318""
","
","","","","","","","","","","","","","","","","","","","","","","","","","","",""
"pit-instructions","36","400241","0.0-2.0-10.0","battery-v0.2","","""event"",""trial"",""time""
""fullscreenenter"",""1"",""3318""
","
","
","""event"",""trial"",""time""
""fullscreenenter"",""1"",""3318""
","
","","[{""page_index"":0,""viewing_time"":6095.399999976158},{""page_index"":1,""viewing_time"":7283.600000023842},{""page_index"":2,""viewing_time"":10132.199999928474},{""page_index"":3,""viewing_time"":9817.900000095367},{""page_index"":4,""viewing_time"":8248.599999904633}]","41578","","","","","","","","","","","","","","","","","","","","","","","",""
"pit-trial","37","403648","0.0-2.0-11.0-0.0","battery-v0.2","","""event"",""trial"",""time""
""fullscreenenter"",""1"",""3318""
","
","
","""event"",""trial"",""time""
""fullscreenenter"",""1"",""3318""
","
","","","534.3999999761581","","","24","10842","5038","&#9761;","elianto","#3366ff99","-1"," ","0","0","[1393.1000000238419]","1","0","2","","","","","","","",""
"pit-trial","38","407015","0.0-2.0-11.0-1.0","battery-v0.2","","""event"",""trial"",""time""
""fullscreenenter"",""1"",""3318""
","
","
","""event"",""trial"",""time""
""fullscreenenter"",""1"",""3318""
","
","","","495.7999999523163","","","24","10842","5038","&#9761;","elianto","#3366ff99","-1"," ","0","0","[1350.7000000476837]","1","0","2","","","","","","","",""
"pit-trial","39","411884","0.0-2.0-11.0-2.0","battery-v0.2","","""event"",""trial"",""time""
""fullscreenenter"",""1"",""3318""
","
","
","""event"",""trial"",""time""
""fullscreenenter"",""1"",""3318""
","
","","","-1","","","24","10842","5038","&#9761;","elianto","#3366ff99","-1","-1","1","+10","[]","0","0","2","","","","","","","",""
"pit-trial","40","416751","0.0-2.0-11.0-3.0","battery-v0.2","","""event"",""trial"",""time""
""fullscreenenter"",""1"",""3318""
","
","
","""event"",""trial"",""time""
""fullscreenenter"",""1"",""3318""
","
","","","-1","","","24","10842","5038","&#9761;","elianto","#3366ff99","-1","-1","1","0","[]","0","0","2","","","","","","","",""
"pit-trial","41","421624","0.0-2.0-11.0-4.0","battery-v0.2","","""event"",""trial"",""time""
""fullscreenenter"",""1"",""3318""
","
","
","""event"",""trial"",""time""
""fullscreenenter"",""1"",""3318""
","
","","","-1","","","24","10842","5038","&#9761;","elianto","#3366ff99","-1","-1","1","+10","[]","0","0","2","","","","","","","",""
"pit-trial","42","426492","0.0-2.0-11.1-0.1","battery-v0.2","","""event"",""trial"",""time""
""fullscreenenter"",""1"",""3318""
","
","
","""event"",""trial"",""time""
""fullscreenenter"",""1"",""3318""
","
","","","-1","","","24","10842","5038","&#9761;","elianto","#3366ff99","-1","-1","1","+10","[]","0","0","2","","","","","","","",""
"pit-trial","43","431368","0.0-2.0-11.1-1.1","battery-v0.2","","""event"",""trial"",""time""
""fullscreenenter"",""1"",""3318""
","
","
","""event"",""trial"",""time""
""fullscreenenter"",""1"",""3318""
","
","","","-1","","","24","10842","5038","&#9761;","elianto","#3366ff99","-1","-1","1","+10","[]","0","0","2","","","","","","","",""
"pit-trial","44","436240","0.0-2.0-11.1-2.1","battery-v0.2","","""event"",""trial"",""time""
""fullscreenenter"",""1"",""3318""
","
","
","""event"",""trial"",""time""
""fullscreenenter"",""1"",""3318""
","
","","","-1","","","24","10842","5038","&#9761;","elianto","#3366ff99","-1","-1","1","+10","[]","0","0","2","","","","","","","",""
"pit-trial","45","441111","0.0-2.0-11.1-3.1","battery-v0.2","","""event"",""trial"",""time""
""fullscreenenter"",""1"",""3318""
","
","
","""event"",""trial"",""time""
""fullscreenenter"",""1"",""3318""
","
","","","-1","","","24","10842","5038","&#9761;","elianto","#3366ff99","-1","-1","1","0","[]","0","0","2","","","","","","","",""
"pit-trial","46","445983","0.0-2.0-11.1-4.1","battery-v0.2","","""event"",""trial"",""time""
""fullscreenenter"",""1"",""3318""
","
","
","""event"",""trial"",""time""
""fullscreenenter"",""1"",""3318""
","
","","","-1","","","24","10842","5038","&#9761;","elianto","#3366ff99","-1","-1","1","+10","[]","0","0","2","","","","","","","",""
"pit-trial","47","450856","0.0-2.0-11.2-0.2","battery-v0.2","","""event"",""trial"",""time""
""fullscreenenter"",""1"",""3318""
","
","
","""event"",""trial"",""time""
""fullscreenenter"",""1"",""3318""
","
","","","-1","","","24","10842","5038","&#9761;","elianto","#3366ff99","-1","-1","1","+10","[]","0","0","2","","","","","","","",""
"pit-trial","48","455727","0.0-2.0-11.2-1.2","battery-v0.2","","""event"",""trial"",""time""
""fullscreenenter"",""1"",""3318""
","
","
","""event"",""trial"",""time""
""fullscreenenter"",""1"",""3318""
","
","","","-1","","","24","10842","5038","&#9761;","elianto","#3366ff99","-1","-1","1","+10","[]","0","0","2","","","","","","","",""
"pit-trial","49","460599","0.0-2.0-11.2-2.2","battery-v0.2","","""event"",""trial"",""time""
""fullscreenenter"",""1"",""3318""
","
","
","""event"",""trial"",""time""
""fullscreenenter"",""1"",""3318""
","
","","","-1","","","24","10842","5038","&#9761;","elianto","#3366ff99","-1","-1","1","+10","[]","0","0","2","","","","","","","",""
"pit-trial","50","465471","0.0-2.0-11.2-3.2","battery-v0.2","","""event"",""trial"",""time""
""fullscreenenter"",""1"",""3318""
","
","
","""event"",""trial"",""time""
""fullscreenenter"",""1"",""3318""
","
","","","-1","","","24","10842","5038","&#9761;","elianto","#3366ff99","-1","-1","1","0","[]","0","0","2","","","","","","","",""
"pit-trial","51","470343","0.0-2.0-11.2-4.2","battery-v0.2","","""event"",""trial"",""time""
""fullscreenenter"",""1"",""3318""
","
","
","""event"",""trial"",""time""
""fullscreenenter"",""1"",""3318""
","
","","","-1","","","24","10842","5038","&#9761;","elianto","#3366ff99","-1","-1","1","+10","[]","0","0","2","","","","","","","",""
"pit-trial","52","475215","0.0-2.0-11.3-0.3","battery-v0.2","","""event"",""trial"",""time""
""fullscreenenter"",""1"",""3318""
","
","
","""event"",""trial"",""time""
""fullscreenenter"",""1"",""3318""
","
","","","-1","","","24","10842","5038","&#9761;","elianto","#3366ff99","-1","-1","1","+10","[]","0","0","2","","","","","","","",""
"pit-trial","53","480087","0.0-2.0-11.3-1.3","battery-v0.2","","""event"",""trial"",""time""
""fullscreenenter"",""1"",""3318""
","
","
","""event"",""trial"",""time""
""fullscreenenter"",""1"",""3318""
","
","","","-1","","","24","10842","5038","&#9761;","elianto","#3366ff99","-1","-1","1","+10","[]","0","0","2","","","","","","","",""
"pit-trial","54","484959","0.0-2.0-11.3-2.3","battery-v0.2","","""event"",""trial"",""time""
""fullscreenenter"",""1"",""3318""
","
","
","""event"",""trial"",""time""
""fullscreenenter"",""1"",""3318""
","
","","","-1","","","24","10842","5038","&#9761;","elianto","#3366ff99","-1","-1","1","+10","[]","0","0","2","","","","","","","",""
"pit-trial","55","489830","0.0-2.0-11.3-3.3","battery-v0.2","","""event"",""trial"",""time""
""fullscreenenter"",""1"",""3318""
","
","
","""event"",""trial"",""time""
""fullscreenenter"",""1"",""3318""
","
","","","-1","","","24","10842","5038","&#9761;","elianto","#3366ff99","-1","-1","1","0","[]","0","0","2","","","","","","","",""
"pit-trial","56","494703","0.0-2.0-11.3-4.3","battery-v0.2","","""event"",""trial"",""time""
""fullscreenenter"",""1"",""3318""
","
","
","""event"",""trial"",""time""
""fullscreenenter"",""1"",""3318""
","
","","","-1","","","24","10842","5038","&#9761;","elianto","#3366ff99","-1","-1","1","+10","[]","0","0","2","","","","","","","",""
"call-function","57","494709","0.0-2.0-12.0","battery-v0.2","","""event"",""trial"",""time""
""fullscreenenter"",""1"",""3318""
","
","
","""event"",""trial"",""time""
""fullscreenenter"",""1"",""3318""
","
","","","","","","","","","","","","","","","","","","","","","","","","","","",""
"pit-instructions","58","529238","0.0-2.0-13.0","battery-v0.2","","""event"",""trial"",""time""
""fullscreenenter"",""1"",""3318""
","
","
","""event"",""trial"",""time""
""fullscreenenter"",""1"",""3318""
","
","","[{""page_index"":0,""viewing_time"":5230.200000047684},{""page_index"":1,""viewing_time"":7309.399999976158},{""page_index"":2,""viewing_time"":3820.8000000715256},{""page_index"":3,""viewing_time"":11547.099999904633},{""page_index"":4,""viewing_time"":6619.900000095367}]","34528.10000002384","","","","","","","","","","","","","","","","","","","","","","","",""
"pit-trial","59","532781","0.0-2.0-14.0-0.0","battery-v0.2","","""event"",""trial"",""time""
""fullscreenenter"",""1"",""3318""
","
","
","""event"",""trial"",""time""
""fullscreenenter"",""1"",""3318""
","
","","","668.2999999523163","","","24","10842","5038","&#9826;","elianto","#f73b6a7A","-1"," ","0","-10","[1526.5]","1","0","3","","","","","","","",""
"pit-trial","60","536222","0.0-2.0-14.0-1.0","battery-v0.2","","""event"",""trial"",""time""
""fullscreenenter"",""1"",""3318""
","
","
","""event"",""trial"",""time""
""fullscreenenter"",""1"",""3318""
","
","","","574.3999999761581","","","24","10842","5038","&#9826;","elianto","#f73b6a7A","-1"," ","0","-10","[1424.8000000715256]","1","0","3","","","","","","","",""
"pit-trial","61","541091","0.0-2.0-14.0-2.0","battery-v0.2","","""event"",""trial"",""time""
""fullscreenenter"",""1"",""3318""
","
","
","""event"",""trial"",""time""
""fullscreenenter"",""1"",""3318""
","
","","","-1","","","24","10842","5038","&#9826;","elianto","#f73b6a7A","-1","-1","1","0","[]","0","0","3","","","","","","","",""
"pit-trial","62","545966","0.0-2.0-14.0-3.0","battery-v0.2","","""event"",""trial"",""time""
""fullscreenenter"",""1"",""3318""
","
","
","""event"",""trial"",""time""
""fullscreenenter"",""1"",""3318""
","
","","","-1","","","24","10842","5038","&#9826;","elianto","#f73b6a7A","-1","-1","1","-10","[]","0","0","3","","","","","","","",""
"pit-trial","63","550833","0.0-2.0-14.0-4.0","battery-v0.2","","""event"",""trial"",""time""
""fullscreenenter"",""1"",""3318""
","
","
","""event"",""trial"",""time""
""fullscreenenter"",""1"",""3318""
","
","","","-1","","","24","10842","5038","&#9826;","elianto","#f73b6a7A","-1","-1","1","0","[]","0","0","3","","","","","","","",""
"pit-trial","64","555700","0.0-2.0-14.1-0.1","battery-v0.2","","""event"",""trial"",""time""
""fullscreenenter"",""1"",""3318""
","
","
","""event"",""trial"",""time""
""fullscreenenter"",""1"",""3318""
","
","","","-1","","","24","10842","5038","&#9826;","elianto","#f73b6a7A","-1","-1","1","0","[]","0","0","3","","","","","","","",""
"pit-trial","65","560573","0.0-2.0-14.1-1.1","battery-v0.2","","""event"",""trial"",""time""
""fullscreenenter"",""1"",""3318""
","
","
","""event"",""trial"",""time""
""fullscreenenter"",""1"",""3318""
","
","","","-1","","","24","10842","5038","&#9826;","elianto","#f73b6a7A","-1","-1","1","0","[]","0","0","3","","","","","","","",""
"pit-trial","66","565443","0.0-2.0-14.1-2.1","battery-v0.2","","""event"",""trial"",""time""
""fullscreenenter"",""1"",""3318""
","
","
","""event"",""trial"",""time""
""fullscreenenter"",""1"",""3318""
","
","","","-1","","","24","10842","5038","&#9826;","elianto","#f73b6a7A","-1","-1","1","0","[]","0","0","3","","","","","","","",""
"pit-trial","67","570316","0.0-2.0-14.1-3.1","battery-v0.2","","""event"",""trial"",""time""
""fullscreenenter"",""1"",""3318""
","
","
","""event"",""trial"",""time""
""fullscreenenter"",""1"",""3318""
","
","","","-1","","","24","10842","5038","&#9826;","elianto","#f73b6a7A","-1","-1","1","-10","[]","0","0","3","","","","","","","",""
"pit-trial","68","575184","0.0-2.0-14.1-4.1","battery-v0.2","","""event"",""trial"",""time""
""fullscreenenter"",""1"",""3318""
","
","
","""event"",""trial"",""time""
""fullscreenenter"",""1"",""3318""
","
","","","-1","","","24","10842","5038","&#9826;","elianto","#f73b6a7A","-1","-1","1","0","[]","0","0","3","","","","","","","",""
"pit-trial","69","580060","0.0-2.0-14.2-0.2","battery-v0.2","","""event"",""trial"",""time""
""fullscreenenter"",""1"",""3318""
","
","
","""event"",""trial"",""time""
""fullscreenenter"",""1"",""3318""
","
","","","-1","","","24","10842","5038","&#9826;","elianto","#f73b6a7A","-1","-1","1","0","[]","0","0","3","","","","","","","",""
"pit-trial","70","584933","0.0-2.0-14.2-1.2","battery-v0.2","","""event"",""trial"",""time""
""fullscreenenter"",""1"",""3318""
","
","
","""event"",""trial"",""time""
""fullscreenenter"",""1"",""3318""
","
","","","-1","","","24","10842","5038","&#9826;","elianto","#f73b6a7A","-1","-1","1","0","[]","0","0","3","","","","","","","",""
"pit-trial","71","589804","0.0-2.0-14.2-2.2","battery-v0.2","","""event"",""trial"",""time""
""fullscreenenter"",""1"",""3318""
","
","
","""event"",""trial"",""time""
""fullscreenenter"",""1"",""3318""
","
","","","-1","","","24","10842","5038","&#9826;","elianto","#f73b6a7A","-1","-1","1","0","[]","0","0","3","","","","","","","",""
"pit-trial","72","594677","0.0-2.0-14.2-3.2","battery-v0.2","","""event"",""trial"",""time""
""fullscreenenter"",""1"",""3318""
","
","
","""event"",""trial"",""time""
""fullscreenenter"",""1"",""3318""
","
","","","-1","","","24","10842","5038","&#9826;","elianto","#f73b6a7A","-1","-1","1","-10","[]","0","0","3","","","","","","","",""
"pit-trial","73","599549","0.0-2.0-14.2-4.2","battery-v0.2","","""event"",""trial"",""time""
""fullscreenenter"",""1"",""3318""
","
","
","""event"",""trial"",""time""
""fullscreenenter"",""1"",""3318""
","
","","","-1","","","24","10842","5038","&#9826;","elianto","#f73b6a7A","-1","-1","1","0","[]","0","0","3","","","","","","","",""
"pit-trial","74","604421","0.0-2.0-14.3-0.3","battery-v0.2","","""event"",""trial"",""time""
""fullscreenenter"",""1"",""3318""
","
","
","""event"",""trial"",""time""
""fullscreenenter"",""1"",""3318""
","
","","","-1","","","24","10842","5038","&#9826;","elianto","#f73b6a7A","-1","-1","1","0","[]","0","0","3","","","","","","","",""
"pit-trial","75","609290","0.0-2.0-14.3-1.3","battery-v0.2","","""event"",""trial"",""time""
""fullscreenenter"",""1"",""3318""
","
","
","""event"",""trial"",""time""
""fullscreenenter"",""1"",""3318""
","
","","","-1","","","24","10842","5038","&#9826;","elianto","#f73b6a7A","-1","-1","1","0","[]","0","0","3","","","","","","","",""
"pit-trial","76","614163","0.0-2.0-14.3-2.3","battery-v0.2","","""event"",""trial"",""time""
""fullscreenenter"",""1"",""3318""
","
","
","""event"",""trial"",""time""
""fullscreenenter"",""1"",""3318""
","
","","","-1","","","24","10842","5038","&#9826;","elianto","#f73b6a7A","-1","-1","1","0","[]","0","0","3","","","","","","","",""
"pit-trial","77","619034","0.0-2.0-14.3-3.3","battery-v0.2","","""event"",""trial"",""time""
""fullscreenenter"",""1"",""3318""
","
","
","""event"",""trial"",""time""
""fullscreenenter"",""1"",""3318""
","
","","","-1","","","24","10842","5038","&#9826;","elianto","#f73b6a7A","-1","-1","1","-10","[]","0","0","3","","","","","","","",""
"pit-trial","78","623908","0.0-2.0-14.3-4.3","battery-v0.2","","""event"",""trial"",""time""
""fullscreenenter"",""1"",""3318""
","
","
","""event"",""trial"",""time""
""fullscreenenter"",""1"",""3318""
","
","","","-1","","","24","10842","5038","&#9826;","elianto","#f73b6a7A","-1","-1","1","0","[]","0","0","3","","","","","","","",""
"call-function","79","623913","0.0-2.0-15.0","battery-v0.2","","""event"",""trial"",""time""
""fullscreenenter"",""1"",""3318""
","
","
","""event"",""trial"",""time""
""fullscreenenter"",""1"",""3318""
","
","","","","","","","","","","","","","","","","","","","","","","","","","","",""
"pit-instructions","80","650124","0.0-2.0-16.0","battery-v0.2","","""event"",""trial"",""time""
""fullscreenenter"",""1"",""3318""
","
","
","""event"",""trial"",""time""
""fullscreenenter"",""1"",""3318""
","
","","[{""page_index"":0,""viewing_time"":6961.900000095367},{""page_index"":1,""viewing_time"":8613.799999952316},{""page_index"":2,""viewing_time"":5617.799999952316},{""page_index"":3,""viewing_time"":5016.800000071526}]","26210.700000047684","","","","","","","","","","","","","","","","","","","","","","","",""
"pit-trial","81","654996","0.0-2.0-17.0-0.0","battery-v0.2","","""event"",""trial"",""time""
""fullscreenenter"",""1"",""3318""
","
","
","""event"",""trial"",""time""
""fullscreenenter"",""1"",""3318""
","
","","","-1","","","24","10842","5038","&#9789;","elianto","#f73b6a7A"," ","-1","0","-10","[]","0","0","4","","","","","","","",""
"pit-trial","82","658804","0.0-2.0-17.0-1.0","battery-v0.2","","""event"",""trial"",""time""
""fullscreenenter"",""1"",""3318""
","
","
","""event"",""trial"",""time""
""fullscreenenter"",""1"",""3318""
","
","","","945.8000000715256","","","24","10842","5038","&#9789;","elianto","#f73b6a7A"," "," ","1","0","[1796.7000000476837]","1","0","4","","","","","","","",""
"pit-trial","83","662466","0.0-2.0-17.0-2.0","battery-v0.2","","""event"",""trial"",""time""
""fullscreenenter"",""1"",""3318""
","
","
","""event"",""trial"",""time""
""fullscreenenter"",""1"",""3318""
","
","","","794.5","","","24","10842","5038","&#9789;","elianto","#f73b6a7A"," "," ","1","0","[1649.6999999284744]","1","0","4","","","","","","","",""
"pit-trial","84","666475","0.0-2.0-17.0-3.0","battery-v0.2","","""event"",""trial"",""time""
""fullscreenenter"",""1"",""3318""
","
","
","""event"",""trial"",""time""
""fullscreenenter"",""1"",""3318""
","
","","","1145.7000000476837","","","24","10842","5038","&#9789;","elianto","#f73b6a7A"," "," ","1","-10","[1995.8000000715256]","1","0","4","","","","","","","",""
"pit-trial","85","669776","0.0-2.0-17.0-4.0","battery-v0.2","","""event"",""trial"",""time""
""fullscreenenter"",""1"",""3318""
","
","
","""event"",""trial"",""time""
""fullscreenenter"",""1"",""3318""
","
","","","431.09999990463257","","","24","10842","5038","&#9789;","elianto","#f73b6a7A"," "," ","1","0","[1287.0999999046326]","1","0","4","","","","","","","",""
"pit-trial","86","673275","0.0-2.0-17.1-0.1","battery-v0.2","","""event"",""trial"",""time""
""fullscreenenter"",""1"",""3318""
","
","
","""event"",""trial"",""time""
""fullscreenenter"",""1"",""3318""
","
","","","627.8999999761581","","","24","10842","5038","&#9789;","elianto","#f73b6a7A"," "," ","1","0","[1480.8000000715256]","1","0","4","","","","","","","",""
"pit-trial","87","677170","0.0-2.0-17.1-1.1","battery-v0.2","","""event"",""trial"",""time""
""fullscreenenter"",""1"",""3318""
","
","
","""event"",""trial"",""time""
""fullscreenenter"",""1"",""3318""
","
","","","1024.6000000238419","","","24","10842","5038","&#9789;","elianto","#f73b6a7A"," "," ","1","0","[1879.8999999761581]","1","0","4","","","","","","","",""
"pit-trial","88","681139","0.0-2.0-17.1-2.1","battery-v0.2","","""event"",""trial"",""time""
""fullscreenenter"",""1"",""3318""
","
","
","""event"",""trial"",""time""
""fullscreenenter"",""1"",""3318""
","
","","","1094.8000000715256","","","24","10842","5038","&#9789;","elianto","#f73b6a7A"," "," ","1","0","[1951.7000000476837]","1","0","4","","","","","","","",""
"pit-trial","89","684418","0.0-2.0-17.1-3.1","battery-v0.2","","""event"",""trial"",""time""
""fullscreenenter"",""1"",""3318""
","
","
","""event"",""trial"",""time""
""fullscreenenter"",""1"",""3318""
","
","","","409.7999999523163","","","24","10842","5038","&#9789;","elianto","#f73b6a7A"," "," ","1","-10","[1265.4000000953674]","1","0","4","","","","","","","",""
"pit-trial","90","687447","0.0-2.0-17.1-4.1","battery-v0.2","","""event"",""trial"",""time""
""fullscreenenter"",""1"",""3318""
","
","
","""event"",""trial"",""time""
""fullscreenenter"",""1"",""3318""
","
","","","165.19999992847443","","","24","10842","5038","&#9789;","elianto","#f73b6a7A"," "," ","1","0","[1022.2999999523163]","1","0","4","","","","","","","",""
"pit-trial","91","690466","0.0-2.0-17.2-0.2","battery-v0.2","","""event"",""trial"",""time""
""fullscreenenter"",""1"",""3318""
","
","
","""event"",""trial"",""time""
""fullscreenenter"",""1"",""3318""
","
","","","156.30000007152557","","","24","10842","5038","&#9789;","elianto","#f73b6a7A"," "," ","1","0","[1006.8000000715256]","1","0","4","","","","","","","",""
"pit-trial","92","693554","0.0-2.0-17.2-1.2","battery-v0.2","","""event"",""trial"",""time""
""fullscreenenter"",""1"",""3318""
","
","
","""event"",""trial"",""time""
""fullscreenenter"",""1"",""3318""
","
","","","215.10000002384186","","","24","10842","5038","&#9789;","elianto","#f73b6a7A"," "," ","1","0","[1072.5]","1","0","4","","","","","","","",""
"pit-trial","93","697036","0.0-2.0-17.2-2.2","battery-v0.2","","""event"",""trial"",""time""
""fullscreenenter"",""1"",""3318""
","
","
","""event"",""trial"",""time""
""fullscreenenter"",""1"",""3318""
","
","","","612.6999999284744","","","24","10842","5038","&#9789;","elianto","#f73b6a7A"," "," ","1","0","[1470]","1","0","4","","","","","","","",""
"pit-trial","94","700299","0.0-2.0-17.2-3.2","battery-v0.2","","""event"",""trial"",""time""
""fullscreenenter"",""1"",""3318""
","
","
","""event"",""trial"",""time""
""fullscreenenter"",""1"",""3318""
","
","","","395.7999999523163","","","24","10842","5038","&#9789;","elianto","#f73b6a7A"," "," ","1","-10","[1249.1000000238419]","1","0","4","","","","","","","",""
"pit-trial","95","703580","0.0-2.0-17.2-4.2","battery-v0.2","","""event"",""trial"",""time""
""fullscreenenter"",""1"",""3318""
","
","
","""event"",""trial"",""time""
""fullscreenenter"",""1"",""3318""
","
","","","412.7000000476837","","","24","10842","5038","&#9789;","elianto","#f73b6a7A"," "," ","1","0","[1263]","1","0","4","","","","","","","",""
"pit-trial","96","706827","0.0-2.0-17.3-0.3","battery-v0.2","","""event"",""trial"",""time""
""fullscreenenter"",""1"",""3318""
","
","
","""event"",""trial"",""time""
""fullscreenenter"",""1"",""3318""
","
","","","385.1999999284744","","","24","10842","5038","&#9789;","elianto","#f73b6a7A"," "," ","1","0","[1235.4000000953674]","1","0","4","","","","","","","",""
"pit-trial","97","709907","0.0-2.0-17.3-1.3","battery-v0.2","","""event"",""trial"",""time""
""fullscreenenter"",""1"",""3318""
","
","
","""event"",""trial"",""time""
""fullscreenenter"",""1"",""3318""
","
","","","212.90000009536743","","","24","10842","5038","&#9789;","elianto","#f73b6a7A"," "," ","1","0","[1066.2000000476837]","1","0","4","","","","","","","",""
"pit-trial","98","712987","0.0-2.0-17.3-2.3","battery-v0.2","","""event"",""trial"",""time""
""fullscreenenter"",""1"",""3318""
","
","
","""event"",""trial"",""time""
""fullscreenenter"",""1"",""3318""
","
","","","207.5","","","24","10842","5038","&#9789;","elianto","#f73b6a7A"," "," ","1","0","[1061.8000000715256]","1","0","4","","","","","","","",""
"pit-trial","99","716023","0.0-2.0-17.3-3.3","battery-v0.2","","""event"",""trial"",""time""
""fullscreenenter"",""1"",""3318""
","
","
","""event"",""trial"",""time""
""fullscreenenter"",""1"",""3318""
","
","","","172.59999990463257","","","24","10842","5038","&#9789;","elianto","#f73b6a7A"," "," ","1","-10","[1029.2999999523163]","1","0","4","","","","","","","",""
"pit-trial","100","719243","0.0-2.0-17.3-4.3","battery-v0.2","","""event"",""trial"",""time""
""fullscreenenter"",""1"",""3318""
","
","
","""event"",""trial"",""time""
""fullscreenenter"",""1"",""3318""
","
","","","350.2000000476837","","","24","10842","5038","&#9789;","elianto","#f73b6a7A"," "," ","1","0","[1208.1000000238419]","1","0","4","","","","","","","",""
"call-function","101","719247","0.0-2.0-18.0","battery-v0.2","","""event"",""trial"",""time""
""fullscreenenter"",""1"",""3318""
","
","
","""event"",""trial"",""time""
""fullscreenenter"",""1"",""3318""
","
","","","","","","","","","","","","","","","","","","","","","","","","","","",""
"pit-instructions","102","794475","0.0-2.0-19.0","battery-v0.2","","""event"",""trial"",""time""
""fullscreenenter"",""1"",""3318""
","
","
","""event"",""trial"",""time""
""fullscreenenter"",""1"",""3318""
","
","","[{""page_index"":0,""viewing_time"":6460},{""page_index"":1,""viewing_time"":5266.5},{""page_index"":2,""viewing_time"":13749.799999952316},{""page_index"":3,""viewing_time"":8749.5},{""page_index"":4,""viewing_time"":8050.299999952316},{""page_index"":5,""viewing_time"":11066.300000071526},{""page_index"":6,""viewing_time"":10183.399999976158},{""page_index"":7,""viewing_time"":7551.200000047684},{""page_index"":8,""viewing_time"":4150.5}]","75227.79999995232","","","","","","","","","","","","","","","","","","","","","","","",""
"pit-comprehension","103","799411","0.0-2.0-20.0-0.0","battery-v0.2","","""event"",""trial"",""time""
""fullscreenenter"",""1"",""3318""
","
","
","""event"",""trial"",""time""
""fullscreenenter"",""1"",""3318""
","
","","","4931.699999928474","[""SPACE""]","0","24","10842","5038","","","","","","","","","","","","","","","","","","",""
"pit-instructions","104","802544","0.0-2.0-20.0-1.0","battery-v0.2","","""event"",""trial"",""time""
""fullscreenenter"",""1"",""3318""
","
","
","""event"",""trial"",""time""
""fullscreenenter"",""1"",""3318""
","
","","[{""page_index"":0,""viewing_time"":3101.600000023842}]","3102","","","","","","","","","","","","","","","","","","","","","","","",""
"pit-comprehension","105","808751","0.0-2.0-21.0-0.0","battery-v0.2","","""event"",""trial"",""time""
""fullscreenenter"",""1"",""3318""
","
","
","""event"",""trial"",""time""
""fullscreenenter"",""1"",""3318""
","
","","","6202.700000047684","[""10""]","0","24","10842","5038","","","","","","","","","","","","","","","","","","",""
"pit-instructions","106","813415","0.0-2.0-21.0-1.0","battery-v0.2","","""event"",""trial"",""time""
""fullscreenenter"",""1"",""3318""
","
","
","""event"",""trial"",""time""
""fullscreenenter"",""1"",""3318""
","
","","[{""page_index"":0,""viewing_time"":4637.600000023842}]","4638","","","","","","","","","","","","","","","","","","","","","","","",""
"pit-comprehension","107","820803","0.0-2.0-22.0-0.0","battery-v0.2","","""event"",""trial"",""time""
""fullscreenenter"",""1"",""3318""
","
","
","""event"",""trial"",""time""
""fullscreenenter"",""1"",""3318""
","
","","","7382","[""0""]","0","24","10842","5038","","","","","","","","","","","","","","","","","","",""
"pit-instructions","108","822475","0.0-2.0-22.0-1.0","battery-v0.2","","""event"",""trial"",""time""
""fullscreenenter"",""1"",""3318""
","
","
","""event"",""trial"",""time""
""fullscreenenter"",""1"",""3318""
","
","","[{""page_index"":0,""viewing_time"":1643.5}]","1643.7000000476837","","","","","","","","","","","","","","","","","","","","","","","",""
"pit-comprehension","109","833775","0.0-2.0-23.0-0.0","battery-v0.2","","""event"",""trial"",""time""
""fullscreenenter"",""1"",""3318""
","
","
","""event"",""trial"",""time""
""fullscreenenter"",""1"",""3318""
","
","","","11294.899999976158","[""True""]","0","24","10842","5038","","","","","","","","","","","","","","","","","","",""
"pit-instructions","110","846043","0.0-2.0-23.0-1.0","battery-v0.2","","""event"",""trial"",""time""
""fullscreenenter"",""1"",""3318""
","
","
","""event"",""trial"",""time""
""fullscreenenter"",""1"",""3318""
","
","","[{""page_index"":0,""viewing_time"":12240.700000047684}]","12241.100000023842","","","","","","","","","","","","","","","","","","","","","","","",""
"pit-comprehension","111","854686","0.0-2.0-24.0-0.0","battery-v0.2","","""event"",""trial"",""time""
""fullscreenenter"",""1"",""3318""
","
","
","""event"",""trial"",""time""
""fullscreenenter"",""1"",""3318""
","
","","","8639","[""True""]","0","24","10842","5038","","","","","","","","","","","","","","","","","","",""
"pit-instructions","112","856333","0.0-2.0-24.0-1.0","battery-v0.2","","""event"",""trial"",""time""
""fullscreenenter"",""1"",""3318""
","
","
","""event"",""trial"",""time""
""fullscreenenter"",""1"",""3318""
","
","","[{""page_index"":0,""viewing_time"":1617.3999999761581}]","1617.7000000476837","","","","","","","","","","","","","","","","","","","","","","","",""
"pit-comprehension","113","863365","0.0-2.0-25.0-0.0","battery-v0.2","","""event"",""trial"",""time""
""fullscreenenter"",""1"",""3318""
","
","
","""event"",""trial"",""time""
""fullscreenenter"",""1"",""3318""
","
","","","7028.100000023842","[""True""]","0","24","10842","5038","","","","","","","","","","","","","","","","","","",""
"pit-instructions","114","864941","0.0-2.0-25.0-1.0","battery-v0.2","","""event"",""trial"",""time""
""fullscreenenter"",""1"",""3318""
","
","
","""event"",""trial"",""time""
""fullscreenenter"",""1"",""3318""
","
","","[{""page_index"":0,""viewing_time"":1548.8999999761581}]","1549.3999999761581","","","","","","","","","","","","","","","","","","","","","","","",""
"pit-comprehension","115","872826","0.0-2.0-26.0-0.0","battery-v0.2","","""event"",""trial"",""time""
""fullscreenenter"",""1"",""3318""
","
","
","""event"",""trial"",""time""
""fullscreenenter"",""1"",""3318""
","
","","","7880.5","[""False""]","0","24","10842","5038","","","","","","","","","","","","","","","","","","",""
"pit-instructions","116","874372","0.0-2.0-26.0-1.0","battery-v0.2","","""event"",""trial"",""time""
""fullscreenenter"",""1"",""3318""
","
","
","""event"",""trial"",""time""
""fullscreenenter"",""1"",""3318""
","
","","[{""page_index"":0,""viewing_time"":1517.7999999523163}]","1518.1999999284744","","","","","","","","","","","","","","","","","","","","","","","",""
"pit-instructions","117","894181","0.0-3.0","battery-v0.2","","""event"",""trial"",""time""
""fullscreenenter"",""1"",""3318""
","
","
","""event"",""trial"",""time""
""fullscreenenter"",""1"",""3318""
","
","","[{""page_index"":0,""viewing_time"":4425.299999952316},{""page_index"":1,""viewing_time"":7120.700000047684},{""page_index"":2,""viewing_time"":8260}]","19806.299999952316","","","","","","","","","","","","","","","","","","","","","","","",""
"pit-trial","118","897900","0.0-4.0","battery-v0.2","","""event"",""trial"",""time""
""fullscreenenter"",""1"",""3318""
","
","
","""event"",""trial"",""time""
""fullscreenenter"",""1"",""3318""
","
","","","861.8999999761581","","","24","10842","5038","&#9733;","elianto","#3366ff99","-1"," ","0","0","[1712.3999999761581]","1","1","","","10842","1","2","2","win","no-go","0"
"pit-trial","119","901649","0.0-5.0","battery-v0.2","","""event"",""trial"",""time""
""fullscreenenter"",""1"",""3318""
","
","
","""event"",""trial"",""time""
""fullscreenenter"",""1"",""3318""
","
","","","870.4000000953674","","","24","10842","5038","&#9752;","elianto","#f73b6a7A"," "," ","1","0","[1731]","1","1","","","10842","2","3","3","lose","go","0"
"pit-trial","120","905613","0.0-6.0","battery-v0.2","","""event"",""trial"",""time""
""fullscreenenter"",""1"",""3318""
","
","
","""event"",""trial"",""time""
""fullscreenenter"",""1"",""3318""
","
","","","1099.7000000476837","","","24","10842","5038","&#9730;","elianto","#3366ff99"," "," ","1","0","[1950.2999999523163]","1","1","","","10842","3","1","1","win","go","1"
"pit-trial","121","909163","0.0-7.0","battery-v0.2","","""event"",""trial"",""time""
""fullscreenenter"",""1"",""3318""
","
","
","""event"",""trial"",""time""
""fullscreenenter"",""1"",""3318""
","
","","","692.3000000715256","","","24","10842","5038","&#9728;","elianto","#f73b6a7A","-1"," ","0","0","[1543.3999999761581]","1","1","","","10842","4","0","4","lose","no-go","1"
"pit-trial","122","912796","0.0-8.0","battery-v0.2","","""event"",""trial"",""time""
""fullscreenenter"",""1"",""3318""
","
","
","""event"",""trial"",""time""
""fullscreenenter"",""1"",""3318""
","
","","","773.1000000238419","","","24","10842","5038","&#9752;","elianto","#f73b6a7A"," "," ","1","0","[1624.6999999284744]","1","1","","","10842","5","3","3","lose","go","0"
"pit-trial","123","916723","0.0-9.0","battery-v0.2","","""event"",""trial"",""time""
""fullscreenenter"",""1"",""3318""
","
","
","""event"",""trial"",""time""
""fullscreenenter"",""1"",""3318""
","
","","","1064.7999999523163","","","24","10842","5038","&#9730;","elianto","#3366ff99"," "," ","1","+10","[1915.6999999284744]","1","1","","","10842","6","1","1","win","go","0"
"pit-trial","124","920311","0.0-10.0","battery-v0.2","","""event"",""trial"",""time""
""fullscreenenter"",""1"",""3318""
","
","
","""event"",""trial"",""time""
""fullscreenenter"",""1"",""3318""
","
","","","719.3999999761581","","","24","10842","5038","&#9733;","elianto","#3366ff99","-1"," ","0","+10","[1575.7999999523163]","1","1","","","10842","7","2","2","win","no-go","1"
"pit-trial","125","923760","0.0-11.0","battery-v0.2","","""event"",""trial"",""time""
""fullscreenenter"",""1"",""3318""
","
","
","""event"",""trial"",""time""
""fullscreenenter"",""1"",""3318""
","
","","","584.9000000953674","","","24","10842","5038","&#9728;","elianto","#f73b6a7A","-1"," ","0","-10","[1437.1000000238419]","1","1","","","10842","8","0","4","lose","no-go","0"
"pit-trial","126","927335","0.0-12.0","battery-v0.2","","""event"",""trial"",""time""
""fullscreenenter"",""1"",""3318""
","
","
","""event"",""trial"",""time""
""fullscreenenter"",""1"",""3318""
","
","","","710.2000000476837","","","24","10842","5038","&#9730;","elianto","#3366ff99"," "," ","1","+10","[1563.6999999284744]","1","1","","","10842","9","1","1","win","go","0"
"pit-trial","127","932204","0.0-13.0","battery-v0.2","","""event"",""trial"",""time""
""fullscreenenter"",""1"",""3318""
","
","
","""event"",""trial"",""time""
""fullscreenenter"",""1"",""3318""
","
","","","-1","","","24","10842","5038","&#9728;","elianto","#f73b6a7A","-1","-1","1","-10","[]","0","1","","","10842","10","0","4","lose","no-go","1"
"pit-trial","128","936223","0.0-14.0","battery-v0.2","","""event"",""trial"",""time""
""fullscreenenter"",""1"",""3318""
","
","
","""event"",""trial"",""time""
""fullscreenenter"",""1"",""3318""
","
","","","1146.5","","","24","10842","5038","&#9752;","elianto","#f73b6a7A"," "," ","1","0","[2004.7999999523163]","1","1","","","10842","11","3","3","lose","go","0"
"pit-trial","129","939960","0.0-15.0","battery-v0.2","","""event"",""trial"",""time""
""fullscreenenter"",""1"",""3318""
","
","
","""event"",""trial"",""time""
""fullscreenenter"",""1"",""3318""
","
","","","864.3000000715256","","","24","10842","5038","&#9733;","elianto","#3366ff99","-1"," ","0","0","[1720.7000000476837]","1","1","","","10842","12","2","2","win","no-go","0"
"pit-trial","130","943567","0.0-16.0","battery-v0.2","","""event"",""trial"",""time""
""fullscreenenter"",""1"",""3318""
","
","
","""event"",""trial"",""time""
""fullscreenenter"",""1"",""3318""
","
","","","738.4000000953674","","","24","10842","5038","&#9730;","elianto","#3366ff99"," "," ","1","0","[1589.8000000715256]","1","1","","","10842","13","1","1","win","go","1"
"pit-trial","131","946999","0.0-17.0","battery-v0.2","","""event"",""trial"",""time""
""fullscreenenter"",""1"",""3318""
","
","
","""event"",""trial"",""time""
""fullscreenenter"",""1"",""3318""
","
","","","563.1999999284744","","","24","10842","5038","&#9733;","elianto","#3366ff99","-1"," ","0","0","[1417.7999999523163]","1","1","","","10842","14","2","2","win","no-go","0"
"pit-trial","132","951867","0.0-18.0","battery-v0.2","","""event"",""trial"",""time""
""fullscreenenter"",""1"",""3318""
","
","
","""event"",""trial"",""time""
""fullscreenenter"",""1"",""3318""
","
","","","-1","","","24","10842","5038","&#9728;","elianto","#f73b6a7A","-1","-1","1","0","[]","0","1","","","10842","15","0","4","lose","no-go","0"
"pit-trial","133","955532","0.0-19.0","battery-v0.2","","""event"",""trial"",""time""
""fullscreenenter"",""1"",""3318""
","
","
","""event"",""trial"",""time""
""fullscreenenter"",""1"",""3318""
","
","","","789.4000000953674","","","24","10842","5038","&#9752;","elianto","#f73b6a7A"," "," ","1","0","[1650.2000000476837]","1","1","","","10842","16","3","3","lose","go","0"
"pit-trial","134","960406","0.0-20.0","battery-v0.2","","""event"",""trial"",""time""
""fullscreenenter"",""1"",""3318""
","
","
","""event"",""trial"",""time""
""fullscreenenter"",""1"",""3318""
","
","","","-1","","","24","10842","5038","&#9728;","elianto","#f73b6a7A","-1","-1","1","0","[]","0","1","","","10842","17","0","4","lose","no-go","0"
"pit-trial","135","963911","0.0-21.0","battery-v0.2","","""event"",""trial"",""time""
""fullscreenenter"",""1"",""3318""
","
","
","""event"",""trial"",""time""
""fullscreenenter"",""1"",""3318""
","
","","","632.6999999284744","","","24","10842","5038","&#9733;","elianto","#3366ff99","-1"," ","0","0","[1489.5999999046326]","1","1","","","10842","18","2","2","win","no-go","0"
"pit-trial","136","967823","0.0-22.0","battery-v0.2","","""event"",""trial"",""time""
""fullscreenenter"",""1"",""3318""
","
","
","""event"",""trial"",""time""
""fullscreenenter"",""1"",""3318""
","
","","","1043.8999999761581","","","24","10842","5038","&#9752;","elianto","#f73b6a7A"," "," ","1","0","[1895.3999999761581]","1","1","","","10842","19","3","3","lose","go","0"
"pit-trial","137","971398","0.0-23.0","battery-v0.2","","""event"",""trial"",""time""
""fullscreenenter"",""1"",""3318""
","
","
","""event"",""trial"",""time""
""fullscreenenter"",""1"",""3318""
","
","","","704.2999999523163","","","24","10842","5038","&#9730;","elianto","#3366ff99"," "," ","1","+10","[1560.6999999284744]","1","1","","","10842","20","1","1","win","go","0"
"pit-instructions","138","989825","0.0-24.0","battery-v0.2","","""event"",""trial"",""time""
""fullscreenenter"",""1"",""3318""
","
","
","""event"",""trial"",""time""
""fullscreenenter"",""1"",""3318""
","
","","[{""page_index"":0,""viewing_time"":11253.700000047684},{""page_index"":1,""viewing_time"":7167.5}]","18421.600000023842","","","","","","","","","","","","","","","","","","","","","","","",""
"pit-trial","139","993547","0.0-25.0","battery-v0.2","","""event"",""trial"",""time""
""fullscreenenter"",""1"",""3318""
","
","
","""event"",""trial"",""time""
""fullscreenenter"",""1"",""3318""
","
","","","861.3999999761581","","","24","10842","5038","d","elianto","#3366ff99","-1"," ","0","0","[1715.8999999761581]","1","2","","","10842","21","1","2","win","no-go","0"
"pit-trial","140","997637","0.0-26.0","battery-v0.2","","""event"",""trial"",""time""
""fullscreenenter"",""1"",""3318""
","
","
","""event"",""trial"",""time""
""fullscreenenter"",""1"",""3318""
","
","","","1214.2000000476837","","","24","10842","5038","e","elianto","#f73b6a7A"," "," ","1","0","[2073.8000000715256]","1","2","","","10842","22","2","3","lose","go","0"
"pit-trial","141","1001947","0.0-27.0","battery-v0.2","","""event"",""trial"",""time""
""fullscreenenter"",""1"",""3318""
","
","
","""event"",""trial"",""time""
""fullscreenenter"",""1"",""3318""
","
","","","1446","","","24","10842","5038","w","elianto","#f73b6a7A","-1"," ","0","0","[2300.1999999284744]","1","2","","","10842","23","3","4","lose","no-go","1"
"pit-trial","142","1005838","0.0-28.0","battery-v0.2","","""event"",""trial"",""time""
""fullscreenenter"",""1"",""3318""
","
","
","""event"",""trial"",""time""
""fullscreenenter"",""1"",""3318""
","
","","","1022.2000000476837","","","24","10842","5038","j","elianto","#f73b6a7A"," "," ","1","0","[1872.5]","1","2","","","10842","24","0","3","lose","go","0"
"pit-trial","143","1010705","0.0-29.0","battery-v0.2","","""event"",""trial"",""time""
""fullscreenenter"",""1"",""3318""
","
","
","""event"",""trial"",""time""
""fullscreenenter"",""1"",""3318""
","
","","","-1","","","24","10842","5038","e","elianto","#f73b6a7A"," ","-1","0","-10","[]","0","2","","","10842","25","2","3","lose","go","0"
"pit-trial","144","1015001","0.0-30.0","battery-v0.2","","""event"",""trial"",""time""
""fullscreenenter"",""1"",""3318""
","
","
","""event"",""trial"",""time""
""fullscreenenter"",""1"",""3318""
","
","","","1430.2999999523163","","","24","10842","5038","d","elianto","#3366ff99","-1"," ","0","0","[2283]","1","2","","","10842","26","1","2","win","no-go","0"
"pit-trial","145","1019866","0.0-31.0","battery-v0.2","","""event"",""trial"",""time""
""fullscreenenter"",""1"",""3318""
","
","
","""event"",""trial"",""time""
""fullscreenenter"",""1"",""3318""
","
","","","-1","","","24","10842","5038","w","elianto","#f73b6a7A","-1","-1","1","-10","[]","0","2","","","10842","27","3","4","lose","no-go","1"
"pit-trial","146","1023653","0.0-32.0","battery-v0.2","","""event"",""trial"",""time""
""fullscreenenter"",""1"",""3318""
","
","
","""event"",""trial"",""time""
""fullscreenenter"",""1"",""3318""
","
","","","915.3999999761581","","","24","10842","5038","j","elianto","#f73b6a7A"," "," ","1","-10","[1775]","1","2","","","10842","28","0","3","lose","go","1"
"pit-trial","147","1027110","0.0-33.0","battery-v0.2","","""event"",""trial"",""time""
""fullscreenenter"",""1"",""3318""
","
","
","""event"",""trial"",""time""
""fullscreenenter"",""1"",""3318""
","
","","","585.1000000238419","","","24","10842","5038","e","elianto","#f73b6a7A"," "," ","1","0","[1442.1999999284744]","1","2","","","10842","29","2","3","lose","go","0"
"pit-trial","148","1031083","0.0-34.0","battery-v0.2","","""event"",""trial"",""time""
""fullscreenenter"",""1"",""3318""
","
","
","""event"",""trial"",""time""
""fullscreenenter"",""1"",""3318""
","
","","","1104.7999999523163","","","24","10842","5038","w","elianto","#f73b6a7A","-1"," ","0","-10","[1958.5]","1","2","","","10842","30","3","4","lose","no-go","0"
"pit-trial","149","1035958","0.0-35.0","battery-v0.2","","""event"",""trial"",""time""
""fullscreenenter"",""1"",""3318""
","
","
","""event"",""trial"",""time""
""fullscreenenter"",""1"",""3318""
","
","","","-1","","","24","10842","5038","d","elianto","#3366ff99","-1","-1","1","+10","[]","0","2","","","10842","31","1","2","win","no-go","0"
"pit-trial","150","1040830","0.0-36.0","battery-v0.2","","""event"",""trial"",""time""
""fullscreenenter"",""1"",""3318""
","
","
","""event"",""trial"",""time""
""fullscreenenter"",""1"",""3318""
","
","","","-1","","","24","10842","5038","j","elianto","#f73b6a7A"," ","-1","0","-10","[3155.2999999523163]","1","2","","","10842","32","0","3","lose","go","0"
"pit-trial","151","1044341","0.0-37.0","battery-v0.2","","""event"",""trial"",""time""
""fullscreenenter"",""1"",""3318""
","
","
","""event"",""trial"",""time""
""fullscreenenter"",""1"",""3318""
","
","","","647.7000000476837","","","24","10842","5038","e","elianto","#f73b6a7A"," "," ","1","-10","[1498.1000000238419]","1","2","","","10842","33","2","3","lose","go","1"
"pit-trial","152","1047997","0.0-38.0","battery-v0.2","","""event"",""trial"",""time""
""fullscreenenter"",""1"",""3318""
","
","
","""event"",""trial"",""time""
""fullscreenenter"",""1"",""3318""
","
","","","786.9000000953674","","","24","10842","5038","j","elianto","#f73b6a7A"," "," ","1","0","[1643.3999999761581]","1","2","","","10842","34","0","3","lose","go","0"
"pit-trial","153","1051541","0.0-39.0","battery-v0.2","","""event"",""trial"",""time""
""fullscreenenter"",""1"",""3318""
","
","
","""event"",""trial"",""time""
""fullscreenenter"",""1"",""3318""
","
","","","677.8999999761581","","","24","10842","5038","d","elianto","#3366ff99","-1"," ","0","0","[1529.3999999761581]","1","2","","","10842","35","1","2","win","no-go","0"
"pit-trial","154","1055080","0.0-40.0","battery-v0.2","","""event"",""trial"",""time""
""fullscreenenter"",""1"",""3318""
","
","
","""event"",""trial"",""time""
""fullscreenenter"",""1"",""3318""
","
","","","667.7000000476837","","","24","10842","5038","w","elianto","#f73b6a7A","-1"," ","0","-10","[1521.8999999761581]","1","2","","","10842","36","3","4","lose","no-go","0"
"pit-trial","155","1059237","0.0-41.0","battery-v0.2","","""event"",""trial"",""time""
""fullscreenenter"",""1"",""3318""
","
","
","""event"",""trial"",""time""
""fullscreenenter"",""1"",""3318""
","
","","","1287.6999999284744","","","24","10842","5038","e","elianto","#f73b6a7A"," "," ","1","0","[2140.100000023842]","1","2","","","10842","37","2","3","lose","go","0"
"pit-trial","156","1064109","0.0-42.0","battery-v0.2","","""event"",""trial"",""time""
""fullscreenenter"",""1"",""3318""
","
","
","""event"",""trial"",""time""
""fullscreenenter"",""1"",""3318""
","
","","","-1","","","24","10842","5038","j","elianto","#f73b6a7A"," ","-1","0","-10","[3214.1999999284744]","1","2","","","10842","38","0","3","lose","go","0"
"pit-trial","157","1068389","0.0-43.0","battery-v0.2","","""event"",""trial"",""time""
""fullscreenenter"",""1"",""3318""
","
","
","""event"",""trial"",""time""
""fullscreenenter"",""1"",""3318""
","
","","","1410","","","24","10842","5038","d","elianto","#3366ff99","-1"," ","0","0","[2261.899999976158]","1","2","","","10842","39","1","2","win","no-go","0"
"pit-trial","158","1072790","0.0-44.0","battery-v0.2","","""event"",""trial"",""time""
""fullscreenenter"",""1"",""3318""
","
","
","""event"",""trial"",""time""
""fullscreenenter"",""1"",""3318""
","
","","","1525.3000000715256","","","24","10842","5038","w","elianto","#f73b6a7A","-1"," ","0","-10","[2380.5]","1","2","","","10842","40","3","4","lose","no-go","0"
"pit-trial","159","1077664","0.0-45.0","battery-v0.2","","""event"",""trial"",""time""
""fullscreenenter"",""1"",""3318""
","
","
","""event"",""trial"",""time""
""fullscreenenter"",""1"",""3318""
","
","","","-1","","","24","10842","5038","w","elianto","#f73b6a7A","-1","-1","1","0","[]","0","2","","","10842","41","3","4","lose","no-go","0"
"pit-trial","160","1081969","0.0-46.0","battery-v0.2","","""event"",""trial"",""time""
""fullscreenenter"",""1"",""3318""
","
","
","""event"",""trial"",""time""
""fullscreenenter"",""1"",""3318""
","
","","","1433.7999999523163","","","24","10842","5038","d","elianto","#3366ff99","-1"," ","0","+10","[2285.0999999046326]","1","2","","","10842","42","1","2","win","no-go","1"
"pit-trial","161","1086843","0.0-47.0","battery-v0.2","","""event"",""trial"",""time""
""fullscreenenter"",""1"",""3318""
","
","
","""event"",""trial"",""time""
""fullscreenenter"",""1"",""3318""
","
","","","-1","","","24","10842","5038","e","elianto","#f73b6a7A"," ","-1","0","0","[]","0","2","","","10842","43","2","3","lose","go","1"
"pit-trial","162","1091457","0.0-48.0","battery-v0.2","","""event"",""trial"",""time""
""fullscreenenter"",""1"",""3318""
","
","
","""event"",""trial"",""time""
""fullscreenenter"",""1"",""3318""
","
","","","1741.6000000238419","","","24","10842","5038","j","elianto","#f73b6a7A"," "," ","1","-10","[2597]","1","2","","","10842","44","0","3","lose","go","1"
"pit-trial","163","1096331","0.0-49.0","battery-v0.2","","""event"",""trial"",""time""
""fullscreenenter"",""1"",""3318""
","
","
","""event"",""trial"",""time""
""fullscreenenter"",""1"",""3318""
","
","","","-1","","","24","10842","5038","j","elianto","#f73b6a7A"," ","-1","0","-10","[]","0","2","","","10842","45","0","3","lose","go","0"
"pit-trial","164","1100962","0.0-50.0","battery-v0.2","","""event"",""trial"",""time""
""fullscreenenter"",""1"",""3318""
","
","
","""event"",""trial"",""time""
""fullscreenenter"",""1"",""3318""
","
","","","1760.3000000715256","","","24","10842","5038","w","elianto","#f73b6a7A","-1"," ","0","-10","[2616.100000023842]","1","2","","","10842","46","3","4","lose","no-go","0"
"pit-trial","165","1105300","0.0-51.0","battery-v0.2","","""event"",""trial"",""time""
""fullscreenenter"",""1"",""3318""
","
","
","""event"",""trial"",""time""
""fullscreenenter"",""1"",""3318""
","
","","","1462.5","","","24","10842","5038","d","elianto","#3366ff99","-1"," ","0","0","[2319.899999976158]","1","2","","","10842","47","1","2","win","no-go","0"
"pit-trial","166","1110168","0.0-52.0","battery-v0.2","","""event"",""trial"",""time""
""fullscreenenter"",""1"",""3318""
","
","
","""event"",""trial"",""time""
""fullscreenenter"",""1"",""3318""
","
","","","-1","","","24","10842","5038","e","elianto","#f73b6a7A"," ","-1","0","-10","[]","0","2","","","10842","48","2","3","lose","go","0"
"pit-trial","167","1114498","0.0-53.0","battery-v0.2","","""event"",""trial"",""time""
""fullscreenenter"",""1"",""3318""
","
","
","""event"",""trial"",""time""
""fullscreenenter"",""1"",""3318""
","
","","","1469.7999999523163","","","24","10842","5038","e","elianto","#f73b6a7A"," "," ","1","0","[2321.399999976158]","1","2","","","10842","49","2","3","lose","go","0"
"pit-trial","168","1119372","0.0-54.0","battery-v0.2","","""event"",""trial"",""time""
""fullscreenenter"",""1"",""3318""
","
","
","""event"",""trial"",""time""
""fullscreenenter"",""1"",""3318""
","
","","","-1","","","24","10842","5038","j","elianto","#f73b6a7A"," ","-1","0","-10","[]","0","2","","","10842","50","0","3","lose","go","0"
"pit-trial","169","1124245","0.0-55.0","battery-v0.2","","""event"",""trial"",""time""
""fullscreenenter"",""1"",""3318""
","
","
","""event"",""trial"",""time""
""fullscreenenter"",""1"",""3318""
","
","","","-1","","","24","10842","5038","w","elianto","#f73b6a7A","-1","-1","1","0","[]","0","2","","","10842","51","3","4","lose","no-go","0"
"pit-trial","170","1128391","0.0-56.0","battery-v0.2","","""event"",""trial"",""time""
""fullscreenenter"",""1"",""3318""
","
","
","""event"",""trial"",""time""
""fullscreenenter"",""1"",""3318""
","
","","","1279.5999999046326","","","24","10842","5038","d","elianto","#3366ff99","-1"," ","0","0","[2135.899999976158]","1","2","","","10842","52","1","2","win","no-go","0"
"pit-trial","171","1133261","0.0-57.0","battery-v0.2","","""event"",""trial"",""time""
""fullscreenenter"",""1"",""3318""
","
","
","""event"",""trial"",""time""
""fullscreenenter"",""1"",""3318""
","
","","","-1","","","24","10842","5038","w","elianto","#f73b6a7A","-1","-1","1","0","[]","0","2","","","10842","53","3","4","lose","no-go","0"
"pit-trial","172","1138133","0.0-58.0","battery-v0.2","","""event"",""trial"",""time""
""fullscreenenter"",""1"",""3318""
","
","
","""event"",""trial"",""time""
""fullscreenenter"",""1"",""3318""
","
","","","-1","","","24","10842","5038","j","elianto","#f73b6a7A"," ","-1","0","-10","[]","0","2","","","10842","54","0","3","lose","go","0"
"pit-trial","173","1142436","0.0-59.0","battery-v0.2","","""event"",""trial"",""time""
""fullscreenenter"",""1"",""3318""
","
","
","""event"",""trial"",""time""
""fullscreenenter"",""1"",""3318""
","
","","","1434.2999999523163","","","24","10842","5038","e","elianto","#f73b6a7A"," "," ","1","0","[2288.7999999523163]","1","2","","","10842","55","2","3","lose","go","0"
"pit-trial","174","1147308","0.0-60.0","battery-v0.2","","""event"",""trial"",""time""
""fullscreenenter"",""1"",""3318""
","
","
","""event"",""trial"",""time""
""fullscreenenter"",""1"",""3318""
","
","","","-1","","","24","10842","5038","d","elianto","#3366ff99","-1","-1","1","+10","[]","0","2","","","10842","56","1","2","win","no-go","0"
"pit-trial","175","1151172","0.0-61.0","battery-v0.2","","""event"",""trial"",""time""
""fullscreenenter"",""1"",""3318""
","
","
","""event"",""trial"",""time""
""fullscreenenter"",""1"",""3318""
","
","","","992.8999999761581","","","24","10842","5038","s","elianto","#3366ff99"," "," ","1","+10","[1849.2000000476837]","1","2","","","10842","57","4","1","win","go","0"
"pit-trial","176","1156045","0.0-62.0","battery-v0.2","","""event"",""trial"",""time""
""fullscreenenter"",""1"",""3318""
","
","
","""event"",""trial"",""time""
""fullscreenenter"",""1"",""3318""
","
","","","-1","","","24","10842","5038","e","elianto","#f73b6a7A"," ","-1","0","-10","[]","0","2","","","10842","58","2","3","lose","go","0"
"pit-trial","177","1159789","0.0-63.0","battery-v0.2","","""event"",""trial"",""time""
""fullscreenenter"",""1"",""3318""
","
","
","""event"",""trial"",""time""
""fullscreenenter"",""1"",""3318""
","
","","","874","","","24","10842","5038","w","elianto","#f73b6a7A","-1"," ","0","0","[1730]","1","2","","","10842","59","3","4","lose","no-go","1"
"pit-trial","178","1164157","0.0-64.0","battery-v0.2","","""event"",""trial"",""time""
""fullscreenenter"",""1"",""3318""
","
","
","""event"",""trial"",""time""
""fullscreenenter"",""1"",""3318""
","
","","","1495.6000000238419","","","24","10842","5038","j","elianto","#f73b6a7A"," "," ","1","0","[2350.2999999523163]","1","2","","","10842","60","0","3","lose","go","0"
"pit-trial","179","1168061","0.0-65.0","battery-v0.2","","""event"",""trial"",""time""
""fullscreenenter"",""1"",""3318""
","
","
","""event"",""trial"",""time""
""fullscreenenter"",""1"",""3318""
","
","","","1034.5","","","24","10842","5038","s","elianto","#3366ff99"," "," ","1","0","[1888.6999999284744]","1","2","","","10842","61","4","1","win","go","1"
"pit-trial","180","1172933","0.0-66.0","battery-v0.2","","""event"",""trial"",""time""
""fullscreenenter"",""1"",""3318""
","
","
","""event"",""trial"",""time""
""fullscreenenter"",""1"",""3318""
","
","","","-1","","","24","10842","5038","d","elianto","#3366ff99","-1","-1","1","+10","[]","0","2","","","10842","62","1","2","win","no-go","0"
"pit-trial","181","1177188","0.0-67.0","battery-v0.2","","""event"",""trial"",""time""
""fullscreenenter"",""1"",""3318""
","
","
","""event"",""trial"",""time""
""fullscreenenter"",""1"",""3318""
","
","","","1386.7000000476837","","","24","10842","5038","e","elianto","#f73b6a7A"," "," ","1","0","[2242.5]","1","2","","","10842","63","2","3","lose","go","0"
"pit-trial","182","1182059","0.0-68.0","battery-v0.2","","""event"",""trial"",""time""
""fullscreenenter"",""1"",""3318""
","
","
","""event"",""trial"",""time""
""fullscreenenter"",""1"",""3318""
","
","","","-1","","","24","10842","5038","w","elianto","#f73b6a7A","-1","-1","1","0","[]","0","2","","","10842","64","3","4","lose","no-go","0"
"pit-trial","183","1186932","0.0-69.0","battery-v0.2","","""event"",""trial"",""time""
""fullscreenenter"",""1"",""3318""
","
","
","""event"",""trial"",""time""
""fullscreenenter"",""1"",""3318""
","
","","","-1","","","24","10842","5038","w","elianto","#f73b6a7A","-1","-1","1","-10","[]","0","2","","","10842","65","3","4","lose","no-go","1"
"pit-trial","184","1190883","0.0-70.0","battery-v0.2","","""event"",""trial"",""time""
""fullscreenenter"",""1"",""3318""
","
","
","""event"",""trial"",""time""
""fullscreenenter"",""1"",""3318""
","
","","","1081.3000000715256","","","24","10842","5038","s","elianto","#3366ff99"," "," ","1","+10","[1936.3000000715256]","1","2","","","10842","66","4","1","win","go","0"
"pit-trial","185","1195756","0.0-71.0","battery-v0.2","","""event"",""trial"",""time""
""fullscreenenter"",""1"",""3318""
","
","
","""event"",""trial"",""time""
""fullscreenenter"",""1"",""3318""
","
","","","-1","","","24","10842","5038","d","elianto","#3366ff99","-1","-1","1","+10","[]","0","2","","","10842","67","1","2","win","no-go","0"
"pit-trial","186","1199652","0.0-72.0","battery-v0.2","","""event"",""trial"",""time""
""fullscreenenter"",""1"",""3318""
","
","
","""event"",""trial"",""time""
""fullscreenenter"",""1"",""3318""
","
","","","1034.6000000238419","","","24","10842","5038","p","elianto","#3366ff99","-1"," ","0","0","[1884.7999999523163]","1","2","","","10842","68","5","2","win","no-go","0"
"pit-trial","187","1203348","0.0-73.0","battery-v0.2","","""event"",""trial"",""time""
""fullscreenenter"",""1"",""3318""
","
","
","""event"",""trial"",""time""
""fullscreenenter"",""1"",""3318""
","
","","","827.8999999761581","","","24","10842","5038","d","elianto","#3366ff99","-1"," ","0","+10","[1678.5]","1","2","","","10842","69","1","2","win","no-go","1"
"pit-trial","188","1208220","0.0-74.0","battery-v0.2","","""event"",""trial"",""time""
""fullscreenenter"",""1"",""3318""
","
","
","""event"",""trial"",""time""
""fullscreenenter"",""1"",""3318""
","
","","","-1","","","24","10842","5038","e","elianto","#f73b6a7A"," ","-1","0","-10","[]","0","2","","","10842","70","2","3","lose","go","0"
"pit-trial","189","1212196","0.0-75.0","battery-v0.2","","""event"",""trial"",""time""
""fullscreenenter"",""1"",""3318""
","
","
","""event"",""trial"",""time""
""fullscreenenter"",""1"",""3318""
","
","","","1111.6000000238419","","","24","10842","5038","s","elianto","#3366ff99"," "," ","1","+10","[1962.1000000238419]","1","2","","","10842","71","4","1","win","go","0"
"pit-trial","190","1216156","0.0-76.0","battery-v0.2","","""event"",""trial"",""time""
""fullscreenenter"",""1"",""3318""
","
","
","""event"",""trial"",""time""
""fullscreenenter"",""1"",""3318""
","
","","","1091.7000000476837","","","24","10842","5038","p","elianto","#3366ff99","-1"," ","0","0","[1947.8999999761581]","1","2","","","10842","72","5","2","win","no-go","0"
"pit-trial","191","1221028","0.0-77.0","battery-v0.2","","""event"",""trial"",""time""
""fullscreenenter"",""1"",""3318""
","
","
","""event"",""trial"",""time""
""fullscreenenter"",""1"",""3318""
","
","","","-1","","","24","10842","5038","p","elianto","#3366ff99","-1","-1","1","+10","[]","0","2","","","10842","73","5","2","win","no-go","0"
"pit-trial","192","1225888","0.0-78.0","battery-v0.2","","""event"",""trial"",""time""
""fullscreenenter"",""1"",""3318""
","
","
","""event"",""trial"",""time""
""fullscreenenter"",""1"",""3318""
","
","","","-1","","","24","10842","5038","s","elianto","#3366ff99"," ","-1","0","0","[]","0","2","","","10842","74","4","1","win","go","0"
"pit-trial","193","1230764","0.0-79.0","battery-v0.2","","""event"",""trial"",""time""
""fullscreenenter"",""1"",""3318""
","
","
","""event"",""trial"",""time""
""fullscreenenter"",""1"",""3318""
","
","","","-1","","","24","10842","5038","w","elianto","#f73b6a7A","-1","-1","1","0","[]","0","2","","","10842","75","3","4","lose","no-go","0"
"pit-trial","194","1235636","0.0-80.0","battery-v0.2","","""event"",""trial"",""time""
""fullscreenenter"",""1"",""3318""
","
","
","""event"",""trial"",""time""
""fullscreenenter"",""1"",""3318""
","
","","","-1","","","24","10842","5038","d","elianto","#3366ff99","-1","-1","1","+10","[]","0","2","","","10842","76","1","2","win","no-go","0"
"pit-trial","195","1239692","0.0-81.0","battery-v0.2","","""event"",""trial"",""time""
""fullscreenenter"",""1"",""3318""
","
","
","""event"",""trial"",""time""
""fullscreenenter"",""1"",""3318""
","
","","","1190.7999999523163","","","24","10842","5038","s","elianto","#3366ff99"," "," ","1","+10","[2041.0999999046326]","1","2","","","10842","77","4","1","win","go","0"
"pit-trial","196","1243403","0.0-82.0","battery-v0.2","","""event"",""trial"",""time""
""fullscreenenter"",""1"",""3318""
","
","
","""event"",""trial"",""time""
""fullscreenenter"",""1"",""3318""
","
","","","841.1000000238419","","","24","10842","5038","s","elianto","#3366ff99"," "," ","1","+10","[1696.5]","1","2","","","10842","78","4","1","win","go","0"
"pit-trial","197","1247387","0.0-83.0","battery-v0.2","","""event"",""trial"",""time""
""fullscreenenter"",""1"",""3318""
","
","
","""event"",""trial"",""time""
""fullscreenenter"",""1"",""3318""
","
","","","1117.1999999284744","","","24","10842","5038","p","elianto","#3366ff99","-1"," ","0","0","[1967.6000000238419]","1","2","","","10842","79","5","2","win","no-go","0"
"pit-trial","198","1252259","0.0-84.0","battery-v0.2","","""event"",""trial"",""time""
""fullscreenenter"",""1"",""3318""
","
","
","""event"",""trial"",""time""
""fullscreenenter"",""1"",""3318""
","
","","","-1","","","24","10842","5038","w","elianto","#f73b6a7A","-1","-1","1","0","[]","0","2","","","10842","80","3","4","lose","no-go","0"
"pit-trial","199","1257132","0.0-85.0","battery-v0.2","","""event"",""trial"",""time""
""fullscreenenter"",""1"",""3318""
","
","
","""event"",""trial"",""time""
""fullscreenenter"",""1"",""3318""
","
","","","-1","","","24","10842","5038","w","elianto","#f73b6a7A","-1","-1","1","0","[]","0","2","","","10842","81","3","4","lose","no-go","0"
"pit-trial","200","1262003","0.0-86.0","battery-v0.2","","""event"",""trial"",""time""
""fullscreenenter"",""1"",""3318""
","
","
","""event"",""trial"",""time""
""fullscreenenter"",""1"",""3318""
","
","","","-1","","","24","10842","5038","p","elianto","#3366ff99","-1","-1","1","+10","[]","0","2","","","10842","82","5","2","win","no-go","0"
"pit-trial","201","1265624","0.0-87.0","battery-v0.2","","""event"",""trial"",""time""
""fullscreenenter"",""1"",""3318""
","
","
","""event"",""trial"",""time""
""fullscreenenter"",""1"",""3318""
","
","","","756.8000000715256","","","24","10842","5038","s","elianto","#3366ff99"," "," ","1","+10","[1611]","1","2","","","10842","83","4","1","win","go","0"
"pit-trial","202","1270500","0.0-88.0","battery-v0.2","","""event"",""trial"",""time""
""fullscreenenter"",""1"",""3318""
","
","
","""event"",""trial"",""time""
""fullscreenenter"",""1"",""3318""
","
","","","-1","","","24","10842","5038","a","elianto","#f73b6a7A","-1","-1","1","0","[]","0","2","","","10842","84","7","4","lose","no-go","0"
"pit-trial","203","1275367","0.0-89.0","battery-v0.2","","""event"",""trial"",""time""
""fullscreenenter"",""1"",""3318""
","
","
","""event"",""trial"",""time""
""fullscreenenter"",""1"",""3318""
","
","","","-1","","","24","10842","5038","p","elianto","#3366ff99","-1","-1","1","+10","[]","0","2","","","10842","85","5","2","win","no-go","0"
"pit-trial","204","1278993","0.0-90.0","battery-v0.2","","""event"",""trial"",""time""
""fullscreenenter"",""1"",""3318""
","
","
","""event"",""trial"",""time""
""fullscreenenter"",""1"",""3318""
","
","","","760.7000000476837","","","24","10842","5038","s","elianto","#3366ff99"," "," ","1","+10","[1615]","1","2","","","10842","86","4","1","win","go","0"
"pit-trial","205","1283866","0.0-91.0","battery-v0.2","","""event"",""trial"",""time""
""fullscreenenter"",""1"",""3318""
","
","
","""event"",""trial"",""time""
""fullscreenenter"",""1"",""3318""
","
","","","-1","","","24","10842","5038","a","elianto","#f73b6a7A","-1","-1","1","0","[]","0","2","","","10842","87","7","4","lose","no-go","0"
"pit-trial","206","1287971","0.0-92.0","battery-v0.2","","""event"",""trial"",""time""
""fullscreenenter"",""1"",""3318""
","
","
","""event"",""trial"",""time""
""fullscreenenter"",""1"",""3318""
","
","","","1235.3999999761581","","","24","10842","5038","g","elianto","#f73b6a7A"," "," ","1","-10","[2090.5999999046326]","1","2","","","10842","88","6","3","lose","go","1"
"pit-trial","207","1292843","0.0-93.0","battery-v0.2","","""event"",""trial"",""time""
""fullscreenenter"",""1"",""3318""
","
","
","""event"",""trial"",""time""
""fullscreenenter"",""1"",""3318""
","
","","","-1","","","24","10842","5038","p","elianto","#3366ff99","-1","-1","1","+10","[]","0","2","","","10842","89","5","2","win","no-go","0"
"pit-trial","208","1297714","0.0-94.0","battery-v0.2","","""event"",""trial"",""time""
""fullscreenenter"",""1"",""3318""
","
","
","""event"",""trial"",""time""
""fullscreenenter"",""1"",""3318""
","
","","","2000.1000000238419","","","24","10842","5038","s","elianto","#3366ff99"," "," ","1","+10","[2854.899999976158]","1","2","","","10842","90","4","1","win","go","0"
"pit-trial","209","1302588","0.0-95.0","battery-v0.2","","""event"",""trial"",""time""
""fullscreenenter"",""1"",""3318""
","
","
","""event"",""trial"",""time""
""fullscreenenter"",""1"",""3318""
","
","","","-1","","","24","10842","5038","g","elianto","#f73b6a7A"," ","-1","0","0","[]","0","2","","","10842","91","6","3","lose","go","1"
"pit-trial","210","1307457","0.0-96.0","battery-v0.2","","""event"",""trial"",""time""
""fullscreenenter"",""1"",""3318""
","
","
","""event"",""trial"",""time""
""fullscreenenter"",""1"",""3318""
","
","","","-1","","","24","10842","5038","a","elianto","#f73b6a7A","-1","-1","1","0","[]","0","2","","","10842","92","7","4","lose","no-go","0"
"pit-trial","211","1312330","0.0-97.0","battery-v0.2","","""event"",""trial"",""time""
""fullscreenenter"",""1"",""3318""
","
","
","""event"",""trial"",""time""
""fullscreenenter"",""1"",""3318""
","
","","","-1","","","24","10842","5038","a","elianto","#f73b6a7A","-1","-1","1","0","[]","0","2","","","10842","93","7","4","lose","no-go","0"
"pit-trial","212","1316252","0.0-98.0","battery-v0.2","","""event"",""trial"",""time""
""fullscreenenter"",""1"",""3318""
","
","
","""event"",""trial"",""time""
""fullscreenenter"",""1"",""3318""
","
","","","1050.3999999761581","","","24","10842","5038","l","elianto","#3366ff99"," "," ","1","0","[1904.7000000476837]","1","2","","","10842","94","8","1","win","go","1"
"pit-trial","213","1321122","0.0-99.0","battery-v0.2","","""event"",""trial"",""time""
""fullscreenenter"",""1"",""3318""
","
","
","""event"",""trial"",""time""
""fullscreenenter"",""1"",""3318""
","
","","","-1","","","24","10842","5038","g","elianto","#f73b6a7A"," ","-1","0","-10","[]","0","2","","","10842","95","6","3","lose","go","0"
"pit-trial","214","1325250","0.0-100.0","battery-v0.2","","""event"",""trial"",""time""
""fullscreenenter"",""1"",""3318""
","
","
","""event"",""trial"",""time""
""fullscreenenter"",""1"",""3318""
","
","","","1257.8999999761581","","","24","10842","5038","p","elianto","#3366ff99","-1"," ","0","0","[2112.5]","1","2","","","10842","96","5","2","win","no-go","0"
"pit-trial","215","1330123","0.0-101.0","battery-v0.2","","""event"",""trial"",""time""
""fullscreenenter"",""1"",""3318""
","
","
","""event"",""trial"",""time""
""fullscreenenter"",""1"",""3318""
","
","","","-1","","","24","10842","5038","p","elianto","#3366ff99","-1","-1","1","+10","[]","0","2","","","10842","97","5","2","win","no-go","0"
"pit-trial","216","1334307","0.0-102.0","battery-v0.2","","""event"",""trial"",""time""
""fullscreenenter"",""1"",""3318""
","
","
","""event"",""trial"",""time""
""fullscreenenter"",""1"",""3318""
","
","","","1316.1000000238419","","","24","10842","5038","g","elianto","#f73b6a7A"," "," ","1","0","[2170.2999999523163]","1","2","","","10842","98","6","3","lose","go","0"
"pit-trial","217","1338482","0.0-103.0","battery-v0.2","","""event"",""trial"",""time""
""fullscreenenter"",""1"",""3318""
","
","
","""event"",""trial"",""time""
""fullscreenenter"",""1"",""3318""
","
","","","1308.3999999761581","","","24","10842","5038","a","elianto","#f73b6a7A","-1"," ","0","-10","[2162.5]","1","2","","","10842","99","7","4","lose","no-go","0"
"pit-trial","218","1342305","0.0-104.0","battery-v0.2","","""event"",""trial"",""time""
""fullscreenenter"",""1"",""3318""
","
","
","""event"",""trial"",""time""
""fullscreenenter"",""1"",""3318""
","
","","","951.2999999523163","","","24","10842","5038","l","elianto","#3366ff99"," "," ","1","+10","[1807.1999999284744]","1","2","","","10842","100","8","1","win","go","0"
"pit-trial","219","1345866","0.0-105.0","battery-v0.2","","""event"",""trial"",""time""
""fullscreenenter"",""1"",""3318""
","
","
","""event"",""trial"",""time""
""fullscreenenter"",""1"",""3318""
","
","","","699.3999999761581","","","24","10842","5038","l","elianto","#3366ff99"," "," ","1","0","[1550.3999999761581]","1","2","","","10842","101","8","1","win","go","1"
"pit-trial","220","1349594","0.0-106.0","battery-v0.2","","""event"",""trial"",""time""
""fullscreenenter"",""1"",""3318""
","
","
","""event"",""trial"",""time""
""fullscreenenter"",""1"",""3318""
","
","","","854.6000000238419","","","24","10842","5038","p","elianto","#3366ff99","-1"," ","0","0","[1710.1000000238419]","1","2","","","10842","102","5","2","win","no-go","0"
"pit-trial","221","1353403","0.0-107.0","battery-v0.2","","""event"",""trial"",""time""
""fullscreenenter"",""1"",""3318""
","
","
","""event"",""trial"",""time""
""fullscreenenter"",""1"",""3318""
","
","","","935.8999999761581","","","24","10842","5038","u","elianto","#3366ff99"," "," ","1","+10","[1792.2000000476837]","1","2","","","10842","103","9","1","win","go","0"
"pit-trial","222","1358273","0.0-108.0","battery-v0.2","","""event"",""trial"",""time""
""fullscreenenter"",""1"",""3318""
","
","
","""event"",""trial"",""time""
""fullscreenenter"",""1"",""3318""
","
","","","-1","","","24","10842","5038","a","elianto","#f73b6a7A","-1","-1","1","-10","[]","0","2","","","10842","104","7","4","lose","no-go","1"
"pit-trial","223","1362058","0.0-109.0","battery-v0.2","","""event"",""trial"",""time""
""fullscreenenter"",""1"",""3318""
","
","
","""event"",""trial"",""time""
""fullscreenenter"",""1"",""3318""
","
","","","918.2999999523163","","","24","10842","5038","s","elianto","#3366ff99"," "," ","1","+10","[1769.8999999761581]","1","2","","","10842","105","4","1","win","go","0"
"pit-trial","224","1365794","0.0-110.0","battery-v0.2","","""event"",""trial"",""time""
""fullscreenenter"",""1"",""3318""
","
","
","""event"",""trial"",""time""
""fullscreenenter"",""1"",""3318""
","
","","","868.2999999523163","","","24","10842","5038","u","elianto","#3366ff99"," "," ","1","+10","[1725]","1","2","","","10842","106","9","1","win","go","0"
"pit-trial","225","1369778","0.0-111.0","battery-v0.2","","""event"",""trial"",""time""
""fullscreenenter"",""1"",""3318""
","
","
","""event"",""trial"",""time""
""fullscreenenter"",""1"",""3318""
","
","","","1112.1000000238419","","","24","10842","5038","l","elianto","#3366ff99"," "," ","1","0","[1968]","1","2","","","10842","107","8","1","win","go","1"
"pit-trial","226","1373882","0.0-112.0","battery-v0.2","","""event"",""trial"",""time""
""fullscreenenter"",""1"",""3318""
","
","
","""event"",""trial"",""time""
""fullscreenenter"",""1"",""3318""
","
","","","1242.2000000476837","","","24","10842","5038","g","elianto","#f73b6a7A"," "," ","1","-10","[2100.2000000476837]","1","2","","","10842","108","6","3","lose","go","1"
"pit-trial","227","1377634","0.0-113.0","battery-v0.2","","""event"",""trial"",""time""
""fullscreenenter"",""1"",""3318""
","
","
","""event"",""trial"",""time""
""fullscreenenter"",""1"",""3318""
","
","","","883","","","24","10842","5038","u","elianto","#3366ff99"," "," ","1","+10","[1739.1000000238419]","1","2","","","10842","109","9","1","win","go","0"
"pit-trial","228","1381138","0.0-114.0","battery-v0.2","","""event"",""trial"",""time""
""fullscreenenter"",""1"",""3318""
","
","
","""event"",""trial"",""time""
""fullscreenenter"",""1"",""3318""
","
","","","632.5","","","24","10842","5038","l","elianto","#3366ff99"," "," ","1","+10","[1488.3000000715256]","1","2","","","10842","110","8","1","win","go","0"
"pit-trial","229","1384970","0.0-115.0","battery-v0.2","","""event"",""trial"",""time""
""fullscreenenter"",""1"",""3318""
","
","
","""event"",""trial"",""time""
""fullscreenenter"",""1"",""3318""
","
","","","967.7000000476837","","","24","10842","5038","p","elianto","#3366ff99","-1"," ","0","0","[1818]","1","2","","","10842","111","5","2","win","no-go","0"
"pit-trial","230","1389839","0.0-116.0","battery-v0.2","","""event"",""trial"",""time""
""fullscreenenter"",""1"",""3318""
","
","
","""event"",""trial"",""time""
""fullscreenenter"",""1"",""3318""
","
","","","-1","","","24","10842","5038","g","elianto","#f73b6a7A"," ","-1","0","0","[]","0","2","","","10842","112","6","3","lose","go","1"
"pit-trial","231","1394715","0.0-117.0","battery-v0.2","","""event"",""trial"",""time""
""fullscreenenter"",""1"",""3318""
","
","
","""event"",""trial"",""time""
""fullscreenenter"",""1"",""3318""
","
","","","-1","","","24","10842","5038","g","elianto","#f73b6a7A"," ","-1","0","-10","[]","0","2","","","10842","113","6","3","lose","go","0"
"pit-trial","232","1398546","0.0-118.0","battery-v0.2","","""event"",""trial"",""time""
""fullscreenenter"",""1"",""3318""
","
","
","""event"",""trial"",""time""
""fullscreenenter"",""1"",""3318""
","
","","","960.1000000238419","","","24","10842","5038","p","elianto","#3366ff99","-1"," ","0","0","[1813.3000000715256]","1","2","","","10842","114","5","2","win","no-go","0"
"pit-trial","233","1402089","0.0-119.0","battery-v0.2","","""event"",""trial"",""time""
""fullscreenenter"",""1"",""3318""
","
","
","""event"",""trial"",""time""
""fullscreenenter"",""1"",""3318""
","
","","","676.6999999284744","","","24","10842","5038","l","elianto","#3366ff99"," "," ","1","0","[1533.7000000476837]","1","2","","","10842","115","8","1","win","go","1"
"pit-trial","234","1405802","0.0-120.0","battery-v0.2","","""event"",""trial"",""time""
""fullscreenenter"",""1"",""3318""
","
","
","""event"",""trial"",""time""
""fullscreenenter"",""1"",""3318""
","
","","","849","","","24","10842","5038","u","elianto","#3366ff99"," "," ","1","+10","[1700.6999999284744]","1","2","","","10842","116","9","1","win","go","0"
"pit-trial","235","1410674","0.0-121.0","battery-v0.2","","""event"",""trial"",""time""
""fullscreenenter"",""1"",""3318""
","
","
","""event"",""trial"",""time""
""fullscreenenter"",""1"",""3318""
","
","","","-1","","","24","10842","5038","g","elianto","#f73b6a7A"," ","-1","0","-10","[]","0","2","","","10842","117","6","3","lose","go","0"
"pit-trial","236","1415545","0.0-122.0","battery-v0.2","","""event"",""trial"",""time""
""fullscreenenter"",""1"",""3318""
","
","
","""event"",""trial"",""time""
""fullscreenenter"",""1"",""3318""
","
","","","-1","","","24","10842","5038","p","elianto","#3366ff99","-1","-1","1","+10","[]","0","2","","","10842","118","5","2","win","no-go","0"
"pit-trial","237","1419682","0.0-123.0","battery-v0.2","","""event"",""trial"",""time""
""fullscreenenter"",""1"",""3318""
","
","
","""event"",""trial"",""time""
""fullscreenenter"",""1"",""3318""
","
","","","1266.6999999284744","","","24","10842","5038","l","elianto","#3366ff99"," "," ","1","+10","[2123.1999999284744]","1","2","","","10842","119","8","1","win","go","0"
"pit-trial","238","1423552","0.0-124.0","battery-v0.2","","""event"",""trial"",""time""
""fullscreenenter"",""1"",""3318""
","
","
","""event"",""trial"",""time""
""fullscreenenter"",""1"",""3318""
","
","","","999.8000000715256","","","24","10842","5038","u","elianto","#3366ff99"," "," ","1","+10","[1857.2000000476837]","1","2","","","10842","120","9","1","win","go","0"
"pit-trial","239","1428426","0.0-125.0","battery-v0.2","","""event"",""trial"",""time""
""fullscreenenter"",""1"",""3318""
","
","
","""event"",""trial"",""time""
""fullscreenenter"",""1"",""3318""
","
","","","-1","","","24","10842","5038","a","elianto","#f73b6a7A","-1","-1","1","0","[]","0","2","","","10842","121","7","4","lose","no-go","0"
"pit-trial","240","1432298","0.0-126.0","battery-v0.2","","""event"",""trial"",""time""
""fullscreenenter"",""1"",""3318""
","
","
","""event"",""trial"",""time""
""fullscreenenter"",""1"",""3318""
","
","","","999.7999999523163","","","24","10842","5038","u","elianto","#3366ff99"," "," ","1","+10","[1854.5]","1","2","","","10842","122","9","1","win","go","0"
"pit-trial","241","1436065","0.0-127.0","battery-v0.2","","""event"",""trial"",""time""
""fullscreenenter"",""1"",""3318""
","
","
","""event"",""trial"",""time""
""fullscreenenter"",""1"",""3318""
","
","","","900.1000000238419","","","24","10842","5038","l","elianto","#3366ff99"," "," ","1","+10","[1756.2000000476837]","1","2","","","10842","123","8","1","win","go","0"
"pit-trial","242","1440938","0.0-128.0","battery-v0.2","","""event"",""trial"",""time""
""fullscreenenter"",""1"",""3318""
","
","
","""event"",""trial"",""time""
""fullscreenenter"",""1"",""3318""
","
","","","-1","","","24","10842","5038","g","elianto","#f73b6a7A"," ","-1","0","-10","[]","0","2","","","10842","124","6","3","lose","go","0"
"pit-trial","243","1444895","0.0-129.0","battery-v0.2","","""event"",""trial"",""time""
""fullscreenenter"",""1"",""3318""
","
","
","""event"",""trial"",""time""
""fullscreenenter"",""1"",""3318""
","
","","","1090.3000000715256","","","24","10842","5038","u","elianto","#3366ff99"," "," ","1","+10","[1940.7999999523163]","1","2","","","10842","125","9","1","win","go","0"
"pit-trial","244","1449768","0.0-130.0","battery-v0.2","","""event"",""trial"",""time""
""fullscreenenter"",""1"",""3318""
","
","
","""event"",""trial"",""time""
""fullscreenenter"",""1"",""3318""
","
","","","-1","","","24","10842","5038","l","elianto","#3366ff99"," ","-1","0","0","[]","0","2","","","10842","126","8","1","win","go","0"
"pit-trial","245","1454641","0.0-131.0","battery-v0.2","","""event"",""trial"",""time""
""fullscreenenter"",""1"",""3318""
","
","
","""event"",""trial"",""time""
""fullscreenenter"",""1"",""3318""
","
","","","-1","","","24","10842","5038","a","elianto","#f73b6a7A","-1","-1","1","0","[]","0","2","","","10842","127","7","4","lose","no-go","0"
"pit-trial","246","1459513","0.0-132.0","battery-v0.2","","""event"",""trial"",""time""
""fullscreenenter"",""1"",""3318""
","
","
","""event"",""trial"",""time""
""fullscreenenter"",""1"",""3318""
","
","","","-1","","","24","10842","5038","g","elianto","#f73b6a7A"," ","-1","0","-10","[]","0","2","","","10842","128","6","3","lose","go","0"
"pit-trial","247","1463041","0.0-133.0","battery-v0.2","","""event"",""trial"",""time""
""fullscreenenter"",""1"",""3318""
","
","
","""event"",""trial"",""time""
""fullscreenenter"",""1"",""3318""
","
","","","654.5","","","24","10842","5038","g","elianto","#f73b6a7A"," "," ","1","0","[1510.9000000953674]","1","2","","","10842","129","6","3","lose","go","0"
"pit-trial","248","1467041","0.0-134.0","battery-v0.2","","""event"",""trial"",""time""
""fullscreenenter"",""1"",""3318""
","
","
","""event"",""trial"",""time""
""fullscreenenter"",""1"",""3318""
","
","","","1133.7999999523163","","","24","10842","5038","l","elianto","#3366ff99"," "," ","1","+10","[1983.8999999761581]","1","2","","","10842","130","8","1","win","go","0"
"pit-trial","249","1471914","0.0-135.0","battery-v0.2","","""event"",""trial"",""time""
""fullscreenenter"",""1"",""3318""
","
","
","""event"",""trial"",""time""
""fullscreenenter"",""1"",""3318""
","
","","","-1","","","24","10842","5038","a","elianto","#f73b6a7A","-1","-1","1","0","[]","0","2","","","10842","131","7","4","lose","no-go","0"
"pit-trial","250","1475697","0.0-136.0","battery-v0.2","","""event"",""trial"",""time""
""fullscreenenter"",""1"",""3318""
","
","
","""event"",""trial"",""time""
""fullscreenenter"",""1"",""3318""
","
","","","909.3999999761581","","","24","10842","5038","u","elianto","#3366ff99"," "," ","1","+10","[1765.2999999523163]","1","2","","","10842","132","9","1","win","go","0"
"pit-trial","251","1479225","0.0-137.0","battery-v0.2","","""event"",""trial"",""time""
""fullscreenenter"",""1"",""3318""
","
","
","""event"",""trial"",""time""
""fullscreenenter"",""1"",""3318""
","
","","","654.5","","","24","10842","5038","u","elianto","#3366ff99"," "," ","1","+10","[1511.3000000715256]","1","2","","","10842","133","9","1","win","go","0"
"pit-trial","252","1484097","0.0-138.0","battery-v0.2","","""event"",""trial"",""time""
""fullscreenenter"",""1"",""3318""
","
","
","""event"",""trial"",""time""
""fullscreenenter"",""1"",""3318""
","
","","","-1","","","24","10842","5038","a","elianto","#f73b6a7A","-1","-1","1","-10","[]","0","2","","","10842","134","7","4","lose","no-go","1"
"pit-trial","253","1488360","0.0-139.0","battery-v0.2","","""event"",""trial"",""time""
""fullscreenenter"",""1"",""3318""
","
","
","""event"",""trial"",""time""
""fullscreenenter"",""1"",""3318""
","
","","","1396.7000000476837","","","24","10842","5038","l","elianto","#3366ff99"," "," ","1","+10","[2252]","1","2","","","10842","135","8","1","win","go","0"
"pit-trial","254","1493233","0.0-140.0","battery-v0.2","","""event"",""trial"",""time""
""fullscreenenter"",""1"",""3318""
","
","
","""event"",""trial"",""time""
""fullscreenenter"",""1"",""3318""
","
","","","-1","","","24","10842","5038","g","elianto","#f73b6a7A"," ","-1","0","-10","[]","0","2","","","10842","136","6","3","lose","go","0"
"pit-trial","255","1496745","0.0-141.0","battery-v0.2","","""event"",""trial"",""time""
""fullscreenenter"",""1"",""3318""
","
","
","""event"",""trial"",""time""
""fullscreenenter"",""1"",""3318""
","
","","","641","","","24","10842","5038","g","elianto","#f73b6a7A"," "," ","1","0","[1497.3000000715256]","1","2","","","10842","137","6","3","lose","go","0"
"pit-trial","256","1500249","0.0-142.0","battery-v0.2","","""event"",""trial"",""time""
""fullscreenenter"",""1"",""3318""
","
","
","""event"",""trial"",""time""
""fullscreenenter"",""1"",""3318""
","
","","","630.5","","","24","10842","5038","u","elianto","#3366ff99"," "," ","1","0","[1485.7000000476837]","1","2","","","10842","138","9","1","win","go","1"
"pit-trial","257","1503817","0.0-143.0","battery-v0.2","","""event"",""trial"",""time""
""fullscreenenter"",""1"",""3318""
","
","
","""event"",""trial"",""time""
""fullscreenenter"",""1"",""3318""
","
","","","693.2000000476837","","","24","10842","5038","l","elianto","#3366ff99"," "," ","1","+10","[1549.3999999761581]","1","2","","","10842","139","8","1","win","go","0"
"pit-trial","258","1508687","0.0-144.0","battery-v0.2","","""event"",""trial"",""time""
""fullscreenenter"",""1"",""3318""
","
","
","""event"",""trial"",""time""
""fullscreenenter"",""1"",""3318""
","
","","","-1","","","24","10842","5038","a","elianto","#f73b6a7A","-1","-1","1","0","[]","0","2","","","10842","140","7","4","lose","no-go","0"
"pit-instructions","259","1536121","0.0-145.0","battery-v0.2","","""event"",""trial"",""time""
""fullscreenenter"",""1"",""3318""
","
","
","""event"",""trial"",""time""
""fullscreenenter"",""1"",""3318""
","
","","[{""page_index"":0,""viewing_time"":11491.5},{""page_index"":1,""viewing_time"":15937.099999904633}]","27428.899999976158","","","","","","","","","","","","","","","","","","","","","","","",""
"pit-trial","260","1539861","0.0-146.0","battery-v0.2","","""event"",""trial"",""time""
""fullscreenenter"",""1"",""3318""
","
","
","""event"",""trial"",""time""
""fullscreenenter"",""1"",""3318""
","
","","","873","","","24","10842","5038","t","elianto","#f73b6a7A","-1"," ","0","0","[1724.3999999761581]","1","3","","","10842","141","2","4","lose","no-go","1"
"pit-trial","261","1543665","0.0-147.0","battery-v0.2","","""event"",""trial"",""time""
""fullscreenenter"",""1"",""3318""
","
","
","""event"",""trial"",""time""
""fullscreenenter"",""1"",""3318""
","
","","","931.2000000476837","","","24","10842","5038","b","elianto","#f73b6a7A"," "," ","1","0","[1790.1000000238419]","1","3","","","10842","142","3","3","lose","go","0"
"pit-trial","262","1547825","0.0-148.0","battery-v0.2","","""event"",""trial"",""time""
""fullscreenenter"",""1"",""3318""
","
","
","""event"",""trial"",""time""
""fullscreenenter"",""1"",""3318""
","
","","","1291.2999999523163","","","24","10842","5038","f","elianto","#3366ff99"," "," ","1","+10","[2147.2000000476837]","1","3","","","10842","143","1","1","win","go","0"
"pit-trial","263","1551725","0.0-149.0","battery-v0.2","","""event"",""trial"",""time""
""fullscreenenter"",""1"",""3318""
","
","
","""event"",""trial"",""time""
""fullscreenenter"",""1"",""3318""
","
","","","1040.3000000715256","","","24","10842","5038","n","elianto","#f73b6a7A","-1"," ","0","-10","[1890.8999999761581]","1","3","","","10842","144","0","4","lose","no-go","0"
"pit-trial","264","1555358","0.0-150.0","battery-v0.2","","""event"",""trial"",""time""
""fullscreenenter"",""1"",""3318""
","
","
","""event"",""trial"",""time""
""fullscreenenter"",""1"",""3318""
","
","","","769.5","","","24","10842","5038","f","elianto","#3366ff99"," "," ","1","+10","[1619.8999999761581]","1","3","","","10842","145","1","1","win","go","0"
"pit-trial","265","1558941","0.0-151.0","battery-v0.2","","""event"",""trial"",""time""
""fullscreenenter"",""1"",""3318""
","
","
","""event"",""trial"",""time""
""fullscreenenter"",""1"",""3318""
","
","","","721.4000000953674","","","24","10842","5038","t","elianto","#f73b6a7A","-1"," ","0","-10","[1572]","1","3","","","10842","146","2","4","lose","no-go","0"
