"trial_type","trial_index","time_elapsed","internal_node_id","task_version","subject_id","interactions","blur_events","focus_events","fullscreenenter_events","fullscreenexit_events","success","view_history","rt","responses","num_errors","age","subject","participantId","rune","rune_set","hex","correct","choice","accuracy","outcome","keys","total_keys","block","practice","value","sub","trial","stimulus","robot","valence","action","sham"
"pavlovia","0","5","0.0-0.0","battery-v0.2","","""event"",""trial"",""time""
""fullscreenenter"",""1"",""3170""
","
","
","""event"",""trial"",""time""
""fullscreenenter"",""1"",""3170""
","
","","","","","","","","","","","","","","","","","","","","","","","","","","",""
"fullscreen","1","4156","0.0-1.0","battery-v0.2","","""event"",""trial"",""time""
""fullscreenenter"",""1"",""3170""
","
","
","""event"",""trial"",""time""
""fullscreenenter"",""1"",""3170""
","
","true","","","","","","","","","","","","","","","","","","","","","","","","","",""
"pit-instructions","2","11872","0.0-2.0-0.0","battery-v0.2","","""event"",""trial"",""time""
""fullscreenenter"",""1"",""3170""
","
","
","""event"",""trial"",""time""
""fullscreenenter"",""1"",""3170""
","
","","[{""page_index"":0,""viewing_time"":7711.900000095367}]","7712.600000143051","","","","","","","","","","","","","","","","","","","","","","","",""
"pit-comprehension","3","15322","0.0-2.0-1.0-0.0","battery-v0.2","","""event"",""trial"",""time""
""fullscreenenter"",""1"",""3170""
","
","
","""event"",""trial"",""time""
""fullscreenenter"",""1"",""3170""
","
","","","3448","[""shark""]","0","25","10979","741","","","","","","","","","","","","","","","","","","",""
"pit-instructions","4","21160","0.0-2.0-1.0-1.0","battery-v0.2","","""event"",""trial"",""time""
""fullscreenenter"",""1"",""3170""
","
","
","""event"",""trial"",""time""
""fullscreenenter"",""1"",""3170""
","
","","[{""page_index"":0,""viewing_time"":5828.099999904633}]","5828.400000095367","","","","","","","","","","","","","","","","","","","","","","","",""
"pit-comprehension","5","22896","0.0-2.0-2.0-0.0","battery-v0.2","","""event"",""trial"",""time""
""fullscreenenter"",""1"",""3170""
","
","
","""event"",""trial"",""time""
""fullscreenenter"",""1"",""3170""
","
","","","1733.7999999523163","[""tiger""]","0","25","10979","741","","","","","","","","","","","","","","","","","","",""
"pit-instructions","6","27696","0.0-2.0-2.0-1.0","battery-v0.2","","""event"",""trial"",""time""
""fullscreenenter"",""1"",""3170""
","
","
","""event"",""trial"",""time""
""fullscreenenter"",""1"",""3170""
","
","","[{""page_index"":0,""viewing_time"":4797.200000047684}]","4797.600000143051","","","","","","","","","","","","","","","","","","","","","","","",""
"pit-instructions","7","127877","0.0-2.0-3.0","battery-v0.2","","""event"",""trial"",""time""
""fullscreenenter"",""1"",""3170""
","
","
","""event"",""trial"",""time""
""fullscreenenter"",""1"",""3170""
","
","","[{""page_index"":0,""viewing_time"":8120.200000047684},{""page_index"":1,""viewing_time"":6083.599999904633},{""page_index"":2,""viewing_time"":6959.300000190735},{""page_index"":3,""viewing_time"":5648.299999952316},{""page_index"":4,""viewing_time"":5920.5},{""page_index"":5,""viewing_time"":5812.399999856949},{""page_index"":6,""viewing_time"":7892.400000095367},{""page_index"":7,""viewing_time"":6976.900000095367},{""page_index"":8,""viewing_time"":6342.199999809265},{""page_index"":9,""viewing_time"":8037.300000190735},{""page_index"":10,""viewing_time"":7366.599999904633},{""page_index"":11,""viewing_time"":7959.200000047684},{""page_index"":12,""viewing_time"":9022.5},{""page_index"":13,""viewing_time"":8038.299999952316}]","100180","","","","","","","","","","","","","","","","","","","","","","","",""
"pit-trial","8","130811","0.0-2.0-4.0-0.0","battery-v0.2","","""event"",""trial"",""time""
""fullscreenenter"",""1"",""3170""
","
","
","""event"",""trial"",""time""
""fullscreenenter"",""1"",""3170""
","
","","","58.10000014305115","","","25","10979","741","&#9784;","elianto","#FFFFF080"," "," ","1","&#10004","[914.8999998569489]","1","0","0","","","","","","","",""
"pit-trial","9","134292","0.0-2.0-4.1-0.1","battery-v0.2","","""event"",""trial"",""time""
""fullscreenenter"",""1"",""3170""
","
","
","""event"",""trial"",""time""
""fullscreenenter"",""1"",""3170""
","
","","","610.2000000476837","","","25","10979","741","&#9784;","elianto","#FFFFF080"," "," ","1","&#10004","[1461]","1","0","0","","","","","","","",""
"pit-trial","10","138006","0.0-2.0-4.2-0.2","battery-v0.2","","""event"",""trial"",""time""
""fullscreenenter"",""1"",""3170""
","
","
","""event"",""trial"",""time""
""fullscreenenter"",""1"",""3170""
","
","","","849.7999999523163","","","25","10979","741","&#9784;","elianto","#FFFFF080"," "," ","1","&#10004","[1708.0999999046326]","1","0","0","","","","","","","",""
"pit-trial","11","142253","0.0-2.0-4.3-0.3","battery-v0.2","","""event"",""trial"",""time""
""fullscreenenter"",""1"",""3170""
","
","
","""event"",""trial"",""time""
""fullscreenenter"",""1"",""3170""
","
","","","1384","","","25","10979","741","&#9784;","elianto","#FFFFF080"," "," ","1","&#10004","[2234.9000000953674]","1","0","0","","","","","","","",""
"pit-trial","12","145841","0.0-2.0-4.4-0.4","battery-v0.2","","""event"",""trial"",""time""
""fullscreenenter"",""1"",""3170""
","
","
","""event"",""trial"",""time""
""fullscreenenter"",""1"",""3170""
","
","","","721.1000001430511","","","25","10979","741","&#9784;","elianto","#FFFFF080"," "," ","1","&#10004","[1576.7999999523163]","1","0","0","","","","","","","",""
"pit-instructions","13","169078","0.0-2.0-5.0","battery-v0.2","","""event"",""trial"",""time""
""fullscreenenter"",""1"",""3170""
","
","
","""event"",""trial"",""time""
""fullscreenenter"",""1"",""3170""
","
","","[{""page_index"":0,""viewing_time"":5613.200000047684},{""page_index"":1,""viewing_time"":6118.5},{""page_index"":2,""viewing_time"":5845.5},{""page_index"":3,""viewing_time"":5657.900000095367}]","23235.400000095367","","","","","","","","","","","","","","","","","","","","","","","",""
"pit-trial","14","173933","0.0-2.0-6.0-0.0","battery-v0.2","","""event"",""trial"",""time""
""fullscreenenter"",""1"",""3170""
","
","
","""event"",""trial"",""time""
""fullscreenenter"",""1"",""3170""
","
","","","-1","","","25","10979","741","&#9854;","elianto","#FFFFF080","-1","-1","1","&#10004","[]","0","0","1","","","","","","","",""
"pit-trial","15","178805","0.0-2.0-6.1-0.1","battery-v0.2","","""event"",""trial"",""time""
""fullscreenenter"",""1"",""3170""
","
","
","""event"",""trial"",""time""
""fullscreenenter"",""1"",""3170""
","
","","","-1","","","25","10979","741","&#9854;","elianto","#FFFFF080","-1","-1","1","&#10004","[]","0","0","1","","","","","","","",""
"pit-trial","16","183680","0.0-2.0-6.2-0.2","battery-v0.2","","""event"",""trial"",""time""
""fullscreenenter"",""1"",""3170""
","
","
","""event"",""trial"",""time""
""fullscreenenter"",""1"",""3170""
","
","","","-1","","","25","10979","741","&#9854;","elianto","#FFFFF080","-1","-1","1","&#10004","[]","0","0","1","","","","","","","",""
"pit-trial","17","188565","0.0-2.0-6.3-0.3","battery-v0.2","","""event"",""trial"",""time""
""fullscreenenter"",""1"",""3170""
","
","
","""event"",""trial"",""time""
""fullscreenenter"",""1"",""3170""
","
","","","-1","","","25","10979","741","&#9854;","elianto","#FFFFF080","-1","-1","1","&#10004","[]","0","0","1","","","","","","","",""
"pit-trial","18","193423","0.0-2.0-6.4-0.4","battery-v0.2","","""event"",""trial"",""time""
""fullscreenenter"",""1"",""3170""
","
","
","""event"",""trial"",""time""
""fullscreenenter"",""1"",""3170""
","
","","","-1","","","25","10979","741","&#9854;","elianto","#FFFFF080","-1","-1","1","&#10004","[]","0","0","1","","","","","","","",""
"pit-instructions","19","339957","0.0-2.0-7.0","battery-v0.2","","""event"",""trial"",""time""
""fullscreenenter"",""1"",""3170""
","
","
","""event"",""trial"",""time""
""fullscreenenter"",""1"",""3170""
","
","","[{""page_index"":0,""viewing_time"":10220.400000095367},{""page_index"":1,""viewing_time"":7240},{""page_index"":2,""viewing_time"":6869.900000095367},{""page_index"":3,""viewing_time"":7487.599999904633},{""page_index"":4,""viewing_time"":6418.299999952316},{""page_index"":5,""viewing_time"":5969.700000047684},{""page_index"":6,""viewing_time"":5858.400000095367},{""page_index"":7,""viewing_time"":8352.899999856949},{""page_index"":8,""viewing_time"":13563.400000095367},{""page_index"":7,""viewing_time"":6717.399999856949},{""page_index"":8,""viewing_time"":6530.200000047684},{""page_index"":9,""viewing_time"":6509.400000095367},{""page_index"":10,""viewing_time"":6555.899999856949},{""page_index"":11,""viewing_time"":4814.5},{""page_index"":12,""viewing_time"":6928.400000095367},{""page_index"":13,""viewing_time"":7272.5},{""page_index"":14,""viewing_time"":7653.200000047684},{""page_index"":15,""viewing_time"":6264.299999952316},{""page_index"":16,""viewing_time"":6645},{""page_index"":17,""viewing_time"":8658.5}]","146530.20000004768","","","","","","","","","","","","","","","","","","","","","","","",""
"pit-trial","20","343771","0.0-2.0-8.0-0.0","battery-v0.2","","""event"",""trial"",""time""
""fullscreenenter"",""1"",""3170""
","
","
","""event"",""trial"",""time""
""fullscreenenter"",""1"",""3170""
","
","","","952.9000000953674","","","25","10979","741","&#9776;","elianto","#3366ff99"," "," ","1","+10","[1803.7999999523163]","1","0","1","","","","","","","",""
"pit-trial","21","347975","0.0-2.0-8.0-1.0","battery-v0.2","","""event"",""trial"",""time""
""fullscreenenter"",""1"",""3170""
","
","
","""event"",""trial"",""time""
""fullscreenenter"",""1"",""3170""
","
","","","1344.0999999046326","","","25","10979","741","&#9776;","elianto","#3366ff99"," "," ","1","+10","[2196.2999999523163]","1","0","1","","","","","","","",""
"pit-trial","22","351716","0.0-2.0-8.0-2.0","battery-v0.2","","""event"",""trial"",""time""
""fullscreenenter"",""1"",""3170""
","
","
","""event"",""trial"",""time""
""fullscreenenter"",""1"",""3170""
","
","","","875.5","","","25","10979","741","&#9776;","elianto","#3366ff99"," "," ","1","+10","[1728.5]","1","0","1","","","","","","","",""
"pit-trial","23","355221","0.0-2.0-8.0-3.0","battery-v0.2","","""event"",""trial"",""time""
""fullscreenenter"",""1"",""3170""
","
","
","""event"",""trial"",""time""
""fullscreenenter"",""1"",""3170""
","
","","","636","","","25","10979","741","&#9776;","elianto","#3366ff99"," "," ","1","0","[1492.2999999523163]","1","0","1","","","","","","","",""
"pit-trial","24","358842","0.0-2.0-8.0-4.0","battery-v0.2","","""event"",""trial"",""time""
""fullscreenenter"",""1"",""3170""
","
","
","""event"",""trial"",""time""
""fullscreenenter"",""1"",""3170""
","
","","","760.1000001430511","","","25","10979","741","&#9776;","elianto","#3366ff99"," "," ","1","+10","[1611.3999998569489]","1","0","1","","","","","","","",""
"pit-trial","25","362500","0.0-2.0-8.1-0.1","battery-v0.2","","""event"",""trial"",""time""
""fullscreenenter"",""1"",""3170""
","
","
","""event"",""trial"",""time""
""fullscreenenter"",""1"",""3170""
","
","","","777.5999999046326","","","25","10979","741","&#9776;","elianto","#3366ff99"," "," ","1","+10","[1639.5]","1","0","1","","","","","","","",""
"pit-trial","26","365858","0.0-2.0-8.1-1.1","battery-v0.2","","""event"",""trial"",""time""
""fullscreenenter"",""1"",""3170""
","
","
","""event"",""trial"",""time""
""fullscreenenter"",""1"",""3170""
","
","","","483.7999999523163","","","25","10979","741","&#9776;","elianto","#3366ff99"," "," ","1","+10","[1339.6000001430511]","1","0","1","","","","","","","",""
"pit-trial","27","369658","0.0-2.0-8.1-2.1","battery-v0.2","","""event"",""trial"",""time""
""fullscreenenter"",""1"",""3170""
","
","
","""event"",""trial"",""time""
""fullscreenenter"",""1"",""3170""
","
","","","941.5999999046326","","","25","10979","741","&#9776;","elianto","#3366ff99"," "," ","1","+10","[1797]","1","0","1","","","","","","","",""
"pit-trial","28","373139","0.0-2.0-8.1-3.1","battery-v0.2","","""event"",""trial"",""time""
""fullscreenenter"",""1"",""3170""
","
","
","""event"",""trial"",""time""
""fullscreenenter"",""1"",""3170""
","
","","","626.8000001907349","","","25","10979","741","&#9776;","elianto","#3366ff99"," "," ","1","0","[1478]","1","0","1","","","","","","","",""
"pit-trial","29","376451","0.0-2.0-8.1-4.1","battery-v0.2","","""event"",""trial"",""time""
""fullscreenenter"",""1"",""3170""
","
","
","""event"",""trial"",""time""
""fullscreenenter"",""1"",""3170""
","
","","","459.59999990463257","","","25","10979","741","&#9776;","elianto","#3366ff99"," "," ","1","+10","[1310.2000000476837]","1","0","1","","","","","","","",""
"pit-trial","30","379794","0.0-2.0-8.2-0.2","battery-v0.2","","""event"",""trial"",""time""
""fullscreenenter"",""1"",""3170""
","
","
","""event"",""trial"",""time""
""fullscreenenter"",""1"",""3170""
","
","","","489.19999980926514","","","25","10979","741","&#9776;","elianto","#3366ff99"," "," ","1","+10","[1339.5999999046326]","1","0","1","","","","","","","",""
"pit-trial","31","383105","0.0-2.0-8.2-1.2","battery-v0.2","","""event"",""trial"",""time""
""fullscreenenter"",""1"",""3170""
","
","
","""event"",""trial"",""time""
""fullscreenenter"",""1"",""3170""
","
","","","458.09999990463257","","","25","10979","741","&#9776;","elianto","#3366ff99"," "," ","1","+10","[1308.7999999523163]","1","0","1","","","","","","","",""
"pit-trial","32","386867","0.0-2.0-8.2-2.2","battery-v0.2","","""event"",""trial"",""time""
""fullscreenenter"",""1"",""3170""
","
","
","""event"",""trial"",""time""
""fullscreenenter"",""1"",""3170""
","
","","","908.7000000476837","","","25","10979","741","&#9776;","elianto","#3366ff99"," "," ","1","+10","[1758.7999999523163]","1","0","1","","","","","","","",""
"pit-trial","33","390203","0.0-2.0-8.2-3.2","battery-v0.2","","""event"",""trial"",""time""
""fullscreenenter"",""1"",""3170""
","
","
","""event"",""trial"",""time""
""fullscreenenter"",""1"",""3170""
","
","","","483.10000014305115","","","25","10979","741","&#9776;","elianto","#3366ff99"," "," ","1","0","[1333.4000000953674]","1","0","1","","","","","","","",""
"pit-trial","34","393514","0.0-2.0-8.2-4.2","battery-v0.2","","""event"",""trial"",""time""
""fullscreenenter"",""1"",""3170""
","
","
","""event"",""trial"",""time""
""fullscreenenter"",""1"",""3170""
","
","","","457.2999999523163","","","25","10979","741","&#9776;","elianto","#3366ff99"," "," ","1","+10","[1308.3999998569489]","1","0","1","","","","","","","",""
"call-function","35","393517","0.0-2.0-9.0","battery-v0.2","","""event"",""trial"",""time""
""fullscreenenter"",""1"",""3170""
","
","
","""event"",""trial"",""time""
""fullscreenenter"",""1"",""3170""
","
","","","","","","","","","","","","","","","","","","","","","","","","","","",""
"pit-instructions","36","466697","0.0-2.0-10.0","battery-v0.2","","""event"",""trial"",""time""
""fullscreenenter"",""1"",""3170""
","
","
","""event"",""trial"",""time""
""fullscreenenter"",""1"",""3170""
","
","","[{""page_index"":0,""viewing_time"":8486.400000095367},{""page_index"":1,""viewing_time"":8804.899999856949},{""page_index"":2,""viewing_time"":17486.200000047684},{""page_index"":3,""viewing_time"":11527.700000047684},{""page_index"":4,""viewing_time"":26874.200000047684}]","73179.79999995232","","","","","","","","","","","","","","","","","","","","","","","",""
"pit-trial","37","471560","0.0-2.0-11.0-0.0","battery-v0.2","","""event"",""trial"",""time""
""fullscreenenter"",""1"",""3170""
","
","
","""event"",""trial"",""time""
""fullscreenenter"",""1"",""3170""
","
","","","-1","","","25","10979","741","&#9761;","elianto","#3366ff99","-1","-1","1","+10","[]","0","0","2","","","","","","","",""
"pit-trial","38","476425","0.0-2.0-11.0-1.0","battery-v0.2","","""event"",""trial"",""time""
""fullscreenenter"",""1"",""3170""
","
","
","""event"",""trial"",""time""
""fullscreenenter"",""1"",""3170""
","
","","","-1","","","25","10979","741","&#9761;","elianto","#3366ff99","-1","-1","1","+10","[]","0","0","2","","","","","","","",""
"pit-trial","39","481279","0.0-2.0-11.0-2.0","battery-v0.2","","""event"",""trial"",""time""
""fullscreenenter"",""1"",""3170""
","
","
","""event"",""trial"",""time""
""fullscreenenter"",""1"",""3170""
","
","","","-1","","","25","10979","741","&#9761;","elianto","#3366ff99","-1","-1","1","+10","[]","0","0","2","","","","","","","",""
"pit-trial","40","486132","0.0-2.0-11.0-3.0","battery-v0.2","","""event"",""trial"",""time""
""fullscreenenter"",""1"",""3170""
","
","
","""event"",""trial"",""time""
""fullscreenenter"",""1"",""3170""
","
","","","-1","","","25","10979","741","&#9761;","elianto","#3366ff99","-1","-1","1","0","[]","0","0","2","","","","","","","",""
"pit-trial","41","490986","0.0-2.0-11.0-4.0","battery-v0.2","","""event"",""trial"",""time""
""fullscreenenter"",""1"",""3170""
","
","
","""event"",""trial"",""time""
""fullscreenenter"",""1"",""3170""
","
","","","-1","","","25","10979","741","&#9761;","elianto","#3366ff99","-1","-1","1","+10","[]","0","0","2","","","","","","","",""
"pit-trial","42","495841","0.0-2.0-11.1-0.1","battery-v0.2","","""event"",""trial"",""time""
""fullscreenenter"",""1"",""3170""
","
","
","""event"",""trial"",""time""
""fullscreenenter"",""1"",""3170""
","
","","","-1","","","25","10979","741","&#9761;","elianto","#3366ff99","-1","-1","1","+10","[]","0","0","2","","","","","","","",""
"pit-trial","43","500696","0.0-2.0-11.1-1.1","battery-v0.2","","""event"",""trial"",""time""
""fullscreenenter"",""1"",""3170""
","
","
","""event"",""trial"",""time""
""fullscreenenter"",""1"",""3170""
","
","","","-1","","","25","10979","741","&#9761;","elianto","#3366ff99","-1","-1","1","+10","[]","0","0","2","","","","","","","",""
"pit-trial","44","505548","0.0-2.0-11.1-2.1","battery-v0.2","","""event"",""trial"",""time""
""fullscreenenter"",""1"",""3170""
","
","
","""event"",""trial"",""time""
""fullscreenenter"",""1"",""3170""
","
","","","-1","","","25","10979","741","&#9761;","elianto","#3366ff99","-1","-1","1","+10","[]","0","0","2","","","","","","","",""
"pit-trial","45","510402","0.0-2.0-11.1-3.1","battery-v0.2","","""event"",""trial"",""time""
""fullscreenenter"",""1"",""3170""
","
","
","""event"",""trial"",""time""
""fullscreenenter"",""1"",""3170""
","
","","","-1","","","25","10979","741","&#9761;","elianto","#3366ff99","-1","-1","1","0","[]","0","0","2","","","","","","","",""
"pit-trial","46","515256","0.0-2.0-11.1-4.1","battery-v0.2","","""event"",""trial"",""time""
""fullscreenenter"",""1"",""3170""
","
","
","""event"",""trial"",""time""
""fullscreenenter"",""1"",""3170""
","
","","","-1","","","25","10979","741","&#9761;","elianto","#3366ff99","-1","-1","1","+10","[]","0","0","2","","","","","","","",""
"pit-trial","47","520112","0.0-2.0-11.2-0.2","battery-v0.2","","""event"",""trial"",""time""
""fullscreenenter"",""1"",""3170""
","
","
","""event"",""trial"",""time""
""fullscreenenter"",""1"",""3170""
","
","","","-1","","","25","10979","741","&#9761;","elianto","#3366ff99","-1","-1","1","+10","[]","0","0","2","","","","","","","",""
"pit-trial","48","524965","0.0-2.0-11.2-1.2","battery-v0.2","","""event"",""trial"",""time""
""fullscreenenter"",""1"",""3170""
","
","
","""event"",""trial"",""time""
""fullscreenenter"",""1"",""3170""
","
","","","-1","","","25","10979","741","&#9761;","elianto","#3366ff99","-1","-1","1","+10","[]","0","0","2","","","","","","","",""
"pit-trial","49","529819","0.0-2.0-11.2-2.2","battery-v0.2","","""event"",""trial"",""time""
""fullscreenenter"",""1"",""3170""
","
","
","""event"",""trial"",""time""
""fullscreenenter"",""1"",""3170""
","
","","","-1","","","25","10979","741","&#9761;","elianto","#3366ff99","-1","-1","1","+10","[]","0","0","2","","","","","","","",""
"pit-trial","50","534672","0.0-2.0-11.2-3.2","battery-v0.2","","""event"",""trial"",""time""
""fullscreenenter"",""1"",""3170""
","
","
","""event"",""trial"",""time""
""fullscreenenter"",""1"",""3170""
","
","","","-1","","","25","10979","741","&#9761;","elianto","#3366ff99","-1","-1","1","0","[]","0","0","2","","","","","","","",""
"pit-trial","51","539525","0.0-2.0-11.2-4.2","battery-v0.2","","""event"",""trial"",""time""
""fullscreenenter"",""1"",""3170""
","
","
","""event"",""trial"",""time""
""fullscreenenter"",""1"",""3170""
","
","","","-1","","","25","10979","741","&#9761;","elianto","#3366ff99","-1","-1","1","+10","[]","0","0","2","","","","","","","",""
"pit-trial","52","544379","0.0-2.0-11.3-0.3","battery-v0.2","","""event"",""trial"",""time""
""fullscreenenter"",""1"",""3170""
","
","
","""event"",""trial"",""time""
""fullscreenenter"",""1"",""3170""
","
","","","-1","","","25","10979","741","&#9761;","elianto","#3366ff99","-1","-1","1","+10","[]","0","0","2","","","","","","","",""
"pit-trial","53","549232","0.0-2.0-11.3-1.3","battery-v0.2","","""event"",""trial"",""time""
""fullscreenenter"",""1"",""3170""
","
","
","""event"",""trial"",""time""
""fullscreenenter"",""1"",""3170""
","
","","","-1","","","25","10979","741","&#9761;","elianto","#3366ff99","-1","-1","1","+10","[]","0","0","2","","","","","","","",""
"pit-trial","54","554086","0.0-2.0-11.3-2.3","battery-v0.2","","""event"",""trial"",""time""
""fullscreenenter"",""1"",""3170""
","
","
","""event"",""trial"",""time""
""fullscreenenter"",""1"",""3170""
","
","","","-1","","","25","10979","741","&#9761;","elianto","#3366ff99","-1","-1","1","+10","[]","0","0","2","","","","","","","",""
"pit-trial","55","558940","0.0-2.0-11.3-3.3","battery-v0.2","","""event"",""trial"",""time""
""fullscreenenter"",""1"",""3170""
","
","
","""event"",""trial"",""time""
""fullscreenenter"",""1"",""3170""
","
","","","-1","","","25","10979","741","&#9761;","elianto","#3366ff99","-1","-1","1","0","[]","0","0","2","","","","","","","",""
"pit-trial","56","563793","0.0-2.0-11.3-4.3","battery-v0.2","","""event"",""trial"",""time""
""fullscreenenter"",""1"",""3170""
","
","
","""event"",""trial"",""time""
""fullscreenenter"",""1"",""3170""
","
","","","-1","","","25","10979","741","&#9761;","elianto","#3366ff99","-1","-1","1","+10","[]","0","0","2","","","","","","","",""
"call-function","57","563796","0.0-2.0-12.0","battery-v0.2","","""event"",""trial"",""time""
""fullscreenenter"",""1"",""3170""
","
","
","""event"",""trial"",""time""
""fullscreenenter"",""1"",""3170""
","
","","","","","","","","","","","","","","","","","","","","","","","","","","",""
"pit-instructions","58","609116","0.0-2.0-13.0","battery-v0.2","","""event"",""trial"",""time""
""fullscreenenter"",""1"",""3170""
","
","
","""event"",""trial"",""time""
""fullscreenenter"",""1"",""3170""
","
","","[{""page_index"":0,""viewing_time"":8047.799999952316},{""page_index"":1,""viewing_time"":15842.5},{""page_index"":2,""viewing_time"":3736},{""page_index"":3,""viewing_time"":11430.899999856949},{""page_index"":4,""viewing_time"":6262.400000095367}]","45319.89999985695","","","","","","","","","","","","","","","","","","","","","","","",""
"pit-trial","59","613313","0.0-2.0-14.0-0.0","battery-v0.2","","""event"",""trial"",""time""
""fullscreenenter"",""1"",""3170""
","
","
","""event"",""trial"",""time""
""fullscreenenter"",""1"",""3170""
","
","","","1330.5999999046326","","","25","10979","741","&#9826;","elianto","#f73b6a7A","-1"," ","0","-10","[2187.2000000476837]","1","0","3","","","","","","","",""
"pit-trial","60","618170","0.0-2.0-14.0-1.0","battery-v0.2","","""event"",""trial"",""time""
""fullscreenenter"",""1"",""3170""
","
","
","""event"",""trial"",""time""
""fullscreenenter"",""1"",""3170""
","
","","","-1","","","25","10979","741","&#9826;","elianto","#f73b6a7A","-1","-1","1","0","[]","0","0","3","","","","","","","",""
"pit-trial","61","623035","0.0-2.0-14.0-2.0","battery-v0.2","","""event"",""trial"",""time""
""fullscreenenter"",""1"",""3170""
","
","
","""event"",""trial"",""time""
""fullscreenenter"",""1"",""3170""
","
","","","-1","","","25","10979","741","&#9826;","elianto","#f73b6a7A","-1","-1","1","0","[]","0","0","3","","","","","","","",""
"pit-trial","62","626911","0.0-2.0-14.0-3.0","battery-v0.2","","""event"",""trial"",""time""
""fullscreenenter"",""1"",""3170""
","
","
","""event"",""trial"",""time""
""fullscreenenter"",""1"",""3170""
","
","","","1010","","","25","10979","741","&#9826;","elianto","#f73b6a7A","-1"," ","0","0","[1861.4000000953674]","1","0","3","","","","","","","",""
"pit-trial","63","631784","0.0-2.0-14.0-4.0","battery-v0.2","","""event"",""trial"",""time""
""fullscreenenter"",""1"",""3170""
","
","
","""event"",""trial"",""time""
""fullscreenenter"",""1"",""3170""
","
","","","-1","","","25","10979","741","&#9826;","elianto","#f73b6a7A","-1","-1","1","0","[]","0","0","3","","","","","","","",""
"pit-trial","64","634976","0.0-2.0-14.1-0.1","battery-v0.2","","""event"",""trial"",""time""
""fullscreenenter"",""1"",""3170""
","
","
","""event"",""trial"",""time""
""fullscreenenter"",""1"",""3170""
","
","","","330.69999980926514","","","25","10979","741","&#9826;","elianto","#f73b6a7A","-1"," ","0","-10","[1182.5999999046326]","1","0","3","","","","","","","",""
"pit-trial","65","639830","0.0-2.0-14.1-1.1","battery-v0.2","","""event"",""trial"",""time""
""fullscreenenter"",""1"",""3170""
","
","
","""event"",""trial"",""time""
""fullscreenenter"",""1"",""3170""
","
","","","-1","","","25","10979","741","&#9826;","elianto","#f73b6a7A","-1","-1","1","0","[]","0","0","3","","","","","","","",""
"pit-trial","66","644684","0.0-2.0-14.1-2.1","battery-v0.2","","""event"",""trial"",""time""
""fullscreenenter"",""1"",""3170""
","
","
","""event"",""trial"",""time""
""fullscreenenter"",""1"",""3170""
","
","","","-1","","","25","10979","741","&#9826;","elianto","#f73b6a7A","-1","-1","1","0","[]","0","0","3","","","","","","","",""
"pit-trial","67","649538","0.0-2.0-14.1-3.1","battery-v0.2","","""event"",""trial"",""time""
""fullscreenenter"",""1"",""3170""
","
","
","""event"",""trial"",""time""
""fullscreenenter"",""1"",""3170""
","
","","","-1","","","25","10979","741","&#9826;","elianto","#f73b6a7A","-1","-1","1","-10","[]","0","0","3","","","","","","","",""
"pit-trial","68","654392","0.0-2.0-14.1-4.1","battery-v0.2","","""event"",""trial"",""time""
""fullscreenenter"",""1"",""3170""
","
","
","""event"",""trial"",""time""
""fullscreenenter"",""1"",""3170""
","
","","","-1","","","25","10979","741","&#9826;","elianto","#f73b6a7A","-1","-1","1","0","[]","0","0","3","","","","","","","",""
"pit-trial","69","659247","0.0-2.0-14.2-0.2","battery-v0.2","","""event"",""trial"",""time""
""fullscreenenter"",""1"",""3170""
","
","
","""event"",""trial"",""time""
""fullscreenenter"",""1"",""3170""
","
","","","-1","","","25","10979","741","&#9826;","elianto","#f73b6a7A","-1","-1","1","0","[]","0","0","3","","","","","","","",""
"pit-trial","70","664100","0.0-2.0-14.2-1.2","battery-v0.2","","""event"",""trial"",""time""
""fullscreenenter"",""1"",""3170""
","
","
","""event"",""trial"",""time""
""fullscreenenter"",""1"",""3170""
","
","","","-1","","","25","10979","741","&#9826;","elianto","#f73b6a7A","-1","-1","1","0","[]","0","0","3","","","","","","","",""
"pit-trial","71","668954","0.0-2.0-14.2-2.2","battery-v0.2","","""event"",""trial"",""time""
""fullscreenenter"",""1"",""3170""
","
","
","""event"",""trial"",""time""
""fullscreenenter"",""1"",""3170""
","
","","","-1","","","25","10979","741","&#9826;","elianto","#f73b6a7A","-1","-1","1","0","[]","0","0","3","","","","","","","",""
"pit-trial","72","673806","0.0-2.0-14.2-3.2","battery-v0.2","","""event"",""trial"",""time""
""fullscreenenter"",""1"",""3170""
","
","
","""event"",""trial"",""time""
""fullscreenenter"",""1"",""3170""
","
","","","-1","","","25","10979","741","&#9826;","elianto","#f73b6a7A","-1","-1","1","-10","[]","0","0","3","","","","","","","",""
"pit-trial","73","678659","0.0-2.0-14.2-4.2","battery-v0.2","","""event"",""trial"",""time""
""fullscreenenter"",""1"",""3170""
","
","
","""event"",""trial"",""time""
""fullscreenenter"",""1"",""3170""
","
","","","-1","","","25","10979","741","&#9826;","elianto","#f73b6a7A","-1","-1","1","0","[]","0","0","3","","","","","","","",""
"pit-trial","74","683515","0.0-2.0-14.3-0.3","battery-v0.2","","""event"",""trial"",""time""
""fullscreenenter"",""1"",""3170""
","
","
","""event"",""trial"",""time""
""fullscreenenter"",""1"",""3170""
","
","","","-1","","","25","10979","741","&#9826;","elianto","#f73b6a7A","-1","-1","1","0","[]","0","0","3","","","","","","","",""
"pit-trial","75","688369","0.0-2.0-14.3-1.3","battery-v0.2","","""event"",""trial"",""time""
""fullscreenenter"",""1"",""3170""
","
","
","""event"",""trial"",""time""
""fullscreenenter"",""1"",""3170""
","
","","","-1","","","25","10979","741","&#9826;","elianto","#f73b6a7A","-1","-1","1","0","[]","0","0","3","","","","","","","",""
"pit-trial","76","693222","0.0-2.0-14.3-2.3","battery-v0.2","","""event"",""trial"",""time""
""fullscreenenter"",""1"",""3170""
","
","
","""event"",""trial"",""time""
""fullscreenenter"",""1"",""3170""
","
","","","-1","","","25","10979","741","&#9826;","elianto","#f73b6a7A","-1","-1","1","0","[]","0","0","3","","","","","","","",""
"pit-trial","77","698076","0.0-2.0-14.3-3.3","battery-v0.2","","""event"",""trial"",""time""
""fullscreenenter"",""1"",""3170""
","
","
","""event"",""trial"",""time""
""fullscreenenter"",""1"",""3170""
","
","","","-1","","","25","10979","741","&#9826;","elianto","#f73b6a7A","-1","-1","1","-10","[]","0","0","3","","","","","","","",""
"pit-trial","78","702929","0.0-2.0-14.3-4.3","battery-v0.2","","""event"",""trial"",""time""
""fullscreenenter"",""1"",""3170""
","
","
","""event"",""trial"",""time""
""fullscreenenter"",""1"",""3170""
","
","","","-1","","","25","10979","741","&#9826;","elianto","#f73b6a7A","-1","-1","1","0","[]","0","0","3","","","","","","","",""
"call-function","79","702931","0.0-2.0-15.0","battery-v0.2","","""event"",""trial"",""time""
""fullscreenenter"",""1"",""3170""
","
","
","""event"",""trial"",""time""
""fullscreenenter"",""1"",""3170""
","
","","","","","","","","","","","","","","","","","","","","","","","","","","",""
"pit-instructions","80","731516","0.0-2.0-16.0","battery-v0.2","","""event"",""trial"",""time""
""fullscreenenter"",""1"",""3170""
","
","
","""event"",""trial"",""time""
""fullscreenenter"",""1"",""3170""
","
","","[{""page_index"":0,""viewing_time"":8524.099999904633},{""page_index"":1,""viewing_time"":9471.5},{""page_index"":2,""viewing_time"":4934.800000190735},{""page_index"":3,""viewing_time"":5653.599999904633}]","28584.299999952316","","","","","","","","","","","","","","","","","","","","","","","",""
"pit-trial","81","734811","0.0-2.0-17.0-0.0","battery-v0.2","","""event"",""trial"",""time""
""fullscreenenter"",""1"",""3170""
","
","
","""event"",""trial"",""time""
""fullscreenenter"",""1"",""3170""
","
","","","426.2000000476837","","","25","10979","741","&#9789;","elianto","#f73b6a7A"," "," ","1","0","[1283.8000001907349]","1","0","4","","","","","","","",""
"pit-trial","82","738040","0.0-2.0-17.0-1.0","battery-v0.2","","""event"",""trial"",""time""
""fullscreenenter"",""1"",""3170""
","
","
","""event"",""trial"",""time""
""fullscreenenter"",""1"",""3170""
","
","","","360.2000000476837","","","25","10979","741","&#9789;","elianto","#f73b6a7A"," "," ","1","0","[1219.7999999523163]","1","0","4","","","","","","","",""
"pit-trial","83","741707","0.0-2.0-17.0-2.0","battery-v0.2","","""event"",""trial"",""time""
""fullscreenenter"",""1"",""3170""
","
","
","""event"",""trial"",""time""
""fullscreenenter"",""1"",""3170""
","
","","","813.2999999523163","","","25","10979","741","&#9789;","elianto","#f73b6a7A"," "," ","1","0","[1664]","1","0","4","","","","","","","",""
"pit-trial","84","745195","0.0-2.0-17.0-3.0","battery-v0.2","","""event"",""trial"",""time""
""fullscreenenter"",""1"",""3170""
","
","
","""event"",""trial"",""time""
""fullscreenenter"",""1"",""3170""
","
","","","625.4000000953674","","","25","10979","741","&#9789;","elianto","#f73b6a7A"," "," ","1","-10","[1476.5]","1","0","4","","","","","","","",""
"pit-trial","85","748703","0.0-2.0-17.0-4.0","battery-v0.2","","""event"",""trial"",""time""
""fullscreenenter"",""1"",""3170""
","
","
","""event"",""trial"",""time""
""fullscreenenter"",""1"",""3170""
","
","","","640.2999999523163","","","25","10979","741","&#9789;","elianto","#f73b6a7A"," "," ","1","0","[1499]","1","0","4","","","","","","","",""
"pit-trial","86","752207","0.0-2.0-17.1-0.1","battery-v0.2","","""event"",""trial"",""time""
""fullscreenenter"",""1"",""3170""
","
","
","""event"",""trial"",""time""
""fullscreenenter"",""1"",""3170""
","
","","","644.5999999046326","","","25","10979","741","&#9789;","elianto","#f73b6a7A"," "," ","1","0","[1495.7000000476837]","1","0","4","","","","","","","",""
"pit-trial","87","755718","0.0-2.0-17.1-1.1","battery-v0.2","","""event"",""trial"",""time""
""fullscreenenter"",""1"",""3170""
","
","
","""event"",""trial"",""time""
""fullscreenenter"",""1"",""3170""
","
","","","644.6999998092651","","","25","10979","741","&#9789;","elianto","#f73b6a7A"," "," ","1","0","[1503.3999998569489]","1","0","4","","","","","","","",""
"pit-trial","88","759673","0.0-2.0-17.1-2.1","battery-v0.2","","""event"",""trial"",""time""
""fullscreenenter"",""1"",""3170""
","
","
","""event"",""trial"",""time""
""fullscreenenter"",""1"",""3170""
","
","","","1093.3000001907349","","","25","10979","741","&#9789;","elianto","#f73b6a7A"," "," ","1","0","[1944.9000000953674]","1","0","4","","","","","","","",""
"pit-trial","89","763393","0.0-2.0-17.1-3.1","battery-v0.2","","""event"",""trial"",""time""
""fullscreenenter"",""1"",""3170""
","
","
","""event"",""trial"",""time""
""fullscreenenter"",""1"",""3170""
","
","","","864.3999998569489","","","25","10979","741","&#9789;","elianto","#f73b6a7A"," "," ","1","-10","[1716.1000001430511]","1","0","4","","","","","","","",""
"pit-trial","90","767273","0.0-2.0-17.1-4.1","battery-v0.2","","""event"",""trial"",""time""
""fullscreenenter"",""1"",""3170""
","
","
","""event"",""trial"",""time""
""fullscreenenter"",""1"",""3170""
","
","","","1028.3999998569489","","","25","10979","741","&#9789;","elianto","#f73b6a7A"," "," ","1","0","[1878.5999999046326]","1","0","4","","","","","","","",""
"pit-trial","91","770832","0.0-2.0-17.2-0.2","battery-v0.2","","""event"",""trial"",""time""
""fullscreenenter"",""1"",""3170""
","
","
","""event"",""trial"",""time""
""fullscreenenter"",""1"",""3170""
","
","","","704.1999998092651","","","25","10979","741","&#9789;","elianto","#f73b6a7A"," "," ","1","0","[1555.0999999046326]","1","0","4","","","","","","","",""
"pit-trial","92","775602","0.0-2.0-17.2-1.2","battery-v0.2","","""event"",""trial"",""time""
""fullscreenenter"",""1"",""3170""
","
","
","""event"",""trial"",""time""
""fullscreenenter"",""1"",""3170""
","
","","","1916.1000001430511","","","25","10979","741","&#9789;","elianto","#f73b6a7A"," "," ","1","0","[2767.0999999046326]","1","0","4","","","","","","","",""
"pit-trial","93","779753","0.0-2.0-17.2-2.2","battery-v0.2","","""event"",""trial"",""time""
""fullscreenenter"",""1"",""3170""
","
","
","""event"",""trial"",""time""
""fullscreenenter"",""1"",""3170""
","
","","","1297.9000000953674","","","25","10979","741","&#9789;","elianto","#f73b6a7A"," "," ","1","0","[2149.4000000953674]","1","0","4","","","","","","","",""
"pit-trial","94","783657","0.0-2.0-17.2-3.2","battery-v0.2","","""event"",""trial"",""time""
""fullscreenenter"",""1"",""3170""
","
","
","""event"",""trial"",""time""
""fullscreenenter"",""1"",""3170""
","
","","","1045","","","25","10979","741","&#9789;","elianto","#f73b6a7A"," "," ","1","-10","[1895.0999999046326]","1","0","4","","","","","","","",""
"pit-trial","95","786938","0.0-2.0-17.2-4.2","battery-v0.2","","""event"",""trial"",""time""
""fullscreenenter"",""1"",""3170""
","
","
","""event"",""trial"",""time""
""fullscreenenter"",""1"",""3170""
","
","","","427.40000009536743","","","25","10979","741","&#9789;","elianto","#f73b6a7A"," "," ","1","0","[1277.8000001907349]","1","0","4","","","","","","","",""
"pit-trial","96","790306","0.0-2.0-17.3-0.3","battery-v0.2","","""event"",""trial"",""time""
""fullscreenenter"",""1"",""3170""
","
","
","""event"",""trial"",""time""
""fullscreenenter"",""1"",""3170""
","
","","","514.0999999046326","","","25","10979","741","&#9789;","elianto","#f73b6a7A"," "," ","1","0","[1364.6000001430511]","1","0","4","","","","","","","",""
"pit-trial","97","794035","0.0-2.0-17.3-1.3","battery-v0.2","","""event"",""trial"",""time""
""fullscreenenter"",""1"",""3170""
","
","
","""event"",""trial"",""time""
""fullscreenenter"",""1"",""3170""
","
","","","873.8999998569489","","","25","10979","741","&#9789;","elianto","#f73b6a7A"," "," ","1","0","[1725.3999998569489]","1","0","4","","","","","","","",""
"pit-trial","98","797906","0.0-2.0-17.3-2.3","battery-v0.2","","""event"",""trial"",""time""
""fullscreenenter"",""1"",""3170""
","
","
","""event"",""trial"",""time""
""fullscreenenter"",""1"",""3170""
","
","","","1018","","","25","10979","741","&#9789;","elianto","#f73b6a7A"," "," ","1","0","[1868.5]","1","0","4","","","","","","","",""
"pit-trial","99","801723","0.0-2.0-17.3-3.3","battery-v0.2","","""event"",""trial"",""time""
""fullscreenenter"",""1"",""3170""
","
","
","""event"",""trial"",""time""
""fullscreenenter"",""1"",""3170""
","
","","","962.9000000953674","","","25","10979","741","&#9789;","elianto","#f73b6a7A"," "," ","1","-10","[1813.5]","1","0","4","","","","","","","",""
"pit-trial","100","805433","0.0-2.0-17.3-4.3","battery-v0.2","","""event"",""trial"",""time""
""fullscreenenter"",""1"",""3170""
","
","
","""event"",""trial"",""time""
""fullscreenenter"",""1"",""3170""
","
","","","857.6000001430511","","","25","10979","741","&#9789;","elianto","#f73b6a7A"," "," ","1","0","[1708.4000000953674]","1","0","4","","","","","","","",""
"call-function","101","805435","0.0-2.0-18.0","battery-v0.2","","""event"",""trial"",""time""
""fullscreenenter"",""1"",""3170""
","
","
","""event"",""trial"",""time""
""fullscreenenter"",""1"",""3170""
","
","","","","","","","","","","","","","","","","","","","","","","","","","","",""
"pit-instructions","102","876795","0.0-2.0-19.0","battery-v0.2","","""event"",""trial"",""time""
""fullscreenenter"",""1"",""3170""
","
","
","""event"",""trial"",""time""
""fullscreenenter"",""1"",""3170""
","
","","[{""page_index"":0,""viewing_time"":6389.599999904633},{""page_index"":1,""viewing_time"":6548.600000143051},{""page_index"":2,""viewing_time"":14858.199999809265},{""page_index"":3,""viewing_time"":8569.100000143051},{""page_index"":4,""viewing_time"":8433},{""page_index"":5,""viewing_time"":8859.700000047684},{""page_index"":6,""viewing_time"":8230.399999856949},{""page_index"":7,""viewing_time"":6061},{""page_index"":8,""viewing_time"":3408.5}]","71358.5","","","","","","","","","","","","","","","","","","","","","","","",""
"pit-comprehension","103","881051","0.0-2.0-20.0-0.0","battery-v0.2","","""event"",""trial"",""time""
""fullscreenenter"",""1"",""3170""
","
","
","""event"",""trial"",""time""
""fullscreenenter"",""1"",""3170""
","
","","","4253.399999856949","[""SPACE""]","0","25","10979","741","","","","","","","","","","","","","","","","","","",""
"pit-instructions","104","885016","0.0-2.0-20.0-1.0","battery-v0.2","","""event"",""trial"",""time""
""fullscreenenter"",""1"",""3170""
","
","
","""event"",""trial"",""time""
""fullscreenenter"",""1"",""3170""
","
","","[{""page_index"":0,""viewing_time"":3943.0999999046326}]","3943.5","","","","","","","","","","","","","","","","","","","","","","","",""
"pit-comprehension","105","891419","0.0-2.0-21.0-0.0","battery-v0.2","","""event"",""trial"",""time""
""fullscreenenter"",""1"",""3170""
","
","
","""event"",""trial"",""time""
""fullscreenenter"",""1"",""3170""
","
","","","6400.900000095367","[""10""]","0","25","10979","741","","","","","","","","","","","","","","","","","","",""
"pit-instructions","106","895640","0.0-2.0-21.0-1.0","battery-v0.2","","""event"",""trial"",""time""
""fullscreenenter"",""1"",""3170""
","
","
","""event"",""trial"",""time""
""fullscreenenter"",""1"",""3170""
","
","","[{""page_index"":0,""viewing_time"":4199.099999904633}]","4199.400000095367","","","","","","","","","","","","","","","","","","","","","","","",""
"pit-comprehension","107","902867","0.0-2.0-22.0-0.0","battery-v0.2","","""event"",""trial"",""time""
""fullscreenenter"",""1"",""3170""
","
","
","""event"",""trial"",""time""
""fullscreenenter"",""1"",""3170""
","
","","","7224.099999904633","[""0""]","0","25","10979","741","","","","","","","","","","","","","","","","","","",""
"pit-instructions","108","904902","0.0-2.0-22.0-1.0","battery-v0.2","","""event"",""trial"",""time""
""fullscreenenter"",""1"",""3170""
","
","
","""event"",""trial"",""time""
""fullscreenenter"",""1"",""3170""
","
","","[{""page_index"":0,""viewing_time"":2011.5999999046326}]","2012","","","","","","","","","","","","","","","","","","","","","","","",""
"pit-comprehension","109","917597","0.0-2.0-23.0-0.0","battery-v0.2","","""event"",""trial"",""time""
""fullscreenenter"",""1"",""3170""
","
","
","""event"",""trial"",""time""
""fullscreenenter"",""1"",""3170""
","
","","","12691.900000095367","[""True""]","0","25","10979","741","","","","","","","","","","","","","","","","","","",""
"pit-instructions","110","920590","0.0-2.0-23.0-1.0","battery-v0.2","","""event"",""trial"",""time""
""fullscreenenter"",""1"",""3170""
","
","
","""event"",""trial"",""time""
""fullscreenenter"",""1"",""3170""
","
","","[{""page_index"":0,""viewing_time"":2972.9000000953674}]","2973.100000143051","","","","","","","","","","","","","","","","","","","","","","","",""
"pit-comprehension","111","927951","0.0-2.0-24.0-0.0","battery-v0.2","","""event"",""trial"",""time""
""fullscreenenter"",""1"",""3170""
","
","
","""event"",""trial"",""time""
""fullscreenenter"",""1"",""3170""
","
","","","7359.099999904633","[""True""]","0","25","10979","741","","","","","","","","","","","","","","","","","","",""
"pit-instructions","112","930160","0.0-2.0-24.0-1.0","battery-v0.2","","""event"",""trial"",""time""
""fullscreenenter"",""1"",""3170""
","
","
","""event"",""trial"",""time""
""fullscreenenter"",""1"",""3170""
","
","","[{""page_index"":0,""viewing_time"":2187.2000000476837}]","2187.4000000953674","","","","","","","","","","","","","","","","","","","","","","","",""
"pit-comprehension","113","951478","0.0-2.0-25.0-0.0","battery-v0.2","","""event"",""trial"",""time""
""fullscreenenter"",""1"",""3170""
","
","
","""event"",""trial"",""time""
""fullscreenenter"",""1"",""3170""
","
","","","21315.700000047684","[""True""]","0","25","10979","741","","","","","","","","","","","","","","","","","","",""
"pit-instructions","114","953364","0.0-2.0-25.0-1.0","battery-v0.2","","""event"",""trial"",""time""
""fullscreenenter"",""1"",""3170""
","
","
","""event"",""trial"",""time""
""fullscreenenter"",""1"",""3170""
","
","","[{""page_index"":0,""viewing_time"":1859}]","1859.4000000953674","","","","","","","","","","","","","","","","","","","","","","","",""
"pit-comprehension","115","958677","0.0-2.0-26.0-0.0","battery-v0.2","","""event"",""trial"",""time""
""fullscreenenter"",""1"",""3170""
","
","
","""event"",""trial"",""time""
""fullscreenenter"",""1"",""3170""
","
","","","5310.299999952316","[""False""]","0","25","10979","741","","","","","","","","","","","","","","","","","","",""
"pit-instructions","116","961394","0.0-2.0-26.0-1.0","battery-v0.2","","""event"",""trial"",""time""
""fullscreenenter"",""1"",""3170""
","
","
","""event"",""trial"",""time""
""fullscreenenter"",""1"",""3170""
","
","","[{""page_index"":0,""viewing_time"":2695.0999999046326}]","2695.5","","","","","","","","","","","","","","","","","","","","","","","",""
"pit-instructions","117","981996","0.0-3.0","battery-v0.2","","""event"",""trial"",""time""
""fullscreenenter"",""1"",""3170""
","
","
","""event"",""trial"",""time""
""fullscreenenter"",""1"",""3170""
","
","","[{""page_index"":0,""viewing_time"":3792.2000000476837},{""page_index"":1,""viewing_time"":7825.200000047684},{""page_index"":2,""viewing_time"":8982.5}]","20600.200000047684","","","","","","","","","","","","","","","","","","","","","","","",""
"pit-trial","118","986239","0.0-4.0","battery-v0.2","","""event"",""trial"",""time""
""fullscreenenter"",""1"",""3170""
","
","
","""event"",""trial"",""time""
""fullscreenenter"",""1"",""3170""
","
","","","1369.1000001430511","","","25","10979","741","&#9728;","elianto","#f73b6a7A","-1"," ","0","-10","[2225.9000000953674]","1","1","","","10979","1","0","4","lose","no-go","0"
"pit-trial","119","990436","0.0-5.0","battery-v0.2","","""event"",""trial"",""time""
""fullscreenenter"",""1"",""3170""
","
","
","""event"",""trial"",""time""
""fullscreenenter"",""1"",""3170""
","
","","","1340.2999999523163","","","25","10979","741","&#9752;","elianto","#f73b6a7A"," "," ","1","0","[2190.7000000476837]","1","1","","","10979","2","3","3","lose","go","0"
"pit-trial","120","994531","0.0-6.0","battery-v0.2","","""event"",""trial"",""time""
""fullscreenenter"",""1"",""3170""
","
","
","""event"",""trial"",""time""
""fullscreenenter"",""1"",""3170""
","
","","","1236.7999999523163","","","25","10979","741","&#9733;","elianto","#3366ff99","-1"," ","0","0","[2090.199999809265]","1","1","","","10979","3","2","2","win","no-go","0"
"pit-trial","121","999401","0.0-7.0","battery-v0.2","","""event"",""trial"",""time""
""fullscreenenter"",""1"",""3170""
","
","
","""event"",""trial"",""time""
""fullscreenenter"",""1"",""3170""
","
","","","-1","","","25","10979","741","&#9730;","elianto","#3366ff99"," ","-1","0","0","[]","0","1","","","10979","4","1","1","win","go","0"
"pit-trial","122","1004257","0.0-8.0","battery-v0.2","","""event"",""trial"",""time""
""fullscreenenter"",""1"",""3170""
","
","
","""event"",""trial"",""time""
""fullscreenenter"",""1"",""3170""
","
","","","-1","","","25","10979","741","&#9728;","elianto","#f73b6a7A","-1","-1","1","0","[]","0","1","","","10979","5","0","4","lose","no-go","0"
"pit-trial","123","1008327","0.0-9.0","battery-v0.2","","""event"",""trial"",""time""
""fullscreenenter"",""1"",""3170""
","
","
","""event"",""trial"",""time""
""fullscreenenter"",""1"",""3170""
","
","","","1202.4000000953674","","","25","10979","741","&#9730;","elianto","#3366ff99"," "," ","1","0","[2053.9000000953674]","1","1","","","10979","6","1","1","win","go","1"
"pit-trial","124","1012441","0.0-10.0","battery-v0.2","","""event"",""trial"",""time""
""fullscreenenter"",""1"",""3170""
","
","
","""event"",""trial"",""time""
""fullscreenenter"",""1"",""3170""
","
","","","1259.7000000476837","","","25","10979","741","&#9733;","elianto","#3366ff99","-1"," ","0","+10","[2111.7000000476837]","1","1","","","10979","7","2","2","win","no-go","1"
"pit-trial","125","1016986","0.0-11.0","battery-v0.2","","""event"",""trial"",""time""
""fullscreenenter"",""1"",""3170""
","
","
","""event"",""trial"",""time""
""fullscreenenter"",""1"",""3170""
","
","","","1690.8000001907349","","","25","10979","741","&#9752;","elianto","#f73b6a7A"," "," ","1","0","[2541.5999999046326]","1","1","","","10979","8","3","3","lose","go","0"
"pit-trial","126","1021846","0.0-12.0","battery-v0.2","","""event"",""trial"",""time""
""fullscreenenter"",""1"",""3170""
","
","
","""event"",""trial"",""time""
""fullscreenenter"",""1"",""3170""
","
","","","-1","","","25","10979","741","&#9728;","elianto","#f73b6a7A","-1","-1","1","0","[]","0","1","","","10979","9","0","4","lose","no-go","0"
"pit-trial","127","1026121","0.0-13.0","battery-v0.2","","""event"",""trial"",""time""
""fullscreenenter"",""1"",""3170""
","
","
","""event"",""trial"",""time""
""fullscreenenter"",""1"",""3170""
","
","","","1422.4000000953674","","","25","10979","741","&#9730;","elianto","#3366ff99"," "," ","1","+10","[2273.2999999523163]","1","1","","","10979","10","1","1","win","go","0"
"pit-trial","128","1030976","0.0-14.0","battery-v0.2","","""event"",""trial"",""time""
""fullscreenenter"",""1"",""3170""
","
","
","""event"",""trial"",""time""
""fullscreenenter"",""1"",""3170""
","
","","","-1","","","25","10979","741","&#9752;","elianto","#f73b6a7A"," ","-1","0","-10","[]","0","1","","","10979","11","3","3","lose","go","0"
"pit-trial","129","1035066","0.0-15.0","battery-v0.2","","""event"",""trial"",""time""
""fullscreenenter"",""1"",""3170""
","
","
","""event"",""trial"",""time""
""fullscreenenter"",""1"",""3170""
","
","","","1236","","","25","10979","741","&#9733;","elianto","#3366ff99","-1"," ","0","0","[2086.5]","1","1","","","10979","12","2","2","win","no-go","0"
"pit-trial","130","1039921","0.0-16.0","battery-v0.2","","""event"",""trial"",""time""
""fullscreenenter"",""1"",""3170""
","
","
","""event"",""trial"",""time""
""fullscreenenter"",""1"",""3170""
","
","","","-1","","","25","10979","741","&#9728;","elianto","#f73b6a7A","-1","-1","1","0","[]","0","1","","","10979","13","0","4","lose","no-go","0"
"pit-trial","131","1044774","0.0-17.0","battery-v0.2","","""event"",""trial"",""time""
""fullscreenenter"",""1"",""3170""
","
","
","""event"",""trial"",""time""
""fullscreenenter"",""1"",""3170""
","
","","","-1","","","25","10979","741","&#9733;","elianto","#3366ff99","-1","-1","1","+10","[]","0","1","","","10979","14","2","2","win","no-go","0"
"pit-trial","132","1049299","0.0-18.0","battery-v0.2","","""event"",""trial"",""time""
""fullscreenenter"",""1"",""3170""
","
","
","""event"",""trial"",""time""
""fullscreenenter"",""1"",""3170""
","
","","","1671.5999999046326","","","25","10979","741","&#9730;","elianto","#3366ff99"," "," ","1","0","[2521.899999856949]","1","1","","","10979","15","1","1","win","go","1"
"pit-trial","133","1054152","0.0-19.0","battery-v0.2","","""event"",""trial"",""time""
""fullscreenenter"",""1"",""3170""
","
","
","""event"",""trial"",""time""
""fullscreenenter"",""1"",""3170""
","
","","","-1","","","25","10979","741","&#9752;","elianto","#f73b6a7A"," ","-1","0","-10","[]","0","1","","","10979","16","3","3","lose","go","0"
"pit-trial","134","1059006","0.0-20.0","battery-v0.2","","""event"",""trial"",""time""
""fullscreenenter"",""1"",""3170""
","
","
","""event"",""trial"",""time""
""fullscreenenter"",""1"",""3170""
","
","","","-1","","","25","10979","741","&#9730;","elianto","#3366ff99"," ","-1","0","0","[]","0","1","","","10979","17","1","1","win","go","0"
"pit-trial","135","1063051","0.0-21.0","battery-v0.2","","""event"",""trial"",""time""
""fullscreenenter"",""1"",""3170""
","
","
","""event"",""trial"",""time""
""fullscreenenter"",""1"",""3170""
","
","","","1191.3999998569489","","","25","10979","741","&#9752;","elianto","#f73b6a7A"," "," ","1","0","[2042.0999999046326]","1","1","","","10979","18","3","3","lose","go","0"
"pit-trial","136","1067370","0.0-22.0","battery-v0.2","","""event"",""trial"",""time""
""fullscreenenter"",""1"",""3170""
","
","
","""event"",""trial"",""time""
""fullscreenenter"",""1"",""3170""
","
","","","1465.7999999523163","","","25","10979","741","&#9733;","elianto","#3366ff99","-1"," ","0","0","[2316.0999999046326]","1","1","","","10979","19","2","2","win","no-go","0"
"pit-trial","137","1072224","0.0-23.0","battery-v0.2","","""event"",""trial"",""time""
""fullscreenenter"",""1"",""3170""
","
","
","""event"",""trial"",""time""
""fullscreenenter"",""1"",""3170""
","
","","","-1","","","25","10979","741","&#9728;","elianto","#f73b6a7A","-1","-1","1","-10","[]","0","1","","","10979","20","0","4","lose","no-go","1"
"pit-instructions","138","1087214","0.0-24.0","battery-v0.2","","""event"",""trial"",""time""
""fullscreenenter"",""1"",""3170""
","
","
","""event"",""trial"",""time""
""fullscreenenter"",""1"",""3170""
","
","","[{""page_index"":0,""viewing_time"":7962.599999904633},{""page_index"":1,""viewing_time"":7026.100000143051}]","14989","","","","","","","","","","","","","","","","","","","","","","","",""
"pit-trial","139","1090974","0.0-25.0","battery-v0.2","","""event"",""trial"",""time""
""fullscreenenter"",""1"",""3170""
","
","
","""event"",""trial"",""time""
""fullscreenenter"",""1"",""3170""
","
","","","892.5999999046326","","","25","10979","741","l","elianto","#3366ff99"," "," ","1","+10","[1743.8000001907349]","1","2","","","10979","21","1","1","win","go","0"
"pit-trial","140","1094940","0.0-26.0","battery-v0.2","","""event"",""trial"",""time""
""fullscreenenter"",""1"",""3170""
","
","
","""event"",""trial"",""time""
""fullscreenenter"",""1"",""3170""
","
","","","1103.2000000476837","","","25","10979","741","u","elianto","#f73b6a7A","-1"," ","0","-10","[1955.5]","1","2","","","10979","22","0","4","lose","no-go","0"
"pit-trial","141","1098974","0.0-27.0","battery-v0.2","","""event"",""trial"",""time""
""fullscreenenter"",""1"",""3170""
","
","
","""event"",""trial"",""time""
""fullscreenenter"",""1"",""3170""
","
","","","1169.8000001907349","","","25","10979","741","a","elianto","#f73b6a7A","-1"," ","0","-10","[2023]","1","2","","","10979","23","2","4","lose","no-go","0"
"pit-trial","142","1103345","0.0-28.0","battery-v0.2","","""event"",""trial"",""time""
""fullscreenenter"",""1"",""3170""
","
","
","""event"",""trial"",""time""
""fullscreenenter"",""1"",""3170""
","
","","","1500.9000000953674","","","25","10979","741","g","elianto","#f73b6a7A"," "," ","1","0","[2352.7000000476837]","1","2","","","10979","24","3","3","lose","go","0"
"pit-trial","143","1107630","0.0-29.0","battery-v0.2","","""event"",""trial"",""time""
""fullscreenenter"",""1"",""3170""
","
","
","""event"",""trial"",""time""
""fullscreenenter"",""1"",""3170""
","
","","","1423","","","25","10979","741","g","elianto","#f73b6a7A"," "," ","1","-10","[2278.7000000476837]","1","2","","","10979","25","3","3","lose","go","1"
"pit-trial","144","1112503","0.0-30.0","battery-v0.2","","""event"",""trial"",""time""
""fullscreenenter"",""1"",""3170""
","
","
","""event"",""trial"",""time""
""fullscreenenter"",""1"",""3170""
","
","","","-1","","","25","10979","741","a","elianto","#f73b6a7A","-1","-1","1","-10","[]","0","2","","","10979","26","2","4","lose","no-go","1"
"pit-trial","145","1116621","0.0-31.0","battery-v0.2","","""event"",""trial"",""time""
""fullscreenenter"",""1"",""3170""
","
","
","""event"",""trial"",""time""
""fullscreenenter"",""1"",""3170""
","
","","","1257.2999999523163","","","25","10979","741","u","elianto","#f73b6a7A","-1"," ","0","0","[2111.5999999046326]","1","2","","","10979","27","0","4","lose","no-go","1"
"pit-trial","146","1120993","0.0-32.0","battery-v0.2","","""event"",""trial"",""time""
""fullscreenenter"",""1"",""3170""
","
","
","""event"",""trial"",""time""
""fullscreenenter"",""1"",""3170""
","
","","","1519.7999999523163","","","25","10979","741","l","elianto","#3366ff99"," "," ","1","+10","[2370]","1","2","","","10979","28","1","1","win","go","0"
"pit-trial","147","1125846","0.0-33.0","battery-v0.2","","""event"",""trial"",""time""
""fullscreenenter"",""1"",""3170""
","
","
","""event"",""trial"",""time""
""fullscreenenter"",""1"",""3170""
","
","","","-1","","","25","10979","741","g","elianto","#f73b6a7A"," ","-1","0","-10","[]","0","2","","","10979","29","3","3","lose","go","0"
"pit-trial","148","1129658","0.0-34.0","battery-v0.2","","""event"",""trial"",""time""
""fullscreenenter"",""1"",""3170""
","
","
","""event"",""trial"",""time""
""fullscreenenter"",""1"",""3170""
","
","","","958.2999999523163","","","25","10979","741","l","elianto","#3366ff99"," "," ","1","+10","[1809.1000001430511]","1","2","","","10979","30","1","1","win","go","0"
"pit-trial","149","1133776","0.0-35.0","battery-v0.2","","""event"",""trial"",""time""
""fullscreenenter"",""1"",""3170""
","
","
","""event"",""trial"",""time""
""fullscreenenter"",""1"",""3170""
","
","","","1263","","","25","10979","741","a","elianto","#f73b6a7A","-1"," ","0","-10","[2114.5999999046326]","1","2","","","10979","31","2","4","lose","no-go","0"
"pit-trial","150","1138097","0.0-36.0","battery-v0.2","","""event"",""trial"",""time""
""fullscreenenter"",""1"",""3170""
","
","
","""event"",""trial"",""time""
""fullscreenenter"",""1"",""3170""
","
","","","1467","","","25","10979","741","u","elianto","#f73b6a7A","-1"," ","0","-10","[2317.600000143051]","1","2","","","10979","32","0","4","lose","no-go","0"
"pit-trial","151","1142951","0.0-37.0","battery-v0.2","","""event"",""trial"",""time""
""fullscreenenter"",""1"",""3170""
","
","
","""event"",""trial"",""time""
""fullscreenenter"",""1"",""3170""
","
","","","-1","","","25","10979","741","a","elianto","#f73b6a7A","-1","-1","1","0","[]","0","2","","","10979","33","2","4","lose","no-go","0"
"pit-trial","152","1147806","0.0-38.0","battery-v0.2","","""event"",""trial"",""time""
""fullscreenenter"",""1"",""3170""
","
","
","""event"",""trial"",""time""
""fullscreenenter"",""1"",""3170""
","
","","","-1","","","25","10979","741","u","elianto","#f73b6a7A","-1","-1","1","0","[]","0","2","","","10979","34","0","4","lose","no-go","0"
"pit-trial","153","1151659","0.0-39.0","battery-v0.2","","""event"",""trial"",""time""
""fullscreenenter"",""1"",""3170""
","
","
","""event"",""trial"",""time""
""fullscreenenter"",""1"",""3170""
","
","","","997.2999999523163","","","25","10979","741","l","elianto","#3366ff99"," "," ","1","0","[1848.4000000953674]","1","2","","","10979","35","1","1","win","go","1"
"pit-trial","154","1156513","0.0-40.0","battery-v0.2","","""event"",""trial"",""time""
""fullscreenenter"",""1"",""3170""
","
","
","""event"",""trial"",""time""
""fullscreenenter"",""1"",""3170""
","
","","","-1","","","25","10979","741","g","elianto","#f73b6a7A"," ","-1","0","-10","[]","0","2","","","10979","36","3","3","lose","go","0"
"pit-trial","155","1161367","0.0-41.0","battery-v0.2","","""event"",""trial"",""time""
""fullscreenenter"",""1"",""3170""
","
","
","""event"",""trial"",""time""
""fullscreenenter"",""1"",""3170""
","
","","","-1","","","25","10979","741","u","elianto","#f73b6a7A","-1","-1","1","0","[]","0","2","","","10979","37","0","4","lose","no-go","0"
"pit-trial","156","1165104","0.0-42.0","battery-v0.2","","""event"",""trial"",""time""
""fullscreenenter"",""1"",""3170""
","
","
","""event"",""trial"",""time""
""fullscreenenter"",""1"",""3170""
","
","","","885.2999999523163","","","25","10979","741","g","elianto","#f73b6a7A"," "," ","1","0","[1735.5]","1","2","","","10979","38","3","3","lose","go","0"
"pit-trial","157","1169958","0.0-43.0","battery-v0.2","","""event"",""trial"",""time""
""fullscreenenter"",""1"",""3170""
","
","
","""event"",""trial"",""time""
""fullscreenenter"",""1"",""3170""
","
","","","-1","","","25","10979","741","a","elianto","#f73b6a7A","-1","-1","1","0","[]","0","2","","","10979","39","2","4","lose","no-go","0"
"pit-trial","158","1173824","0.0-44.0","battery-v0.2","","""event"",""trial"",""time""
""fullscreenenter"",""1"",""3170""
","
","
","""event"",""trial"",""time""
""fullscreenenter"",""1"",""3170""
","
","","","1013.3000001907349","","","25","10979","741","l","elianto","#3366ff99"," "," ","1","0","[1863.7000000476837]","1","2","","","10979","40","1","1","win","go","1"
"pit-trial","159","1178678","0.0-45.0","battery-v0.2","","""event"",""trial"",""time""
""fullscreenenter"",""1"",""3170""
","
","
","""event"",""trial"",""time""
""fullscreenenter"",""1"",""3170""
","
","","","-1","","","25","10979","741","u","elianto","#f73b6a7A","-1","-1","1","-10","[]","0","2","","","10979","41","0","4","lose","no-go","1"
"pit-trial","160","1183265","0.0-46.0","battery-v0.2","","""event"",""trial"",""time""
""fullscreenenter"",""1"",""3170""
","
","
","""event"",""trial"",""time""
""fullscreenenter"",""1"",""3170""
","
","","","1731.2999999523163","","","25","10979","741","g","elianto","#f73b6a7A"," "," ","1","0","[2581.600000143051]","1","2","","","10979","42","3","3","lose","go","0"
"pit-trial","161","1187281","0.0-47.0","battery-v0.2","","""event"",""trial"",""time""
""fullscreenenter"",""1"",""3170""
","
","
","""event"",""trial"",""time""
""fullscreenenter"",""1"",""3170""
","
","","","1162.2999999523163","","","25","10979","741","l","elianto","#3366ff99"," "," ","1","+10","[2013.6000001430511]","1","2","","","10979","43","1","1","win","go","0"
"pit-trial","162","1192135","0.0-48.0","battery-v0.2","","""event"",""trial"",""time""
""fullscreenenter"",""1"",""3170""
","
","
","""event"",""trial"",""time""
""fullscreenenter"",""1"",""3170""
","
","","","-1","","","25","10979","741","a","elianto","#f73b6a7A","-1","-1","1","0","[]","0","2","","","10979","44","2","4","lose","no-go","0"
"pit-trial","163","1196989","0.0-49.0","battery-v0.2","","""event"",""trial"",""time""
""fullscreenenter"",""1"",""3170""
","
","
","""event"",""trial"",""time""
""fullscreenenter"",""1"",""3170""
","
","","","-1","","","25","10979","741","u","elianto","#f73b6a7A","-1","-1","1","-10","[]","0","2","","","10979","45","0","4","lose","no-go","1"
"pit-trial","164","1200506","0.0-50.0","battery-v0.2","","""event"",""trial"",""time""
""fullscreenenter"",""1"",""3170""
","
","
","""event"",""trial"",""time""
""fullscreenenter"",""1"",""3170""
","
","","","662.4000000953674","","","25","10979","741","g","elianto","#f73b6a7A"," "," ","1","-10","[1513.2000000476837]","1","2","","","10979","46","3","3","lose","go","1"
"pit-trial","165","1205363","0.0-51.0","battery-v0.2","","""event"",""trial"",""time""
""fullscreenenter"",""1"",""3170""
","
","
","""event"",""trial"",""time""
""fullscreenenter"",""1"",""3170""
","
","","","-1","","","25","10979","741","a","elianto","#f73b6a7A","-1","-1","1","-10","[]","0","2","","","10979","47","2","4","lose","no-go","1"
"pit-trial","166","1209721","0.0-52.0","battery-v0.2","","""event"",""trial"",""time""
""fullscreenenter"",""1"",""3170""
","
","
","""event"",""trial"",""time""
""fullscreenenter"",""1"",""3170""
","
","","","1504.1000001430511","","","25","10979","741","p","elianto","#3366ff99","-1"," ","0","0","[2354.5]","1","2","","","10979","48","4","2","win","no-go","0"
"pit-trial","167","1214575","0.0-53.0","battery-v0.2","","""event"",""trial"",""time""
""fullscreenenter"",""1"",""3170""
","
","
","""event"",""trial"",""time""
""fullscreenenter"",""1"",""3170""
","
","","","-1","","","25","10979","741","g","elianto","#f73b6a7A"," ","-1","0","0","[]","0","2","","","10979","49","3","3","lose","go","1"
"pit-trial","168","1218634","0.0-54.0","battery-v0.2","","""event"",""trial"",""time""
""fullscreenenter"",""1"",""3170""
","
","
","""event"",""trial"",""time""
""fullscreenenter"",""1"",""3170""
","
","","","1205.2000000476837","","","25","10979","741","p","elianto","#3366ff99","-1"," ","0","0","[2056.2000000476837]","1","2","","","10979","50","4","2","win","no-go","0"
"pit-trial","169","1223487","0.0-55.0","battery-v0.2","","""event"",""trial"",""time""
""fullscreenenter"",""1"",""3170""
","
","
","""event"",""trial"",""time""
""fullscreenenter"",""1"",""3170""
","
","","","-1","","","25","10979","741","u","elianto","#f73b6a7A","-1","-1","1","0","[]","0","2","","","10979","51","0","4","lose","no-go","0"
"pit-trial","170","1227298","0.0-56.0","battery-v0.2","","""event"",""trial"",""time""
""fullscreenenter"",""1"",""3170""
","
","
","""event"",""trial"",""time""
""fullscreenenter"",""1"",""3170""
","
","","","957.2999999523163","","","25","10979","741","l","elianto","#3366ff99"," "," ","1","+10","[1808.5]","1","2","","","10979","52","1","1","win","go","0"
"pit-trial","171","1231227","0.0-57.0","battery-v0.2","","""event"",""trial"",""time""
""fullscreenenter"",""1"",""3170""
","
","
","""event"",""trial"",""time""
""fullscreenenter"",""1"",""3170""
","
","","","1073.8000001907349","","","25","10979","741","l","elianto","#3366ff99"," "," ","1","+10","[1925.8000001907349]","1","2","","","10979","53","1","1","win","go","0"
"pit-trial","172","1236080","0.0-58.0","battery-v0.2","","""event"",""trial"",""time""
""fullscreenenter"",""1"",""3170""
","
","
","""event"",""trial"",""time""
""fullscreenenter"",""1"",""3170""
","
","","","-1","","","25","10979","741","u","elianto","#f73b6a7A","-1","-1","1","0","[]","0","2","","","10979","54","0","4","lose","no-go","0"
"pit-trial","173","1240933","0.0-59.0","battery-v0.2","","""event"",""trial"",""time""
""fullscreenenter"",""1"",""3170""
","
","
","""event"",""trial"",""time""
""fullscreenenter"",""1"",""3170""
","
","","","-1","","","25","10979","741","a","elianto","#f73b6a7A","-1","-1","1","-10","[]","0","2","","","10979","55","2","4","lose","no-go","1"
"pit-trial","174","1245538","0.0-60.0","battery-v0.2","","""event"",""trial"",""time""
""fullscreenenter"",""1"",""3170""
","
","
","""event"",""trial"",""time""
""fullscreenenter"",""1"",""3170""
","
","","","1751.8999998569489","","","25","10979","741","p","elianto","#3366ff99","-1"," ","0","0","[2602.100000143051]","1","2","","","10979","56","4","2","win","no-go","0"
"pit-trial","175","1250402","0.0-61.0","battery-v0.2","","""event"",""trial"",""time""
""fullscreenenter"",""1"",""3170""
","
","
","""event"",""trial"",""time""
""fullscreenenter"",""1"",""3170""
","
","","","-1","","","25","10979","741","u","elianto","#f73b6a7A","-1","-1","1","0","[]","0","2","","","10979","57","0","4","lose","no-go","0"
"pit-trial","176","1254506","0.0-62.0","battery-v0.2","","""event"",""trial"",""time""
""fullscreenenter"",""1"",""3170""
","
","
","""event"",""trial"",""time""
""fullscreenenter"",""1"",""3170""
","
","","","1251.5999999046326","","","25","10979","741","l","elianto","#3366ff99"," "," ","1","+10","[2102.5]","1","2","","","10979","58","1","1","win","go","0"
"pit-trial","177","1258995","0.0-63.0","battery-v0.2","","""event"",""trial"",""time""
""fullscreenenter"",""1"",""3170""
","
","
","""event"",""trial"",""time""
""fullscreenenter"",""1"",""3170""
","
","","","1634.3999998569489","","","25","10979","741","g","elianto","#f73b6a7A"," "," ","1","-10","[2486.0999999046326]","1","2","","","10979","59","3","3","lose","go","1"
"pit-trial","178","1263848","0.0-64.0","battery-v0.2","","""event"",""trial"",""time""
""fullscreenenter"",""1"",""3170""
","
","
","""event"",""trial"",""time""
""fullscreenenter"",""1"",""3170""
","
","","","-1","","","25","10979","741","p","elianto","#3366ff99","-1","-1","1","+10","[]","0","2","","","10979","60","4","2","win","no-go","0"
"pit-trial","179","1268703","0.0-65.0","battery-v0.2","","""event"",""trial"",""time""
""fullscreenenter"",""1"",""3170""
","
","
","""event"",""trial"",""time""
""fullscreenenter"",""1"",""3170""
","
","","","-1","","","25","10979","741","p","elianto","#3366ff99","-1","-1","1","+10","[]","0","2","","","10979","61","4","2","win","no-go","0"
"pit-trial","180","1273557","0.0-66.0","battery-v0.2","","""event"",""trial"",""time""
""fullscreenenter"",""1"",""3170""
","
","
","""event"",""trial"",""time""
""fullscreenenter"",""1"",""3170""
","
","","","-1","","","25","10979","741","a","elianto","#f73b6a7A","-1","-1","1","-10","[]","0","2","","","10979","62","2","4","lose","no-go","1"
"pit-trial","181","1278413","0.0-67.0","battery-v0.2","","""event"",""trial"",""time""
""fullscreenenter"",""1"",""3170""
","
","
","""event"",""trial"",""time""
""fullscreenenter"",""1"",""3170""
","
","","","-1","","","25","10979","741","g","elianto","#f73b6a7A"," ","-1","0","-10","[]","0","2","","","10979","63","3","3","lose","go","0"
"pit-trial","182","1282530","0.0-68.0","battery-v0.2","","""event"",""trial"",""time""
""fullscreenenter"",""1"",""3170""
","
","
","""event"",""trial"",""time""
""fullscreenenter"",""1"",""3170""
","
","","","1263.7000000476837","","","25","10979","741","l","elianto","#3366ff99"," "," ","1","0","[2114.5999999046326]","1","2","","","10979","64","1","1","win","go","1"
"pit-trial","183","1287384","0.0-69.0","battery-v0.2","","""event"",""trial"",""time""
""fullscreenenter"",""1"",""3170""
","
","
","""event"",""trial"",""time""
""fullscreenenter"",""1"",""3170""
","
","","","-1","","","25","10979","741","g","elianto","#f73b6a7A"," ","-1","0","0","[2932.399999856949]","1","2","","","10979","65","3","3","lose","go","1"
"pit-trial","184","1292237","0.0-70.0","battery-v0.2","","""event"",""trial"",""time""
""fullscreenenter"",""1"",""3170""
","
","
","""event"",""trial"",""time""
""fullscreenenter"",""1"",""3170""
","
","","","-1","","","25","10979","741","a","elianto","#f73b6a7A","-1","-1","1","0","[]","0","2","","","10979","66","2","4","lose","no-go","0"
"pit-trial","185","1297091","0.0-71.0","battery-v0.2","","""event"",""trial"",""time""
""fullscreenenter"",""1"",""3170""
","
","
","""event"",""trial"",""time""
""fullscreenenter"",""1"",""3170""
","
","","","-1","","","25","10979","741","p","elianto","#3366ff99","-1","-1","1","+10","[]","0","2","","","10979","67","4","2","win","no-go","0"
"pit-trial","186","1300882","0.0-72.0","battery-v0.2","","""event"",""trial"",""time""
""fullscreenenter"",""1"",""3170""
","
","
","""event"",""trial"",""time""
""fullscreenenter"",""1"",""3170""
","
","","","937.6999998092651","","","25","10979","741","l","elianto","#3366ff99"," "," ","1","+10","[1787.6999998092651]","1","2","","","10979","68","1","1","win","go","0"
"pit-trial","187","1304729","0.0-73.0","battery-v0.2","","""event"",""trial"",""time""
""fullscreenenter"",""1"",""3170""
","
","
","""event"",""trial"",""time""
""fullscreenenter"",""1"",""3170""
","
","","","994.2999999523163","","","25","10979","741","l","elianto","#3366ff99"," "," ","1","+10","[1844.5]","1","2","","","10979","69","1","1","win","go","0"
"pit-trial","188","1309266","0.0-74.0","battery-v0.2","","""event"",""trial"",""time""
""fullscreenenter"",""1"",""3170""
","
","
","""event"",""trial"",""time""
""fullscreenenter"",""1"",""3170""
","
","","","1683","","","25","10979","741","s","elianto","#3366ff99"," "," ","1","+10","[2533.5]","1","2","","","10979","70","5","1","win","go","0"
"pit-trial","189","1314121","0.0-75.0","battery-v0.2","","""event"",""trial"",""time""
""fullscreenenter"",""1"",""3170""
","
","
","""event"",""trial"",""time""
""fullscreenenter"",""1"",""3170""
","
","","","-1","","","25","10979","741","g","elianto","#f73b6a7A"," ","-1","0","-10","[]","0","2","","","10979","71","3","3","lose","go","0"
"pit-trial","190","1317996","0.0-76.0","battery-v0.2","","""event"",""trial"",""time""
""fullscreenenter"",""1"",""3170""
","
","
","""event"",""trial"",""time""
""fullscreenenter"",""1"",""3170""
","
","","","1010.7000000476837","","","25","10979","741","p","elianto","#3366ff99","-1"," ","0","0","[1862.2999999523163]","1","2","","","10979","72","4","2","win","no-go","0"
"pit-trial","191","1322851","0.0-77.0","battery-v0.2","","""event"",""trial"",""time""
""fullscreenenter"",""1"",""3170""
","
","
","""event"",""trial"",""time""
""fullscreenenter"",""1"",""3170""
","
","","","-1","","","25","10979","741","p","elianto","#3366ff99","-1","-1","1","0","[]","0","2","","","10979","73","4","2","win","no-go","1"
"pit-trial","192","1327703","0.0-78.0","battery-v0.2","","""event"",""trial"",""time""
""fullscreenenter"",""1"",""3170""
","
","
","""event"",""trial"",""time""
""fullscreenenter"",""1"",""3170""
","
","","","-1","","","25","10979","741","g","elianto","#f73b6a7A"," ","-1","0","-10","[]","0","2","","","10979","74","3","3","lose","go","0"
"pit-trial","193","1331802","0.0-79.0","battery-v0.2","","""event"",""trial"",""time""
""fullscreenenter"",""1"",""3170""
","
","
","""event"",""trial"",""time""
""fullscreenenter"",""1"",""3170""
","
","","","1245.5","","","25","10979","741","s","elianto","#3366ff99"," "," ","1","+10","[2096]","1","2","","","10979","75","5","1","win","go","0"
"pit-trial","194","1335338","0.0-80.0","battery-v0.2","","""event"",""trial"",""time""
""fullscreenenter"",""1"",""3170""
","
","
","""event"",""trial"",""time""
""fullscreenenter"",""1"",""3170""
","
","","","681.5","","","25","10979","741","l","elianto","#3366ff99"," "," ","1","+10","[1532.5]","1","2","","","10979","76","1","1","win","go","0"
"pit-trial","195","1340192","0.0-81.0","battery-v0.2","","""event"",""trial"",""time""
""fullscreenenter"",""1"",""3170""
","
","
","""event"",""trial"",""time""
""fullscreenenter"",""1"",""3170""
","
","","","-1","","","25","10979","741","g","elianto","#f73b6a7A"," ","-1","0","-10","[]","0","2","","","10979","77","3","3","lose","go","0"
"pit-trial","196","1344417","0.0-82.0","battery-v0.2","","""event"",""trial"",""time""
""fullscreenenter"",""1"",""3170""
","
","
","""event"",""trial"",""time""
""fullscreenenter"",""1"",""3170""
","
","","","1372.9000000953674","","","25","10979","741","s","elianto","#3366ff99"," "," ","1","0","[2223.399999856949]","1","2","","","10979","78","5","1","win","go","1"
"pit-trial","197","1349270","0.0-83.0","battery-v0.2","","""event"",""trial"",""time""
""fullscreenenter"",""1"",""3170""
","
","
","""event"",""trial"",""time""
""fullscreenenter"",""1"",""3170""
","
","","","-1","","","25","10979","741","p","elianto","#3366ff99","-1","-1","1","+10","[]","0","2","","","10979","79","4","2","win","no-go","0"
"pit-trial","198","1353634","0.0-84.0","battery-v0.2","","""event"",""trial"",""time""
""fullscreenenter"",""1"",""3170""
","
","
","""event"",""trial"",""time""
""fullscreenenter"",""1"",""3170""
","
","","","1508.5","","","25","10979","741","w","elianto","#f73b6a7A","-1"," ","0","0","[2359.7999999523163]","1","2","","","10979","80","6","4","lose","no-go","1"
"pit-trial","199","1357562","0.0-85.0","battery-v0.2","","""event"",""trial"",""time""
""fullscreenenter"",""1"",""3170""
","
","
","""event"",""trial"",""time""
""fullscreenenter"",""1"",""3170""
","
","","","1074.4000000953674","","","25","10979","741","w","elianto","#f73b6a7A","-1"," ","0","-10","[1926.4000000953674]","1","2","","","10979","81","6","4","lose","no-go","0"
"pit-trial","200","1362427","0.0-86.0","battery-v0.2","","""event"",""trial"",""time""
""fullscreenenter"",""1"",""3170""
","
","
","""event"",""trial"",""time""
""fullscreenenter"",""1"",""3170""
","
","","","-1","","","25","10979","741","e","elianto","#f73b6a7A"," ","-1","0","0","[]","0","2","","","10979","82","7","3","lose","go","1"
"pit-trial","201","1367146","0.0-87.0","battery-v0.2","","""event"",""trial"",""time""
""fullscreenenter"",""1"",""3170""
","
","
","""event"",""trial"",""time""
""fullscreenenter"",""1"",""3170""
","
","","","1866.1999998092651","","","25","10979","741","s","elianto","#3366ff99"," "," ","1","+10","[2716.2000000476837]","1","2","","","10979","83","5","1","win","go","0"
"pit-trial","202","1371999","0.0-88.0","battery-v0.2","","""event"",""trial"",""time""
""fullscreenenter"",""1"",""3170""
","
","
","""event"",""trial"",""time""
""fullscreenenter"",""1"",""3170""
","
","","","-1","","","25","10979","741","p","elianto","#3366ff99","-1","-1","1","+10","[]","0","2","","","10979","84","4","2","win","no-go","0"
"pit-trial","203","1376854","0.0-89.0","battery-v0.2","","""event"",""trial"",""time""
""fullscreenenter"",""1"",""3170""
","
","
","""event"",""trial"",""time""
""fullscreenenter"",""1"",""3170""
","
","","","-1","","","25","10979","741","e","elianto","#f73b6a7A"," ","-1","0","-10","[]","0","2","","","10979","85","7","3","lose","go","0"
"pit-trial","204","1381123","0.0-90.0","battery-v0.2","","""event"",""trial"",""time""
""fullscreenenter"",""1"",""3170""
","
","
","""event"",""trial"",""time""
""fullscreenenter"",""1"",""3170""
","
","","","1414.4000000953674","","","25","10979","741","w","elianto","#f73b6a7A","-1"," ","0","-10","[2265]","1","2","","","10979","86","6","4","lose","no-go","0"
"pit-trial","205","1385976","0.0-91.0","battery-v0.2","","""event"",""trial"",""time""
""fullscreenenter"",""1"",""3170""
","
","
","""event"",""trial"",""time""
""fullscreenenter"",""1"",""3170""
","
","","","-1","","","25","10979","741","p","elianto","#3366ff99","-1","-1","1","+10","[]","0","2","","","10979","87","4","2","win","no-go","0"
"pit-trial","206","1390210","0.0-92.0","battery-v0.2","","""event"",""trial"",""time""
""fullscreenenter"",""1"",""3170""
","
","
","""event"",""trial"",""time""
""fullscreenenter"",""1"",""3170""
","
","","","1380.3999998569489","","","25","10979","741","s","elianto","#3366ff99"," "," ","1","0","[2231.0999999046326]","1","2","","","10979","88","5","1","win","go","1"
"pit-trial","207","1395065","0.0-93.0","battery-v0.2","","""event"",""trial"",""time""
""fullscreenenter"",""1"",""3170""
","
","
","""event"",""trial"",""time""
""fullscreenenter"",""1"",""3170""
","
","","","-1","","","25","10979","741","e","elianto","#f73b6a7A"," ","-1","0","-10","[]","0","2","","","10979","89","7","3","lose","go","0"
"pit-trial","208","1399202","0.0-94.0","battery-v0.2","","""event"",""trial"",""time""
""fullscreenenter"",""1"",""3170""
","
","
","""event"",""trial"",""time""
""fullscreenenter"",""1"",""3170""
","
","","","1284.5","","","25","10979","741","w","elianto","#f73b6a7A","-1"," ","0","-10","[2134.7999999523163]","1","2","","","10979","90","6","4","lose","no-go","0"
"pit-trial","209","1404055","0.0-95.0","battery-v0.2","","""event"",""trial"",""time""
""fullscreenenter"",""1"",""3170""
","
","
","""event"",""trial"",""time""
""fullscreenenter"",""1"",""3170""
","
","","","-1","","","25","10979","741","p","elianto","#3366ff99","-1","-1","1","+10","[]","0","2","","","10979","91","4","2","win","no-go","0"
"pit-trial","210","1408649","0.0-96.0","battery-v0.2","","""event"",""trial"",""time""
""fullscreenenter"",""1"",""3170""
","
","
","""event"",""trial"",""time""
""fullscreenenter"",""1"",""3170""
","
","","","1742.1000001430511","","","25","10979","741","s","elianto","#3366ff99"," "," ","1","+10","[2592.5999999046326]","1","2","","","10979","92","5","1","win","go","0"
"pit-trial","211","1413251","0.0-97.0","battery-v0.2","","""event"",""trial"",""time""
""fullscreenenter"",""1"",""3170""
","
","
","""event"",""trial"",""time""
""fullscreenenter"",""1"",""3170""
","
","","","1747.6999998092651","","","25","10979","741","d","elianto","#3366ff99","-1"," ","0","+10","[2598.7000000476837]","1","2","","","10979","93","8","2","win","no-go","1"
"pit-trial","212","1417673","0.0-98.0","battery-v0.2","","""event"",""trial"",""time""
""fullscreenenter"",""1"",""3170""
","
","
","""event"",""trial"",""time""
""fullscreenenter"",""1"",""3170""
","
","","","1568.5999999046326","","","25","10979","741","s","elianto","#3366ff99"," "," ","1","0","[2419.4000000953674]","1","2","","","10979","94","5","1","win","go","1"
"pit-trial","213","1422528","0.0-99.0","battery-v0.2","","""event"",""trial"",""time""
""fullscreenenter"",""1"",""3170""
","
","
","""event"",""trial"",""time""
""fullscreenenter"",""1"",""3170""
","
","","","-1","","","25","10979","741","w","elianto","#f73b6a7A","-1","-1","1","0","[]","0","2","","","10979","95","6","4","lose","no-go","0"
"pit-trial","214","1427381","0.0-100.0","battery-v0.2","","""event"",""trial"",""time""
""fullscreenenter"",""1"",""3170""
","
","
","""event"",""trial"",""time""
""fullscreenenter"",""1"",""3170""
","
","","","-1","","","25","10979","741","e","elianto","#f73b6a7A"," ","-1","0","-10","[]","0","2","","","10979","96","7","3","lose","go","0"
"pit-trial","215","1432235","0.0-101.0","battery-v0.2","","""event"",""trial"",""time""
""fullscreenenter"",""1"",""3170""
","
","
","""event"",""trial"",""time""
""fullscreenenter"",""1"",""3170""
","
","","","-1","","","25","10979","741","e","elianto","#f73b6a7A"," ","-1","0","-10","[]","0","2","","","10979","97","7","3","lose","go","0"
"pit-trial","216","1436282","0.0-102.0","battery-v0.2","","""event"",""trial"",""time""
""fullscreenenter"",""1"",""3170""
","
","
","""event"",""trial"",""time""
""fullscreenenter"",""1"",""3170""
","
","","","1194","","","25","10979","741","d","elianto","#3366ff99","-1"," ","0","0","[2044.2000000476837]","1","2","","","10979","98","8","2","win","no-go","0"
"pit-trial","217","1440514","0.0-103.0","battery-v0.2","","""event"",""trial"",""time""
""fullscreenenter"",""1"",""3170""
","
","
","""event"",""trial"",""time""
""fullscreenenter"",""1"",""3170""
","
","","","1378.1000001430511","","","25","10979","741","w","elianto","#f73b6a7A","-1"," ","0","-10","[2228.7000000476837]","1","2","","","10979","99","6","4","lose","no-go","0"
"pit-trial","218","1444722","0.0-104.0","battery-v0.2","","""event"",""trial"",""time""
""fullscreenenter"",""1"",""3170""
","
","
","""event"",""trial"",""time""
""fullscreenenter"",""1"",""3170""
","
","","","1355.0999999046326","","","25","10979","741","s","elianto","#3366ff99"," "," ","1","+10","[2205.5]","1","2","","","10979","100","5","1","win","go","0"
"pit-trial","219","1448561","0.0-105.0","battery-v0.2","","""event"",""trial"",""time""
""fullscreenenter"",""1"",""3170""
","
","
","""event"",""trial"",""time""
""fullscreenenter"",""1"",""3170""
","
","","","986","","","25","10979","741","d","elianto","#3366ff99","-1"," ","0","0","[1836.2999999523163]","1","2","","","10979","101","8","2","win","no-go","0"
"pit-trial","220","1453305","0.0-106.0","battery-v0.2","","""event"",""trial"",""time""
""fullscreenenter"",""1"",""3170""
","
","
","""event"",""trial"",""time""
""fullscreenenter"",""1"",""3170""
","
","","","1890.7000000476837","","","25","10979","741","j","elianto","#3366ff99","-1"," ","0","0","[2741.5999999046326]","1","2","","","10979","102","9","2","win","no-go","0"
"pit-trial","221","1458158","0.0-107.0","battery-v0.2","","""event"",""trial"",""time""
""fullscreenenter"",""1"",""3170""
","
","
","""event"",""trial"",""time""
""fullscreenenter"",""1"",""3170""
","
","","","-1","","","25","10979","741","w","elianto","#f73b6a7A","-1","-1","1","0","[]","0","2","","","10979","103","6","4","lose","no-go","0"
"pit-trial","222","1462386","0.0-108.0","battery-v0.2","","""event"",""trial"",""time""
""fullscreenenter"",""1"",""3170""
","
","
","""event"",""trial"",""time""
""fullscreenenter"",""1"",""3170""
","
","","","1374.0999999046326","","","25","10979","741","s","elianto","#3366ff99"," "," ","1","+10","[2224.2000000476837]","1","2","","","10979","104","5","1","win","go","0"
"pit-trial","223","1467239","0.0-109.0","battery-v0.2","","""event"",""trial"",""time""
""fullscreenenter"",""1"",""3170""
","
","
","""event"",""trial"",""time""
""fullscreenenter"",""1"",""3170""
","
","","","-1","","","25","10979","741","w","elianto","#f73b6a7A","-1","-1","1","0","[]","0","2","","","10979","105","6","4","lose","no-go","0"
"pit-trial","224","1471184","0.0-110.0","battery-v0.2","","""event"",""trial"",""time""
""fullscreenenter"",""1"",""3170""
","
","
","""event"",""trial"",""time""
""fullscreenenter"",""1"",""3170""
","
","","","1091.0999999046326","","","25","10979","741","d","elianto","#3366ff99","-1"," ","0","+10","[1941.8999998569489]","1","2","","","10979","106","8","2","win","no-go","1"
"pit-trial","225","1476037","0.0-111.0","battery-v0.2","","""event"",""trial"",""time""
""fullscreenenter"",""1"",""3170""
","
","
","""event"",""trial"",""time""
""fullscreenenter"",""1"",""3170""
","
","","","-1","","","25","10979","741","j","elianto","#3366ff99","-1","-1","1","+10","[]","0","2","","","10979","107","9","2","win","no-go","0"
"pit-trial","226","1480234","0.0-112.0","battery-v0.2","","""event"",""trial"",""time""
""fullscreenenter"",""1"",""3170""
","
","
","""event"",""trial"",""time""
""fullscreenenter"",""1"",""3170""
","
","","","1336.7000000476837","","","25","10979","741","s","elianto","#3366ff99"," "," ","1","+10","[2194]","1","2","","","10979","108","5","1","win","go","0"
"pit-trial","227","1485088","0.0-113.0","battery-v0.2","","""event"",""trial"",""time""
""fullscreenenter"",""1"",""3170""
","
","
","""event"",""trial"",""time""
""fullscreenenter"",""1"",""3170""
","
","","","-1","","","25","10979","741","j","elianto","#3366ff99","-1","-1","1","+10","[]","0","2","","","10979","109","9","2","win","no-go","0"
"pit-trial","228","1489011","0.0-114.0","battery-v0.2","","""event"",""trial"",""time""
""fullscreenenter"",""1"",""3170""
","
","
","""event"",""trial"",""time""
""fullscreenenter"",""1"",""3170""
","
","","","1069.5","","","25","10979","741","d","elianto","#3366ff99","-1"," ","0","+10","[1919.9000000953674]","1","2","","","10979","110","8","2","win","no-go","1"
"pit-trial","229","1493864","0.0-115.0","battery-v0.2","","""event"",""trial"",""time""
""fullscreenenter"",""1"",""3170""
","
","
","""event"",""trial"",""time""
""fullscreenenter"",""1"",""3170""
","
","","","-1","","","25","10979","741","s","elianto","#3366ff99"," ","-1","0","0","[]","0","2","","","10979","111","5","1","win","go","0"
"pit-trial","230","1498720","0.0-116.0","battery-v0.2","","""event"",""trial"",""time""
""fullscreenenter"",""1"",""3170""
","
","
","""event"",""trial"",""time""
""fullscreenenter"",""1"",""3170""
","
","","","-1","","","25","10979","741","w","elianto","#f73b6a7A","-1","-1","1","0","[]","0","2","","","10979","112","6","4","lose","no-go","0"
"pit-trial","231","1502402","0.0-117.0","battery-v0.2","","""event"",""trial"",""time""
""fullscreenenter"",""1"",""3170""
","
","
","""event"",""trial"",""time""
""fullscreenenter"",""1"",""3170""
","
","","","829.7999999523163","","","25","10979","741","d","elianto","#3366ff99","-1"," ","0","0","[1680.2000000476837]","1","2","","","10979","113","8","2","win","no-go","0"
"pit-trial","232","1507256","0.0-118.0","battery-v0.2","","""event"",""trial"",""time""
""fullscreenenter"",""1"",""3170""
","
","
","""event"",""trial"",""time""
""fullscreenenter"",""1"",""3170""
","
","","","-1","","","25","10979","741","j","elianto","#3366ff99","-1","-1","1","+10","[]","0","2","","","10979","114","9","2","win","no-go","0"
"pit-trial","233","1512109","0.0-119.0","battery-v0.2","","""event"",""trial"",""time""
""fullscreenenter"",""1"",""3170""
","
","
","""event"",""trial"",""time""
""fullscreenenter"",""1"",""3170""
","
","","","-1","","","25","10979","741","e","elianto","#f73b6a7A"," ","-1","0","-10","[]","0","2","","","10979","115","7","3","lose","go","0"
"pit-trial","234","1516106","0.0-120.0","battery-v0.2","","""event"",""trial"",""time""
""fullscreenenter"",""1"",""3170""
","
","
","""event"",""trial"",""time""
""fullscreenenter"",""1"",""3170""
","
","","","1142.9000000953674","","","25","10979","741","s","elianto","#3366ff99"," "," ","1","+10","[1993.7999999523163]","1","2","","","10979","116","5","1","win","go","0"
"pit-trial","235","1519891","0.0-121.0","battery-v0.2","","""event"",""trial"",""time""
""fullscreenenter"",""1"",""3170""
","
","
","""event"",""trial"",""time""
""fullscreenenter"",""1"",""3170""
","
","","","929.3999998569489","","","25","10979","741","d","elianto","#3366ff99","-1"," ","0","0","[1779.7999999523163]","1","2","","","10979","117","8","2","win","no-go","0"
"pit-trial","236","1524745","0.0-122.0","battery-v0.2","","""event"",""trial"",""time""
""fullscreenenter"",""1"",""3170""
","
","
","""event"",""trial"",""time""
""fullscreenenter"",""1"",""3170""
","
","","","-1","","","25","10979","741","j","elianto","#3366ff99","-1","-1","1","+10","[]","0","2","","","10979","118","9","2","win","no-go","0"
"pit-trial","237","1528553","0.0-123.0","battery-v0.2","","""event"",""trial"",""time""
""fullscreenenter"",""1"",""3170""
","
","
","""event"",""trial"",""time""
""fullscreenenter"",""1"",""3170""
","
","","","955","","","25","10979","741","s","elianto","#3366ff99"," "," ","1","+10","[1805.3999998569489]","1","2","","","10979","119","5","1","win","go","0"
"pit-trial","238","1533408","0.0-124.0","battery-v0.2","","""event"",""trial"",""time""
""fullscreenenter"",""1"",""3170""
","
","
","""event"",""trial"",""time""
""fullscreenenter"",""1"",""3170""
","
","","","-1","","","25","10979","741","w","elianto","#f73b6a7A","-1","-1","1","0","[]","0","2","","","10979","120","6","4","lose","no-go","0"
"pit-trial","239","1538261","0.0-125.0","battery-v0.2","","""event"",""trial"",""time""
""fullscreenenter"",""1"",""3170""
","
","
","""event"",""trial"",""time""
""fullscreenenter"",""1"",""3170""
","
","","","-1","","","25","10979","741","e","elianto","#f73b6a7A"," ","-1","0","-10","[]","0","2","","","10979","121","7","3","lose","go","0"
"pit-trial","240","1543115","0.0-126.0","battery-v0.2","","""event"",""trial"",""time""
""fullscreenenter"",""1"",""3170""
","
","
","""event"",""trial"",""time""
""fullscreenenter"",""1"",""3170""
","
","","","-1","","","25","10979","741","d","elianto","#3366ff99","-1","-1","1","+10","[]","0","2","","","10979","122","8","2","win","no-go","0"
"pit-trial","241","1547968","0.0-127.0","battery-v0.2","","""event"",""trial"",""time""
""fullscreenenter"",""1"",""3170""
","
","
","""event"",""trial"",""time""
""fullscreenenter"",""1"",""3170""
","
","","","-1","","","25","10979","741","s","elianto","#3366ff99"," ","-1","0","+10","[3068.2000000476837]","1","2","","","10979","123","5","1","win","go","1"
"pit-trial","242","1552822","0.0-128.0","battery-v0.2","","""event"",""trial"",""time""
""fullscreenenter"",""1"",""3170""
","
","
","""event"",""trial"",""time""
""fullscreenenter"",""1"",""3170""
","
","","","-1","","","25","10979","741","j","elianto","#3366ff99","-1","-1","1","+10","[]","0","2","","","10979","124","9","2","win","no-go","0"
"pit-trial","243","1557675","0.0-129.0","battery-v0.2","","""event"",""trial"",""time""
""fullscreenenter"",""1"",""3170""
","
","
","""event"",""trial"",""time""
""fullscreenenter"",""1"",""3170""
","
","","","-1","","","25","10979","741","d","elianto","#3366ff99","-1","-1","1","+10","[]","0","2","","","10979","125","8","2","win","no-go","0"
"pit-trial","244","1562530","0.0-130.0","battery-v0.2","","""event"",""trial"",""time""
""fullscreenenter"",""1"",""3170""
","
","
","""event"",""trial"",""time""
""fullscreenenter"",""1"",""3170""
","
","","","-1","","","25","10979","741","e","elianto","#f73b6a7A"," ","-1","0","-10","[]","0","2","","","10979","126","7","3","lose","go","0"
"pit-trial","245","1567384","0.0-131.0","battery-v0.2","","""event"",""trial"",""time""
""fullscreenenter"",""1"",""3170""
","
","
","""event"",""trial"",""time""
""fullscreenenter"",""1"",""3170""
","
","","","-1","","","25","10979","741","w","elianto","#f73b6a7A","-1","-1","1","0","[]","0","2","","","10979","127","6","4","lose","no-go","0"
"pit-trial","246","1572251","0.0-132.0","battery-v0.2","","""event"",""trial"",""time""
""fullscreenenter"",""1"",""3170""
","
","
","""event"",""trial"",""time""
""fullscreenenter"",""1"",""3170""
","
","","","-1","","","25","10979","741","j","elianto","#3366ff99","-1","-1","1","0","[]","0","2","","","10979","128","9","2","win","no-go","1"
"pit-trial","247","1577105","0.0-133.0","battery-v0.2","","""event"",""trial"",""time""
""fullscreenenter"",""1"",""3170""
","
","
","""event"",""trial"",""time""
""fullscreenenter"",""1"",""3170""
","
","","","-1","","","25","10979","741","e","elianto","#f73b6a7A"," ","-1","0","-10","[]","0","2","","","10979","129","7","3","lose","go","0"
"pit-trial","248","1581488","0.0-134.0","battery-v0.2","","""event"",""trial"",""time""
""fullscreenenter"",""1"",""3170""
","
","
","""event"",""trial"",""time""
""fullscreenenter"",""1"",""3170""
","
","","","1529.1999998092651","","","25","10979","741","j","elianto","#3366ff99","-1"," ","0","0","[2380.0999999046326]","1","2","","","10979","130","9","2","win","no-go","0"
"pit-trial","249","1586342","0.0-135.0","battery-v0.2","","""event"",""trial"",""time""
""fullscreenenter"",""1"",""3170""
","
","
","""event"",""trial"",""time""
""fullscreenenter"",""1"",""3170""
","
","","","-1","","","25","10979","741","d","elianto","#3366ff99","-1","-1","1","0","[]","0","2","","","10979","131","8","2","win","no-go","1"
"pit-trial","250","1591196","0.0-136.0","battery-v0.2","","""event"",""trial"",""time""
""fullscreenenter"",""1"",""3170""
","
","
","""event"",""trial"",""time""
""fullscreenenter"",""1"",""3170""
","
","","","-1","","","25","10979","741","w","elianto","#f73b6a7A","-1","-1","1","0","[]","0","2","","","10979","132","6","4","lose","no-go","0"
"pit-trial","251","1596033","0.0-137.0","battery-v0.2","","""event"",""trial"",""time""
""fullscreenenter"",""1"",""3170""
","
","
","""event"",""trial"",""time""
""fullscreenenter"",""1"",""3170""
","
","","","1982.9000000953674","","","25","10979","741","j","elianto","#3366ff99","-1"," ","0","0","[2834]","1","2","","","10979","133","9","2","win","no-go","0"
"pit-trial","252","1600887","0.0-138.0","battery-v0.2","","""event"",""trial"",""time""
""fullscreenenter"",""1"",""3170""
","
","
","""event"",""trial"",""time""
""fullscreenenter"",""1"",""3170""
","
","","","-1","","","25","10979","741","w","elianto","#f73b6a7A","-1","-1","1","-10","[]","0","2","","","10979","134","6","4","lose","no-go","1"
"pit-trial","253","1605740","0.0-139.0","battery-v0.2","","""event"",""trial"",""time""
""fullscreenenter"",""1"",""3170""
","
","
","""event"",""trial"",""time""
""fullscreenenter"",""1"",""3170""
","
","","","-1","","","25","10979","741","e","elianto","#f73b6a7A"," ","-1","0","-10","[]","0","2","","","10979","135","7","3","lose","go","0"
"pit-trial","254","1609650","0.0-140.0","battery-v0.2","","""event"",""trial"",""time""
""fullscreenenter"",""1"",""3170""
","
","
","""event"",""trial"",""time""
""fullscreenenter"",""1"",""3170""
","
","","","1055.2999999523163","","","25","10979","741","d","elianto","#3366ff99","-1"," ","0","0","[1906.0999999046326]","1","2","","","10979","136","8","2","win","no-go","0"
"pit-trial","255","1614504","0.0-141.0","battery-v0.2","","""event"",""trial"",""time""
""fullscreenenter"",""1"",""3170""
","
","
","""event"",""trial"",""time""
""fullscreenenter"",""1"",""3170""
","
","","","-1","","","25","10979","741","d","elianto","#3366ff99","-1","-1","1","0","[]","0","2","","","10979","137","8","2","win","no-go","1"
"pit-trial","256","1618482","0.0-142.0","battery-v0.2","","""event"",""trial"",""time""
""fullscreenenter"",""1"",""3170""
","
","
","""event"",""trial"",""time""
""fullscreenenter"",""1"",""3170""
","
","","","1123.4000000953674","","","25","10979","741","e","elianto","#f73b6a7A"," "," ","1","-10","[1974.2999999523163]","1","2","","","10979","138","7","3","lose","go","1"
"pit-trial","257","1623346","0.0-143.0","battery-v0.2","","""event"",""trial"",""time""
""fullscreenenter"",""1"",""3170""
","
","
","""event"",""trial"",""time""
""fullscreenenter"",""1"",""3170""
","
","","","-1","","","25","10979","741","j","elianto","#3366ff99","-1","-1","1","0","[]","0","2","","","10979","139","9","2","win","no-go","1"
"pit-trial","258","1628200","0.0-144.0","battery-v0.2","","""event"",""trial"",""time""
""fullscreenenter"",""1"",""3170""
","
","
","""event"",""trial"",""time""
""fullscreenenter"",""1"",""3170""
","
","","","-1","","","25","10979","741","w","elianto","#f73b6a7A","-1","-1","1","0","[]","0","2","","","10979","140","6","4","lose","no-go","0"
"pit-instructions","259","1688590","0.0-145.0","battery-v0.2","","""event"",""trial"",""time""
""fullscreenenter"",""1"",""3170""
","
","
","""event"",""trial"",""time""
""fullscreenenter"",""1"",""3170""
","
","","[{""page_index"":0,""viewing_time"":45532.10000014305},{""page_index"":1,""viewing_time"":14854.899999856949}]","60387.40000009537","","","","","","","","","","","","","","","","","","","","","","","",""
"pit-trial","260","1692725","0.0-146.0","battery-v0.2","","""event"",""trial"",""time""
""fullscreenenter"",""1"",""3170""
","
","
","""event"",""trial"",""time""
""fullscreenenter"",""1"",""3170""
","
","","","1268.9000000953674","","","25","10979","741","r","elianto","#3366ff99","-1"," ","0","0","[2119.2999999523163]","1","3","","","10979","141","1","2","win","no-go","0"
"pit-trial","261","1697598","0.0-147.0","battery-v0.2","","""event"",""trial"",""time""
""fullscreenenter"",""1"",""3170""
","
","
","""event"",""trial"",""time""
""fullscreenenter"",""1"",""3170""
","
","","","-1","","","25","10979","741","m","elianto","#f73b6a7A"," ","-1","0","-10","[]","0","3","","","10979","142","0","3","lose","go","0"
"pit-trial","262","1702481","0.0-148.0","battery-v0.2","","""event"",""trial"",""time""
""fullscreenenter"",""1"",""3170""
","
","
","""event"",""trial"",""time""
""fullscreenenter"",""1"",""3170""
","
","","","-1","","","25","10979","741","h","elianto","#f73b6a7A","-1","-1","1","0","[]","0","3","","","10979","143","3","4","lose","no-go","0"
"pit-trial","263","1707347","0.0-149.0","battery-v0.2","","""event"",""trial"",""time""
""fullscreenenter"",""1"",""3170""
","
","
","""event"",""trial"",""time""
""fullscreenenter"",""1"",""3170""
","
","","","-1","","","25","10979","741","y","elianto","#f73b6a7A"," ","-1","0","-10","[]","0","3","","","10979","144","2","3","lose","go","0"
"pit-trial","264","1710822","0.0-150.0","battery-v0.2","","""event"",""trial"",""time""
""fullscreenenter"",""1"",""3170""
","
","
","""event"",""trial"",""time""
""fullscreenenter"",""1"",""3170""
","
","","","609.2000000476837","","","25","10979","741","y","elianto","#f73b6a7A"," "," ","1","0","[1459.7000000476837]","1","3","","","10979","145","2","3","lose","go","0"
"pit-trial","265","1715689","0.0-151.0","battery-v0.2","","""event"",""trial"",""time""
""fullscreenenter"",""1"",""3170""
","
","
","""event"",""trial"",""time""
""fullscreenenter"",""1"",""3170""
","
","","","-1","","","25","10979","741","h","elianto","#f73b6a7A","-1","-1","1","0","[]","0","3","","","10979","146","3","4","lose","no-go","0"
"pit-trial","266","1719753","0.0-152.0","battery-v0.2","","""event"",""trial"",""time""
""fullscreenenter"",""1"",""3170""
","
","
","""event"",""trial"",""time""
""fullscreenenter"",""1"",""3170""
","
","","","1210.4000000953674","","","25","10979","741","m","elianto","#f73b6a7A"," "," ","1","0","[2060.9000000953674]","1","3","","","10979","147","0","3","lose","go","0"
"pit-trial","267","1723961","0.0-153.0","battery-v0.2","","""event"",""trial"",""time""
""fullscreenenter"",""1"",""3170""
","
","
","""event"",""trial"",""time""
""fullscreenenter"",""1"",""3170""
","
","","","1353.7999999523163","","","25","10979","741","r","elianto","#3366ff99","-1"," ","0","0","[2204.7000000476837]","1","3","","","10979","148","1","2","win","no-go","0"