"trial_type","trial_index","time_elapsed","internal_node_id","task_version","subject_id","interactions","blur_events","focus_events","fullscreenenter_events","fullscreenexit_events","success","view_history","rt","responses","num_errors","age","subject","participantId","rune","rune_set","hex","correct","choice","accuracy","outcome","keys","total_keys","block","practice","value","sub","trial","stimulus","robot","valence","action","sham"
"pavlovia","0","13","0.0-0.0","battery-v0.2","","""event"",""trial"",""time""
""fullscreenenter"",""1"",""2577""
","
","
","""event"",""trial"",""time""
""fullscreenenter"",""1"",""2577""
","
","","","","","","","","","","","","","","","","","","","","","","","","","","",""
"fullscreen","1","3561","0.0-1.0","battery-v0.2","","""event"",""trial"",""time""
""fullscreenenter"",""1"",""2577""
","
","
","""event"",""trial"",""time""
""fullscreenenter"",""1"",""2577""
","
","true","","","","","","","","","","","","","","","","","","","","","","","","","",""
"pit-instructions","2","12118","0.0-2.0-0.0","battery-v0.2","","""event"",""trial"",""time""
""fullscreenenter"",""1"",""2577""
","
","
","""event"",""trial"",""time""
""fullscreenenter"",""1"",""2577""
","
","","[{""page_index"":0,""viewing_time"":8553.799999999988}]","8554.100000000006","","","","","","","","","","","","","","","","","","","","","","","",""
"pit-comprehension","3","15245","0.0-2.0-1.0-0.0","battery-v0.2","","""event"",""trial"",""time""
""fullscreenenter"",""1"",""2577""
","
","
","""event"",""trial"",""time""
""fullscreenenter"",""1"",""2577""
","
","","","3124.600000000006","[""shark""]","0","24","16389","6416","","","","","","","","","","","","","","","","","","",""
"pit-instructions","4","17214","0.0-2.0-1.0-1.0","battery-v0.2","","""event"",""trial"",""time""
""fullscreenenter"",""1"",""2577""
","
","
","""event"",""trial"",""time""
""fullscreenenter"",""1"",""2577""
","
","","[{""page_index"":0,""viewing_time"":1949.2999999999884}]","1949.6999999999825","","","","","","","","","","","","","","","","","","","","","","","",""
"pit-comprehension","5","19747","0.0-2.0-2.0-0.0","battery-v0.2","","""event"",""trial"",""time""
""fullscreenenter"",""1"",""2577""
","
","
","""event"",""trial"",""time""
""fullscreenenter"",""1"",""2577""
","
","","","2530.399999999994","[""tiger""]","0","24","16389","6416","","","","","","","","","","","","","","","","","","",""
"pit-instructions","6","20446","0.0-2.0-2.0-1.0","battery-v0.2","","""event"",""trial"",""time""
""fullscreenenter"",""1"",""2577""
","
","
","""event"",""trial"",""time""
""fullscreenenter"",""1"",""2577""
","
","","[{""page_index"":0,""viewing_time"":696.1999999999825}]","696.5","","","","","","","","","","","","","","","","","","","","","","","",""
"pit-instructions","7","116704","0.0-2.0-3.0","battery-v0.2","","""event"",""trial"",""time""
""fullscreenenter"",""1"",""2577""
","
","
","""event"",""trial"",""time""
""fullscreenenter"",""1"",""2577""
","
","","[{""page_index"":0,""viewing_time"":9018.700000000012},{""page_index"":1,""viewing_time"":5442.200000000012},{""page_index"":2,""viewing_time"":6810.5},{""page_index"":3,""viewing_time"":6150.399999999965},{""page_index"":4,""viewing_time"":6015.200000000012},{""page_index"":5,""viewing_time"":5594.900000000023},{""page_index"":6,""viewing_time"":6962},{""page_index"":7,""viewing_time"":7177.099999999977},{""page_index"":8,""viewing_time"":7168.700000000012},{""page_index"":9,""viewing_time"":7800.5},{""page_index"":10,""viewing_time"":8467.700000000012},{""page_index"":11,""viewing_time"":7780.199999999953},{""page_index"":12,""viewing_time"":6573.300000000047},{""page_index"":13,""viewing_time"":5294.699999999953}]","96256.29999999999","","","","","","","","","","","","","","","","","","","","","","","",""
"pit-trial","8","120010","0.0-2.0-4.0-0.0","battery-v0.2","","""event"",""trial"",""time""
""fullscreenenter"",""1"",""2577""
","
","
","""event"",""trial"",""time""
""fullscreenenter"",""1"",""2577""
","
","","","449.9000000000233","","","24","16389","6416","&#9784;","elianto","#FFFFF080"," "," ","1","&#10004","[1301.2000000000116]","1","0","0","","","","","","","",""
"pit-trial","9","123273","0.0-2.0-4.1-0.1","battery-v0.2","","""event"",""trial"",""time""
""fullscreenenter"",""1"",""2577""
","
","
","""event"",""trial"",""time""
""fullscreenenter"",""1"",""2577""
","
","","","401.79999999998836","","","24","16389","6416","&#9784;","elianto","#FFFFF080"," "," ","1","&#10004","[1253.899999999965]","1","0","0","","","","","","","",""
"pit-trial","10","126775","0.0-2.0-4.2-0.2","battery-v0.2","","""event"",""trial"",""time""
""fullscreenenter"",""1"",""2577""
","
","
","""event"",""trial"",""time""
""fullscreenenter"",""1"",""2577""
","
","","","646.8999999999651","","","24","16389","6416","&#9784;","elianto","#FFFFF080"," "," ","1","&#10004","[1497.7000000000116]","1","0","0","","","","","","","",""
"pit-trial","11","130125","0.0-2.0-4.3-0.3","battery-v0.2","","""event"",""trial"",""time""
""fullscreenenter"",""1"",""2577""
","
","
","""event"",""trial"",""time""
""fullscreenenter"",""1"",""2577""
","
","","","496.0999999999767","","","24","16389","6416","&#9784;","elianto","#FFFFF080"," "," ","1","&#10004","[1347.0999999999767]","1","0","0","","","","","","","",""
"pit-trial","12","133482","0.0-2.0-4.4-0.4","battery-v0.2","","""event"",""trial"",""time""
""fullscreenenter"",""1"",""2577""
","
","
","""event"",""trial"",""time""
""fullscreenenter"",""1"",""2577""
","
","","","502.5","","","24","16389","6416","&#9784;","elianto","#FFFFF080"," "," ","1","&#10004","[1353.2000000000116]","1","0","0","","","","","","","",""
"pit-instructions","13","158072","0.0-2.0-5.0","battery-v0.2","","""event"",""trial"",""time""
""fullscreenenter"",""1"",""2577""
","
","
","""event"",""trial"",""time""
""fullscreenenter"",""1"",""2577""
","
","","[{""page_index"":0,""viewing_time"":5949.700000000012},{""page_index"":1,""viewing_time"":5851.5},{""page_index"":2,""viewing_time"":4678.799999999988},{""page_index"":3,""viewing_time"":8106.799999999988}]","24587.79999999999","","","","","","","","","","","","","","","","","","","","","","","",""
"pit-trial","14","162928","0.0-2.0-6.0-0.0","battery-v0.2","","""event"",""trial"",""time""
""fullscreenenter"",""1"",""2577""
","
","
","""event"",""trial"",""time""
""fullscreenenter"",""1"",""2577""
","
","","","-1","","","24","16389","6416","&#9854;","elianto","#FFFFF080","-1","-1","1","&#10004","[]","0","0","1","","","","","","","",""
"pit-trial","15","167784","0.0-2.0-6.1-0.1","battery-v0.2","","""event"",""trial"",""time""
""fullscreenenter"",""1"",""2577""
","
","
","""event"",""trial"",""time""
""fullscreenenter"",""1"",""2577""
","
","","","-1","","","24","16389","6416","&#9854;","elianto","#FFFFF080","-1","-1","1","&#10004","[]","0","0","1","","","","","","","",""
"pit-trial","16","172638","0.0-2.0-6.2-0.2","battery-v0.2","","""event"",""trial"",""time""
""fullscreenenter"",""1"",""2577""
","
","
","""event"",""trial"",""time""
""fullscreenenter"",""1"",""2577""
","
","","","-1","","","24","16389","6416","&#9854;","elianto","#FFFFF080","-1","-1","1","&#10004","[]","0","0","1","","","","","","","",""
"pit-trial","17","177492","0.0-2.0-6.3-0.3","battery-v0.2","","""event"",""trial"",""time""
""fullscreenenter"",""1"",""2577""
","
","
","""event"",""trial"",""time""
""fullscreenenter"",""1"",""2577""
","
","","","-1","","","24","16389","6416","&#9854;","elianto","#FFFFF080","-1","-1","1","&#10004","[]","0","0","1","","","","","","","",""
"pit-trial","18","182347","0.0-2.0-6.4-0.4","battery-v0.2","","""event"",""trial"",""time""
""fullscreenenter"",""1"",""2577""
","
","
","""event"",""trial"",""time""
""fullscreenenter"",""1"",""2577""
","
","","","-1","","","24","16389","6416","&#9854;","elianto","#FFFFF080","-1","-1","1","&#10004","[]","0","0","1","","","","","","","",""
"pit-instructions","19","295900","0.0-2.0-7.0","battery-v0.2","","""event"",""trial"",""time""
""fullscreenenter"",""1"",""2577""
","
","
","""event"",""trial"",""time""
""fullscreenenter"",""1"",""2577""
","
","","[{""page_index"":0,""viewing_time"":6535.700000000012},{""page_index"":1,""viewing_time"":6385.599999999977},{""page_index"":2,""viewing_time"":5570},{""page_index"":3,""viewing_time"":5956},{""page_index"":4,""viewing_time"":5627.299999999988},{""page_index"":5,""viewing_time"":5917.200000000012},{""page_index"":6,""viewing_time"":5418.5},{""page_index"":7,""viewing_time"":7847.700000000012},{""page_index"":8,""viewing_time"":6264.599999999977},{""page_index"":9,""viewing_time"":5796.200000000012},{""page_index"":10,""viewing_time"":6841.400000000023},{""page_index"":11,""viewing_time"":4647.199999999953},{""page_index"":12,""viewing_time"":6693.400000000023},{""page_index"":13,""viewing_time"":7286.700000000012},{""page_index"":14,""viewing_time"":6958.599999999977},{""page_index"":15,""viewing_time"":6070.700000000012},{""page_index"":16,""viewing_time"":6431.599999999977},{""page_index"":17,""viewing_time"":7301.099999999977}]","113549.99999999994","","","","","","","","","","","","","","","","","","","","","","","",""
"pit-trial","20","299475","0.0-2.0-8.0-0.0","battery-v0.2","","""event"",""trial"",""time""
""fullscreenenter"",""1"",""2577""
","
","
","""event"",""trial"",""time""
""fullscreenenter"",""1"",""2577""
","
","","","720.4000000000233","","","24","16389","6416","&#9776;","elianto","#3366ff99"," "," ","1","+10","[1570.8000000000466]","1","0","1","","","","","","","",""
"pit-trial","21","303004","0.0-2.0-8.0-1.0","battery-v0.2","","""event"",""trial"",""time""
""fullscreenenter"",""1"",""2577""
","
","
","""event"",""trial"",""time""
""fullscreenenter"",""1"",""2577""
","
","","","676.8000000000466","","","24","16389","6416","&#9776;","elianto","#3366ff99"," "," ","1","+10","[1527.2000000000698]","1","0","1","","","","","","","",""
"pit-trial","22","306366","0.0-2.0-8.0-2.0","battery-v0.2","","""event"",""trial"",""time""
""fullscreenenter"",""1"",""2577""
","
","
","""event"",""trial"",""time""
""fullscreenenter"",""1"",""2577""
","
","","","507.9000000000233","","","24","16389","6416","&#9776;","elianto","#3366ff99"," "," ","1","+10","[1359.1000000000931]","1","0","1","","","","","","","",""
"pit-trial","23","309623","0.0-2.0-8.0-3.0","battery-v0.2","","""event"",""trial"",""time""
""fullscreenenter"",""1"",""2577""
","
","
","""event"",""trial"",""time""
""fullscreenenter"",""1"",""2577""
","
","","","404.30000000004657","","","24","16389","6416","&#9776;","elianto","#3366ff99"," "," ","1","0","[1255.3000000000466]","1","0","1","","","","","","","",""
"pit-trial","24","313065","0.0-2.0-8.0-4.0","battery-v0.2","","""event"",""trial"",""time""
""fullscreenenter"",""1"",""2577""
","
","
","""event"",""trial"",""time""
""fullscreenenter"",""1"",""2577""
","
","","","590","","","24","16389","6416","&#9776;","elianto","#3366ff99"," "," ","1","+10","[1440.5]","1","0","1","","","","","","","",""
"pit-trial","25","316254","0.0-2.0-8.1-0.1","battery-v0.2","","""event"",""trial"",""time""
""fullscreenenter"",""1"",""2577""
","
","
","""event"",""trial"",""time""
""fullscreenenter"",""1"",""2577""
","
","","","335.60000000009313","","","24","16389","6416","&#9776;","elianto","#3366ff99"," "," ","1","+10","[1186.5]","1","0","1","","","","","","","",""
"pit-trial","26","319516","0.0-2.0-8.1-1.1","battery-v0.2","","""event"",""trial"",""time""
""fullscreenenter"",""1"",""2577""
","
","
","""event"",""trial"",""time""
""fullscreenenter"",""1"",""2577""
","
","","","408.9000000000233","","","24","16389","6416","&#9776;","elianto","#3366ff99"," "," ","1","+10","[1260.0999999999767]","1","0","1","","","","","","","",""
"pit-trial","27","322687","0.0-2.0-8.1-2.1","battery-v0.2","","""event"",""trial"",""time""
""fullscreenenter"",""1"",""2577""
","
","
","""event"",""trial"",""time""
""fullscreenenter"",""1"",""2577""
","
","","","317.5999999999767","","","24","16389","6416","&#9776;","elianto","#3366ff99"," "," ","1","+10","[1168.2999999999302]","1","0","1","","","","","","","",""
"pit-trial","28","327540","0.0-2.0-8.1-3.1","battery-v0.2","","""event"",""trial"",""time""
""fullscreenenter"",""1"",""2577""
","
","
","""event"",""trial"",""time""
""fullscreenenter"",""1"",""2577""
","
","","","-1","","","24","16389","6416","&#9776;","elianto","#3366ff99"," ","-1","0","+10","[]","0","0","1","","","","","","","",""
"pit-trial","29","330825","0.0-2.0-8.1-4.1","battery-v0.2","","""event"",""trial"",""time""
""fullscreenenter"",""1"",""2577""
","
","
","""event"",""trial"",""time""
""fullscreenenter"",""1"",""2577""
","
","","","433.5999999999767","","","24","16389","6416","&#9776;","elianto","#3366ff99"," "," ","1","+10","[1284.4000000000233]","1","0","1","","","","","","","",""
"pit-trial","30","334068","0.0-2.0-8.2-0.2","battery-v0.2","","""event"",""trial"",""time""
""fullscreenenter"",""1"",""2577""
","
","
","""event"",""trial"",""time""
""fullscreenenter"",""1"",""2577""
","
","","","389.70000000006985","","","24","16389","6416","&#9776;","elianto","#3366ff99"," "," ","1","+10","[1240.6000000000931]","1","0","1","","","","","","","",""
"pit-trial","31","337426","0.0-2.0-8.2-1.2","battery-v0.2","","""event"",""trial"",""time""
""fullscreenenter"",""1"",""2577""
","
","
","""event"",""trial"",""time""
""fullscreenenter"",""1"",""2577""
","
","","","506.4000000000233","","","24","16389","6416","&#9776;","elianto","#3366ff99"," "," ","1","+10","[1357.2999999999302]","1","0","1","","","","","","","",""
"pit-trial","32","342279","0.0-2.0-8.2-2.2","battery-v0.2","","""event"",""trial"",""time""
""fullscreenenter"",""1"",""2577""
","
","
","""event"",""trial"",""time""
""fullscreenenter"",""1"",""2577""
","
","","","-1","","","24","16389","6416","&#9776;","elianto","#3366ff99"," ","-1","0","0","[]","0","0","1","","","","","","","",""
"pit-trial","33","345680","0.0-2.0-8.2-3.2","battery-v0.2","","""event"",""trial"",""time""
""fullscreenenter"",""1"",""2577""
","
","
","""event"",""trial"",""time""
""fullscreenenter"",""1"",""2577""
","
","","","548.1999999999534","","","24","16389","6416","&#9776;","elianto","#3366ff99"," "," ","1","0","[1399.5]","1","0","1","","","","","","","",""
"pit-trial","34","349215","0.0-2.0-8.2-4.2","battery-v0.2","","""event"",""trial"",""time""
""fullscreenenter"",""1"",""2577""
","
","
","""event"",""trial"",""time""
""fullscreenenter"",""1"",""2577""
","
","","","682.8999999999069","","","24","16389","6416","&#9776;","elianto","#3366ff99"," "," ","1","+10","[1533.2999999999302]","1","0","1","","","","","","","",""
"call-function","35","349216","0.0-2.0-9.0","battery-v0.2","","""event"",""trial"",""time""
""fullscreenenter"",""1"",""2577""
","
","
","""event"",""trial"",""time""
""fullscreenenter"",""1"",""2577""
","
","","","","","","","","","","","","","","","","","","","","","","","","","","",""
"pit-instructions","36","387642","0.0-2.0-10.0","battery-v0.2","","""event"",""trial"",""time""
""fullscreenenter"",""1"",""2577""
","
","
","""event"",""trial"",""time""
""fullscreenenter"",""1"",""2577""
","
","","[{""page_index"":0,""viewing_time"":6016.300000000047},{""page_index"":1,""viewing_time"":7195.79999999993},{""page_index"":2,""viewing_time"":9471.100000000093},{""page_index"":3,""viewing_time"":8329.199999999953},{""page_index"":4,""viewing_time"":7413.300000000047}]","38425.90000000002","","","","","","","","","","","","","","","","","","","","","","","",""
"pit-trial","37","392495","0.0-2.0-11.0-0.0","battery-v0.2","","""event"",""trial"",""time""
""fullscreenenter"",""1"",""2577""
","
","
","""event"",""trial"",""time""
""fullscreenenter"",""1"",""2577""
","
","","","-1","","","24","16389","6416","&#9761;","elianto","#3366ff99","-1","-1","1","+10","[]","0","0","2","","","","","","","",""
"pit-trial","38","395882","0.0-2.0-11.0-1.0","battery-v0.2","","""event"",""trial"",""time""
""fullscreenenter"",""1"",""2577""
","
","
","""event"",""trial"",""time""
""fullscreenenter"",""1"",""2577""
","
","","","531.5999999999767","","","24","16389","6416","&#9761;","elianto","#3366ff99","-1"," ","0","0","[1383]","1","0","2","","","","","","","",""
"pit-trial","39","400737","0.0-2.0-11.0-2.0","battery-v0.2","","""event"",""trial"",""time""
""fullscreenenter"",""1"",""2577""
","
","
","""event"",""trial"",""time""
""fullscreenenter"",""1"",""2577""
","
","","","-1","","","24","16389","6416","&#9761;","elianto","#3366ff99","-1","-1","1","+10","[]","0","0","2","","","","","","","",""
"pit-trial","40","404553","0.0-2.0-11.0-3.0","battery-v0.2","","""event"",""trial"",""time""
""fullscreenenter"",""1"",""2577""
","
","
","""event"",""trial"",""time""
""fullscreenenter"",""1"",""2577""
","
","","","962.3000000000466","","","24","16389","6416","&#9761;","elianto","#3366ff99","-1"," ","0","+10","[1813.0999999999767]","1","0","2","","","","","","","",""
"pit-trial","41","408649","0.0-2.0-11.0-4.0","battery-v0.2","","""event"",""trial"",""time""
""fullscreenenter"",""1"",""2577""
","
","
","""event"",""trial"",""time""
""fullscreenenter"",""1"",""2577""
","
","","","1242.0999999999767","","","24","16389","6416","&#9761;","elianto","#3366ff99","-1"," ","0","0","[2093.3000000000466]","1","0","2","","","","","","","",""
"pit-trial","42","413509","0.0-2.0-11.1-0.1","battery-v0.2","","""event"",""trial"",""time""
""fullscreenenter"",""1"",""2577""
","
","
","""event"",""trial"",""time""
""fullscreenenter"",""1"",""2577""
","
","","","-1","","","24","16389","6416","&#9761;","elianto","#3366ff99","-1","-1","1","+10","[]","0","0","2","","","","","","","",""
"pit-trial","43","418364","0.0-2.0-11.1-1.1","battery-v0.2","","""event"",""trial"",""time""
""fullscreenenter"",""1"",""2577""
","
","
","""event"",""trial"",""time""
""fullscreenenter"",""1"",""2577""
","
","","","-1","","","24","16389","6416","&#9761;","elianto","#3366ff99","-1","-1","1","+10","[]","0","0","2","","","","","","","",""
"pit-trial","44","423218","0.0-2.0-11.1-2.1","battery-v0.2","","""event"",""trial"",""time""
""fullscreenenter"",""1"",""2577""
","
","
","""event"",""trial"",""time""
""fullscreenenter"",""1"",""2577""
","
","","","-1","","","24","16389","6416","&#9761;","elianto","#3366ff99","-1","-1","1","+10","[]","0","0","2","","","","","","","",""
"pit-trial","45","428073","0.0-2.0-11.1-3.1","battery-v0.2","","""event"",""trial"",""time""
""fullscreenenter"",""1"",""2577""
","
","
","""event"",""trial"",""time""
""fullscreenenter"",""1"",""2577""
","
","","","-1","","","24","16389","6416","&#9761;","elianto","#3366ff99","-1","-1","1","0","[]","0","0","2","","","","","","","",""
"pit-trial","46","432928","0.0-2.0-11.1-4.1","battery-v0.2","","""event"",""trial"",""time""
""fullscreenenter"",""1"",""2577""
","
","
","""event"",""trial"",""time""
""fullscreenenter"",""1"",""2577""
","
","","","-1","","","24","16389","6416","&#9761;","elianto","#3366ff99","-1","-1","1","+10","[]","0","0","2","","","","","","","",""
"pit-trial","47","437783","0.0-2.0-11.2-0.2","battery-v0.2","","""event"",""trial"",""time""
""fullscreenenter"",""1"",""2577""
","
","
","""event"",""trial"",""time""
""fullscreenenter"",""1"",""2577""
","
","","","-1","","","24","16389","6416","&#9761;","elianto","#3366ff99","-1","-1","1","+10","[]","0","0","2","","","","","","","",""
"pit-trial","48","442638","0.0-2.0-11.2-1.2","battery-v0.2","","""event"",""trial"",""time""
""fullscreenenter"",""1"",""2577""
","
","
","""event"",""trial"",""time""
""fullscreenenter"",""1"",""2577""
","
","","","-1","","","24","16389","6416","&#9761;","elianto","#3366ff99","-1","-1","1","+10","[]","0","0","2","","","","","","","",""
"pit-trial","49","447493","0.0-2.0-11.2-2.2","battery-v0.2","","""event"",""trial"",""time""
""fullscreenenter"",""1"",""2577""
","
","
","""event"",""trial"",""time""
""fullscreenenter"",""1"",""2577""
","
","","","-1","","","24","16389","6416","&#9761;","elianto","#3366ff99","-1","-1","1","+10","[]","0","0","2","","","","","","","",""
"pit-trial","50","452347","0.0-2.0-11.2-3.2","battery-v0.2","","""event"",""trial"",""time""
""fullscreenenter"",""1"",""2577""
","
","
","""event"",""trial"",""time""
""fullscreenenter"",""1"",""2577""
","
","","","-1","","","24","16389","6416","&#9761;","elianto","#3366ff99","-1","-1","1","0","[]","0","0","2","","","","","","","",""
"pit-trial","51","457201","0.0-2.0-11.2-4.2","battery-v0.2","","""event"",""trial"",""time""
""fullscreenenter"",""1"",""2577""
","
","
","""event"",""trial"",""time""
""fullscreenenter"",""1"",""2577""
","
","","","-1","","","24","16389","6416","&#9761;","elianto","#3366ff99","-1","-1","1","+10","[]","0","0","2","","","","","","","",""
"pit-trial","52","462056","0.0-2.0-11.3-0.3","battery-v0.2","","""event"",""trial"",""time""
""fullscreenenter"",""1"",""2577""
","
","
","""event"",""trial"",""time""
""fullscreenenter"",""1"",""2577""
","
","","","-1","","","24","16389","6416","&#9761;","elianto","#3366ff99","-1","-1","1","+10","[]","0","0","2","","","","","","","",""
"pit-trial","53","466910","0.0-2.0-11.3-1.3","battery-v0.2","","""event"",""trial"",""time""
""fullscreenenter"",""1"",""2577""
","
","
","""event"",""trial"",""time""
""fullscreenenter"",""1"",""2577""
","
","","","-1","","","24","16389","6416","&#9761;","elianto","#3366ff99","-1","-1","1","+10","[]","0","0","2","","","","","","","",""
"pit-trial","54","471764","0.0-2.0-11.3-2.3","battery-v0.2","","""event"",""trial"",""time""
""fullscreenenter"",""1"",""2577""
","
","
","""event"",""trial"",""time""
""fullscreenenter"",""1"",""2577""
","
","","","-1","","","24","16389","6416","&#9761;","elianto","#3366ff99","-1","-1","1","+10","[]","0","0","2","","","","","","","",""
"pit-trial","55","476618","0.0-2.0-11.3-3.3","battery-v0.2","","""event"",""trial"",""time""
""fullscreenenter"",""1"",""2577""
","
","
","""event"",""trial"",""time""
""fullscreenenter"",""1"",""2577""
","
","","","-1","","","24","16389","6416","&#9761;","elianto","#3366ff99","-1","-1","1","0","[]","0","0","2","","","","","","","",""
"pit-trial","56","481473","0.0-2.0-11.3-4.3","battery-v0.2","","""event"",""trial"",""time""
""fullscreenenter"",""1"",""2577""
","
","
","""event"",""trial"",""time""
""fullscreenenter"",""1"",""2577""
","
","","","-1","","","24","16389","6416","&#9761;","elianto","#3366ff99","-1","-1","1","+10","[]","0","0","2","","","","","","","",""
"call-function","57","481474","0.0-2.0-12.0","battery-v0.2","","""event"",""trial"",""time""
""fullscreenenter"",""1"",""2577""
","
","
","""event"",""trial"",""time""
""fullscreenenter"",""1"",""2577""
","
","","","","","","","","","","","","","","","","","","","","","","","","","","",""
"pit-instructions","58","512179","0.0-2.0-13.0","battery-v0.2","","""event"",""trial"",""time""
""fullscreenenter"",""1"",""2577""
","
","
","""event"",""trial"",""time""
""fullscreenenter"",""1"",""2577""
","
","","[{""page_index"":0,""viewing_time"":4623.099999999977},{""page_index"":1,""viewing_time"":6856.900000000023},{""page_index"":2,""viewing_time"":3400.9000000000233},{""page_index"":3,""viewing_time"":10758.599999999977},{""page_index"":4,""viewing_time"":5065.29999999993}]","30705","","","","","","","","","","","","","","","","","","","","","","","",""
"pit-trial","59","517034","0.0-2.0-14.0-0.0","battery-v0.2","","""event"",""trial"",""time""
""fullscreenenter"",""1"",""2577""
","
","
","""event"",""trial"",""time""
""fullscreenenter"",""1"",""2577""
","
","","","-1","","","24","16389","6416","&#9826;","elianto","#f73b6a7A","-1","-1","1","0","[]","0","0","3","","","","","","","",""
"pit-trial","60","520411","0.0-2.0-14.0-1.0","battery-v0.2","","""event"",""trial"",""time""
""fullscreenenter"",""1"",""2577""
","
","
","""event"",""trial"",""time""
""fullscreenenter"",""1"",""2577""
","
","","","523.5","","","24","16389","6416","&#9826;","elianto","#f73b6a7A","-1"," ","0","-10","[1374.5]","1","0","3","","","","","","","",""
"pit-trial","61","523626","0.0-2.0-14.0-2.0","battery-v0.2","","""event"",""trial"",""time""
""fullscreenenter"",""1"",""2577""
","
","
","""event"",""trial"",""time""
""fullscreenenter"",""1"",""2577""
","
","","","361","","","24","16389","6416","&#9826;","elianto","#f73b6a7A","-1"," ","0","-10","[1212.2999999999302]","1","0","3","","","","","","","",""
"pit-trial","62","528481","0.0-2.0-14.0-3.0","battery-v0.2","","""event"",""trial"",""time""
""fullscreenenter"",""1"",""2577""
","
","
","""event"",""trial"",""time""
""fullscreenenter"",""1"",""2577""
","
","","","-1","","","24","16389","6416","&#9826;","elianto","#f73b6a7A","-1","-1","1","-10","[]","0","0","3","","","","","","","",""
"pit-trial","63","533337","0.0-2.0-14.0-4.0","battery-v0.2","","""event"",""trial"",""time""
""fullscreenenter"",""1"",""2577""
","
","
","""event"",""trial"",""time""
""fullscreenenter"",""1"",""2577""
","
","","","-1","","","24","16389","6416","&#9826;","elianto","#f73b6a7A","-1","-1","1","0","[]","0","0","3","","","","","","","",""
"pit-trial","64","538192","0.0-2.0-14.1-0.1","battery-v0.2","","""event"",""trial"",""time""
""fullscreenenter"",""1"",""2577""
","
","
","""event"",""trial"",""time""
""fullscreenenter"",""1"",""2577""
","
","","","-1","","","24","16389","6416","&#9826;","elianto","#f73b6a7A","-1","-1","1","0","[]","0","0","3","","","","","","","",""
"pit-trial","65","542025","0.0-2.0-14.1-1.1","battery-v0.2","","""event"",""trial"",""time""
""fullscreenenter"",""1"",""2577""
","
","
","""event"",""trial"",""time""
""fullscreenenter"",""1"",""2577""
","
","","","978.0999999998603","","","24","16389","6416","&#9826;","elianto","#f73b6a7A","-1"," ","0","-10","[1829.7999999998137]","1","0","3","","","","","","","",""
"pit-trial","66","546880","0.0-2.0-14.1-2.1","battery-v0.2","","""event"",""trial"",""time""
""fullscreenenter"",""1"",""2577""
","
","
","""event"",""trial"",""time""
""fullscreenenter"",""1"",""2577""
","
","","","-1","","","24","16389","6416","&#9826;","elianto","#f73b6a7A","-1","-1","1","0","[]","0","0","3","","","","","","","",""
"pit-trial","67","551735","0.0-2.0-14.1-3.1","battery-v0.2","","""event"",""trial"",""time""
""fullscreenenter"",""1"",""2577""
","
","
","""event"",""trial"",""time""
""fullscreenenter"",""1"",""2577""
","
","","","-1","","","24","16389","6416","&#9826;","elianto","#f73b6a7A","-1","-1","1","-10","[]","0","0","3","","","","","","","",""
"pit-trial","68","556590","0.0-2.0-14.1-4.1","battery-v0.2","","""event"",""trial"",""time""
""fullscreenenter"",""1"",""2577""
","
","
","""event"",""trial"",""time""
""fullscreenenter"",""1"",""2577""
","
","","","-1","","","24","16389","6416","&#9826;","elianto","#f73b6a7A","-1","-1","1","0","[]","0","0","3","","","","","","","",""
"pit-trial","69","561446","0.0-2.0-14.2-0.2","battery-v0.2","","""event"",""trial"",""time""
""fullscreenenter"",""1"",""2577""
","
","
","""event"",""trial"",""time""
""fullscreenenter"",""1"",""2577""
","
","","","-1","","","24","16389","6416","&#9826;","elianto","#f73b6a7A","-1","-1","1","0","[]","0","0","3","","","","","","","",""
"pit-trial","70","565507","0.0-2.0-14.2-1.2","battery-v0.2","","""event"",""trial"",""time""
""fullscreenenter"",""1"",""2577""
","
","
","""event"",""trial"",""time""
""fullscreenenter"",""1"",""2577""
","
","","","1207.3000000000466","","","24","16389","6416","&#9826;","elianto","#f73b6a7A","-1"," ","0","-10","[2059]","1","0","3","","","","","","","",""
"pit-trial","71","570363","0.0-2.0-14.2-2.2","battery-v0.2","","""event"",""trial"",""time""
""fullscreenenter"",""1"",""2577""
","
","
","""event"",""trial"",""time""
""fullscreenenter"",""1"",""2577""
","
","","","-1","","","24","16389","6416","&#9826;","elianto","#f73b6a7A","-1","-1","1","0","[]","0","0","3","","","","","","","",""
"pit-trial","72","575218","0.0-2.0-14.2-3.2","battery-v0.2","","""event"",""trial"",""time""
""fullscreenenter"",""1"",""2577""
","
","
","""event"",""trial"",""time""
""fullscreenenter"",""1"",""2577""
","
","","","-1","","","24","16389","6416","&#9826;","elianto","#f73b6a7A","-1","-1","1","-10","[]","0","0","3","","","","","","","",""
"pit-trial","73","580073","0.0-2.0-14.2-4.2","battery-v0.2","","""event"",""trial"",""time""
""fullscreenenter"",""1"",""2577""
","
","
","""event"",""trial"",""time""
""fullscreenenter"",""1"",""2577""
","
","","","-1","","","24","16389","6416","&#9826;","elianto","#f73b6a7A","-1","-1","1","0","[]","0","0","3","","","","","","","",""
"pit-trial","74","584928","0.0-2.0-14.3-0.3","battery-v0.2","","""event"",""trial"",""time""
""fullscreenenter"",""1"",""2577""
","
","
","""event"",""trial"",""time""
""fullscreenenter"",""1"",""2577""
","
","","","-1","","","24","16389","6416","&#9826;","elianto","#f73b6a7A","-1","-1","1","0","[]","0","0","3","","","","","","","",""
"pit-trial","75","589782","0.0-2.0-14.3-1.3","battery-v0.2","","""event"",""trial"",""time""
""fullscreenenter"",""1"",""2577""
","
","
","""event"",""trial"",""time""
""fullscreenenter"",""1"",""2577""
","
","","","-1","","","24","16389","6416","&#9826;","elianto","#f73b6a7A","-1","-1","1","0","[]","0","0","3","","","","","","","",""
"pit-trial","76","594637","0.0-2.0-14.3-2.3","battery-v0.2","","""event"",""trial"",""time""
""fullscreenenter"",""1"",""2577""
","
","
","""event"",""trial"",""time""
""fullscreenenter"",""1"",""2577""
","
","","","-1","","","24","16389","6416","&#9826;","elianto","#f73b6a7A","-1","-1","1","0","[]","0","0","3","","","","","","","",""
"pit-trial","77","599491","0.0-2.0-14.3-3.3","battery-v0.2","","""event"",""trial"",""time""
""fullscreenenter"",""1"",""2577""
","
","
","""event"",""trial"",""time""
""fullscreenenter"",""1"",""2577""
","
","","","-1","","","24","16389","6416","&#9826;","elianto","#f73b6a7A","-1","-1","1","-10","[]","0","0","3","","","","","","","",""
"pit-trial","78","604345","0.0-2.0-14.3-4.3","battery-v0.2","","""event"",""trial"",""time""
""fullscreenenter"",""1"",""2577""
","
","
","""event"",""trial"",""time""
""fullscreenenter"",""1"",""2577""
","
","","","-1","","","24","16389","6416","&#9826;","elianto","#f73b6a7A","-1","-1","1","0","[]","0","0","3","","","","","","","",""
"call-function","79","604346","0.0-2.0-15.0","battery-v0.2","","""event"",""trial"",""time""
""fullscreenenter"",""1"",""2577""
","
","
","""event"",""trial"",""time""
""fullscreenenter"",""1"",""2577""
","
","","","","","","","","","","","","","","","","","","","","","","","","","","",""
"pit-instructions","80","628519","0.0-2.0-16.0","battery-v0.2","","""event"",""trial"",""time""
""fullscreenenter"",""1"",""2577""
","
","
","""event"",""trial"",""time""
""fullscreenenter"",""1"",""2577""
","
","","[{""page_index"":0,""viewing_time"":6569.699999999953},{""page_index"":1,""viewing_time"":8403.899999999907},{""page_index"":2,""viewing_time"":4317.600000000093},{""page_index"":3,""viewing_time"":4880.59999999986}]","24172.09999999986","","","","","","","","","","","","","","","","","","","","","","","",""
"pit-trial","81","631878","0.0-2.0-17.0-0.0","battery-v0.2","","""event"",""trial"",""time""
""fullscreenenter"",""1"",""2577""
","
","
","""event"",""trial"",""time""
""fullscreenenter"",""1"",""2577""
","
","","","505.69999999995343","","","24","16389","6416","&#9789;","elianto","#f73b6a7A"," "," ","1","0","[1356]","1","0","4","","","","","","","",""
"pit-trial","82","635110","0.0-2.0-17.0-1.0","battery-v0.2","","""event"",""trial"",""time""
""fullscreenenter"",""1"",""2577""
","
","
","""event"",""trial"",""time""
""fullscreenenter"",""1"",""2577""
","
","","","379.19999999995343","","","24","16389","6416","&#9789;","elianto","#f73b6a7A"," "," ","1","0","[1229.6000000000931]","1","0","4","","","","","","","",""
"pit-trial","83","638484","0.0-2.0-17.0-2.0","battery-v0.2","","""event"",""trial"",""time""
""fullscreenenter"",""1"",""2577""
","
","
","""event"",""trial"",""time""
""fullscreenenter"",""1"",""2577""
","
","","","521.6000000000931","","","24","16389","6416","&#9789;","elianto","#f73b6a7A"," "," ","1","0","[1372.6999999999534]","1","0","4","","","","","","","",""
"pit-trial","84","641741","0.0-2.0-17.0-3.0","battery-v0.2","","""event"",""trial"",""time""
""fullscreenenter"",""1"",""2577""
","
","
","""event"",""trial"",""time""
""fullscreenenter"",""1"",""2577""
","
","","","404.9000000001397","","","24","16389","6416","&#9789;","elianto","#f73b6a7A"," "," ","1","-10","[1255.5]","1","0","4","","","","","","","",""
"pit-trial","85","644974","0.0-2.0-17.0-4.0","battery-v0.2","","""event"",""trial"",""time""
""fullscreenenter"",""1"",""2577""
","
","
","""event"",""trial"",""time""
""fullscreenenter"",""1"",""2577""
","
","","","377.80000000004657","","","24","16389","6416","&#9789;","elianto","#f73b6a7A"," "," ","1","0","[1229.6000000000931]","1","0","4","","","","","","","",""
"pit-trial","86","648234","0.0-2.0-17.1-0.1","battery-v0.2","","""event"",""trial"",""time""
""fullscreenenter"",""1"",""2577""
","
","
","""event"",""trial"",""time""
""fullscreenenter"",""1"",""2577""
","
","","","405.69999999995343","","","24","16389","6416","&#9789;","elianto","#f73b6a7A"," "," ","1","0","[1257.5999999998603]","1","0","4","","","","","","","",""
"pit-trial","87","651415","0.0-2.0-17.1-1.1","battery-v0.2","","""event"",""trial"",""time""
""fullscreenenter"",""1"",""2577""
","
","
","""event"",""trial"",""time""
""fullscreenenter"",""1"",""2577""
","
","","","327.10000000009313","","","24","16389","6416","&#9789;","elianto","#f73b6a7A"," "," ","1","0","[1178.1999999999534]","1","0","4","","","","","","","",""
"pit-trial","88","654790","0.0-2.0-17.1-2.1","battery-v0.2","","""event"",""trial"",""time""
""fullscreenenter"",""1"",""2577""
","
","
","""event"",""trial"",""time""
""fullscreenenter"",""1"",""2577""
","
","","","521.3999999999069","","","24","16389","6416","&#9789;","elianto","#f73b6a7A"," "," ","1","0","[1372.6000000000931]","1","0","4","","","","","","","",""
"pit-trial","89","657970","0.0-2.0-17.1-3.1","battery-v0.2","","""event"",""trial"",""time""
""fullscreenenter"",""1"",""2577""
","
","
","""event"",""trial"",""time""
""fullscreenenter"",""1"",""2577""
","
","","","325.89999999990687","","","24","16389","6416","&#9789;","elianto","#f73b6a7A"," "," ","1","-10","[1176.6000000000931]","1","0","4","","","","","","","",""
"pit-trial","90","661147","0.0-2.0-17.1-4.1","battery-v0.2","","""event"",""trial"",""time""
""fullscreenenter"",""1"",""2577""
","
","
","""event"",""trial"",""time""
""fullscreenenter"",""1"",""2577""
","
","","","325.60000000009313","","","24","16389","6416","&#9789;","elianto","#f73b6a7A"," "," ","1","0","[1176.4000000001397]","1","0","4","","","","","","","",""
"pit-trial","91","664166","0.0-2.0-17.2-0.2","battery-v0.2","","""event"",""trial"",""time""
""fullscreenenter"",""1"",""2577""
","
","
","""event"",""trial"",""time""
""fullscreenenter"",""1"",""2577""
","
","","","166.30000000004657","","","24","16389","6416","&#9789;","elianto","#f73b6a7A"," "," ","1","0","[1017.1000000000931]","1","0","4","","","","","","","",""
"pit-trial","92","667207","0.0-2.0-17.2-1.2","battery-v0.2","","""event"",""trial"",""time""
""fullscreenenter"",""1"",""2577""
","
","
","""event"",""trial"",""time""
""fullscreenenter"",""1"",""2577""
","
","","","188.39999999990687","","","24","16389","6416","&#9789;","elianto","#f73b6a7A"," "," ","1","0","[1039.1000000000931]","1","0","4","","","","","","","",""
"pit-trial","93","670317","0.0-2.0-17.2-2.2","battery-v0.2","","""event"",""trial"",""time""
""fullscreenenter"",""1"",""2577""
","
","
","""event"",""trial"",""time""
""fullscreenenter"",""1"",""2577""
","
","","","257.10000000009313","","","24","16389","6416","&#9789;","elianto","#f73b6a7A"," "," ","1","0","[1108.8999999999069]","1","0","4","","","","","","","",""
"pit-trial","94","673369","0.0-2.0-17.2-3.2","battery-v0.2","","""event"",""trial"",""time""
""fullscreenenter"",""1"",""2577""
","
","
","""event"",""trial"",""time""
""fullscreenenter"",""1"",""2577""
","
","","","198.30000000004657","","","24","16389","6416","&#9789;","elianto","#f73b6a7A"," "," ","1","-10","[1049.5]","1","0","4","","","","","","","",""
"pit-trial","95","676559","0.0-2.0-17.2-4.2","battery-v0.2","","""event"",""trial"",""time""
""fullscreenenter"",""1"",""2577""
","
","
","""event"",""trial"",""time""
""fullscreenenter"",""1"",""2577""
","
","","","337.4000000001397","","","24","16389","6416","&#9789;","elianto","#f73b6a7A"," "," ","1","0","[1188.4000000001397]","1","0","4","","","","","","","",""
"pit-trial","96","679712","0.0-2.0-17.3-0.3","battery-v0.2","","""event"",""trial"",""time""
""fullscreenenter"",""1"",""2577""
","
","
","""event"",""trial"",""time""
""fullscreenenter"",""1"",""2577""
","
","","","300.30000000004657","","","24","16389","6416","&#9789;","elianto","#f73b6a7A"," "," ","1","0","[1151]","1","0","4","","","","","","","",""
"pit-trial","97","682965","0.0-2.0-17.3-1.3","battery-v0.2","","""event"",""trial"",""time""
""fullscreenenter"",""1"",""2577""
","
","
","""event"",""trial"",""time""
""fullscreenenter"",""1"",""2577""
","
","","","400.19999999995343","","","24","16389","6416","&#9789;","elianto","#f73b6a7A"," "," ","1","0","[1250.5999999998603]","1","0","4","","","","","","","",""
"pit-trial","98","686186","0.0-2.0-17.3-2.3","battery-v0.2","","""event"",""trial"",""time""
""fullscreenenter"",""1"",""2577""
","
","
","""event"",""trial"",""time""
""fullscreenenter"",""1"",""2577""
","
","","","366.9000000001397","","","24","16389","6416","&#9789;","elianto","#f73b6a7A"," "," ","1","0","[1218.1000000000931]","1","0","4","","","","","","","",""
"pit-trial","99","689290","0.0-2.0-17.3-3.3","battery-v0.2","","""event"",""trial"",""time""
""fullscreenenter"",""1"",""2577""
","
","
","""event"",""trial"",""time""
""fullscreenenter"",""1"",""2577""
","
","","","250","","","24","16389","6416","&#9789;","elianto","#f73b6a7A"," "," ","1","-10","[1101.0999999998603]","1","0","4","","","","","","","",""
"pit-trial","100","692440","0.0-2.0-17.3-4.3","battery-v0.2","","""event"",""trial"",""time""
""fullscreenenter"",""1"",""2577""
","
","
","""event"",""trial"",""time""
""fullscreenenter"",""1"",""2577""
","
","","","297.89999999990687","","","24","16389","6416","&#9789;","elianto","#f73b6a7A"," "," ","1","0","[1148.1999999999534]","1","0","4","","","","","","","",""
"call-function","101","692441","0.0-2.0-18.0","battery-v0.2","","""event"",""trial"",""time""
""fullscreenenter"",""1"",""2577""
","
","
","""event"",""trial"",""time""
""fullscreenenter"",""1"",""2577""
","
","","","","","","","","","","","","","","","","","","","","","","","","","","",""
"pit-instructions","102","755566","0.0-2.0-19.0","battery-v0.2","","""event"",""trial"",""time""
""fullscreenenter"",""1"",""2577""
","
","
","""event"",""trial"",""time""
""fullscreenenter"",""1"",""2577""
","
","","[{""page_index"":0,""viewing_time"":6483.90000000014},{""page_index"":1,""viewing_time"":5467},{""page_index"":2,""viewing_time"":11980.799999999814},{""page_index"":3,""viewing_time"":6796.100000000093},{""page_index"":4,""viewing_time"":8179.800000000047},{""page_index"":5,""viewing_time"":9043.09999999986},{""page_index"":6,""viewing_time"":4088.8000000000466},{""page_index"":7,""viewing_time"":7058.40000000014},{""page_index"":8,""viewing_time"":3893.399999999907}]","62991.5","","","","","","","","","","","","","","","","","","","","","","","",""
"pit-comprehension","103","759967","0.0-2.0-20.0-0.0","battery-v0.2","","""event"",""trial"",""time""
""fullscreenenter"",""1"",""2577""
","
","
","""event"",""trial"",""time""
""fullscreenenter"",""1"",""2577""
","
","","","4397.699999999953","[""SPACE""]","0","24","16389","6416","","","","","","","","","","","","","","","","","","",""
"pit-instructions","104","763705","0.0-2.0-20.0-1.0","battery-v0.2","","""event"",""trial"",""time""
""fullscreenenter"",""1"",""2577""
","
","
","""event"",""trial"",""time""
""fullscreenenter"",""1"",""2577""
","
","","[{""page_index"":0,""viewing_time"":3710.6999999999534}]","3710.9000000001397","","","","","","","","","","","","","","","","","","","","","","","",""
"pit-comprehension","105","770188","0.0-2.0-21.0-0.0","battery-v0.2","","""event"",""trial"",""time""
""fullscreenenter"",""1"",""2577""
","
","
","""event"",""trial"",""time""
""fullscreenenter"",""1"",""2577""
","
","","","6480.5","[""10""]","0","24","16389","6416","","","","","","","","","","","","","","","","","","",""
"pit-instructions","106","771683","0.0-2.0-21.0-1.0","battery-v0.2","","""event"",""trial"",""time""
""fullscreenenter"",""1"",""2577""
","
","
","""event"",""trial"",""time""
""fullscreenenter"",""1"",""2577""
","
","","[{""page_index"":0,""viewing_time"":1470.1999999999534}]","1470.4000000001397","","","","","","","","","","","","","","","","","","","","","","","",""
"pit-comprehension","107","778351","0.0-2.0-22.0-0.0","battery-v0.2","","""event"",""trial"",""time""
""fullscreenenter"",""1"",""2577""
","
","
","""event"",""trial"",""time""
""fullscreenenter"",""1"",""2577""
","
","","","6665.399999999907","[""0""]","0","24","16389","6416","","","","","","","","","","","","","","","","","","",""
"pit-instructions","108","783228","0.0-2.0-22.0-1.0","battery-v0.2","","""event"",""trial"",""time""
""fullscreenenter"",""1"",""2577""
","
","
","""event"",""trial"",""time""
""fullscreenenter"",""1"",""2577""
","
","","[{""page_index"":0,""viewing_time"":4852.300000000047}]","4852.40000000014","","","","","","","","","","","","","","","","","","","","","","","",""
"pit-comprehension","109","792201","0.0-2.0-23.0-0.0","battery-v0.2","","""event"",""trial"",""time""
""fullscreenenter"",""1"",""2577""
","
","
","""event"",""trial"",""time""
""fullscreenenter"",""1"",""2577""
","
","","","8971.399999999907","[""True""]","0","24","16389","6416","","","","","","","","","","","","","","","","","","",""
"pit-instructions","110","793672","0.0-2.0-23.0-1.0","battery-v0.2","","""event"",""trial"",""time""
""fullscreenenter"",""1"",""2577""
","
","
","""event"",""trial"",""time""
""fullscreenenter"",""1"",""2577""
","
","","[{""page_index"":0,""viewing_time"":1442.5}]","1442.8000000000466","","","","","","","","","","","","","","","","","","","","","","","",""
"pit-comprehension","111","801080","0.0-2.0-24.0-0.0","battery-v0.2","","""event"",""trial"",""time""
""fullscreenenter"",""1"",""2577""
","
","
","""event"",""trial"",""time""
""fullscreenenter"",""1"",""2577""
","
","","","7406.09999999986","[""True""]","0","24","16389","6416","","","","","","","","","","","","","","","","","","",""
"pit-instructions","112","803500","0.0-2.0-24.0-1.0","battery-v0.2","","""event"",""trial"",""time""
""fullscreenenter"",""1"",""2577""
","
","
","""event"",""trial"",""time""
""fullscreenenter"",""1"",""2577""
","
","","[{""page_index"":0,""viewing_time"":2393.600000000093}]","2393.8000000000466","","","","","","","","","","","","","","","","","","","","","","","",""
"pit-comprehension","113","810611","0.0-2.0-25.0-0.0","battery-v0.2","","""event"",""trial"",""time""
""fullscreenenter"",""1"",""2577""
","
","
","""event"",""trial"",""time""
""fullscreenenter"",""1"",""2577""
","
","","","7107.899999999907","[""True""]","0","24","16389","6416","","","","","","","","","","","","","","","","","","",""
"pit-instructions","114","813657","0.0-2.0-25.0-1.0","battery-v0.2","","""event"",""trial"",""time""
""fullscreenenter"",""1"",""2577""
","
","
","""event"",""trial"",""time""
""fullscreenenter"",""1"",""2577""
","
","","[{""page_index"":0,""viewing_time"":3018.1999999999534}]","3018.4000000001397","","","","","","","","","","","","","","","","","","","","","","","",""
"pit-comprehension","115","818426","0.0-2.0-26.0-0.0","battery-v0.2","","""event"",""trial"",""time""
""fullscreenenter"",""1"",""2577""
","
","
","""event"",""trial"",""time""
""fullscreenenter"",""1"",""2577""
","
","","","4766.199999999953","[""False""]","0","24","16389","6416","","","","","","","","","","","","","","","","","","",""
"pit-instructions","116","819866","0.0-2.0-26.0-1.0","battery-v0.2","","""event"",""trial"",""time""
""fullscreenenter"",""1"",""2577""
","
","
","""event"",""trial"",""time""
""fullscreenenter"",""1"",""2577""
","
","","[{""page_index"":0,""viewing_time"":1415.5999999998603}]","1415.7999999998137","","","","","","","","","","","","","","","","","","","","","","","",""
"pit-instructions","117","836812","0.0-3.0","battery-v0.2","","""event"",""trial"",""time""
""fullscreenenter"",""1"",""2577""
","
","
","""event"",""trial"",""time""
""fullscreenenter"",""1"",""2577""
","
","","[{""page_index"":0,""viewing_time"":3720.6999999999534},{""page_index"":1,""viewing_time"":5952.5},{""page_index"":2,""viewing_time"":7270.40000000014}]","16943.90000000014","","","","","","","","","","","","","","","","","","","","","","","",""
"pit-trial","118","840326","0.0-4.0","battery-v0.2","","""event"",""trial"",""time""
""fullscreenenter"",""1"",""2577""
","
","
","""event"",""trial"",""time""
""fullscreenenter"",""1"",""2577""
","
","","","659.6000000000931","","","24","16389","6416","&#9728;","elianto","#f73b6a7A","-1"," ","0","-10","[1509.6999999999534]","1","1","","","16389","1","0","4","lose","no-go","0"
"pit-trial","119","843940","0.0-5.0","battery-v0.2","","""event"",""trial"",""time""
""fullscreenenter"",""1"",""2577""
","
","
","""event"",""trial"",""time""
""fullscreenenter"",""1"",""2577""
","
","","","760.1999999999534","","","24","16389","6416","&#9752;","elianto","#f73b6a7A"," "," ","1","0","[1611.3999999999069]","1","1","","","16389","2","3","3","lose","go","0"
"pit-trial","120","847539","0.0-6.0","battery-v0.2","","""event"",""trial"",""time""
""fullscreenenter"",""1"",""2577""
","
","
","""event"",""trial"",""time""
""fullscreenenter"",""1"",""2577""
","
","","","746.1000000000931","","","24","16389","6416","&#9730;","elianto","#3366ff99"," "," ","1","+10","[1596.5]","1","1","","","16389","3","1","1","win","go","0"
"pit-trial","121","851131","0.0-7.0","battery-v0.2","","""event"",""trial"",""time""
""fullscreenenter"",""1"",""2577""
","
","
","""event"",""trial"",""time""
""fullscreenenter"",""1"",""2577""
","
","","","737.8000000000466","","","24","16389","6416","&#9733;","elianto","#3366ff99","-1"," ","0","+10","[1588.8999999999069]","1","1","","","16389","4","2","2","win","no-go","1"
"pit-trial","122","854999","0.0-8.0","battery-v0.2","","""event"",""trial"",""time""
""fullscreenenter"",""1"",""2577""
","
","
","""event"",""trial"",""time""
""fullscreenenter"",""1"",""2577""
","
","","","1015.8000000000466","","","24","16389","6416","&#9752;","elianto","#f73b6a7A"," "," ","1","0","[1866.6000000000931]","1","1","","","16389","5","3","3","lose","go","0"
"pit-trial","123","858573","0.0-9.0","battery-v0.2","","""event"",""trial"",""time""
""fullscreenenter"",""1"",""2577""
","
","
","""event"",""trial"",""time""
""fullscreenenter"",""1"",""2577""
","
","","","720.0999999998603","","","24","16389","6416","&#9733;","elianto","#3366ff99","-1"," ","0","0","[1570.6000000000931]","1","1","","","16389","6","2","2","win","no-go","0"
"pit-trial","124","862051","0.0-10.0","battery-v0.2","","""event"",""trial"",""time""
""fullscreenenter"",""1"",""2577""
","
","
","""event"",""trial"",""time""
""fullscreenenter"",""1"",""2577""
","
","","","625.3999999999069","","","24","16389","6416","&#9728;","elianto","#f73b6a7A","-1"," ","0","-10","[1476.1999999999534]","1","1","","","16389","7","0","4","lose","no-go","0"
"pit-trial","125","865621","0.0-11.0","battery-v0.2","","""event"",""trial"",""time""
""fullscreenenter"",""1"",""2577""
","
","
","""event"",""trial"",""time""
""fullscreenenter"",""1"",""2577""
","
","","","717.5","","","24","16389","6416","&#9730;","elianto","#3366ff99"," "," ","1","+10","[1568.1000000000931]","1","1","","","16389","8","1","1","win","go","0"
"pit-trial","126","870474","0.0-12.0","battery-v0.2","","""event"",""trial"",""time""
""fullscreenenter"",""1"",""2577""
","
","
","""event"",""trial"",""time""
""fullscreenenter"",""1"",""2577""
","
","","","-1","","","24","16389","6416","&#9728;","elianto","#f73b6a7A","-1","-1","1","0","[]","0","1","","","16389","9","0","4","lose","no-go","0"
"pit-trial","127","873887","0.0-13.0","battery-v0.2","","""event"",""trial"",""time""
""fullscreenenter"",""1"",""2577""
","
","
","""event"",""trial"",""time""
""fullscreenenter"",""1"",""2577""
","
","","","559.6999999999534","","","24","16389","6416","&#9752;","elianto","#f73b6a7A"," "," ","1","0","[1410.3999999999069]","1","1","","","16389","10","3","3","lose","go","0"
"pit-trial","128","877218","0.0-14.0","battery-v0.2","","""event"",""trial"",""time""
""fullscreenenter"",""1"",""2577""
","
","
","""event"",""trial"",""time""
""fullscreenenter"",""1"",""2577""
","
","","","478.39999999990687","","","24","16389","6416","&#9730;","elianto","#3366ff99"," "," ","1","+10","[1328.6999999999534]","1","1","","","16389","11","1","1","win","go","0"
"pit-trial","129","880699","0.0-15.0","battery-v0.2","","""event"",""trial"",""time""
""fullscreenenter"",""1"",""2577""
","
","
","""event"",""trial"",""time""
""fullscreenenter"",""1"",""2577""
","
","","","627.3999999999069","","","24","16389","6416","&#9733;","elianto","#3366ff99","-1"," ","0","+10","[1479.5]","1","1","","","16389","12","2","2","win","no-go","1"
"pit-trial","130","885553","0.0-16.0","battery-v0.2","","""event"",""trial"",""time""
""fullscreenenter"",""1"",""2577""
","
","
","""event"",""trial"",""time""
""fullscreenenter"",""1"",""2577""
","
","","","-1","","","24","16389","6416","&#9728;","elianto","#f73b6a7A","-1","-1","1","0","[]","0","1","","","16389","13","0","4","lose","no-go","0"
"pit-trial","131","889033","0.0-17.0","battery-v0.2","","""event"",""trial"",""time""
""fullscreenenter"",""1"",""2577""
","
","
","""event"",""trial"",""time""
""fullscreenenter"",""1"",""2577""
","
","","","627.5","","","24","16389","6416","&#9733;","elianto","#3366ff99","-1"," ","0","0","[1478.1000000000931]","1","1","","","16389","14","2","2","win","no-go","0"
"pit-trial","132","892469","0.0-18.0","battery-v0.2","","""event"",""trial"",""time""
""fullscreenenter"",""1"",""2577""
","
","
","""event"",""trial"",""time""
""fullscreenenter"",""1"",""2577""
","
","","","583.8000000000466","","","24","16389","6416","&#9752;","elianto","#f73b6a7A"," "," ","1","0","[1434.2000000001863]","1","1","","","16389","15","3","3","lose","go","0"
"pit-trial","133","895877","0.0-19.0","battery-v0.2","","""event"",""trial"",""time""
""fullscreenenter"",""1"",""2577""
","
","
","""event"",""trial"",""time""
""fullscreenenter"",""1"",""2577""
","
","","","555","","","24","16389","6416","&#9730;","elianto","#3366ff99"," "," ","1","+10","[1406]","1","1","","","16389","16","1","1","win","go","0"
"pit-trial","134","899353","0.0-20.0","battery-v0.2","","""event"",""trial"",""time""
""fullscreenenter"",""1"",""2577""
","
","
","""event"",""trial"",""time""
""fullscreenenter"",""1"",""2577""
","
","","","624.1000000000931","","","24","16389","6416","&#9733;","elianto","#3366ff99","-1"," ","0","0","[1474.1999999999534]","1","1","","","16389","17","2","2","win","no-go","0"
"pit-trial","135","902809","0.0-21.0","battery-v0.2","","""event"",""trial"",""time""
""fullscreenenter"",""1"",""2577""
","
","
","""event"",""trial"",""time""
""fullscreenenter"",""1"",""2577""
","
","","","602.9000000001397","","","24","16389","6416","&#9730;","elianto","#3366ff99"," "," ","1","0","[1452.8999999999069]","1","1","","","16389","18","1","1","win","go","1"
"pit-trial","136","907662","0.0-22.0","battery-v0.2","","""event"",""trial"",""time""
""fullscreenenter"",""1"",""2577""
","
","
","""event"",""trial"",""time""
""fullscreenenter"",""1"",""2577""
","
","","","-1","","","24","16389","6416","&#9728;","elianto","#f73b6a7A","-1","-1","1","0","[]","0","1","","","16389","19","0","4","lose","no-go","0"
"pit-trial","137","911002","0.0-23.0","battery-v0.2","","""event"",""trial"",""time""
""fullscreenenter"",""1"",""2577""
","
","
","""event"",""trial"",""time""
""fullscreenenter"",""1"",""2577""
","
","","","486.19999999995343","","","24","16389","6416","&#9752;","elianto","#f73b6a7A"," "," ","1","-10","[1336.5999999998603]","1","1","","","16389","20","3","3","lose","go","1"
"pit-instructions","138","923260","0.0-24.0","battery-v0.2","","""event"",""trial"",""time""
""fullscreenenter"",""1"",""2577""
","
","
","""event"",""trial"",""time""
""fullscreenenter"",""1"",""2577""
","
","","[{""page_index"":0,""viewing_time"":5582.399999999907},{""page_index"":1,""viewing_time"":6673.700000000186}]","12256.300000000047","","","","","","","","","","","","","","","","","","","","","","","",""
"pit-trial","139","926924","0.0-25.0","battery-v0.2","","""event"",""trial"",""time""
""fullscreenenter"",""1"",""2577""
","
","
","""event"",""trial"",""time""
""fullscreenenter"",""1"",""2577""
","
","","","809.9000000001397","","","24","16389","6416","e","elianto","#f73b6a7A","-1"," ","0","-10","[1660.8000000000466]","1","2","","","16389","21","2","4","lose","no-go","0"
"pit-trial","140","930666","0.0-26.0","battery-v0.2","","""event"",""trial"",""time""
""fullscreenenter"",""1"",""2577""
","
","
","""event"",""trial"",""time""
""fullscreenenter"",""1"",""2577""
","
","","","889.5","","","24","16389","6416","w","elianto","#f73b6a7A"," "," ","1","0","[1740.1999999999534]","1","2","","","16389","22","3","3","lose","go","0"
"pit-trial","141","934419","0.0-27.0","battery-v0.2","","""event"",""trial"",""time""
""fullscreenenter"",""1"",""2577""
","
","
","""event"",""trial"",""time""
""fullscreenenter"",""1"",""2577""
","
","","","900.3999999999069","","","24","16389","6416","d","elianto","#3366ff99"," "," ","1","+10","[1751.3999999999069]","1","2","","","16389","23","1","1","win","go","0"
"pit-trial","142","938108","0.0-28.0","battery-v0.2","","""event"",""trial"",""time""
""fullscreenenter"",""1"",""2577""
","
","
","""event"",""trial"",""time""
""fullscreenenter"",""1"",""2577""
","
","","","835.1999999999534","","","24","16389","6416","j","elianto","#f73b6a7A","-1"," ","0","-10","[1687]","1","2","","","16389","24","0","4","lose","no-go","0"
"pit-trial","143","941616","0.0-29.0","battery-v0.2","","""event"",""trial"",""time""
""fullscreenenter"",""1"",""2577""
","
","
","""event"",""trial"",""time""
""fullscreenenter"",""1"",""2577""
","
","","","655.0999999998603","","","24","16389","6416","e","elianto","#f73b6a7A","-1"," ","0","-10","[1506.1000000000931]","1","2","","","16389","25","2","4","lose","no-go","0"
"pit-trial","144","946468","0.0-30.0","battery-v0.2","","""event"",""trial"",""time""
""fullscreenenter"",""1"",""2577""
","
","
","""event"",""trial"",""time""
""fullscreenenter"",""1"",""2577""
","
","","","-1","","","24","16389","6416","j","elianto","#f73b6a7A","-1","-1","1","0","[]","0","2","","","16389","26","0","4","lose","no-go","0"
"pit-trial","145","950324","0.0-31.0","battery-v0.2","","""event"",""trial"",""time""
""fullscreenenter"",""1"",""2577""
","
","
","""event"",""trial"",""time""
""fullscreenenter"",""1"",""2577""
","
","","","1004","","","24","16389","6416","w","elianto","#f73b6a7A"," "," ","1","0","[1854.3000000000466]","1","2","","","16389","27","3","3","lose","go","0"
"pit-trial","146","953790","0.0-32.0","battery-v0.2","","""event"",""trial"",""time""
""fullscreenenter"",""1"",""2577""
","
","
","""event"",""trial"",""time""
""fullscreenenter"",""1"",""2577""
","
","","","613.5","","","24","16389","6416","d","elianto","#3366ff99"," "," ","1","+10","[1464.3999999999069]","1","2","","","16389","28","1","1","win","go","0"
"pit-trial","147","957142","0.0-33.0","battery-v0.2","","""event"",""trial"",""time""
""fullscreenenter"",""1"",""2577""
","
","
","""event"",""trial"",""time""
""fullscreenenter"",""1"",""2577""
","
","","","499","","","24","16389","6416","d","elianto","#3366ff99"," "," ","1","+10","[1349.7000000001863]","1","2","","","16389","29","1","1","win","go","0"
"pit-trial","148","960643","0.0-34.0","battery-v0.2","","""event"",""trial"",""time""
""fullscreenenter"",""1"",""2577""
","
","
","""event"",""trial"",""time""
""fullscreenenter"",""1"",""2577""
","
","","","648.0999999998603","","","24","16389","6416","w","elianto","#f73b6a7A"," "," ","1","0","[1499.3999999999069]","1","2","","","16389","30","3","3","lose","go","0"
"pit-trial","149","964236","0.0-35.0","battery-v0.2","","""event"",""trial"",""time""
""fullscreenenter"",""1"",""2577""
","
","
","""event"",""trial"",""time""
""fullscreenenter"",""1"",""2577""
","
","","","739.5","","","24","16389","6416","j","elianto","#f73b6a7A","-1"," ","0","-10","[1590.3999999999069]","1","2","","","16389","31","0","4","lose","no-go","0"
"pit-trial","150","967880","0.0-36.0","battery-v0.2","","""event"",""trial"",""time""
""fullscreenenter"",""1"",""2577""
","
","
","""event"",""trial"",""time""
""fullscreenenter"",""1"",""2577""
","
","","","791.1999999999534","","","24","16389","6416","e","elianto","#f73b6a7A","-1"," ","0","-10","[1642.1000000000931]","1","2","","","16389","32","2","4","lose","no-go","0"
"pit-trial","151","971357","0.0-37.0","battery-v0.2","","""event"",""trial"",""time""
""fullscreenenter"",""1"",""2577""
","
","
","""event"",""trial"",""time""
""fullscreenenter"",""1"",""2577""
","
","","","623.8000000000466","","","24","16389","6416","w","elianto","#f73b6a7A"," "," ","1","0","[1474.6000000000931]","1","2","","","16389","33","3","3","lose","go","0"
"pit-trial","152","976211","0.0-38.0","battery-v0.2","","""event"",""trial"",""time""
""fullscreenenter"",""1"",""2577""
","
","
","""event"",""trial"",""time""
""fullscreenenter"",""1"",""2577""
","
","","","-1","","","24","16389","6416","j","elianto","#f73b6a7A","-1","-1","1","0","[]","0","2","","","16389","34","0","4","lose","no-go","0"
"pit-trial","153","979657","0.0-39.0","battery-v0.2","","""event"",""trial"",""time""
""fullscreenenter"",""1"",""2577""
","
","
","""event"",""trial"",""time""
""fullscreenenter"",""1"",""2577""
","
","","","593.3000000000466","","","24","16389","6416","d","elianto","#3366ff99"," "," ","1","+10","[1444.1000000000931]","1","2","","","16389","35","1","1","win","go","0"
"pit-trial","154","984510","0.0-40.0","battery-v0.2","","""event"",""trial"",""time""
""fullscreenenter"",""1"",""2577""
","
","
","""event"",""trial"",""time""
""fullscreenenter"",""1"",""2577""
","
","","","-1","","","24","16389","6416","e","elianto","#f73b6a7A","-1","-1","1","0","[]","0","2","","","16389","36","2","4","lose","no-go","0"
"pit-trial","155","987935","0.0-41.0","battery-v0.2","","""event"",""trial"",""time""
""fullscreenenter"",""1"",""2577""
","
","
","""event"",""trial"",""time""
""fullscreenenter"",""1"",""2577""
","
","","","573.5","","","24","16389","6416","d","elianto","#3366ff99"," "," ","1","+10","[1424]","1","2","","","16389","37","1","1","win","go","0"
"pit-trial","156","992789","0.0-42.0","battery-v0.2","","""event"",""trial"",""time""
""fullscreenenter"",""1"",""2577""
","
","
","""event"",""trial"",""time""
""fullscreenenter"",""1"",""2577""
","
","","","-1","","","24","16389","6416","e","elianto","#f73b6a7A","-1","-1","1","0","[]","0","2","","","16389","38","2","4","lose","no-go","0"
"pit-trial","157","997642","0.0-43.0","battery-v0.2","","""event"",""trial"",""time""
""fullscreenenter"",""1"",""2577""
","
","
","""event"",""trial"",""time""
""fullscreenenter"",""1"",""2577""
","
","","","-1","","","24","16389","6416","j","elianto","#f73b6a7A","-1","-1","1","0","[]","0","2","","","16389","39","0","4","lose","no-go","0"
"pit-trial","158","1000977","0.0-44.0","battery-v0.2","","""event"",""trial"",""time""
""fullscreenenter"",""1"",""2577""
","
","
","""event"",""trial"",""time""
""fullscreenenter"",""1"",""2577""
","
","","","481.89999999990687","","","24","16389","6416","w","elianto","#f73b6a7A"," "," ","1","0","[1332.7999999998137]","1","2","","","16389","40","3","3","lose","go","0"
"pit-trial","159","1004356","0.0-45.0","battery-v0.2","","""event"",""trial"",""time""
""fullscreenenter"",""1"",""2577""
","
","
","""event"",""trial"",""time""
""fullscreenenter"",""1"",""2577""
","
","","","526.6000000000931","","","24","16389","6416","w","elianto","#f73b6a7A"," "," ","1","0","[1377.1999999999534]","1","2","","","16389","41","3","3","lose","go","0"
"pit-trial","160","1009209","0.0-46.0","battery-v0.2","","""event"",""trial"",""time""
""fullscreenenter"",""1"",""2577""
","
","
","""event"",""trial"",""time""
""fullscreenenter"",""1"",""2577""
","
","","","-1","","","24","16389","6416","j","elianto","#f73b6a7A","-1","-1","1","-10","[]","0","2","","","16389","42","0","4","lose","no-go","1"
"pit-trial","161","1012666","0.0-47.0","battery-v0.2","","""event"",""trial"",""time""
""fullscreenenter"",""1"",""2577""
","
","
","""event"",""trial"",""time""
""fullscreenenter"",""1"",""2577""
","
","","","603.4000000001397","","","24","16389","6416","e","elianto","#f73b6a7A","-1"," ","0","-10","[1454.2000000001863]","1","2","","","16389","43","2","4","lose","no-go","0"
"pit-trial","162","1015975","0.0-48.0","battery-v0.2","","""event"",""trial"",""time""
""fullscreenenter"",""1"",""2577""
","
","
","""event"",""trial"",""time""
""fullscreenenter"",""1"",""2577""
","
","","","456.5","","","24","16389","6416","d","elianto","#3366ff99"," "," ","1","+10","[1307.1000000000931]","1","2","","","16389","44","1","1","win","go","0"
"pit-trial","163","1020829","0.0-49.0","battery-v0.2","","""event"",""trial"",""time""
""fullscreenenter"",""1"",""2577""
","
","
","""event"",""trial"",""time""
""fullscreenenter"",""1"",""2577""
","
","","","-1","","","24","16389","6416","e","elianto","#f73b6a7A","-1","-1","1","0","[]","0","2","","","16389","45","2","4","lose","no-go","0"
"pit-trial","164","1024188","0.0-50.0","battery-v0.2","","""event"",""trial"",""time""
""fullscreenenter"",""1"",""2577""
","
","
","""event"",""trial"",""time""
""fullscreenenter"",""1"",""2577""
","
","","","505.80000000004657","","","24","16389","6416","w","elianto","#f73b6a7A"," "," ","1","0","[1356.4000000001397]","1","2","","","16389","46","3","3","lose","go","0"
"pit-trial","165","1029042","0.0-51.0","battery-v0.2","","""event"",""trial"",""time""
""fullscreenenter"",""1"",""2577""
","
","
","""event"",""trial"",""time""
""fullscreenenter"",""1"",""2577""
","
","","","-1","","","24","16389","6416","j","elianto","#f73b6a7A","-1","-1","1","0","[]","0","2","","","16389","47","0","4","lose","no-go","0"
"pit-trial","166","1032769","0.0-52.0","battery-v0.2","","""event"",""trial"",""time""
""fullscreenenter"",""1"",""2577""
","
","
","""event"",""trial"",""time""
""fullscreenenter"",""1"",""2577""
","
","","","873.1999999999534","","","24","16389","6416","s","elianto","#3366ff99","-1"," ","0","0","[1723.6999999999534]","1","2","","","16389","48","4","2","win","no-go","0"
"pit-trial","167","1036117","0.0-53.0","battery-v0.2","","""event"",""trial"",""time""
""fullscreenenter"",""1"",""2577""
","
","
","""event"",""trial"",""time""
""fullscreenenter"",""1"",""2577""
","
","","","495","","","24","16389","6416","s","elianto","#3366ff99","-1"," ","0","0","[1346.1999999999534]","1","2","","","16389","49","4","2","win","no-go","0"
"pit-trial","168","1039743","0.0-54.0","battery-v0.2","","""event"",""trial"",""time""
""fullscreenenter"",""1"",""2577""
","
","
","""event"",""trial"",""time""
""fullscreenenter"",""1"",""2577""
","
","","","772.9000000001397","","","24","16389","6416","w","elianto","#f73b6a7A"," "," ","1","0","[1624.3000000000466]","1","2","","","16389","50","3","3","lose","go","0"
"pit-trial","169","1044596","0.0-55.0","battery-v0.2","","""event"",""trial"",""time""
""fullscreenenter"",""1"",""2577""
","
","
","""event"",""trial"",""time""
""fullscreenenter"",""1"",""2577""
","
","","","-1","","","24","16389","6416","j","elianto","#f73b6a7A","-1","-1","1","0","[]","0","2","","","16389","51","0","4","lose","no-go","0"
"pit-trial","170","1048038","0.0-56.0","battery-v0.2","","""event"",""trial"",""time""
""fullscreenenter"",""1"",""2577""
","
","
","""event"",""trial"",""time""
""fullscreenenter"",""1"",""2577""
","
","","","589.8000000000466","","","24","16389","6416","d","elianto","#3366ff99"," "," ","1","+10","[1440.3999999999069]","1","2","","","16389","52","1","1","win","go","0"
"pit-trial","171","1051651","0.0-57.0","battery-v0.2","","""event"",""trial"",""time""
""fullscreenenter"",""1"",""2577""
","
","
","""event"",""trial"",""time""
""fullscreenenter"",""1"",""2577""
","
","","","759.5","","","24","16389","6416","d","elianto","#3366ff99"," "," ","1","+10","[1610.7999999998137]","1","2","","","16389","53","1","1","win","go","0"
"pit-trial","172","1056506","0.0-58.0","battery-v0.2","","""event"",""trial"",""time""
""fullscreenenter"",""1"",""2577""
","
","
","""event"",""trial"",""time""
""fullscreenenter"",""1"",""2577""
","
","","","-1","","","24","16389","6416","j","elianto","#f73b6a7A","-1","-1","1","0","[]","0","2","","","16389","54","0","4","lose","no-go","0"
"pit-trial","173","1061360","0.0-59.0","battery-v0.2","","""event"",""trial"",""time""
""fullscreenenter"",""1"",""2577""
","
","
","""event"",""trial"",""time""
""fullscreenenter"",""1"",""2577""
","
","","","-1","","","24","16389","6416","e","elianto","#f73b6a7A","-1","-1","1","0","[]","0","2","","","16389","55","2","4","lose","no-go","0"
"pit-trial","174","1066214","0.0-60.0","battery-v0.2","","""event"",""trial"",""time""
""fullscreenenter"",""1"",""2577""
","
","
","""event"",""trial"",""time""
""fullscreenenter"",""1"",""2577""
","
","","","-1","","","24","16389","6416","s","elianto","#3366ff99","-1","-1","1","+10","[]","0","2","","","16389","56","4","2","win","no-go","0"
"pit-trial","175","1069561","0.0-61.0","battery-v0.2","","""event"",""trial"",""time""
""fullscreenenter"",""1"",""2577""
","
","
","""event"",""trial"",""time""
""fullscreenenter"",""1"",""2577""
","
","","","493.5","","","24","16389","6416","d","elianto","#3366ff99"," "," ","1","+10","[1344.2000000001863]","1","2","","","16389","57","1","1","win","go","0"
"pit-trial","176","1073044","0.0-62.0","battery-v0.2","","""event"",""trial"",""time""
""fullscreenenter"",""1"",""2577""
","
","
","""event"",""trial"",""time""
""fullscreenenter"",""1"",""2577""
","
","","","629.3999999999069","","","24","16389","6416","w","elianto","#f73b6a7A"," "," ","1","0","[1480.8999999999069]","1","2","","","16389","58","3","3","lose","go","0"
"pit-trial","177","1077898","0.0-63.0","battery-v0.2","","""event"",""trial"",""time""
""fullscreenenter"",""1"",""2577""
","
","
","""event"",""trial"",""time""
""fullscreenenter"",""1"",""2577""
","
","","","-1","","","24","16389","6416","j","elianto","#f73b6a7A","-1","-1","1","0","[]","0","2","","","16389","59","0","4","lose","no-go","0"
"pit-trial","178","1082750","0.0-64.0","battery-v0.2","","""event"",""trial"",""time""
""fullscreenenter"",""1"",""2577""
","
","
","""event"",""trial"",""time""
""fullscreenenter"",""1"",""2577""
","
","","","-1","","","24","16389","6416","s","elianto","#3366ff99","-1","-1","1","+10","[]","0","2","","","16389","60","4","2","win","no-go","0"
"pit-trial","179","1086258","0.0-65.0","battery-v0.2","","""event"",""trial"",""time""
""fullscreenenter"",""1"",""2577""
","
","
","""event"",""trial"",""time""
""fullscreenenter"",""1"",""2577""
","
","","","654.3999999999069","","","24","16389","6416","w","elianto","#f73b6a7A"," "," ","1","0","[1505.5]","1","2","","","16389","61","3","3","lose","go","0"
"pit-trial","180","1091111","0.0-66.0","battery-v0.2","","""event"",""trial"",""time""
""fullscreenenter"",""1"",""2577""
","
","
","""event"",""trial"",""time""
""fullscreenenter"",""1"",""2577""
","
","","","-1","","","24","16389","6416","e","elianto","#f73b6a7A","-1","-1","1","0","[]","0","2","","","16389","62","2","4","lose","no-go","0"
"pit-trial","181","1095964","0.0-67.0","battery-v0.2","","""event"",""trial"",""time""
""fullscreenenter"",""1"",""2577""
","
","
","""event"",""trial"",""time""
""fullscreenenter"",""1"",""2577""
","
","","","-1","","","24","16389","6416","s","elianto","#3366ff99","-1","-1","1","+10","[]","0","2","","","16389","63","4","2","win","no-go","0"
"pit-trial","182","1100243","0.0-68.0","battery-v0.2","","""event"",""trial"",""time""
""fullscreenenter"",""1"",""2577""
","
","
","""event"",""trial"",""time""
""fullscreenenter"",""1"",""2577""
","
","","","1426.1999999999534","","","24","16389","6416","d","elianto","#3366ff99"," "," ","1","+10","[2277]","1","2","","","16389","64","1","1","win","go","0"
"pit-trial","183","1104043","0.0-69.0","battery-v0.2","","""event"",""trial"",""time""
""fullscreenenter"",""1"",""2577""
","
","
","""event"",""trial"",""time""
""fullscreenenter"",""1"",""2577""
","
","","","946.8000000000466","","","24","16389","6416","w","elianto","#f73b6a7A"," "," ","1","0","[1797.1999999999534]","1","2","","","16389","65","3","3","lose","go","0"
"pit-trial","184","1108896","0.0-70.0","battery-v0.2","","""event"",""trial"",""time""
""fullscreenenter"",""1"",""2577""
","
","
","""event"",""trial"",""time""
""fullscreenenter"",""1"",""2577""
","
","","","-1","","","24","16389","6416","e","elianto","#f73b6a7A","-1","-1","1","-10","[]","0","2","","","16389","66","2","4","lose","no-go","1"
"pit-trial","185","1113751","0.0-71.0","battery-v0.2","","""event"",""trial"",""time""
""fullscreenenter"",""1"",""2577""
","
","
","""event"",""trial"",""time""
""fullscreenenter"",""1"",""2577""
","
","","","-1","","","24","16389","6416","s","elianto","#3366ff99","-1","-1","1","+10","[]","0","2","","","16389","67","4","2","win","no-go","0"
"pit-trial","186","1117125","0.0-72.0","battery-v0.2","","""event"",""trial"",""time""
""fullscreenenter"",""1"",""2577""
","
","
","""event"",""trial"",""time""
""fullscreenenter"",""1"",""2577""
","
","","","521.5","","","24","16389","6416","d","elianto","#3366ff99"," "," ","1","+10","[1372.0999999998603]","1","2","","","16389","68","1","1","win","go","0"
"pit-trial","187","1121979","0.0-73.0","battery-v0.2","","""event"",""trial"",""time""
""fullscreenenter"",""1"",""2577""
","
","
","""event"",""trial"",""time""
""fullscreenenter"",""1"",""2577""
","
","","","-1","","","24","16389","6416","s","elianto","#3366ff99","-1","-1","1","+10","[]","0","2","","","16389","69","4","2","win","no-go","0"
"pit-trial","188","1125400","0.0-74.0","battery-v0.2","","""event"",""trial"",""time""
""fullscreenenter"",""1"",""2577""
","
","
","""event"",""trial"",""time""
""fullscreenenter"",""1"",""2577""
","
","","","569.4000000001397","","","24","16389","6416","w","elianto","#f73b6a7A"," "," ","1","-10","[1419.4000000001397]","1","2","","","16389","70","3","3","lose","go","1"
"pit-trial","189","1129321","0.0-75.0","battery-v0.2","","""event"",""trial"",""time""
""fullscreenenter"",""1"",""2577""
","
","
","""event"",""trial"",""time""
""fullscreenenter"",""1"",""2577""
","
","","","1067.3999999999069","","","24","16389","6416","p","elianto","#3366ff99"," "," ","1","+10","[1918.1999999999534]","1","2","","","16389","71","5","1","win","go","0"
"pit-trial","190","1132839","0.0-76.0","battery-v0.2","","""event"",""trial"",""time""
""fullscreenenter"",""1"",""2577""
","
","
","""event"",""trial"",""time""
""fullscreenenter"",""1"",""2577""
","
","","","665.2999999998137","","","24","16389","6416","d","elianto","#3366ff99"," "," ","1","+10","[1515.5]","1","2","","","16389","72","1","1","win","go","0"
"pit-trial","191","1136167","0.0-77.0","battery-v0.2","","""event"",""trial"",""time""
""fullscreenenter"",""1"",""2577""
","
","
","""event"",""trial"",""time""
""fullscreenenter"",""1"",""2577""
","
","","","474.69999999995343","","","24","16389","6416","d","elianto","#3366ff99"," "," ","1","+10","[1325.1000000000931]","1","2","","","16389","73","1","1","win","go","0"
"pit-trial","192","1139627","0.0-78.0","battery-v0.2","","""event"",""trial"",""time""
""fullscreenenter"",""1"",""2577""
","
","
","""event"",""trial"",""time""
""fullscreenenter"",""1"",""2577""
","
","","","606.6999999999534","","","24","16389","6416","w","elianto","#f73b6a7A"," "," ","1","0","[1457.5999999998603]","1","2","","","16389","74","3","3","lose","go","0"
"pit-trial","193","1142923","0.0-79.0","battery-v0.2","","""event"",""trial"",""time""
""fullscreenenter"",""1"",""2577""
","
","
","""event"",""trial"",""time""
""fullscreenenter"",""1"",""2577""
","
","","","442.80000000004657","","","24","16389","6416","p","elianto","#3366ff99"," "," ","1","+10","[1293.8999999999069]","1","2","","","16389","75","5","1","win","go","0"
"pit-trial","194","1147776","0.0-80.0","battery-v0.2","","""event"",""trial"",""time""
""fullscreenenter"",""1"",""2577""
","
","
","""event"",""trial"",""time""
""fullscreenenter"",""1"",""2577""
","
","","","-1","","","24","16389","6416","s","elianto","#3366ff99","-1","-1","1","+10","[]","0","2","","","16389","76","4","2","win","no-go","0"
"pit-trial","195","1151241","0.0-81.0","battery-v0.2","","""event"",""trial"",""time""
""fullscreenenter"",""1"",""2577""
","
","
","""event"",""trial"",""time""
""fullscreenenter"",""1"",""2577""
","
","","","612.8000000000466","","","24","16389","6416","p","elianto","#3366ff99"," "," ","1","+10","[1463.1999999999534]","1","2","","","16389","77","5","1","win","go","0"
"pit-trial","196","1156094","0.0-82.0","battery-v0.2","","""event"",""trial"",""time""
""fullscreenenter"",""1"",""2577""
","
","
","""event"",""trial"",""time""
""fullscreenenter"",""1"",""2577""
","
","","","-1","","","24","16389","6416","s","elianto","#3366ff99","-1","-1","1","+10","[]","0","2","","","16389","78","4","2","win","no-go","0"
"pit-trial","197","1160111","0.0-83.0","battery-v0.2","","""event"",""trial"",""time""
""fullscreenenter"",""1"",""2577""
","
","
","""event"",""trial"",""time""
""fullscreenenter"",""1"",""2577""
","
","","","1164.1999999999534","","","24","16389","6416","g","elianto","#f73b6a7A","-1"," ","0","0","[2015.0999999998603]","1","2","","","16389","79","6","4","lose","no-go","1"
"pit-trial","198","1163545","0.0-84.0","battery-v0.2","","""event"",""trial"",""time""
""fullscreenenter"",""1"",""2577""
","
","
","""event"",""trial"",""time""
""fullscreenenter"",""1"",""2577""
","
","","","581.4000000001397","","","24","16389","6416","w","elianto","#f73b6a7A"," "," ","1","0","[1431.6000000000931]","1","2","","","16389","80","3","3","lose","go","0"
"pit-trial","199","1167235","0.0-85.0","battery-v0.2","","""event"",""trial"",""time""
""fullscreenenter"",""1"",""2577""
","
","
","""event"",""trial"",""time""
""fullscreenenter"",""1"",""2577""
","
","","","836.6999999999534","","","24","16389","6416","a","elianto","#f73b6a7A"," "," ","1","0","[1688]","1","2","","","16389","81","7","3","lose","go","0"
"pit-trial","200","1172087","0.0-86.0","battery-v0.2","","""event"",""trial"",""time""
""fullscreenenter"",""1"",""2577""
","
","
","""event"",""trial"",""time""
""fullscreenenter"",""1"",""2577""
","
","","","-1","","","24","16389","6416","s","elianto","#3366ff99","-1","-1","1","0","[]","0","2","","","16389","82","4","2","win","no-go","1"
"pit-trial","201","1175592","0.0-87.0","battery-v0.2","","""event"",""trial"",""time""
""fullscreenenter"",""1"",""2577""
","
","
","""event"",""trial"",""time""
""fullscreenenter"",""1"",""2577""
","
","","","651.6999999999534","","","24","16389","6416","p","elianto","#3366ff99"," "," ","1","+10","[1502.8000000000466]","1","2","","","16389","83","5","1","win","go","0"
"pit-trial","202","1179270","0.0-88.0","battery-v0.2","","""event"",""trial"",""time""
""fullscreenenter"",""1"",""2577""
","
","
","""event"",""trial"",""time""
""fullscreenenter"",""1"",""2577""
","
","","","823.8999999999069","","","24","16389","6416","g","elianto","#f73b6a7A","-1"," ","0","0","[1675.2999999998137]","1","2","","","16389","84","6","4","lose","no-go","1"
"pit-trial","203","1184123","0.0-89.0","battery-v0.2","","""event"",""trial"",""time""
""fullscreenenter"",""1"",""2577""
","
","
","""event"",""trial"",""time""
""fullscreenenter"",""1"",""2577""
","
","","","-1","","","24","16389","6416","s","elianto","#3366ff99","-1","-1","1","+10","[]","0","2","","","16389","85","4","2","win","no-go","0"
"pit-trial","204","1187856","0.0-90.0","battery-v0.2","","""event"",""trial"",""time""
""fullscreenenter"",""1"",""2577""
","
","
","""event"",""trial"",""time""
""fullscreenenter"",""1"",""2577""
","
","","","878.2999999998137","","","24","16389","6416","a","elianto","#f73b6a7A"," "," ","1","-10","[1729.6999999999534]","1","2","","","16389","86","7","3","lose","go","1"
"pit-trial","205","1191200","0.0-91.0","battery-v0.2","","""event"",""trial"",""time""
""fullscreenenter"",""1"",""2577""
","
","
","""event"",""trial"",""time""
""fullscreenenter"",""1"",""2577""
","
","","","490.39999999990687","","","24","16389","6416","g","elianto","#f73b6a7A","-1"," ","0","-10","[1341.8999999999069]","1","2","","","16389","87","6","4","lose","no-go","0"
"pit-trial","206","1194623","0.0-92.0","battery-v0.2","","""event"",""trial"",""time""
""fullscreenenter"",""1"",""2577""
","
","
","""event"",""trial"",""time""
""fullscreenenter"",""1"",""2577""
","
","","","569.8000000000466","","","24","16389","6416","p","elianto","#3366ff99"," "," ","1","+10","[1421.3000000000466]","1","2","","","16389","88","5","1","win","go","0"
"pit-trial","207","1199478","0.0-93.0","battery-v0.2","","""event"",""trial"",""time""
""fullscreenenter"",""1"",""2577""
","
","
","""event"",""trial"",""time""
""fullscreenenter"",""1"",""2577""
","
","","","-1","","","24","16389","6416","a","elianto","#f73b6a7A"," ","-1","0","-10","[]","0","2","","","16389","89","7","3","lose","go","0"
"pit-trial","208","1202804","0.0-94.0","battery-v0.2","","""event"",""trial"",""time""
""fullscreenenter"",""1"",""2577""
","
","
","""event"",""trial"",""time""
""fullscreenenter"",""1"",""2577""
","
","","","471.30000000004657","","","24","16389","6416","p","elianto","#3366ff99"," "," ","1","+10","[1322.3000000000466]","1","2","","","16389","90","5","1","win","go","0"
"pit-trial","209","1207659","0.0-95.0","battery-v0.2","","""event"",""trial"",""time""
""fullscreenenter"",""1"",""2577""
","
","
","""event"",""trial"",""time""
""fullscreenenter"",""1"",""2577""
","
","","","-1","","","24","16389","6416","s","elianto","#3366ff99","-1","-1","1","0","[]","0","2","","","16389","91","4","2","win","no-go","1"
"pit-trial","210","1211221","0.0-96.0","battery-v0.2","","""event"",""trial"",""time""
""fullscreenenter"",""1"",""2577""
","
","
","""event"",""trial"",""time""
""fullscreenenter"",""1"",""2577""
","
","","","708.2999999998137","","","24","16389","6416","g","elianto","#f73b6a7A","-1"," ","0","-10","[1559.8999999999069]","1","2","","","16389","92","6","4","lose","no-go","0"
"pit-trial","211","1214592","0.0-97.0","battery-v0.2","","""event"",""trial"",""time""
""fullscreenenter"",""1"",""2577""
","
","
","""event"",""trial"",""time""
""fullscreenenter"",""1"",""2577""
","
","","","517.1000000000931","","","24","16389","6416","a","elianto","#f73b6a7A"," "," ","1","-10","[1367.5]","1","2","","","16389","93","7","3","lose","go","1"
"pit-trial","212","1217982","0.0-98.0","battery-v0.2","","""event"",""trial"",""time""
""fullscreenenter"",""1"",""2577""
","
","
","""event"",""trial"",""time""
""fullscreenenter"",""1"",""2577""
","
","","","536.1999999999534","","","24","16389","6416","g","elianto","#f73b6a7A","-1"," ","0","-10","[1387.8999999999069]","1","2","","","16389","94","6","4","lose","no-go","0"
"pit-trial","213","1221713","0.0-99.0","battery-v0.2","","""event"",""trial"",""time""
""fullscreenenter"",""1"",""2577""
","
","
","""event"",""trial"",""time""
""fullscreenenter"",""1"",""2577""
","
","","","877.0999999998603","","","24","16389","6416","l","elianto","#3366ff99","-1"," ","0","0","[1728]","1","2","","","16389","95","8","2","win","no-go","0"
"pit-trial","214","1225137","0.0-100.0","battery-v0.2","","""event"",""trial"",""time""
""fullscreenenter"",""1"",""2577""
","
","
","""event"",""trial"",""time""
""fullscreenenter"",""1"",""2577""
","
","","","572.1000000000931","","","24","16389","6416","p","elianto","#3366ff99"," "," ","1","0","[1422.1999999999534]","1","2","","","16389","96","5","1","win","go","1"
"pit-trial","215","1228778","0.0-101.0","battery-v0.2","","""event"",""trial"",""time""
""fullscreenenter"",""1"",""2577""
","
","
","""event"",""trial"",""time""
""fullscreenenter"",""1"",""2577""
","
","","","788.3000000000466","","","24","16389","6416","g","elianto","#f73b6a7A","-1"," ","0","-10","[1638.8999999999069]","1","2","","","16389","97","6","4","lose","no-go","0"
"pit-trial","216","1232322","0.0-102.0","battery-v0.2","","""event"",""trial"",""time""
""fullscreenenter"",""1"",""2577""
","
","
","""event"",""trial"",""time""
""fullscreenenter"",""1"",""2577""
","
","","","689.5","","","24","16389","6416","l","elianto","#3366ff99","-1"," ","0","0","[1540.9000000001397]","1","2","","","16389","98","8","2","win","no-go","0"
"pit-trial","217","1235868","0.0-103.0","battery-v0.2","","""event"",""trial"",""time""
""fullscreenenter"",""1"",""2577""
","
","
","""event"",""trial"",""time""
""fullscreenenter"",""1"",""2577""
","
","","","692.1999999999534","","","24","16389","6416","p","elianto","#3366ff99"," "," ","1","+10","[1542.8000000000466]","1","2","","","16389","99","5","1","win","go","0"
"pit-trial","218","1239556","0.0-104.0","battery-v0.2","","""event"",""trial"",""time""
""fullscreenenter"",""1"",""2577""
","
","
","""event"",""trial"",""time""
""fullscreenenter"",""1"",""2577""
","
","","","835.9000000001397","","","24","16389","6416","a","elianto","#f73b6a7A"," "," ","1","0","[1686.7000000001863]","1","2","","","16389","100","7","3","lose","go","0"
"pit-trial","219","1244410","0.0-105.0","battery-v0.2","","""event"",""trial"",""time""
""fullscreenenter"",""1"",""2577""
","
","
","""event"",""trial"",""time""
""fullscreenenter"",""1"",""2577""
","
","","","-1","","","24","16389","6416","l","elianto","#3366ff99","-1","-1","1","+10","[]","0","2","","","16389","101","8","2","win","no-go","0"
"pit-trial","220","1248211","0.0-106.0","battery-v0.2","","""event"",""trial"",""time""
""fullscreenenter"",""1"",""2577""
","
","
","""event"",""trial"",""time""
""fullscreenenter"",""1"",""2577""
","
","","","946.6000000000931","","","24","16389","6416","u","elianto","#3366ff99","-1"," ","0","0","[1797.8000000000466]","1","2","","","16389","102","9","2","win","no-go","0"
"pit-trial","221","1251956","0.0-107.0","battery-v0.2","","""event"",""trial"",""time""
""fullscreenenter"",""1"",""2577""
","
","
","""event"",""trial"",""time""
""fullscreenenter"",""1"",""2577""
","
","","","891.7000000001863","","","24","16389","6416","p","elianto","#3366ff99"," "," ","1","0","[1742.6999999999534]","1","2","","","16389","103","5","1","win","go","1"
"pit-trial","222","1256809","0.0-108.0","battery-v0.2","","""event"",""trial"",""time""
""fullscreenenter"",""1"",""2577""
","
","
","""event"",""trial"",""time""
""fullscreenenter"",""1"",""2577""
","
","","","-1","","","24","16389","6416","g","elianto","#f73b6a7A","-1","-1","1","-10","[]","0","2","","","16389","104","6","4","lose","no-go","1"
"pit-trial","223","1260458","0.0-109.0","battery-v0.2","","""event"",""trial"",""time""
""fullscreenenter"",""1"",""2577""
","
","
","""event"",""trial"",""time""
""fullscreenenter"",""1"",""2577""
","
","","","796.1999999999534","","","24","16389","6416","u","elianto","#3366ff99","-1"," ","0","0","[1646.4000000001397]","1","2","","","16389","105","9","2","win","no-go","0"
"pit-trial","224","1263851","0.0-110.0","battery-v0.2","","""event"",""trial"",""time""
""fullscreenenter"",""1"",""2577""
","
","
","""event"",""trial"",""time""
""fullscreenenter"",""1"",""2577""
","
","","","539.3999999999069","","","24","16389","6416","g","elianto","#f73b6a7A","-1"," ","0","-10","[1390.5]","1","2","","","16389","106","6","4","lose","no-go","0"
"pit-trial","225","1267441","0.0-111.0","battery-v0.2","","""event"",""trial"",""time""
""fullscreenenter"",""1"",""2577""
","
","
","""event"",""trial"",""time""
""fullscreenenter"",""1"",""2577""
","
","","","736.1000000000931","","","24","16389","6416","p","elianto","#3366ff99"," "," ","1","+10","[1587.3000000000466]","1","2","","","16389","107","5","1","win","go","0"
"pit-trial","226","1271165","0.0-112.0","battery-v0.2","","""event"",""trial"",""time""
""fullscreenenter"",""1"",""2577""
","
","
","""event"",""trial"",""time""
""fullscreenenter"",""1"",""2577""
","
","","","869.8000000000466","","","24","16389","6416","l","elianto","#3366ff99","-1"," ","0","0","[1721]","1","2","","","16389","108","8","2","win","no-go","0"
"pit-trial","227","1274871","0.0-113.0","battery-v0.2","","""event"",""trial"",""time""
""fullscreenenter"",""1"",""2577""
","
","
","""event"",""trial"",""time""
""fullscreenenter"",""1"",""2577""
","
","","","850.6999999999534","","","24","16389","6416","g","elianto","#f73b6a7A","-1"," ","0","-10","[1702.8000000000466]","1","2","","","16389","109","6","4","lose","no-go","0"
"pit-trial","228","1279725","0.0-114.0","battery-v0.2","","""event"",""trial"",""time""
""fullscreenenter"",""1"",""2577""
","
","
","""event"",""trial"",""time""
""fullscreenenter"",""1"",""2577""
","
","","","-1","","","24","16389","6416","u","elianto","#3366ff99","-1","-1","1","+10","[]","0","2","","","16389","110","9","2","win","no-go","0"
"pit-trial","229","1283162","0.0-115.0","battery-v0.2","","""event"",""trial"",""time""
""fullscreenenter"",""1"",""2577""
","
","
","""event"",""trial"",""time""
""fullscreenenter"",""1"",""2577""
","
","","","580.8999999999069","","","24","16389","6416","p","elianto","#3366ff99"," "," ","1","+10","[1432.5]","1","2","","","16389","111","5","1","win","go","0"
"pit-trial","230","1288017","0.0-116.0","battery-v0.2","","""event"",""trial"",""time""
""fullscreenenter"",""1"",""2577""
","
","
","""event"",""trial"",""time""
""fullscreenenter"",""1"",""2577""
","
","","","-1","","","24","16389","6416","l","elianto","#3366ff99","-1","-1","1","+10","[]","0","2","","","16389","112","8","2","win","no-go","0"
"pit-trial","231","1291689","0.0-117.0","battery-v0.2","","""event"",""trial"",""time""
""fullscreenenter"",""1"",""2577""
","
","
","""event"",""trial"",""time""
""fullscreenenter"",""1"",""2577""
","
","","","819.1999999999534","","","24","16389","6416","p","elianto","#3366ff99"," "," ","1","+10","[1670.4000000001397]","1","2","","","16389","113","5","1","win","go","0"
"pit-trial","232","1296543","0.0-118.0","battery-v0.2","","""event"",""trial"",""time""
""fullscreenenter"",""1"",""2577""
","
","
","""event"",""trial"",""time""
""fullscreenenter"",""1"",""2577""
","
","","","-1","","","24","16389","6416","l","elianto","#3366ff99","-1","-1","1","+10","[]","0","2","","","16389","114","8","2","win","no-go","0"
"pit-trial","233","1301396","0.0-119.0","battery-v0.2","","""event"",""trial"",""time""
""fullscreenenter"",""1"",""2577""
","
","
","""event"",""trial"",""time""
""fullscreenenter"",""1"",""2577""
","
","","","-1","","","24","16389","6416","u","elianto","#3366ff99","-1","-1","1","+10","[]","0","2","","","16389","115","9","2","win","no-go","0"
"pit-trial","234","1304922","0.0-120.0","battery-v0.2","","""event"",""trial"",""time""
""fullscreenenter"",""1"",""2577""
","
","
","""event"",""trial"",""time""
""fullscreenenter"",""1"",""2577""
","
","","","672.9000000001397","","","24","16389","6416","a","elianto","#f73b6a7A"," "," ","1","0","[1523.6999999999534]","1","2","","","16389","116","7","3","lose","go","0"
"pit-trial","235","1309777","0.0-121.0","battery-v0.2","","""event"",""trial"",""time""
""fullscreenenter"",""1"",""2577""
","
","
","""event"",""trial"",""time""
""fullscreenenter"",""1"",""2577""
","
","","","-1","","","24","16389","6416","g","elianto","#f73b6a7A","-1","-1","1","0","[]","0","2","","","16389","117","6","4","lose","no-go","0"
"pit-trial","236","1314631","0.0-122.0","battery-v0.2","","""event"",""trial"",""time""
""fullscreenenter"",""1"",""2577""
","
","
","""event"",""trial"",""time""
""fullscreenenter"",""1"",""2577""
","
","","","-1","","","24","16389","6416","l","elianto","#3366ff99","-1","-1","1","+10","[]","0","2","","","16389","118","8","2","win","no-go","0"
"pit-trial","237","1318311","0.0-123.0","battery-v0.2","","""event"",""trial"",""time""
""fullscreenenter"",""1"",""2577""
","
","
","""event"",""trial"",""time""
""fullscreenenter"",""1"",""2577""
","
","","","827.5","","","24","16389","6416","p","elianto","#3366ff99"," "," ","1","+10","[1678.7000000001863]","1","2","","","16389","119","5","1","win","go","0"
"pit-trial","238","1323164","0.0-124.0","battery-v0.2","","""event"",""trial"",""time""
""fullscreenenter"",""1"",""2577""
","
","
","""event"",""trial"",""time""
""fullscreenenter"",""1"",""2577""
","
","","","-1","","","24","16389","6416","u","elianto","#3366ff99","-1","-1","1","0","[]","0","2","","","16389","120","9","2","win","no-go","1"
"pit-trial","239","1326733","0.0-125.0","battery-v0.2","","""event"",""trial"",""time""
""fullscreenenter"",""1"",""2577""
","
","
","""event"",""trial"",""time""
""fullscreenenter"",""1"",""2577""
","
","","","714.5999999998603","","","24","16389","6416","a","elianto","#f73b6a7A"," "," ","1","0","[1565.1000000000931]","1","2","","","16389","121","7","3","lose","go","0"
"pit-trial","240","1331587","0.0-126.0","battery-v0.2","","""event"",""trial"",""time""
""fullscreenenter"",""1"",""2577""
","
","
","""event"",""trial"",""time""
""fullscreenenter"",""1"",""2577""
","
","","","-1","","","24","16389","6416","l","elianto","#3366ff99","-1","-1","1","+10","[]","0","2","","","16389","122","8","2","win","no-go","0"
"pit-trial","241","1336439","0.0-127.0","battery-v0.2","","""event"",""trial"",""time""
""fullscreenenter"",""1"",""2577""
","
","
","""event"",""trial"",""time""
""fullscreenenter"",""1"",""2577""
","
","","","-1","","","24","16389","6416","u","elianto","#3366ff99","-1","-1","1","+10","[]","0","2","","","16389","123","9","2","win","no-go","0"
"pit-trial","242","1339983","0.0-128.0","battery-v0.2","","""event"",""trial"",""time""
""fullscreenenter"",""1"",""2577""
","
","
","""event"",""trial"",""time""
""fullscreenenter"",""1"",""2577""
","
","","","690.9000000001397","","","24","16389","6416","p","elianto","#3366ff99"," "," ","1","+10","[1541.6000000000931]","1","2","","","16389","124","5","1","win","go","0"
"pit-trial","243","1344837","0.0-129.0","battery-v0.2","","""event"",""trial"",""time""
""fullscreenenter"",""1"",""2577""
","
","
","""event"",""trial"",""time""
""fullscreenenter"",""1"",""2577""
","
","","","-1","","","24","16389","6416","l","elianto","#3366ff99","-1","-1","1","+10","[]","0","2","","","16389","125","8","2","win","no-go","0"
"pit-trial","244","1349690","0.0-130.0","battery-v0.2","","""event"",""trial"",""time""
""fullscreenenter"",""1"",""2577""
","
","
","""event"",""trial"",""time""
""fullscreenenter"",""1"",""2577""
","
","","","-1","","","24","16389","6416","u","elianto","#3366ff99","-1","-1","1","+10","[]","0","2","","","16389","126","9","2","win","no-go","0"
"pit-trial","245","1353178","0.0-131.0","battery-v0.2","","""event"",""trial"",""time""
""fullscreenenter"",""1"",""2577""
","
","
","""event"",""trial"",""time""
""fullscreenenter"",""1"",""2577""
","
","","","635.6000000000931","","","24","16389","6416","a","elianto","#f73b6a7A"," "," ","1","0","[1486.1000000000931]","1","2","","","16389","127","7","3","lose","go","0"
"pit-trial","246","1358032","0.0-132.0","battery-v0.2","","""event"",""trial"",""time""
""fullscreenenter"",""1"",""2577""
","
","
","""event"",""trial"",""time""
""fullscreenenter"",""1"",""2577""
","
","","","-1","","","24","16389","6416","g","elianto","#f73b6a7A","-1","-1","1","0","[]","0","2","","","16389","128","6","4","lose","no-go","0"
"pit-trial","247","1361522","0.0-133.0","battery-v0.2","","""event"",""trial"",""time""
""fullscreenenter"",""1"",""2577""
","
","
","""event"",""trial"",""time""
""fullscreenenter"",""1"",""2577""
","
","","","637.4000000001397","","","24","16389","6416","a","elianto","#f73b6a7A"," "," ","1","-10","[1488.0999999998603]","1","2","","","16389","129","7","3","lose","go","1"
"pit-trial","248","1366376","0.0-134.0","battery-v0.2","","""event"",""trial"",""time""
""fullscreenenter"",""1"",""2577""
","
","
","""event"",""trial"",""time""
""fullscreenenter"",""1"",""2577""
","
","","","-1","","","24","16389","6416","g","elianto","#f73b6a7A","-1","-1","1","0","[]","0","2","","","16389","130","6","4","lose","no-go","0"
"pit-trial","249","1371228","0.0-135.0","battery-v0.2","","""event"",""trial"",""time""
""fullscreenenter"",""1"",""2577""
","
","
","""event"",""trial"",""time""
""fullscreenenter"",""1"",""2577""
","
","","","-1","","","24","16389","6416","l","elianto","#3366ff99","-1","-1","1","+10","[]","0","2","","","16389","131","8","2","win","no-go","0"
"pit-trial","250","1376082","0.0-136.0","battery-v0.2","","""event"",""trial"",""time""
""fullscreenenter"",""1"",""2577""
","
","
","""event"",""trial"",""time""
""fullscreenenter"",""1"",""2577""
","
","","","-1","","","24","16389","6416","u","elianto","#3366ff99","-1","-1","1","0","[]","0","2","","","16389","132","9","2","win","no-go","1"
"pit-trial","251","1380935","0.0-137.0","battery-v0.2","","""event"",""trial"",""time""
""fullscreenenter"",""1"",""2577""
","
","
","""event"",""trial"",""time""
""fullscreenenter"",""1"",""2577""
","
","","","-1","","","24","16389","6416","u","elianto","#3366ff99","-1","-1","1","+10","[]","0","2","","","16389","133","9","2","win","no-go","0"
"pit-trial","252","1385788","0.0-138.0","battery-v0.2","","""event"",""trial"",""time""
""fullscreenenter"",""1"",""2577""
","
","
","""event"",""trial"",""time""
""fullscreenenter"",""1"",""2577""
","
","","","-1","","","24","16389","6416","l","elianto","#3366ff99","-1","-1","1","+10","[]","0","2","","","16389","134","8","2","win","no-go","0"
"pit-trial","253","1389477","0.0-139.0","battery-v0.2","","""event"",""trial"",""time""
""fullscreenenter"",""1"",""2577""
","
","
","""event"",""trial"",""time""
""fullscreenenter"",""1"",""2577""
","
","","","835.4000000001397","","","24","16389","6416","a","elianto","#f73b6a7A"," "," ","1","0","[1686.5]","1","2","","","16389","135","7","3","lose","go","0"
"pit-trial","254","1394330","0.0-140.0","battery-v0.2","","""event"",""trial"",""time""
""fullscreenenter"",""1"",""2577""
","
","
","""event"",""trial"",""time""
""fullscreenenter"",""1"",""2577""
","
","","","-1","","","24","16389","6416","g","elianto","#f73b6a7A","-1","-1","1","0","[]","0","2","","","16389","136","6","4","lose","no-go","0"
"pit-trial","255","1399184","0.0-141.0","battery-v0.2","","""event"",""trial"",""time""
""fullscreenenter"",""1"",""2577""
","
","
","""event"",""trial"",""time""
""fullscreenenter"",""1"",""2577""
","
","","","-1","","","24","16389","6416","u","elianto","#3366ff99","-1","-1","1","+10","[]","0","2","","","16389","137","9","2","win","no-go","0"
"pit-trial","256","1402771","0.0-142.0","battery-v0.2","","""event"",""trial"",""time""
""fullscreenenter"",""1"",""2577""
","
","
","""event"",""trial"",""time""
""fullscreenenter"",""1"",""2577""
","
","","","732.3000000000466","","","24","16389","6416","a","elianto","#f73b6a7A"," "," ","1","0","[1584.1000000000931]","1","2","","","16389","138","7","3","lose","go","0"
"pit-trial","257","1407624","0.0-143.0","battery-v0.2","","""event"",""trial"",""time""
""fullscreenenter"",""1"",""2577""
","
","
","""event"",""trial"",""time""
""fullscreenenter"",""1"",""2577""
","
","","","-1","","","24","16389","6416","l","elianto","#3366ff99","-1","-1","1","+10","[]","0","2","","","16389","139","8","2","win","no-go","0"
"pit-trial","258","1412477","0.0-144.0","battery-v0.2","","""event"",""trial"",""time""
""fullscreenenter"",""1"",""2577""
","
","
","""event"",""trial"",""time""
""fullscreenenter"",""1"",""2577""
","
","","","-1","","","24","16389","6416","g","elianto","#f73b6a7A","-1","-1","1","-10","[]","0","2","","","16389","140","6","4","lose","no-go","1"
"pit-instructions","259","1429101","0.0-145.0","battery-v0.2","","""event"",""trial"",""time""
""fullscreenenter"",""1"",""2577""
","
","
","""event"",""trial"",""time""
""fullscreenenter"",""1"",""2577""
","
","","[{""page_index"":0,""viewing_time"":8401.399999999907},{""page_index"":1,""viewing_time"":8220.699999999953}]","16622.199999999953","","","","","","","","","","","","","","","","","","","","","","","",""
"pit-trial","260","1432667","0.0-146.0","battery-v0.2","","""event"",""trial"",""time""
""fullscreenenter"",""1"",""2577""
","
","
","""event"",""trial"",""time""
""fullscreenenter"",""1"",""2577""
","
","","","710","","","24","16389","6416","y","elianto","#f73b6a7A"," "," ","1","0","[1560.6000000000931]","1","3","","","16389","141","2","3","lose","go","0"
"pit-trial","261","1436056","0.0-147.0","battery-v0.2","","""event"",""trial"",""time""
""fullscreenenter"",""1"",""2577""
","
","
","""event"",""trial"",""time""
""fullscreenenter"",""1"",""2577""
","
","","","535.9000000001397","","","24","16389","6416","r","elianto","#3366ff99","-1"," ","0","0","[1386.8000000000466]","1","3","","","16389","142","1","2","win","no-go","0"
"pit-trial","262","1439525","0.0-148.0","battery-v0.2","","""event"",""trial"",""time""
""fullscreenenter"",""1"",""2577""
","
","
","""event"",""trial"",""time""
""fullscreenenter"",""1"",""2577""
","
","","","614.1999999999534","","","24","16389","6416","h","elianto","#f73b6a7A","-1"," ","0","-10","[1465]","1","3","","","16389","143","3","4","lose","no-go","0"
"pit-trial","263","1444379","0.0-149.0","battery-v0.2","","""event"",""trial"",""time""
""fullscreenenter"",""1"",""2577""
","
","
","""event"",""trial"",""time""
""fullscreenenter"",""1"",""2577""
","
","","","-1","","","24","16389","6416","m","elianto","#f73b6a7A"," ","-1","0","-10","[]","0","3","","","16389","144","0","3","lose","go","0"
"pit-trial","264","1448005","0.0-150.0","battery-v0.2","","""event"",""trial"",""time""
""fullscreenenter"",""1"",""2577""
","
","
","""event"",""trial"",""time""
""fullscreenenter"",""1"",""2577""
","
","","","773.1999999999534","","","24","16389","6416","r","elianto","#3366ff99","-1"," ","0","0","[1624]","1","3","","","16389","145","1","2","win","no-go","0"
"pit-trial","265","1451313","0.0-151.0","battery-v0.2","","""event"",""trial"",""time""
""fullscreenenter"",""1"",""2577""
","
","
","""event"",""trial"",""time""
""fullscreenenter"",""1"",""2577""
","
