"trial_type","trial_index","time_elapsed","internal_node_id","task_version","subject_id","interactions","blur_events","focus_events","fullscreenenter_events","fullscreenexit_events","success","view_history","rt","responses","num_errors","age","subject","participantId","rune","rune_set","hex","correct","choice","accuracy","outcome","keys","total_keys","block","practice","value","sub","trial","stimulus","robot","valence","action","sham"
"pavlovia","0","20","0.0-0.0","battery-v0.2","","""event"",""trial"",""time""
""fullscreenenter"",""1"",""3199""
","
","
","""event"",""trial"",""time""
""fullscreenenter"",""1"",""3199""
","
","","","","","","","","","","","","","","","","","","","","","","","","","","",""
"fullscreen","1","4159","0.0-1.0","battery-v0.2","","""event"",""trial"",""time""
""fullscreenenter"",""1"",""3199""
","
","
","""event"",""trial"",""time""
""fullscreenenter"",""1"",""3199""
","
","true","","","","","","","","","","","","","","","","","","","","","","","","","",""
"pit-instructions","2","10635","0.0-2.0-0.0","battery-v0.2","","""event"",""trial"",""time""
""fullscreenenter"",""1"",""3199""
","
","
","""event"",""trial"",""time""
""fullscreenenter"",""1"",""3199""
","
","","[{""page_index"":0,""viewing_time"":6469.099999964237}]","6470.799999952316","","","","","","","","","","","","","","","","","","","","","","","",""
"pit-comprehension","3","18141","0.0-2.0-1.0-0.0","battery-v0.2","","""event"",""trial"",""time""
""fullscreenenter"",""1"",""3199""
","
","
","""event"",""trial"",""time""
""fullscreenenter"",""1"",""3199""
","
","","","7497.600000023842","[""shark""]","0","12","20729","7696","","","","","","","","","","","","","","","","","","",""
"pit-instructions","4","19749","0.0-2.0-1.0-1.0","battery-v0.2","","""event"",""trial"",""time""
""fullscreenenter"",""1"",""3199""
","
","
","""event"",""trial"",""time""
""fullscreenenter"",""1"",""3199""
","
","","[{""page_index"":0,""viewing_time"":1585.2999999523163}]","1585.8999999761581","","","","","","","","","","","","","","","","","","","","","","","",""
"pit-comprehension","5","22987","0.0-2.0-2.0-0.0","battery-v0.2","","""event"",""trial"",""time""
""fullscreenenter"",""1"",""3199""
","
","
","""event"",""trial"",""time""
""fullscreenenter"",""1"",""3199""
","
","","","3230.7999999523163","[""tiger""]","0","12","20729","7696","","","","","","","","","","","","","","","","","","",""
"pit-instructions","6","24306","0.0-2.0-2.0-1.0","battery-v0.2","","""event"",""trial"",""time""
""fullscreenenter"",""1"",""3199""
","
","
","""event"",""trial"",""time""
""fullscreenenter"",""1"",""3199""
","
","","[{""page_index"":0,""viewing_time"":1312.9000000357628}]","1313.5","","","","","","","","","","","","","","","","","","","","","","","",""
"pit-instructions","7","132316","0.0-2.0-3.0","battery-v0.2","","""event"",""trial"",""time""
""fullscreenenter"",""1"",""3199""
","
","
","""event"",""trial"",""time""
""fullscreenenter"",""1"",""3199""
","
","","[{""page_index"":0,""viewing_time"":8283.800000011921},{""page_index"":1,""viewing_time"":6432.300000011921},{""page_index"":2,""viewing_time"":8303},{""page_index"":3,""viewing_time"":7423.199999988079},{""page_index"":4,""viewing_time"":7782.199999988079},{""page_index"":5,""viewing_time"":7553.300000011921},{""page_index"":6,""viewing_time"":9103.400000035763},{""page_index"":7,""viewing_time"":7339.099999964237},{""page_index"":8,""viewing_time"":7610.100000023842},{""page_index"":9,""viewing_time"":8413.099999964237},{""page_index"":10,""viewing_time"":7062.300000011921},{""page_index"":11,""viewing_time"":8898.800000011921},{""page_index"":12,""viewing_time"":8145.800000011921},{""page_index"":13,""viewing_time"":5651.300000011921}]","108002.80000001192","","","","","","","","","","","","","","","","","","","","","","","",""
"pit-trial","8","135989","0.0-2.0-4.0-0.0","battery-v0.2","","""event"",""trial"",""time""
""fullscreenenter"",""1"",""3199""
","
","
","""event"",""trial"",""time""
""fullscreenenter"",""1"",""3199""
","
","","","804.8999999761581","","","12","20729","7696","&#9784;","elianto","#FFFFF080"," "," ","1","&#10004","[1657.199999988079]","1","0","0","","","","","","","",""
"pit-trial","9","139653","0.0-2.0-4.1-0.1","battery-v0.2","","""event"",""trial"",""time""
""fullscreenenter"",""1"",""3199""
","
","
","""event"",""trial"",""time""
""fullscreenenter"",""1"",""3199""
","
","","","794.8999999761581","","","12","20729","7696","&#9784;","elianto","#FFFFF080"," "," ","1","&#10004","[1650]","1","0","0","","","","","","","",""
"pit-trial","10","143128","0.0-2.0-4.2-0.2","battery-v0.2","","""event"",""trial"",""time""
""fullscreenenter"",""1"",""3199""
","
","
","""event"",""trial"",""time""
""fullscreenenter"",""1"",""3199""
","
","","","606.6000000238419","","","12","20729","7696","&#9784;","elianto","#FFFFF080"," "," ","1","&#10004","[1461.199999988079]","1","0","0","","","","","","","",""
"pit-trial","11","146571","0.0-2.0-4.3-0.3","battery-v0.2","","""event"",""trial"",""time""
""fullscreenenter"",""1"",""3199""
","
","
","""event"",""trial"",""time""
""fullscreenenter"",""1"",""3199""
","
","","","575.6999999880791","","","12","20729","7696","&#9784;","elianto","#FFFFF080"," "," ","1","&#10004","[1426.699999988079]","1","0","0","","","","","","","",""
"pit-trial","12","150056","0.0-2.0-4.4-0.4","battery-v0.2","","""event"",""trial"",""time""
""fullscreenenter"",""1"",""3199""
","
","
","""event"",""trial"",""time""
""fullscreenenter"",""1"",""3199""
","
","","","627.1000000238419","","","12","20729","7696","&#9784;","elianto","#FFFFF080"," "," ","1","&#10004","[1478.5]","1","0","0","","","","","","","",""
"pit-instructions","13","174339","0.0-2.0-5.0","battery-v0.2","","""event"",""trial"",""time""
""fullscreenenter"",""1"",""3199""
","
","
","""event"",""trial"",""time""
""fullscreenenter"",""1"",""3199""
","
","","[{""page_index"":0,""viewing_time"":7332.699999988079},{""page_index"":1,""viewing_time"":7429},{""page_index"":2,""viewing_time"":4480},{""page_index"":3,""viewing_time"":5036}]","24278.5","","","","","","","","","","","","","","","","","","","","","","","",""
"pit-trial","14","179217","0.0-2.0-6.0-0.0","battery-v0.2","","""event"",""trial"",""time""
""fullscreenenter"",""1"",""3199""
","
","
","""event"",""trial"",""time""
""fullscreenenter"",""1"",""3199""
","
","","","-1","","","12","20729","7696","&#9854;","elianto","#FFFFF080","-1","-1","1","&#10004","[]","0","0","1","","","","","","","",""
"pit-trial","15","184092","0.0-2.0-6.1-0.1","battery-v0.2","","""event"",""trial"",""time""
""fullscreenenter"",""1"",""3199""
","
","
","""event"",""trial"",""time""
""fullscreenenter"",""1"",""3199""
","
","","","-1","","","12","20729","7696","&#9854;","elianto","#FFFFF080","-1","-1","1","&#10004","[]","0","0","1","","","","","","","",""
"pit-trial","16","188960","0.0-2.0-6.2-0.2","battery-v0.2","","""event"",""trial"",""time""
""fullscreenenter"",""1"",""3199""
","
","
","""event"",""trial"",""time""
""fullscreenenter"",""1"",""3199""
","
","","","-1","","","12","20729","7696","&#9854;","elianto","#FFFFF080","-1","-1","1","&#10004","[]","0","0","1","","","","","","","",""
"pit-trial","17","193825","0.0-2.0-6.3-0.3","battery-v0.2","","""event"",""trial"",""time""
""fullscreenenter"",""1"",""3199""
","
","
","""event"",""trial"",""time""
""fullscreenenter"",""1"",""3199""
","
","","","-1","","","12","20729","7696","&#9854;","elianto","#FFFFF080","-1","-1","1","&#10004","[]","0","0","1","","","","","","","",""
"pit-trial","18","198696","0.0-2.0-6.4-0.4","battery-v0.2","","""event"",""trial"",""time""
""fullscreenenter"",""1"",""3199""
","
","
","""event"",""trial"",""time""
""fullscreenenter"",""1"",""3199""
","
","","","-1","","","12","20729","7696","&#9854;","elianto","#FFFFF080","-1","-1","1","&#10004","[]","0","0","1","","","","","","","",""
"pit-instructions","19","329048","0.0-2.0-7.0","battery-v0.2","","""event"",""trial"",""time""
""fullscreenenter"",""1"",""3199""
","
","
","""event"",""trial"",""time""
""fullscreenenter"",""1"",""3199""
","
","","[{""page_index"":0,""viewing_time"":6042.200000047684},{""page_index"":1,""viewing_time"":7118.599999964237},{""page_index"":2,""viewing_time"":6242.600000023842},{""page_index"":3,""viewing_time"":7590.099999964237},{""page_index"":4,""viewing_time"":5058.100000023842},{""page_index"":5,""viewing_time"":5065.399999976158},{""page_index"":6,""viewing_time"":5698.5},{""page_index"":7,""viewing_time"":7573.300000011921},{""page_index"":8,""viewing_time"":9821.5},{""page_index"":9,""viewing_time"":7300.400000035763},{""page_index"":10,""viewing_time"":8840.899999976158},{""page_index"":11,""viewing_time"":6787.699999988079},{""page_index"":12,""viewing_time"":9886.100000023842},{""page_index"":13,""viewing_time"":7569.899999976158},{""page_index"":14,""viewing_time"":7510.600000023842},{""page_index"":15,""viewing_time"":8236.699999988079},{""page_index"":16,""viewing_time"":6962.600000023842},{""page_index"":17,""viewing_time"":7040.599999964237}]","130346.80000001192","","","","","","","","","","","","","","","","","","","","","","","",""
"pit-trial","20","332850","0.0-2.0-8.0-0.0","battery-v0.2","","""event"",""trial"",""time""
""fullscreenenter"",""1"",""3199""
","
","
","""event"",""trial"",""time""
""fullscreenenter"",""1"",""3199""
","
","","","932.3000000119209","","","12","20729","7696","&#9776;","elianto","#3366ff99"," "," ","1","+10","[1784.1000000238419]","1","0","1","","","","","","","",""
"pit-trial","21","336527","0.0-2.0-8.0-1.0","battery-v0.2","","""event"",""trial"",""time""
""fullscreenenter"",""1"",""3199""
","
","
","""event"",""trial"",""time""
""fullscreenenter"",""1"",""3199""
","
","","","807.8999999761581","","","12","20729","7696","&#9776;","elianto","#3366ff99"," "," ","1","+10","[1661.3999999761581]","1","0","1","","","","","","","",""
"pit-trial","22","339919","0.0-2.0-8.0-2.0","battery-v0.2","","""event"",""trial"",""time""
""fullscreenenter"",""1"",""3199""
","
","
","""event"",""trial"",""time""
""fullscreenenter"",""1"",""3199""
","
","","","536.1999999880791","","","12","20729","7696","&#9776;","elianto","#3366ff99"," "," ","1","+10","[1386.4000000357628]","1","0","1","","","","","","","",""
"pit-trial","23","343285","0.0-2.0-8.0-3.0","battery-v0.2","","""event"",""trial"",""time""
""fullscreenenter"",""1"",""3199""
","
","
","""event"",""trial"",""time""
""fullscreenenter"",""1"",""3199""
","
","","","496.5999999642372","","","12","20729","7696","&#9776;","elianto","#3366ff99"," "," ","1","0","[1346.5999999642372]","1","0","1","","","","","","","",""
"pit-trial","24","346606","0.0-2.0-8.0-4.0","battery-v0.2","","""event"",""trial"",""time""
""fullscreenenter"",""1"",""3199""
","
","
","""event"",""trial"",""time""
""fullscreenenter"",""1"",""3199""
","
","","","458.9000000357628","","","12","20729","7696","&#9776;","elianto","#3366ff99"," "," ","1","+10","[1309.0999999642372]","1","0","1","","","","","","","",""
"pit-trial","25","349919","0.0-2.0-8.1-0.1","battery-v0.2","","""event"",""trial"",""time""
""fullscreenenter"",""1"",""3199""
","
","
","""event"",""trial"",""time""
""fullscreenenter"",""1"",""3199""
","
","","","451.5","","","12","20729","7696","&#9776;","elianto","#3366ff99"," "," ","1","+10","[1305.6000000238419]","1","0","1","","","","","","","",""
"pit-trial","26","353155","0.0-2.0-8.1-1.1","battery-v0.2","","""event"",""trial"",""time""
""fullscreenenter"",""1"",""3199""
","
","
","""event"",""trial"",""time""
""fullscreenenter"",""1"",""3199""
","
","","","371.5","","","12","20729","7696","&#9776;","elianto","#3366ff99"," "," ","1","+10","[1225.5]","1","0","1","","","","","","","",""
"pit-trial","27","356592","0.0-2.0-8.1-2.1","battery-v0.2","","""event"",""trial"",""time""
""fullscreenenter"",""1"",""3199""
","
","
","""event"",""trial"",""time""
""fullscreenenter"",""1"",""3199""
","
","","","569","","","12","20729","7696","&#9776;","elianto","#3366ff99"," "," ","1","+10","[1419.3999999761581]","1","0","1","","","","","","","",""
"pit-trial","28","360162","0.0-2.0-8.1-3.1","battery-v0.2","","""event"",""trial"",""time""
""fullscreenenter"",""1"",""3199""
","
","
","""event"",""trial"",""time""
""fullscreenenter"",""1"",""3199""
","
","","","706.5","","","12","20729","7696","&#9776;","elianto","#3366ff99"," "," ","1","0","[1563.199999988079]","1","0","1","","","","","","","",""
"pit-trial","29","363536","0.0-2.0-8.1-4.1","battery-v0.2","","""event"",""trial"",""time""
""fullscreenenter"",""1"",""3199""
","
","
","""event"",""trial"",""time""
""fullscreenenter"",""1"",""3199""
","
","","","509.9000000357628","","","12","20729","7696","&#9776;","elianto","#3366ff99"," "," ","1","+10","[1362.5]","1","0","1","","","","","","","",""
"pit-trial","30","366831","0.0-2.0-8.2-0.2","battery-v0.2","","""event"",""trial"",""time""
""fullscreenenter"",""1"",""3199""
","
","
","""event"",""trial"",""time""
""fullscreenenter"",""1"",""3199""
","
","","","431.60000002384186","","","12","20729","7696","&#9776;","elianto","#3366ff99"," "," ","1","+10","[1286.4000000357628]","1","0","1","","","","","","","",""
"pit-trial","31","370173","0.0-2.0-8.2-1.2","battery-v0.2","","""event"",""trial"",""time""
""fullscreenenter"",""1"",""3199""
","
","
","""event"",""trial"",""time""
""fullscreenenter"",""1"",""3199""
","
","","","479","","","12","20729","7696","&#9776;","elianto","#3366ff99"," "," ","1","+10","[1334.800000011921]","1","0","1","","","","","","","",""
"pit-trial","32","373768","0.0-2.0-8.2-2.2","battery-v0.2","","""event"",""trial"",""time""
""fullscreenenter"",""1"",""3199""
","
","
","""event"",""trial"",""time""
""fullscreenenter"",""1"",""3199""
","
","","","740.9000000357628","","","12","20729","7696","&#9776;","elianto","#3366ff99"," "," ","1","+10","[1591.0999999642372]","1","0","1","","","","","","","",""
"pit-trial","33","377066","0.0-2.0-8.2-3.2","battery-v0.2","","""event"",""trial"",""time""
""fullscreenenter"",""1"",""3199""
","
","
","""event"",""trial"",""time""
""fullscreenenter"",""1"",""3199""
","
","","","444.89999997615814","","","12","20729","7696","&#9776;","elianto","#3366ff99"," "," ","1","0","[1295.0999999642372]","1","0","1","","","","","","","",""
"pit-trial","34","380241","0.0-2.0-8.2-4.2","battery-v0.2","","""event"",""trial"",""time""
""fullscreenenter"",""1"",""3199""
","
","
","""event"",""trial"",""time""
""fullscreenenter"",""1"",""3199""
","
","","","311.5","","","12","20729","7696","&#9776;","elianto","#3366ff99"," "," ","1","+10","[1162.199999988079]","1","0","1","","","","","","","",""
"call-function","35","380243","0.0-2.0-9.0","battery-v0.2","","""event"",""trial"",""time""
""fullscreenenter"",""1"",""3199""
","
","
","""event"",""trial"",""time""
""fullscreenenter"",""1"",""3199""
","
","","","","","","","","","","","","","","","","","","","","","","","","","","",""
"pit-instructions","36","423431","0.0-2.0-10.0","battery-v0.2","","""event"",""trial"",""time""
""fullscreenenter"",""1"",""3199""
","
","
","""event"",""trial"",""time""
""fullscreenenter"",""1"",""3199""
","
","","[{""page_index"":0,""viewing_time"":9407.600000023842},{""page_index"":1,""viewing_time"":6484.199999988079},{""page_index"":2,""viewing_time"":9334.199999988079},{""page_index"":3,""viewing_time"":10465.699999988079},{""page_index"":4,""viewing_time"":7494.600000023842}]","43187","","","","","","","","","","","","","","","","","","","","","","","",""
"pit-trial","37","428297","0.0-2.0-11.0-0.0","battery-v0.2","","""event"",""trial"",""time""
""fullscreenenter"",""1"",""3199""
","
","
","""event"",""trial"",""time""
""fullscreenenter"",""1"",""3199""
","
","","","-1","","","12","20729","7696","&#9761;","elianto","#3366ff99","-1","-1","1","+10","[]","0","0","2","","","","","","","",""
"pit-trial","38","433165","0.0-2.0-11.0-1.0","battery-v0.2","","""event"",""trial"",""time""
""fullscreenenter"",""1"",""3199""
","
","
","""event"",""trial"",""time""
""fullscreenenter"",""1"",""3199""
","
","","","-1","","","12","20729","7696","&#9761;","elianto","#3366ff99","-1","-1","1","+10","[]","0","0","2","","","","","","","",""
"pit-trial","39","438042","0.0-2.0-11.0-2.0","battery-v0.2","","""event"",""trial"",""time""
""fullscreenenter"",""1"",""3199""
","
","
","""event"",""trial"",""time""
""fullscreenenter"",""1"",""3199""
","
","","","-1","","","12","20729","7696","&#9761;","elianto","#3366ff99","-1","-1","1","+10","[]","0","0","2","","","","","","","",""
"pit-trial","40","442922","0.0-2.0-11.0-3.0","battery-v0.2","","""event"",""trial"",""time""
""fullscreenenter"",""1"",""3199""
","
","
","""event"",""trial"",""time""
""fullscreenenter"",""1"",""3199""
","
","","","-1","","","12","20729","7696","&#9761;","elianto","#3366ff99","-1","-1","1","0","[]","0","0","2","","","","","","","",""
"pit-trial","41","447797","0.0-2.0-11.0-4.0","battery-v0.2","","""event"",""trial"",""time""
""fullscreenenter"",""1"",""3199""
","
","
","""event"",""trial"",""time""
""fullscreenenter"",""1"",""3199""
","
","","","-1","","","12","20729","7696","&#9761;","elianto","#3366ff99","-1","-1","1","+10","[]","0","0","2","","","","","","","",""
"pit-trial","42","452671","0.0-2.0-11.1-0.1","battery-v0.2","","""event"",""trial"",""time""
""fullscreenenter"",""1"",""3199""
","
","
","""event"",""trial"",""time""
""fullscreenenter"",""1"",""3199""
","
","","","-1","","","12","20729","7696","&#9761;","elianto","#3366ff99","-1","-1","1","+10","[]","0","0","2","","","","","","","",""
"pit-trial","43","457538","0.0-2.0-11.1-1.1","battery-v0.2","","""event"",""trial"",""time""
""fullscreenenter"",""1"",""3199""
","
","
","""event"",""trial"",""time""
""fullscreenenter"",""1"",""3199""
","
","","","-1","","","12","20729","7696","&#9761;","elianto","#3366ff99","-1","-1","1","+10","[]","0","0","2","","","","","","","",""
"pit-trial","44","462406","0.0-2.0-11.1-2.1","battery-v0.2","","""event"",""trial"",""time""
""fullscreenenter"",""1"",""3199""
","
","
","""event"",""trial"",""time""
""fullscreenenter"",""1"",""3199""
","
","","","-1","","","12","20729","7696","&#9761;","elianto","#3366ff99","-1","-1","1","+10","[]","0","0","2","","","","","","","",""
"pit-trial","45","467280","0.0-2.0-11.1-3.1","battery-v0.2","","""event"",""trial"",""time""
""fullscreenenter"",""1"",""3199""
","
","
","""event"",""trial"",""time""
""fullscreenenter"",""1"",""3199""
","
","","","-1","","","12","20729","7696","&#9761;","elianto","#3366ff99","-1","-1","1","0","[]","0","0","2","","","","","","","",""
"pit-trial","46","472155","0.0-2.0-11.1-4.1","battery-v0.2","","""event"",""trial"",""time""
""fullscreenenter"",""1"",""3199""
","
","
","""event"",""trial"",""time""
""fullscreenenter"",""1"",""3199""
","
","","","-1","","","12","20729","7696","&#9761;","elianto","#3366ff99","-1","-1","1","+10","[]","0","0","2","","","","","","","",""
"pit-trial","47","477026","0.0-2.0-11.2-0.2","battery-v0.2","","""event"",""trial"",""time""
""fullscreenenter"",""1"",""3199""
","
","
","""event"",""trial"",""time""
""fullscreenenter"",""1"",""3199""
","
","","","-1","","","12","20729","7696","&#9761;","elianto","#3366ff99","-1","-1","1","+10","[]","0","0","2","","","","","","","",""
"pit-trial","48","481902","0.0-2.0-11.2-1.2","battery-v0.2","","""event"",""trial"",""time""
""fullscreenenter"",""1"",""3199""
","
","
","""event"",""trial"",""time""
""fullscreenenter"",""1"",""3199""
","
","","","-1","","","12","20729","7696","&#9761;","elianto","#3366ff99","-1","-1","1","+10","[]","0","0","2","","","","","","","",""
"pit-trial","49","486778","0.0-2.0-11.2-2.2","battery-v0.2","","""event"",""trial"",""time""
""fullscreenenter"",""1"",""3199""
","
","
","""event"",""trial"",""time""
""fullscreenenter"",""1"",""3199""
","
","","","-1","","","12","20729","7696","&#9761;","elianto","#3366ff99","-1","-1","1","+10","[]","0","0","2","","","","","","","",""
"pit-trial","50","491647","0.0-2.0-11.2-3.2","battery-v0.2","","""event"",""trial"",""time""
""fullscreenenter"",""1"",""3199""
","
","
","""event"",""trial"",""time""
""fullscreenenter"",""1"",""3199""
","
","","","-1","","","12","20729","7696","&#9761;","elianto","#3366ff99","-1","-1","1","0","[]","0","0","2","","","","","","","",""
"pit-trial","51","496524","0.0-2.0-11.2-4.2","battery-v0.2","","""event"",""trial"",""time""
""fullscreenenter"",""1"",""3199""
","
","
","""event"",""trial"",""time""
""fullscreenenter"",""1"",""3199""
","
","","","-1","","","12","20729","7696","&#9761;","elianto","#3366ff99","-1","-1","1","+10","[]","0","0","2","","","","","","","",""
"pit-trial","52","501401","0.0-2.0-11.3-0.3","battery-v0.2","","""event"",""trial"",""time""
""fullscreenenter"",""1"",""3199""
","
","
","""event"",""trial"",""time""
""fullscreenenter"",""1"",""3199""
","
","","","-1","","","12","20729","7696","&#9761;","elianto","#3366ff99","-1","-1","1","+10","[]","0","0","2","","","","","","","",""
"pit-trial","53","506263","0.0-2.0-11.3-1.3","battery-v0.2","","""event"",""trial"",""time""
""fullscreenenter"",""1"",""3199""
","
","
","""event"",""trial"",""time""
""fullscreenenter"",""1"",""3199""
","
","","","-1","","","12","20729","7696","&#9761;","elianto","#3366ff99","-1","-1","1","+10","[]","0","0","2","","","","","","","",""
"pit-trial","54","511130","0.0-2.0-11.3-2.3","battery-v0.2","","""event"",""trial"",""time""
""fullscreenenter"",""1"",""3199""
","
","
","""event"",""trial"",""time""
""fullscreenenter"",""1"",""3199""
","
","","","-1","","","12","20729","7696","&#9761;","elianto","#3366ff99","-1","-1","1","+10","[]","0","0","2","","","","","","","",""
"pit-trial","55","515999","0.0-2.0-11.3-3.3","battery-v0.2","","""event"",""trial"",""time""
""fullscreenenter"",""1"",""3199""
","
","
","""event"",""trial"",""time""
""fullscreenenter"",""1"",""3199""
","
","","","-1","","","12","20729","7696","&#9761;","elianto","#3366ff99","-1","-1","1","0","[]","0","0","2","","","","","","","",""
"pit-trial","56","520872","0.0-2.0-11.3-4.3","battery-v0.2","","""event"",""trial"",""time""
""fullscreenenter"",""1"",""3199""
","
","
","""event"",""trial"",""time""
""fullscreenenter"",""1"",""3199""
","
","","","-1","","","12","20729","7696","&#9761;","elianto","#3366ff99","-1","-1","1","+10","[]","0","0","2","","","","","","","",""
"call-function","57","520874","0.0-2.0-12.0","battery-v0.2","","""event"",""trial"",""time""
""fullscreenenter"",""1"",""3199""
","
","
","""event"",""trial"",""time""
""fullscreenenter"",""1"",""3199""
","
","","","","","","","","","","","","","","","","","","","","","","","","","","",""
"pit-instructions","58","558312","0.0-2.0-13.0","battery-v0.2","","""event"",""trial"",""time""
""fullscreenenter"",""1"",""3199""
","
","
","""event"",""trial"",""time""
""fullscreenenter"",""1"",""3199""
","
","","[{""page_index"":0,""viewing_time"":10055.5},{""page_index"":1,""viewing_time"":8148.399999976158},{""page_index"":2,""viewing_time"":3899.800000011921},{""page_index"":3,""viewing_time"":10476},{""page_index"":4,""viewing_time"":4855.800000011921}]","37436.19999998808","","","","","","","","","","","","","","","","","","","","","","","",""
"pit-trial","59","561673","0.0-2.0-14.0-0.0","battery-v0.2","","""event"",""trial"",""time""
""fullscreenenter"",""1"",""3199""
","
","
","""event"",""trial"",""time""
""fullscreenenter"",""1"",""3199""
","
","","","494.5","","","12","20729","7696","&#9826;","elianto","#f73b6a7A","-1"," ","0","-10","[1352.3999999761581]","1","0","3","","","","","","","",""
"pit-trial","60","566537","0.0-2.0-14.0-1.0","battery-v0.2","","""event"",""trial"",""time""
""fullscreenenter"",""1"",""3199""
","
","
","""event"",""trial"",""time""
""fullscreenenter"",""1"",""3199""
","
","","","-1","","","12","20729","7696","&#9826;","elianto","#f73b6a7A","-1","-1","1","0","[]","0","0","3","","","","","","","",""
"pit-trial","61","571409","0.0-2.0-14.0-2.0","battery-v0.2","","""event"",""trial"",""time""
""fullscreenenter"",""1"",""3199""
","
","
","""event"",""trial"",""time""
""fullscreenenter"",""1"",""3199""
","
","","","-1","","","12","20729","7696","&#9826;","elianto","#f73b6a7A","-1","-1","1","0","[]","0","0","3","","","","","","","",""
"pit-trial","62","576280","0.0-2.0-14.0-3.0","battery-v0.2","","""event"",""trial"",""time""
""fullscreenenter"",""1"",""3199""
","
","
","""event"",""trial"",""time""
""fullscreenenter"",""1"",""3199""
","
","","","-1","","","12","20729","7696","&#9826;","elianto","#f73b6a7A","-1","-1","1","-10","[]","0","0","3","","","","","","","",""
"pit-trial","63","581159","0.0-2.0-14.0-4.0","battery-v0.2","","""event"",""trial"",""time""
""fullscreenenter"",""1"",""3199""
","
","
","""event"",""trial"",""time""
""fullscreenenter"",""1"",""3199""
","
","","","-1","","","12","20729","7696","&#9826;","elianto","#f73b6a7A","-1","-1","1","0","[]","0","0","3","","","","","","","",""
"pit-trial","64","586037","0.0-2.0-14.1-0.1","battery-v0.2","","""event"",""trial"",""time""
""fullscreenenter"",""1"",""3199""
","
","
","""event"",""trial"",""time""
""fullscreenenter"",""1"",""3199""
","
","","","-1","","","12","20729","7696","&#9826;","elianto","#f73b6a7A","-1","-1","1","0","[]","0","0","3","","","","","","","",""
"pit-trial","65","590911","0.0-2.0-14.1-1.1","battery-v0.2","","""event"",""trial"",""time""
""fullscreenenter"",""1"",""3199""
","
","
","""event"",""trial"",""time""
""fullscreenenter"",""1"",""3199""
","
","","","-1","","","12","20729","7696","&#9826;","elianto","#f73b6a7A","-1","-1","1","0","[]","0","0","3","","","","","","","",""
"pit-trial","66","595779","0.0-2.0-14.1-2.1","battery-v0.2","","""event"",""trial"",""time""
""fullscreenenter"",""1"",""3199""
","
","
","""event"",""trial"",""time""
""fullscreenenter"",""1"",""3199""
","
","","","-1","","","12","20729","7696","&#9826;","elianto","#f73b6a7A","-1","-1","1","0","[]","0","0","3","","","","","","","",""
"pit-trial","67","600639","0.0-2.0-14.1-3.1","battery-v0.2","","""event"",""trial"",""time""
""fullscreenenter"",""1"",""3199""
","
","
","""event"",""trial"",""time""
""fullscreenenter"",""1"",""3199""
","
","","","-1","","","12","20729","7696","&#9826;","elianto","#f73b6a7A","-1","-1","1","-10","[]","0","0","3","","","","","","","",""
"pit-trial","68","605509","0.0-2.0-14.1-4.1","battery-v0.2","","""event"",""trial"",""time""
""fullscreenenter"",""1"",""3199""
","
","
","""event"",""trial"",""time""
""fullscreenenter"",""1"",""3199""
","
","","","-1","","","12","20729","7696","&#9826;","elianto","#f73b6a7A","-1","-1","1","0","[]","0","0","3","","","","","","","",""
"pit-trial","69","610380","0.0-2.0-14.2-0.2","battery-v0.2","","""event"",""trial"",""time""
""fullscreenenter"",""1"",""3199""
","
","
","""event"",""trial"",""time""
""fullscreenenter"",""1"",""3199""
","
","","","-1","","","12","20729","7696","&#9826;","elianto","#f73b6a7A","-1","-1","1","0","[]","0","0","3","","","","","","","",""
"pit-trial","70","615238","0.0-2.0-14.2-1.2","battery-v0.2","","""event"",""trial"",""time""
""fullscreenenter"",""1"",""3199""
","
","
","""event"",""trial"",""time""
""fullscreenenter"",""1"",""3199""
","
","","","-1","","","12","20729","7696","&#9826;","elianto","#f73b6a7A","-1","-1","1","0","[]","0","0","3","","","","","","","",""
"pit-trial","71","620113","0.0-2.0-14.2-2.2","battery-v0.2","","""event"",""trial"",""time""
""fullscreenenter"",""1"",""3199""
","
","
","""event"",""trial"",""time""
""fullscreenenter"",""1"",""3199""
","
","","","-1","","","12","20729","7696","&#9826;","elianto","#f73b6a7A","-1","-1","1","0","[]","0","0","3","","","","","","","",""
"pit-trial","72","624987","0.0-2.0-14.2-3.2","battery-v0.2","","""event"",""trial"",""time""
""fullscreenenter"",""1"",""3199""
","
","
","""event"",""trial"",""time""
""fullscreenenter"",""1"",""3199""
","
","","","-1","","","12","20729","7696","&#9826;","elianto","#f73b6a7A","-1","-1","1","-10","[]","0","0","3","","","","","","","",""
"pit-trial","73","629852","0.0-2.0-14.2-4.2","battery-v0.2","","""event"",""trial"",""time""
""fullscreenenter"",""1"",""3199""
","
","
","""event"",""trial"",""time""
""fullscreenenter"",""1"",""3199""
","
","","","-1","","","12","20729","7696","&#9826;","elianto","#f73b6a7A","-1","-1","1","0","[]","0","0","3","","","","","","","",""
"pit-trial","74","634729","0.0-2.0-14.3-0.3","battery-v0.2","","""event"",""trial"",""time""
""fullscreenenter"",""1"",""3199""
","
","
","""event"",""trial"",""time""
""fullscreenenter"",""1"",""3199""
","
","","","-1","","","12","20729","7696","&#9826;","elianto","#f73b6a7A","-1","-1","1","0","[]","0","0","3","","","","","","","",""
"pit-trial","75","639591","0.0-2.0-14.3-1.3","battery-v0.2","","""event"",""trial"",""time""
""fullscreenenter"",""1"",""3199""
","
","
","""event"",""trial"",""time""
""fullscreenenter"",""1"",""3199""
","
","","","-1","","","12","20729","7696","&#9826;","elianto","#f73b6a7A","-1","-1","1","0","[]","0","0","3","","","","","","","",""
"pit-trial","76","644462","0.0-2.0-14.3-2.3","battery-v0.2","","""event"",""trial"",""time""
""fullscreenenter"",""1"",""3199""
","
","
","""event"",""trial"",""time""
""fullscreenenter"",""1"",""3199""
","
","","","-1","","","12","20729","7696","&#9826;","elianto","#f73b6a7A","-1","-1","1","0","[]","0","0","3","","","","","","","",""
"pit-trial","77","649326","0.0-2.0-14.3-3.3","battery-v0.2","","""event"",""trial"",""time""
""fullscreenenter"",""1"",""3199""
","
","
","""event"",""trial"",""time""
""fullscreenenter"",""1"",""3199""
","
","","","-1","","","12","20729","7696","&#9826;","elianto","#f73b6a7A","-1","-1","1","-10","[]","0","0","3","","","","","","","",""
"pit-trial","78","654189","0.0-2.0-14.3-4.3","battery-v0.2","","""event"",""trial"",""time""
""fullscreenenter"",""1"",""3199""
","
","
","""event"",""trial"",""time""
""fullscreenenter"",""1"",""3199""
","
","","","-1","","","12","20729","7696","&#9826;","elianto","#f73b6a7A","-1","-1","1","0","[]","0","0","3","","","","","","","",""
"call-function","79","654191","0.0-2.0-15.0","battery-v0.2","","""event"",""trial"",""time""
""fullscreenenter"",""1"",""3199""
","
","
","""event"",""trial"",""time""
""fullscreenenter"",""1"",""3199""
","
","","","","","","","","","","","","","","","","","","","","","","","","","","",""
"pit-instructions","80","679612","0.0-2.0-16.0","battery-v0.2","","""event"",""trial"",""time""
""fullscreenenter"",""1"",""3199""
","
","
","""event"",""trial"",""time""
""fullscreenenter"",""1"",""3199""
","
","","[{""page_index"":0,""viewing_time"":6710.699999988079},{""page_index"":1,""viewing_time"":9277.900000035763},{""page_index"":2,""viewing_time"":4328.699999988079},{""page_index"":3,""viewing_time"":5101.899999976158}]","25419.900000035763","","","","","","","","","","","","","","","","","","","","","","","",""
"pit-trial","81","682907","0.0-2.0-17.0-0.0","battery-v0.2","","""event"",""trial"",""time""
""fullscreenenter"",""1"",""3199""
","
","
","""event"",""trial"",""time""
""fullscreenenter"",""1"",""3199""
","
","","","429.39999997615814","","","12","20729","7696","&#9789;","elianto","#f73b6a7A"," "," ","1","0","[1285.800000011921]","1","0","4","","","","","","","",""
"pit-trial","82","685961","0.0-2.0-17.0-1.0","battery-v0.2","","""event"",""trial"",""time""
""fullscreenenter"",""1"",""3199""
","
","
","""event"",""trial"",""time""
""fullscreenenter"",""1"",""3199""
","
","","","187.39999997615814","","","12","20729","7696","&#9789;","elianto","#f73b6a7A"," "," ","1","0","[1045.199999988079,1281.1000000238419,1797.4000000357628,2753.199999988079]","4","0","4","","","","","","","",""
"pit-trial","83","689663","0.0-2.0-17.0-2.0","battery-v0.2","","""event"",""trial"",""time""
""fullscreenenter"",""1"",""3199""
","
","
","""event"",""trial"",""time""
""fullscreenenter"",""1"",""3199""
","
","","","844.1999999880791","","","12","20729","7696","&#9789;","elianto","#f73b6a7A"," "," ","1","0","[1695.9000000357628]","1","0","4","","","","","","","",""
"pit-trial","84","692641","0.0-2.0-17.0-3.0","battery-v0.2","","""event"",""trial"",""time""
""fullscreenenter"",""1"",""3199""
","
","
","""event"",""trial"",""time""
""fullscreenenter"",""1"",""3199""
","
","","","115.10000002384186","","","12","20729","7696","&#9789;","elianto","#f73b6a7A"," "," ","1","-10","[726.8000000119209,965.4000000357628,1194.6000000238419,1368.2000000476837,1591.6000000238419,1801.300000011921,1991.800000011921,2216.2000000476837,2424.2000000476837,2635.2000000476837,2857.400000035763]","11","0","4","","","","","","","",""
"pit-trial","85","695642","0.0-2.0-17.0-4.0","battery-v0.2","","""event"",""trial"",""time""
""fullscreenenter"",""1"",""3199""
","
","
","""event"",""trial"",""time""
""fullscreenenter"",""1"",""3199""
","
","","","132.30000001192093","","","12","20729","7696","&#9789;","elianto","#f73b6a7A"," "," ","1","0","[351.19999998807907,567.5999999642372,770.8000000119209,984.0999999642372,1199.5,1414,1634,1874.5,2047.300000011921,2401.5,2677.399999976158,2901.599999964237]","12","0","4","","","","","","","",""
"pit-trial","86","698503","0.0-2.0-17.1-0.1","battery-v0.2","","""event"",""trial"",""time""
""fullscreenenter"",""1"",""3199""
","
","
","""event"",""trial"",""time""
""fullscreenenter"",""1"",""3199""
","
","","","4.100000023841858","","","12","20729","7696","&#9789;","elianto","#f73b6a7A"," "," ","1","0","[73.69999998807907,271,466.5999999642372,672.1999999880791,856.3999999761581,1054.3999999761581,1256.7999999523163,1454.699999988079,1664.5,2267.699999988079,2658.399999976158]","11","0","4","","","","","","","",""
"pit-trial","87","701753","0.0-2.0-17.1-1.1","battery-v0.2","","""event"",""trial"",""time""
""fullscreenenter"",""1"",""3199""
","
","
","""event"",""trial"",""time""
""fullscreenenter"",""1"",""3199""
","
","","","380.89999997615814","","","12","20729","7696","&#9789;","elianto","#f73b6a7A"," "," ","1","0","[157.5,344.89999997615814,804.8000000119209,1232.0999999642372,1460.699999988079,1937.199999988079,2333.899999976158,2703.199999988079,3068.899999976158]","9","0","4","","","","","","","",""
"pit-trial","88","704862","0.0-2.0-17.1-2.1","battery-v0.2","","""event"",""trial"",""time""
""fullscreenenter"",""1"",""3199""
","
","
","""event"",""trial"",""time""
""fullscreenenter"",""1"",""3199""
","
","","","256.39999997615814","","","12","20729","7696","&#9789;","elianto","#f73b6a7A"," "," ","1","0","[130.10000002384186,392.69999998807907,669.3000000119209,1106.3999999761581,1279.3999999761581,1457.8999999761581,1622.699999988079,1808.300000011921,2061.399999976158,2489.5,2624.300000011921]","11","0","4","","","","","","","",""
"pit-trial","89","707861","0.0-2.0-17.1-3.1","battery-v0.2","","""event"",""trial"",""time""
""fullscreenenter"",""1"",""3199""
","
","
","""event"",""trial"",""time""
""fullscreenenter"",""1"",""3199""
","
","","","135.69999998807907","","","12","20729","7696","&#9789;","elianto","#f73b6a7A"," "," ","1","-10","[45,417,835.3999999761581,986,1386.3999999761581,1553.300000011921,1676.6000000238419,1847.800000011921,2117,2610,2831.600000023842]","11","0","4","","","","","","","",""
"pit-trial","90","710881","0.0-2.0-17.1-4.1","battery-v0.2","","""event"",""trial"",""time""
""fullscreenenter"",""1"",""3199""
","
","
","""event"",""trial"",""time""
""fullscreenenter"",""1"",""3199""
","
","","","149.30000001192093","","","12","20729","7696","&#9789;","elianto","#f73b6a7A"," "," ","1","0","[17.400000035762787,219.70000004768372,409.80000001192093,617.9000000357628,801.4000000357628,1002.8000000119209,1202.9000000357628,1393.2000000476837,1594.6000000238419,1790,1970.2000000476837,2195.5,2420.5,2747.400000035763,2966.100000023842]","15","0","4","","","","","","","",""
"pit-trial","91","713783","0.0-2.0-17.2-0.2","battery-v0.2","","""event"",""trial"",""time""
""fullscreenenter"",""1"",""3199""
","
","
","""event"",""trial"",""time""
""fullscreenenter"",""1"",""3199""
","
","","","42.40000003576279","","","12","20729","7696","&#9789;","elianto","#f73b6a7A"," "," ","1","0","[145.19999998807907,332.69999998807907,523.8000000119209,704.1000000238419,894.6000000238419,1119.699999988079,1305.199999988079,1502.5,2019.1000000238419,2263.5,2486.300000011921,2697.300000011921]","12","0","4","","","","","","","",""
"pit-trial","92","717359","0.0-2.0-17.2-1.2","battery-v0.2","","""event"",""trial"",""time""
""fullscreenenter"",""1"",""3199""
","
","
","""event"",""trial"",""time""
""fullscreenenter"",""1"",""3199""
","
","","","714.6000000238419","","","12","20729","7696","&#9789;","elianto","#f73b6a7A"," "," ","1","0","[341.30000001192093,1565.5]","2","0","4","","","","","","","",""
"pit-trial","93","720620","0.0-2.0-17.2-2.2","battery-v0.2","","""event"",""trial"",""time""
""fullscreenenter"",""1"",""3199""
","
","
","""event"",""trial"",""time""
""fullscreenenter"",""1"",""3199""
","
","","","386.5999999642372","","","12","20729","7696","&#9789;","elianto","#f73b6a7A"," "," ","1","0","[1242]","1","0","4","","","","","","","",""
"pit-trial","94","723577","0.0-2.0-17.2-3.2","battery-v0.2","","""event"",""trial"",""time""
""fullscreenenter"",""1"",""3199""
","
","
","""event"",""trial"",""time""
""fullscreenenter"",""1"",""3199""
","
","","","90.30000001192093","","","12","20729","7696","&#9789;","elianto","#f73b6a7A"," "," ","1","-10","[945]","1","0","4","","","","","","","",""
"pit-trial","95","726505","0.0-2.0-17.2-4.2","battery-v0.2","","""event"",""trial"",""time""
""fullscreenenter"",""1"",""3199""
","
","
","""event"",""trial"",""time""
""fullscreenenter"",""1"",""3199""
","
","","","67.09999996423721","","","12","20729","7696","&#9789;","elianto","#f73b6a7A"," "," ","1","0","[917.6999999880791]","1","0","4","","","","","","","",""
"pit-trial","96","729468","0.0-2.0-17.3-0.3","battery-v0.2","","""event"",""trial"",""time""
""fullscreenenter"",""1"",""3199""
","
","
","""event"",""trial"",""time""
""fullscreenenter"",""1"",""3199""
","
","","","108.19999998807907","","","12","20729","7696","&#9789;","elianto","#f73b6a7A"," "," ","1","0","[959]","1","0","4","","","","","","","",""
"pit-trial","97","732561","0.0-2.0-17.3-1.3","battery-v0.2","","""event"",""trial"",""time""
""fullscreenenter"",""1"",""3199""
","
","
","""event"",""trial"",""time""
""fullscreenenter"",""1"",""3199""
","
","","","237.4000000357628","","","12","20729","7696","&#9789;","elianto","#f73b6a7A"," "," ","1","0","[1089.4000000357628]","1","0","4","","","","","","","",""
"pit-trial","98","735891","0.0-2.0-17.3-2.3","battery-v0.2","","""event"",""trial"",""time""
""fullscreenenter"",""1"",""3199""
","
","
","""event"",""trial"",""time""
""fullscreenenter"",""1"",""3199""
","
","","","471.89999997615814","","","12","20729","7696","&#9789;","elianto","#f73b6a7A"," "," ","1","0","[1327.9000000357628]","1","0","4","","","","","","","",""
"pit-trial","99","739016","0.0-2.0-17.3-3.3","battery-v0.2","","""event"",""trial"",""time""
""fullscreenenter"",""1"",""3199""
","
","
","""event"",""trial"",""time""
""fullscreenenter"",""1"",""3199""
","
","","","256.30000001192093","","","12","20729","7696","&#9789;","elianto","#f73b6a7A"," "," ","1","-10","[1112]","1","0","4","","","","","","","",""
"pit-trial","100","742012","0.0-2.0-17.3-4.3","battery-v0.2","","""event"",""trial"",""time""
""fullscreenenter"",""1"",""3199""
","
","
","""event"",""trial"",""time""
""fullscreenenter"",""1"",""3199""
","
","","","119","","","12","20729","7696","&#9789;","elianto","#f73b6a7A"," "," ","1","0","[980]","1","0","4","","","","","","","",""
"call-function","101","742013","0.0-2.0-18.0","battery-v0.2","","""event"",""trial"",""time""
""fullscreenenter"",""1"",""3199""
","
","
","""event"",""trial"",""time""
""fullscreenenter"",""1"",""3199""
","
","","","","","","","","","","","","","","","","","","","","","","","","","","",""
"pit-instructions","102","817978","0.0-2.0-19.0","battery-v0.2","","""event"",""trial"",""time""
""fullscreenenter"",""1"",""3199""
","
","
","""event"",""trial"",""time""
""fullscreenenter"",""1"",""3199""
","
","","[{""page_index"":0,""viewing_time"":15652.199999988079},{""page_index"":1,""viewing_time"":5432.300000011921},{""page_index"":2,""viewing_time"":13496.899999976158},{""page_index"":3,""viewing_time"":8255.199999988079},{""page_index"":4,""viewing_time"":9091.400000035763},{""page_index"":5,""viewing_time"":8310.5},{""page_index"":6,""viewing_time"":7528.300000011921},{""page_index"":7,""viewing_time"":5152.799999952316},{""page_index"":8,""viewing_time"":3043.7000000476837}]","75964.59999996424","","","","","","","","","","","","","","","","","","","","","","","",""
"pit-comprehension","103","823514","0.0-2.0-20.0-0.0","battery-v0.2","","""event"",""trial"",""time""
""fullscreenenter"",""1"",""3199""
","
","
","""event"",""trial"",""time""
""fullscreenenter"",""1"",""3199""
","
","","","5527.099999964237","[""SPACE""]","0","12","20729","7696","","","","","","","","","","","","","","","","","","",""
"pit-instructions","104","826249","0.0-2.0-20.0-1.0","battery-v0.2","","""event"",""trial"",""time""
""fullscreenenter"",""1"",""3199""
","
","
","""event"",""trial"",""time""
""fullscreenenter"",""1"",""3199""
","
","","[{""page_index"":0,""viewing_time"":2651.7999999523163}]","2652.699999988079","","","","","","","","","","","","","","","","","","","","","","","",""
"pit-comprehension","105","834545","0.0-2.0-21.0-0.0","battery-v0.2","","""event"",""trial"",""time""
""fullscreenenter"",""1"",""3199""
","
","
","""event"",""trial"",""time""
""fullscreenenter"",""1"",""3199""
","
","","","8288","[""10""]","0","12","20729","7696","","","","","","","","","","","","","","","","","","",""
"pit-instructions","106","836403","0.0-2.0-21.0-1.0","battery-v0.2","","""event"",""trial"",""time""
""fullscreenenter"",""1"",""3199""
","
","
","""event"",""trial"",""time""
""fullscreenenter"",""1"",""3199""
","
","","[{""page_index"":0,""viewing_time"":1786.199999988079}]","1787.3999999761581","","","","","","","","","","","","","","","","","","","","","","","",""
"pit-comprehension","107","843058","0.0-2.0-22.0-0.0","battery-v0.2","","""event"",""trial"",""time""
""fullscreenenter"",""1"",""3199""
","
","
","""event"",""trial"",""time""
""fullscreenenter"",""1"",""3199""
","
","","","6645.800000011921","[""0""]","0","12","20729","7696","","","","","","","","","","","","","","","","","","",""
"pit-instructions","108","844959","0.0-2.0-22.0-1.0","battery-v0.2","","""event"",""trial"",""time""
""fullscreenenter"",""1"",""3199""
","
","
","""event"",""trial"",""time""
""fullscreenenter"",""1"",""3199""
","
","","[{""page_index"":0,""viewing_time"":1829.8999999761581}]","1830.5","","","","","","","","","","","","","","","","","","","","","","","",""
"pit-comprehension","109","862831","0.0-2.0-23.0-0.0","battery-v0.2","","""event"",""trial"",""time""
""fullscreenenter"",""1"",""3199""
","
","
","""event"",""trial"",""time""
""fullscreenenter"",""1"",""3199""
","
","","","17864.900000035763","[""True""]","0","12","20729","7696","","","","","","","","","","","","","","","","","","",""
"pit-instructions","110","864459","0.0-2.0-23.0-1.0","battery-v0.2","","""event"",""trial"",""time""
""fullscreenenter"",""1"",""3199""
","
","
","""event"",""trial"",""time""
""fullscreenenter"",""1"",""3199""
","
","","[{""page_index"":0,""viewing_time"":1556.8999999761581}]","1557.5","","","","","","","","","","","","","","","","","","","","","","","",""
"pit-comprehension","111","872180","0.0-2.0-24.0-0.0","battery-v0.2","","""event"",""trial"",""time""
""fullscreenenter"",""1"",""3199""
","
","
","""event"",""trial"",""time""
""fullscreenenter"",""1"",""3199""
","
","","","7713.899999976158","[""True""]","0","12","20729","7696","","","","","","","","","","","","","","","","","","",""
"pit-instructions","112","874030","0.0-2.0-24.0-1.0","battery-v0.2","","""event"",""trial"",""time""
""fullscreenenter"",""1"",""3199""
","
","
","""event"",""trial"",""time""
""fullscreenenter"",""1"",""3199""
","
","","[{""page_index"":0,""viewing_time"":1785.699999988079}]","1787.3999999761581","","","","","","","","","","","","","","","","","","","","","","","",""
"pit-comprehension","113","880694","0.0-2.0-25.0-0.0","battery-v0.2","","""event"",""trial"",""time""
""fullscreenenter"",""1"",""3199""
","
","
","""event"",""trial"",""time""
""fullscreenenter"",""1"",""3199""
","
","","","6654.800000011921","[""True""]","0","12","20729","7696","","","","","","","","","","","","","","","","","","",""
"pit-instructions","114","882366","0.0-2.0-25.0-1.0","battery-v0.2","","""event"",""trial"",""time""
""fullscreenenter"",""1"",""3199""
","
","
","""event"",""trial"",""time""
""fullscreenenter"",""1"",""3199""
","
","","[{""page_index"":0,""viewing_time"":1611.5999999642372}]","1612.5","","","","","","","","","","","","","","","","","","","","","","","",""
"pit-comprehension","115","887440","0.0-2.0-26.0-0.0","battery-v0.2","","""event"",""trial"",""time""
""fullscreenenter"",""1"",""3199""
","
","
","""event"",""trial"",""time""
""fullscreenenter"",""1"",""3199""
","
","","","5063.300000011921","[""False""]","0","12","20729","7696","","","","","","","","","","","","","","","","","","",""
"pit-instructions","116","889406","0.0-2.0-26.0-1.0","battery-v0.2","","""event"",""trial"",""time""
""fullscreenenter"",""1"",""3199""
","
","
","""event"",""trial"",""time""
""fullscreenenter"",""1"",""3199""
","
","","[{""page_index"":0,""viewing_time"":1884.300000011921}]","1885.1000000238419","","","","","","","","","","","","","","","","","","","","","","","",""
"pit-instructions","117","909030","0.0-3.0","battery-v0.2","","""event"",""trial"",""time""
""fullscreenenter"",""1"",""3199""
","
","
","""event"",""trial"",""time""
""fullscreenenter"",""1"",""3199""
","
","","[{""page_index"":0,""viewing_time"":3677.900000035763},{""page_index"":1,""viewing_time"":7077.199999988079},{""page_index"":2,""viewing_time"":8864.800000011921}]","19620.80000001192","","","","","","","","","","","","","","","","","","","","","","","",""
"pit-trial","118","913083","0.0-4.0","battery-v0.2","","""event"",""trial"",""time""
""fullscreenenter"",""1"",""3199""
","
","
","""event"",""trial"",""time""
""fullscreenenter"",""1"",""3199""
","
","","","1169.5","","","12","20729","7696","&#9752;","elianto","#f73b6a7A"," "," ","1","0","[2027.4000000357628]","1","1","","","20729","1","3","3","lose","go","0"
"pit-trial","119","917940","0.0-5.0","battery-v0.2","","""event"",""trial"",""time""
""fullscreenenter"",""1"",""3199""
","
","
","""event"",""trial"",""time""
""fullscreenenter"",""1"",""3199""
","
","","","-1","","","12","20729","7696","&#9728;","elianto","#f73b6a7A","-1","-1","1","-10","[]","0","1","","","20729","2","0","4","lose","no-go","1"
"pit-trial","120","921814","0.0-6.0","battery-v0.2","","""event"",""trial"",""time""
""fullscreenenter"",""1"",""3199""
","
","
","""event"",""trial"",""time""
""fullscreenenter"",""1"",""3199""
","
","","","1007.3000000119209","","","12","20729","7696","&#9733;","elianto","#3366ff99","-1"," ","0","+10","[1858.199999988079]","1","1","","","20729","3","2","2","win","no-go","1"
"pit-trial","121","925707","0.0-7.0","battery-v0.2","","""event"",""trial"",""time""
""fullscreenenter"",""1"",""3199""
","
","
","""event"",""trial"",""time""
""fullscreenenter"",""1"",""3199""
","
","","","1024.2999999523163","","","12","20729","7696","&#9730;","elianto","#3366ff99"," "," ","1","0","[1874.5]","1","1","","","20729","4","1","1","win","go","1"
"pit-trial","122","929220","0.0-8.0","battery-v0.2","","""event"",""trial"",""time""
""fullscreenenter"",""1"",""3199""
","
","
","""event"",""trial"",""time""
""fullscreenenter"",""1"",""3199""
","
","","","647.2999999523163","","","12","20729","7696","&#9728;","elianto","#f73b6a7A","-1"," ","0","-10","[1500.800000011921]","1","1","","","20729","5","0","4","lose","no-go","0"
"pit-trial","123","934086","0.0-9.0","battery-v0.2","","""event"",""trial"",""time""
""fullscreenenter"",""1"",""3199""
","
","
","""event"",""trial"",""time""
""fullscreenenter"",""1"",""3199""
","
","","","-1","","","12","20729","7696","&#9730;","elianto","#3366ff99"," ","-1","0","+10","[]","0","1","","","20729","6","1","1","win","go","1"
"pit-trial","124","938520","0.0-10.0","battery-v0.2","","""event"",""trial"",""time""
""fullscreenenter"",""1"",""3199""
","
","
","""event"",""trial"",""time""
""fullscreenenter"",""1"",""3199""
","
","","","1573.7999999523163","","","12","20729","7696","&#9752;","elianto","#f73b6a7A"," "," ","1","0","[2423.800000011921]","1","1","","","20729","7","3","3","lose","go","0"
"pit-trial","125","943341","0.0-11.0","battery-v0.2","","""event"",""trial"",""time""
""fullscreenenter"",""1"",""3199""
","
","
","""event"",""trial"",""time""
""fullscreenenter"",""1"",""3199""
","
","","","1956.5999999642372","","","12","20729","7696","&#9733;","elianto","#3366ff99","-1"," ","0","0","[2807.300000011921]","1","1","","","20729","8","2","2","win","no-go","0"
"pit-trial","126","948215","0.0-12.0","battery-v0.2","","""event"",""trial"",""time""
""fullscreenenter"",""1"",""3199""
","
","
","""event"",""trial"",""time""
""fullscreenenter"",""1"",""3199""
","
","","","-1","","","12","20729","7696","&#9730;","elianto","#3366ff99"," ","-1","0","+10","[]","0","1","","","20729","9","1","1","win","go","1"
"pit-trial","127","952256","0.0-13.0","battery-v0.2","","""event"",""trial"",""time""
""fullscreenenter"",""1"",""3199""
","
","
","""event"",""trial"",""time""
""fullscreenenter"",""1"",""3199""
","
","","","1176.2000000476837","","","12","20729","7696","&#9752;","elianto","#f73b6a7A"," "," ","1","0","[2031.199999988079]","1","1","","","20729","10","3","3","lose","go","0"
"pit-trial","128","957124","0.0-14.0","battery-v0.2","","""event"",""trial"",""time""
""fullscreenenter"",""1"",""3199""
","
","
","""event"",""trial"",""time""
""fullscreenenter"",""1"",""3199""
","
","","","-1","","","12","20729","7696","&#9728;","elianto","#f73b6a7A","-1","-1","1","0","[]","0","1","","","20729","11","0","4","lose","no-go","0"
"pit-trial","129","960900","0.0-15.0","battery-v0.2","","""event"",""trial"",""time""
""fullscreenenter"",""1"",""3199""
","
","
","""event"",""trial"",""time""
""fullscreenenter"",""1"",""3199""
","
","","","900.6999999880791","","","12","20729","7696","&#9733;","elianto","#3366ff99","-1"," ","0","0","[1756.699999988079]","1","1","","","20729","12","2","2","win","no-go","0"
"pit-trial","130","965484","0.0-16.0","battery-v0.2","","""event"",""trial"",""time""
""fullscreenenter"",""1"",""3199""
","
","
","""event"",""trial"",""time""
""fullscreenenter"",""1"",""3199""
","
","","","1720.9000000357628","","","12","20729","7696","&#9752;","elianto","#f73b6a7A"," "," ","1","0","[2578]","1","1","","","20729","13","3","3","lose","go","0"
"pit-trial","131","970358","0.0-17.0","battery-v0.2","","""event"",""trial"",""time""
""fullscreenenter"",""1"",""3199""
","
","
","""event"",""trial"",""time""
""fullscreenenter"",""1"",""3199""
","
","","","-1","","","12","20729","7696","&#9728;","elianto","#f73b6a7A","-1","-1","1","-10","[]","0","1","","","20729","14","0","4","lose","no-go","1"
"pit-trial","132","975237","0.0-18.0","battery-v0.2","","""event"",""trial"",""time""
""fullscreenenter"",""1"",""3199""
","
","
","""event"",""trial"",""time""
""fullscreenenter"",""1"",""3199""
","
","","","-1","","","12","20729","7696","&#9733;","elianto","#3366ff99","-1","-1","1","+10","[]","0","1","","","20729","15","2","2","win","no-go","0"
"pit-trial","133","980111","0.0-19.0","battery-v0.2","","""event"",""trial"",""time""
""fullscreenenter"",""1"",""3199""
","
","
","""event"",""trial"",""time""
""fullscreenenter"",""1"",""3199""
","
","","","-1","","","12","20729","7696","&#9730;","elianto","#3366ff99"," ","-1","0","0","[]","0","1","","","20729","16","1","1","win","go","0"
"pit-trial","134","983963","0.0-20.0","battery-v0.2","","""event"",""trial"",""time""
""fullscreenenter"",""1"",""3199""
","
","
","""event"",""trial"",""time""
""fullscreenenter"",""1"",""3199""
","
","","","987.5","","","12","20729","7696","&#9730;","elianto","#3366ff99"," "," ","1","0","[1838.300000011921]","1","1","","","20729","17","1","1","win","go","1"
"pit-trial","135","988835","0.0-21.0","battery-v0.2","","""event"",""trial"",""time""
""fullscreenenter"",""1"",""3199""
","
","
","""event"",""trial"",""time""
""fullscreenenter"",""1"",""3199""
","
","","","-1","","","12","20729","7696","&#9733;","elianto","#3366ff99","-1","-1","1","+10","[279.7999999523163]","1","1","","","20729","18","2","2","win","no-go","0"
"pit-trial","136","993709","0.0-22.0","battery-v0.2","","""event"",""trial"",""time""
""fullscreenenter"",""1"",""3199""
","
","
","""event"",""trial"",""time""
""fullscreenenter"",""1"",""3199""
","
","","","-1","","","12","20729","7696","&#9752;","elianto","#f73b6a7A"," ","-1","0","-10","[3735]","1","1","","","20729","19","3","3","lose","go","0"
"pit-trial","137","998571","0.0-23.0","battery-v0.2","","""event"",""trial"",""time""
""fullscreenenter"",""1"",""3199""
","
","
","""event"",""trial"",""time""
""fullscreenenter"",""1"",""3199""
","
","","","-1","","","12","20729","7696","&#9728;","elianto","#f73b6a7A","-1","-1","1","-10","[3821.699999988079]","1","1","","","20729","20","0","4","lose","no-go","1"
"pit-instructions","138","1013598","0.0-24.0","battery-v0.2","","""event"",""trial"",""time""
""fullscreenenter"",""1"",""3199""
","
","
","""event"",""trial"",""time""
""fullscreenenter"",""1"",""3199""
","
","","[{""page_index"":0,""viewing_time"":7792.699999988079},{""page_index"":1,""viewing_time"":7232}]","15025.600000023842","","","","","","","","","","","","","","","","","","","","","","","",""
"pit-trial","139","1017510","0.0-25.0","battery-v0.2","","""event"",""trial"",""time""
""fullscreenenter"",""1"",""3199""
","
","
","""event"",""trial"",""time""
""fullscreenenter"",""1"",""3199""
","
","","","1044","","","12","20729","7696","b","elianto","#f73b6a7A","-1"," ","0","-10","[1896.7000000476837]","1","2","","","20729","21","3","4","lose","no-go","0"
"pit-trial","140","1021799","0.0-26.0","battery-v0.2","","""event"",""trial"",""time""
""fullscreenenter"",""1"",""3199""
","
","
","""event"",""trial"",""time""
""fullscreenenter"",""1"",""3199""
","
","","","1420.1000000238419","","","12","20729","7696","f","elianto","#3366ff99","-1"," ","0","0","[2274.400000035763]","1","2","","","20729","22","1","2","win","no-go","0"
"pit-trial","141","1026676","0.0-27.0","battery-v0.2","","""event"",""trial"",""time""
""fullscreenenter"",""1"",""3199""
","
","
","""event"",""trial"",""time""
""fullscreenenter"",""1"",""3199""
","
","","","-1","","","12","20729","7696","t","elianto","#f73b6a7A"," ","-1","0","-10","[2862.699999988079]","1","2","","","20729","23","2","3","lose","go","0"
"pit-trial","142","1030917","0.0-28.0","battery-v0.2","","""event"",""trial"",""time""
""fullscreenenter"",""1"",""3199""
","
","
","""event"",""trial"",""time""
""fullscreenenter"",""1"",""3199""
","
","","","1373.0999999642372","","","12","20729","7696","n","elianto","#f73b6a7A"," "," ","1","0","[2226.599999964237]","1","2","","","20729","24","0","3","lose","go","0"
"pit-trial","143","1035789","0.0-29.0","battery-v0.2","","""event"",""trial"",""time""
""fullscreenenter"",""1"",""3199""
","
","
","""event"",""trial"",""time""
""fullscreenenter"",""1"",""3199""
","
","","","-1","","","12","20729","7696","t","elianto","#f73b6a7A"," ","-1","0","0","[]","0","2","","","20729","25","2","3","lose","go","1"
"pit-trial","144","1040414","0.0-30.0","battery-v0.2","","""event"",""trial"",""time""
""fullscreenenter"",""1"",""3199""
","
","
","""event"",""trial"",""time""
""fullscreenenter"",""1"",""3199""
","
","","","1759.199999988079","","","12","20729","7696","n","elianto","#f73b6a7A"," "," ","1","0","[2609.400000035763]","1","2","","","20729","26","0","3","lose","go","0"
"pit-trial","145","1045284","0.0-31.0","battery-v0.2","","""event"",""trial"",""time""
""fullscreenenter"",""1"",""3199""
","
","
","""event"",""trial"",""time""
""fullscreenenter"",""1"",""3199""
","
","","","-1","","","12","20729","7696","f","elianto","#3366ff99","-1","-1","1","+10","[]","0","2","","","20729","27","1","2","win","no-go","0"
"pit-trial","146","1050156","0.0-32.0","battery-v0.2","","""event"",""trial"",""time""
""fullscreenenter"",""1"",""3199""
","
","
","""event"",""trial"",""time""
""fullscreenenter"",""1"",""3199""
","
","","","-1","","","12","20729","7696","b","elianto","#f73b6a7A","-1","-1","1","0","[]","0","2","","","20729","28","3","4","lose","no-go","0"
"pit-trial","147","1055030","0.0-33.0","battery-v0.2","","""event"",""trial"",""time""
""fullscreenenter"",""1"",""3199""
","
","
","""event"",""trial"",""time""
""fullscreenenter"",""1"",""3199""
","
","","","-1","","","12","20729","7696","f","elianto","#3366ff99","-1","-1","1","+10","[]","0","2","","","20729","29","1","2","win","no-go","0"
"pit-trial","148","1059903","0.0-34.0","battery-v0.2","","""event"",""trial"",""time""
""fullscreenenter"",""1"",""3199""
","
","
","""event"",""trial"",""time""
""fullscreenenter"",""1"",""3199""
","
","","","-1","","","12","20729","7696","b","elianto","#f73b6a7A","-1","-1","1","0","[]","0","2","","","20729","30","3","4","lose","no-go","0"
"pit-trial","149","1063565","0.0-35.0","battery-v0.2","","""event"",""trial"",""time""
""fullscreenenter"",""1"",""3199""
","
","
","""event"",""trial"",""time""
""fullscreenenter"",""1"",""3199""
","
","","","797.9000000357628","","","12","20729","7696","n","elianto","#f73b6a7A"," "," ","1","0","[1657.9000000357628]","1","2","","","20729","31","0","3","lose","go","0"
"pit-trial","150","1068441","0.0-36.0","battery-v0.2","","""event"",""trial"",""time""
""fullscreenenter"",""1"",""3199""
","
","
","""event"",""trial"",""time""
""fullscreenenter"",""1"",""3199""
","
","","","-1","","","12","20729","7696","t","elianto","#f73b6a7A"," ","-1","0","0","[]","0","2","","","20729","32","2","3","lose","go","1"
"pit-trial","151","1073314","0.0-37.0","battery-v0.2","","""event"",""trial"",""time""
""fullscreenenter"",""1"",""3199""
","
","
","""event"",""trial"",""time""
""fullscreenenter"",""1"",""3199""
","
","","","-1","","","12","20729","7696","t","elianto","#f73b6a7A"," ","-1","0","-10","[]","0","2","","","20729","33","2","3","lose","go","0"
"pit-trial","152","1077194","0.0-38.0","battery-v0.2","","""event"",""trial"",""time""
""fullscreenenter"",""1"",""3199""
","
","
","""event"",""trial"",""time""
""fullscreenenter"",""1"",""3199""
","
","","","1015.5","","","12","20729","7696","n","elianto","#f73b6a7A"," "," ","1","0","[1868.699999988079]","1","2","","","20729","34","0","3","lose","go","0"
"pit-trial","153","1082054","0.0-39.0","battery-v0.2","","""event"",""trial"",""time""
""fullscreenenter"",""1"",""3199""
","
","
","""event"",""trial"",""time""
""fullscreenenter"",""1"",""3199""
","
","","","-1","","","12","20729","7696","b","elianto","#f73b6a7A","-1","-1","1","0","[]","0","2","","","20729","35","3","4","lose","no-go","0"
"pit-trial","154","1086928","0.0-40.0","battery-v0.2","","""event"",""trial"",""time""
""fullscreenenter"",""1"",""3199""
","
","
","""event"",""trial"",""time""
""fullscreenenter"",""1"",""3199""
","
","","","-1","","","12","20729","7696","f","elianto","#3366ff99","-1","-1","1","0","[]","0","2","","","20729","36","1","2","win","no-go","1"
"pit-trial","155","1090866","0.0-41.0","battery-v0.2","","""event"",""trial"",""time""
""fullscreenenter"",""1"",""3199""
","
","
","""event"",""trial"",""time""
""fullscreenenter"",""1"",""3199""
","
","","","1063.5999999642372","","","12","20729","7696","n","elianto","#f73b6a7A"," "," ","1","-10","[1921.6000000238419]","1","2","","","20729","37","0","3","lose","go","1"
"pit-trial","156","1095732","0.0-42.0","battery-v0.2","","""event"",""trial"",""time""
""fullscreenenter"",""1"",""3199""
","
","
","""event"",""trial"",""time""
""fullscreenenter"",""1"",""3199""
","
","","","-1","","","12","20729","7696","b","elianto","#f73b6a7A","-1","-1","1","0","[]","0","2","","","20729","38","3","4","lose","no-go","0"
"pit-trial","157","1100598","0.0-43.0","battery-v0.2","","""event"",""trial"",""time""
""fullscreenenter"",""1"",""3199""
","
","
","""event"",""trial"",""time""
""fullscreenenter"",""1"",""3199""
","
","","","-1","","","12","20729","7696","t","elianto","#f73b6a7A"," ","-1","0","-10","[]","0","2","","","20729","39","2","3","lose","go","0"
"pit-trial","158","1104293","0.0-44.0","battery-v0.2","","""event"",""trial"",""time""
""fullscreenenter"",""1"",""3199""
","
","
","""event"",""trial"",""time""
""fullscreenenter"",""1"",""3199""
","
","","","835.5999999642372","","","12","20729","7696","f","elianto","#3366ff99","-1"," ","0","0","[1690.800000011921]","1","2","","","20729","40","1","2","win","no-go","0"
"pit-trial","159","1108352","0.0-45.0","battery-v0.2","","""event"",""trial"",""time""
""fullscreenenter"",""1"",""3199""
","
","
","""event"",""trial"",""time""
""fullscreenenter"",""1"",""3199""
","
","","","1185.699999988079","","","12","20729","7696","f","elianto","#3366ff99","-1"," ","0","0","[2044.300000011921]","1","2","","","20729","41","1","2","win","no-go","0"
"pit-trial","160","1113207","0.0-46.0","battery-v0.2","","""event"",""trial"",""time""
""fullscreenenter"",""1"",""3199""
","
","
","""event"",""trial"",""time""
""fullscreenenter"",""1"",""3199""
","
","","","-1","","","12","20729","7696","b","elianto","#f73b6a7A","-1","-1","1","-10","[]","0","2","","","20729","42","3","4","lose","no-go","1"
"pit-trial","161","1118075","0.0-47.0","battery-v0.2","","""event"",""trial"",""time""
""fullscreenenter"",""1"",""3199""
","
","
","""event"",""trial"",""time""
""fullscreenenter"",""1"",""3199""
","
","","","-1","","","12","20729","7696","t","elianto","#f73b6a7A"," ","-1","0","-10","[]","0","2","","","20729","43","2","3","lose","go","0"
"pit-trial","162","1121717","0.0-48.0","battery-v0.2","","""event"",""trial"",""time""
""fullscreenenter"",""1"",""3199""
","
","
","""event"",""trial"",""time""
""fullscreenenter"",""1"",""3199""
","
","","","777","","","12","20729","7696","n","elianto","#f73b6a7A"," "," ","1","0","[1627.199999988079]","1","2","","","20729","44","0","3","lose","go","0"
"pit-trial","163","1125285","0.0-49.0","battery-v0.2","","""event"",""trial"",""time""
""fullscreenenter"",""1"",""3199""
","
","
","""event"",""trial"",""time""
""fullscreenenter"",""1"",""3199""
","
","","","703.8999999761581","","","12","20729","7696","b","elianto","#f73b6a7A","-1"," ","0","-10","[1556.2999999523163]","1","2","","","20729","45","3","4","lose","no-go","0"
"pit-trial","164","1129281","0.0-50.0","battery-v0.2","","""event"",""trial"",""time""
""fullscreenenter"",""1"",""3199""
","
","
","""event"",""trial"",""time""
""fullscreenenter"",""1"",""3199""
","
","","","1135.5","","","12","20729","7696","n","elianto","#f73b6a7A"," "," ","1","-10","[1987.199999988079]","1","2","","","20729","46","0","3","lose","go","1"
"pit-trial","165","1134156","0.0-51.0","battery-v0.2","","""event"",""trial"",""time""
""fullscreenenter"",""1"",""3199""
","
","
","""event"",""trial"",""time""
""fullscreenenter"",""1"",""3199""
","
","","","-1","","","12","20729","7696","f","elianto","#3366ff99","-1","-1","1","+10","[]","0","2","","","20729","47","1","2","win","no-go","0"
"pit-trial","166","1139034","0.0-52.0","battery-v0.2","","""event"",""trial"",""time""
""fullscreenenter"",""1"",""3199""
","
","
","""event"",""trial"",""time""
""fullscreenenter"",""1"",""3199""
","
","","","-1","","","12","20729","7696","t","elianto","#f73b6a7A"," ","-1","0","-10","[3604.199999988079]","1","2","","","20729","48","2","3","lose","go","0"
"pit-trial","167","1142783","0.0-53.0","battery-v0.2","","""event"",""trial"",""time""
""fullscreenenter"",""1"",""3199""
","
","
","""event"",""trial"",""time""
""fullscreenenter"",""1"",""3199""
","
","","","891.1999999880791","","","12","20729","7696","n","elianto","#f73b6a7A"," "," ","1","0","[1743]","1","2","","","20729","49","0","3","lose","go","0"
"pit-trial","168","1147653","0.0-54.0","battery-v0.2","","""event"",""trial"",""time""
""fullscreenenter"",""1"",""3199""
","
","
","""event"",""trial"",""time""
""fullscreenenter"",""1"",""3199""
","
","","","-1","","","12","20729","7696","b","elianto","#f73b6a7A","-1","-1","1","0","[]","0","2","","","20729","50","3","4","lose","no-go","0"
"pit-trial","169","1152527","0.0-55.0","battery-v0.2","","""event"",""trial"",""time""
""fullscreenenter"",""1"",""3199""
","
","
","""event"",""trial"",""time""
""fullscreenenter"",""1"",""3199""
","
","","","-1","","","12","20729","7696","f","elianto","#3366ff99","-1","-1","1","+10","[]","0","2","","","20729","51","1","2","win","no-go","0"
"pit-trial","170","1156052","0.0-56.0","battery-v0.2","","""event"",""trial"",""time""
""fullscreenenter"",""1"",""3199""
","
","
","""event"",""trial"",""time""
""fullscreenenter"",""1"",""3199""
","
","","","657.1000000238419","","","12","20729","7696","t","elianto","#f73b6a7A"," "," ","1","0","[1515.5]","1","2","","","20729","52","2","3","lose","go","0"
"pit-trial","171","1159920","0.0-57.0","battery-v0.2","","""event"",""trial"",""time""
""fullscreenenter"",""1"",""3199""
","
","
","""event"",""trial"",""time""
""fullscreenenter"",""1"",""3199""
","
","","","997.8000000119209","","","12","20729","7696","t","elianto","#f73b6a7A"," "," ","1","-10","[1850.7000000476837]","1","2","","","20729","53","2","3","lose","go","1"
"pit-trial","172","1164791","0.0-58.0","battery-v0.2","","""event"",""trial"",""time""
""fullscreenenter"",""1"",""3199""
","
","
","""event"",""trial"",""time""
""fullscreenenter"",""1"",""3199""
","
","","","-1","","","12","20729","7696","f","elianto","#3366ff99","-1","-1","1","+10","[]","0","2","","","20729","54","1","2","win","no-go","0"
"pit-trial","173","1169656","0.0-59.0","battery-v0.2","","""event"",""trial"",""time""
""fullscreenenter"",""1"",""3199""
","
","
","""event"",""trial"",""time""
""fullscreenenter"",""1"",""3199""
","
","","","-1","","","12","20729","7696","b","elianto","#f73b6a7A","-1","-1","1","-10","[]","0","2","","","20729","55","3","4","lose","no-go","1"
"pit-trial","174","1173422","0.0-60.0","battery-v0.2","","""event"",""trial"",""time""
""fullscreenenter"",""1"",""3199""
","
","
","""event"",""trial"",""time""
""fullscreenenter"",""1"",""3199""
","
","","","911.6000000238419","","","12","20729","7696","n","elianto","#f73b6a7A"," "," ","1","0","[1761.800000011921]","1","2","","","20729","56","0","3","lose","go","0"
"pit-trial","175","1176905","0.0-61.0","battery-v0.2","","""event"",""trial"",""time""
""fullscreenenter"",""1"",""3199""
","
","
","""event"",""trial"",""time""
""fullscreenenter"",""1"",""3199""
","
","","","620.3000000119209","","","12","20729","7696","t","elianto","#f73b6a7A"," "," ","1","0","[1471.8999999761581]","1","2","","","20729","57","2","3","lose","go","0"
"pit-trial","176","1181780","0.0-62.0","battery-v0.2","","""event"",""trial"",""time""
""fullscreenenter"",""1"",""3199""
","
","
","""event"",""trial"",""time""
""fullscreenenter"",""1"",""3199""
","
","","","-1","","","12","20729","7696","c","elianto","#3366ff99"," ","-1","0","0","[2947.600000023842]","1","2","","","20729","58","4","1","win","go","0"
"pit-trial","177","1186654","0.0-63.0","battery-v0.2","","""event"",""trial"",""time""
""fullscreenenter"",""1"",""3199""
","
","
","""event"",""trial"",""time""
""fullscreenenter"",""1"",""3199""
","
","","","-1","","","12","20729","7696","b","elianto","#f73b6a7A","-1","-1","1","0","[]","0","2","","","20729","59","3","4","lose","no-go","0"
"pit-trial","178","1190636","0.0-64.0","battery-v0.2","","""event"",""trial"",""time""
""fullscreenenter"",""1"",""3199""
","
","
","""event"",""trial"",""time""
""fullscreenenter"",""1"",""3199""
","
","","","1117.3999999761581","","","12","20729","7696","n","elianto","#f73b6a7A"," "," ","1","0","[1969.300000011921]","1","2","","","20729","60","0","3","lose","go","0"
"pit-trial","179","1195508","0.0-65.0","battery-v0.2","","""event"",""trial"",""time""
""fullscreenenter"",""1"",""3199""
","
","
","""event"",""trial"",""time""
""fullscreenenter"",""1"",""3199""
","
","","","-1","","","12","20729","7696","c","elianto","#3366ff99"," ","-1","0","0","[]","0","2","","","20729","61","4","1","win","go","0"
"pit-trial","180","1200380","0.0-66.0","battery-v0.2","","""event"",""trial"",""time""
""fullscreenenter"",""1"",""3199""
","
","
","""event"",""trial"",""time""
""fullscreenenter"",""1"",""3199""
","
","","","-1","","","12","20729","7696","f","elianto","#3366ff99","-1","-1","1","0","[]","0","2","","","20729","62","1","2","win","no-go","1"
"pit-trial","181","1203373","0.0-67.0","battery-v0.2","","""event"",""trial"",""time""
""fullscreenenter"",""1"",""3199""
","
","
","""event"",""trial"",""time""
""fullscreenenter"",""1"",""3199""
","
","","","136","","","12","20729","7696","t","elianto","#f73b6a7A"," "," ","1","0","[987]","1","2","","","20729","63","2","3","lose","go","0"
"pit-trial","182","1208243","0.0-68.0","battery-v0.2","","""event"",""trial"",""time""
""fullscreenenter"",""1"",""3199""
","
","
","""event"",""trial"",""time""
""fullscreenenter"",""1"",""3199""
","
","","","-1","","","12","20729","7696","b","elianto","#f73b6a7A","-1","-1","1","0","[]","0","2","","","20729","64","3","4","lose","no-go","0"
"pit-trial","183","1213111","0.0-69.0","battery-v0.2","","""event"",""trial"",""time""
""fullscreenenter"",""1"",""3199""
","
","
","""event"",""trial"",""time""
""fullscreenenter"",""1"",""3199""
","
","","","-1","","","12","20729","7696","z","elianto","#3366ff99","-1","-1","1","+10","[]","0","2","","","20729","65","5","2","win","no-go","0"
"pit-trial","184","1217986","0.0-70.0","battery-v0.2","","""event"",""trial"",""time""
""fullscreenenter"",""1"",""3199""
","
","
","""event"",""trial"",""time""
""fullscreenenter"",""1"",""3199""
","
","","","-1","","","12","20729","7696","f","elianto","#3366ff99","-1","-1","1","0","[]","0","2","","","20729","66","1","2","win","no-go","1"
"pit-trial","185","1222858","0.0-71.0","battery-v0.2","","""event"",""trial"",""time""
""fullscreenenter"",""1"",""3199""
","
","
","""event"",""trial"",""time""
""fullscreenenter"",""1"",""3199""
","
","","","-1","","","12","20729","7696","b","elianto","#f73b6a7A","-1","-1","1","0","[]","0","2","","","20729","67","3","4","lose","no-go","0"
"pit-trial","186","1227728","0.0-72.0","battery-v0.2","","""event"",""trial"",""time""
""fullscreenenter"",""1"",""3199""
","
","
","""event"",""trial"",""time""
""fullscreenenter"",""1"",""3199""
","
","","","-1","","","12","20729","7696","c","elianto","#3366ff99"," ","-1","0","0","[4359.5,4536.600000023842]","2","2","","","20729","68","4","1","win","go","0"
"pit-trial","187","1231554","0.0-73.0","battery-v0.2","","""event"",""trial"",""time""
""fullscreenenter"",""1"",""3199""
","
","
","""event"",""trial"",""time""
""fullscreenenter"",""1"",""3199""
","
","","","954.6999999880791","","","12","20729","7696","c","elianto","#3366ff99"," "," ","1","+10","[1808.300000011921]","1","2","","","20729","69","4","1","win","go","0"
"pit-trial","188","1236414","0.0-74.0","battery-v0.2","","""event"",""trial"",""time""
""fullscreenenter"",""1"",""3199""
","
","
","""event"",""trial"",""time""
""fullscreenenter"",""1"",""3199""
","
","","","-1","","","12","20729","7696","f","elianto","#3366ff99","-1","-1","1","+10","[]","0","2","","","20729","70","1","2","win","no-go","0"
"pit-trial","189","1241289","0.0-75.0","battery-v0.2","","""event"",""trial"",""time""
""fullscreenenter"",""1"",""3199""
","
","
","""event"",""trial"",""time""
""fullscreenenter"",""1"",""3199""
","
","","","-1","","","12","20729","7696","z","elianto","#3366ff99","-1","-1","1","+10","[3041.5]","1","2","","","20729","71","5","2","win","no-go","0"
"pit-trial","190","1245237","0.0-76.0","battery-v0.2","","""event"",""trial"",""time""
""fullscreenenter"",""1"",""3199""
","
","
","""event"",""trial"",""time""
""fullscreenenter"",""1"",""3199""
","
","","","1078.199999988079","","","12","20729","7696","t","elianto","#f73b6a7A"," "," ","1","0","[1929.3999999761581]","1","2","","","20729","72","2","3","lose","go","0"
"pit-trial","191","1249436","0.0-77.0","battery-v0.2","","""event"",""trial"",""time""
""fullscreenenter"",""1"",""3199""
","
","
","""event"",""trial"",""time""
""fullscreenenter"",""1"",""3199""
","
","","","1332.300000011921","","","12","20729","7696","c","elianto","#3366ff99"," "," ","1","+10","[2182.300000011921]","1","2","","","20729","73","4","1","win","go","0"
"pit-trial","192","1253370","0.0-78.0","battery-v0.2","","""event"",""trial"",""time""
""fullscreenenter"",""1"",""3199""
","
","
","""event"",""trial"",""time""
""fullscreenenter"",""1"",""3199""
","
","","","1072.9000000357628","","","12","20729","7696","z","elianto","#3366ff99","-1"," ","0","+10","[1928.699999988079]","1","2","","","20729","74","5","2","win","no-go","1"
"pit-trial","193","1258229","0.0-79.0","battery-v0.2","","""event"",""trial"",""time""
""fullscreenenter"",""1"",""3199""
","
","
","""event"",""trial"",""time""
""fullscreenenter"",""1"",""3199""
","
","","","-1","","","12","20729","7696","b","elianto","#f73b6a7A","-1","-1","1","0","[]","0","2","","","20729","75","3","4","lose","no-go","0"
"pit-trial","194","1263107","0.0-80.0","battery-v0.2","","""event"",""trial"",""time""
""fullscreenenter"",""1"",""3199""
","
","
","""event"",""trial"",""time""
""fullscreenenter"",""1"",""3199""
","
","","","-1","","","12","20729","7696","f","elianto","#3366ff99","-1","-1","1","+10","[]","0","2","","","20729","76","1","2","win","no-go","0"
"pit-trial","195","1266738","0.0-81.0","battery-v0.2","","""event"",""trial"",""time""
""fullscreenenter"",""1"",""3199""
","
","
","""event"",""trial"",""time""
""fullscreenenter"",""1"",""3199""
","
","","","756.3999999761581","","","12","20729","7696","c","elianto","#3366ff99"," "," ","1","0","[1613.5]","1","2","","","20729","77","4","1","win","go","1"
"pit-trial","196","1271613","0.0-82.0","battery-v0.2","","""event"",""trial"",""time""
""fullscreenenter"",""1"",""3199""
","
","
","""event"",""trial"",""time""
""fullscreenenter"",""1"",""3199""
","
","","","-1","","","12","20729","7696","b","elianto","#f73b6a7A","-1","-1","1","0","[]","0","2","","","20729","78","3","4","lose","no-go","0"
"pit-trial","197","1275701","0.0-83.0","battery-v0.2","","""event"",""trial"",""time""
""fullscreenenter"",""1"",""3199""
","
","
","""event"",""trial"",""time""
""fullscreenenter"",""1"",""3199""
","
","","","1227.0999999642372","","","12","20729","7696","c","elianto","#3366ff99"," "," ","1","+10","[2078.099999964237]","1","2","","","20729","79","4","1","win","go","0"
"pit-trial","198","1279372","0.0-84.0","battery-v0.2","","""event"",""trial"",""time""
""fullscreenenter"",""1"",""3199""
","
","
","""event"",""trial"",""time""
""fullscreenenter"",""1"",""3199""
","
","","","805.7000000476837","","","12","20729","7696","z","elianto","#3366ff99","-1"," ","0","0","[1658.300000011921]","1","2","","","20729","80","5","2","win","no-go","0"
"pit-trial","199","1284246","0.0-85.0","battery-v0.2","","""event"",""trial"",""time""
""fullscreenenter"",""1"",""3199""
","
","
","""event"",""trial"",""time""
""fullscreenenter"",""1"",""3199""
","
","","","-1","","","12","20729","7696","b","elianto","#f73b6a7A","-1","-1","1","0","[]","0","2","","","20729","81","3","4","lose","no-go","0"
"pit-trial","200","1289118","0.0-86.0","battery-v0.2","","""event"",""trial"",""time""
""fullscreenenter"",""1"",""3199""
","
","
","""event"",""trial"",""time""
""fullscreenenter"",""1"",""3199""
","
","","","-1","","","12","20729","7696","y","elianto","#f73b6a7A","-1","-1","1","0","[2988.100000023842]","1","2","","","20729","82","7","4","lose","no-go","0"
"pit-trial","201","1293534","0.0-87.0","battery-v0.2","","""event"",""trial"",""time""
""fullscreenenter"",""1"",""3199""
","
","
","""event"",""trial"",""time""
""fullscreenenter"",""1"",""3199""
","
","","","1546.1000000238419","","","12","20729","7696","c","elianto","#3366ff99"," "," ","1","+10","[2400.5]","1","2","","","20729","83","4","1","win","go","0"
"pit-trial","202","1297276","0.0-88.0","battery-v0.2","","""event"",""trial"",""time""
""fullscreenenter"",""1"",""3199""
","
","
","""event"",""trial"",""time""
""fullscreenenter"",""1"",""3199""
","
","","","884.5","","","12","20729","7696","z","elianto","#3366ff99","-1"," ","0","0","[1735.5]","1","2","","","20729","84","5","2","win","no-go","0"
"pit-trial","203","1302150","0.0-89.0","battery-v0.2","","""event"",""trial"",""time""
""fullscreenenter"",""1"",""3199""
","
","
","""event"",""trial"",""time""
""fullscreenenter"",""1"",""3199""
","
","","","-1","","","12","20729","7696","y","elianto","#f73b6a7A","-1","-1","1","0","[]","0","2","","","20729","85","7","4","lose","no-go","0"
"pit-trial","204","1306771","0.0-90.0","battery-v0.2","","""event"",""trial"",""time""
""fullscreenenter"",""1"",""3199""
","
","
","""event"",""trial"",""time""
""fullscreenenter"",""1"",""3199""
","
","","","1752.800000011921","","","12","20729","7696","h","elianto","#f73b6a7A"," "," ","1","0","[2609.300000011921]","1","2","","","20729","86","6","3","lose","go","0"
"pit-trial","205","1311643","0.0-91.0","battery-v0.2","","""event"",""trial"",""time""
""fullscreenenter"",""1"",""3199""
","
","
","""event"",""trial"",""time""
""fullscreenenter"",""1"",""3199""
","
","","","-1","","","12","20729","7696","z","elianto","#3366ff99","-1","-1","1","+10","[]","0","2","","","20729","87","5","2","win","no-go","0"
"pit-trial","206","1315594","0.0-92.0","battery-v0.2","","""event"",""trial"",""time""
""fullscreenenter"",""1"",""3199""
","
","
","""event"",""trial"",""time""
""fullscreenenter"",""1"",""3199""
","
","","","1074.699999988079","","","12","20729","7696","c","elianto","#3366ff99"," "," ","1","+10","[1932.5]","1","2","","","20729","88","4","1","win","go","0"
"pit-trial","207","1319869","0.0-93.0","battery-v0.2","","""event"",""trial"",""time""
""fullscreenenter"",""1"",""3199""
","
","
","""event"",""trial"",""time""
""fullscreenenter"",""1"",""3199""
","
","","","1415.800000011921","","","12","20729","7696","h","elianto","#f73b6a7A"," "," ","1","0","[2267.599999964237]","1","2","","","20729","89","6","3","lose","go","0"
"pit-trial","208","1324740","0.0-94.0","battery-v0.2","","""event"",""trial"",""time""
""fullscreenenter"",""1"",""3199""
","
","
","""event"",""trial"",""time""
""fullscreenenter"",""1"",""3199""
","
","","","-1","","","12","20729","7696","z","elianto","#3366ff99","-1","-1","1","+10","[]","0","2","","","20729","90","5","2","win","no-go","0"
"pit-trial","209","1329603","0.0-95.0","battery-v0.2","","""event"",""trial"",""time""
""fullscreenenter"",""1"",""3199""
","
","
","""event"",""trial"",""time""
""fullscreenenter"",""1"",""3199""
","
","","","-1","","","12","20729","7696","y","elianto","#f73b6a7A","-1","-1","1","0","[2897.899999976158]","1","2","","","20729","91","7","4","lose","no-go","0"
"pit-trial","210","1333437","0.0-96.0","battery-v0.2","","""event"",""trial"",""time""
""fullscreenenter"",""1"",""3199""
","
","
","""event"",""trial"",""time""
""fullscreenenter"",""1"",""3199""
","
","","","968.9000000357628","","","12","20729","7696","c","elianto","#3366ff99"," "," ","1","+10","[1820]","1","2","","","20729","92","4","1","win","go","0"
"pit-trial","211","1337065","0.0-97.0","battery-v0.2","","""event"",""trial"",""time""
""fullscreenenter"",""1"",""3199""
","
","
","""event"",""trial"",""time""
""fullscreenenter"",""1"",""3199""
","
","","","755.8000000119209","","","12","20729","7696","h","elianto","#f73b6a7A"," "," ","1","-10","[1613.5]","1","2","","","20729","93","6","3","lose","go","1"
"pit-trial","212","1340823","0.0-98.0","battery-v0.2","","""event"",""trial"",""time""
""fullscreenenter"",""1"",""3199""
","
","
","""event"",""trial"",""time""
""fullscreenenter"",""1"",""3199""
","
","","","898.6000000238419","","","12","20729","7696","y","elianto","#f73b6a7A","-1"," ","0","-10","[1753.800000011921]","1","2","","","20729","94","7","4","lose","no-go","0"
"pit-trial","213","1345697","0.0-99.0","battery-v0.2","","""event"",""trial"",""time""
""fullscreenenter"",""1"",""3199""
","
","
","""event"",""trial"",""time""
""fullscreenenter"",""1"",""3199""
","
","","","-1","","","12","20729","7696","z","elianto","#3366ff99","-1","-1","1","+10","[]","0","2","","","20729","95","5","2","win","no-go","0"
"pit-trial","214","1349899","0.0-100.0","battery-v0.2","","""event"",""trial"",""time""
""fullscreenenter"",""1"",""3199""
","
","
","""event"",""trial"",""time""
""fullscreenenter"",""1"",""3199""
","
","","","1334.0999999642372","","","12","20729","7696","r","elianto","#3366ff99"," "," ","1","+10","[2186.900000035763]","1","2","","","20729","96","8","1","win","go","0"
"pit-trial","215","1354454","0.0-101.0","battery-v0.2","","""event"",""trial"",""time""
""fullscreenenter"",""1"",""3199""
","
","
","""event"",""trial"",""time""
""fullscreenenter"",""1"",""3199""
","
","","","1687.3999999761581","","","12","20729","7696","h","elianto","#f73b6a7A"," "," ","1","0","[2539.2999999523163]","1","2","","","20729","97","6","3","lose","go","0"
"pit-trial","216","1359329","0.0-102.0","battery-v0.2","","""event"",""trial"",""time""
""fullscreenenter"",""1"",""3199""
","
","
","""event"",""trial"",""time""
""fullscreenenter"",""1"",""3199""
","
","","","-1","","","12","20729","7696","z","elianto","#3366ff99","-1","-1","1","+10","[]","0","2","","","20729","98","5","2","win","no-go","0"
"pit-trial","217","1364200","0.0-103.0","battery-v0.2","","""event"",""trial"",""time""
""fullscreenenter"",""1"",""3199""
","
","
","""event"",""trial"",""time""
""fullscreenenter"",""1"",""3199""
","
","","","-1","","","12","20729","7696","y","elianto","#f73b6a7A","-1","-1","1","0","[]","0","2","","","20729","99","7","4","lose","no-go","0"
"pit-trial","218","1368742","0.0-104.0","battery-v0.2","","""event"",""trial"",""time""
""fullscreenenter"",""1"",""3199""
","
","
","""event"",""trial"",""time""
""fullscreenenter"",""1"",""3199""
","
","","","1677","","","12","20729","7696","r","elianto","#3366ff99"," "," ","1","+10","[2529.399999976158]","1","2","","","20729","100","8","1","win","go","0"
"pit-trial","219","1372717","0.0-105.0","battery-v0.2","","""event"",""trial"",""time""
""fullscreenenter"",""1"",""3199""
","
","
","""event"",""trial"",""time""
""fullscreenenter"",""1"",""3199""
","
","","","1108.9000000357628","","","12","20729","7696","r","elianto","#3366ff99"," "," ","1","+10","[1961.699999988079]","1","2","","","20729","101","8","1","win","go","0"
"pit-trial","220","1377399","0.0-106.0","battery-v0.2","","""event"",""trial"",""time""
""fullscreenenter"",""1"",""3199""
","
","
","""event"",""trial"",""time""
""fullscreenenter"",""1"",""3199""
","
","","","1811","","","12","20729","7696","m","elianto","#3366ff99"," "," ","1","+10","[2666.5]","1","2","","","20729","102","9","1","win","go","0"
"pit-trial","221","1382269","0.0-107.0","battery-v0.2","","""event"",""trial"",""time""
""fullscreenenter"",""1"",""3199""
","
","
","""event"",""trial"",""time""
""fullscreenenter"",""1"",""3199""
","
","","","-1","","","12","20729","7696","z","elianto","#3366ff99","-1","-1","1","+10","[]","0","2","","","20729","103","5","2","win","no-go","0"
"pit-trial","222","1387140","0.0-108.0","battery-v0.2","","""event"",""trial"",""time""
""fullscreenenter"",""1"",""3199""
","
","
","""event"",""trial"",""time""
""fullscreenenter"",""1"",""3199""
","
","","","-1","","","12","20729","7696","y","elianto","#f73b6a7A","-1","-1","1","-10","[]","0","2","","","20729","104","7","4","lose","no-go","1"
"pit-trial","223","1391022","0.0-109.0","battery-v0.2","","""event"",""trial"",""time""
""fullscreenenter"",""1"",""3199""
","
","
","""event"",""trial"",""time""
""fullscreenenter"",""1"",""3199""
","
","","","1019.1000000238419","","","12","20729","7696","m","elianto","#3366ff99"," "," ","1","0","[1872.300000011921]","1","2","","","20729","105","9","1","win","go","1"
"pit-trial","224","1395145","0.0-110.0","battery-v0.2","","""event"",""trial"",""time""
""fullscreenenter"",""1"",""3199""
","
","
","""event"",""trial"",""time""
""fullscreenenter"",""1"",""3199""
","
","","","1257.5","","","12","20729","7696","r","elianto","#3366ff99"," "," ","1","+10","[2109.300000011921]","1","2","","","20729","106","8","1","win","go","0"
"pit-trial","225","1399678","0.0-111.0","battery-v0.2","","""event"",""trial"",""time""
""fullscreenenter"",""1"",""3199""
","
","
","""event"",""trial"",""time""
""fullscreenenter"",""1"",""3199""
","
","","","1665.9000000357628","","","12","20729","7696","h","elianto","#f73b6a7A"," "," ","1","0","[2522.7000000476837]","1","2","","","20729","107","6","3","lose","go","0"
"pit-trial","226","1403536","0.0-112.0","battery-v0.2","","""event"",""trial"",""time""
""fullscreenenter"",""1"",""3199""
","
","
","""event"",""trial"",""time""
""fullscreenenter"",""1"",""3199""
","
","","","1000.8000000119209","","","12","20729","7696","c","elianto","#3366ff99"," "," ","1","+10","[1853.2000000476837]","1","2","","","20729","108","4","1","win","go","0"
"pit-trial","227","1408409","0.0-113.0","battery-v0.2","","""event"",""trial"",""time""
""fullscreenenter"",""1"",""3199""
","
","
","""event"",""trial"",""time""
""fullscreenenter"",""1"",""3199""
","
","","","-1","","","12","20729","7696","m","elianto","#3366ff99"," ","-1","0","0","[]","0","2","","","20729","109","9","1","win","go","0"
"pit-trial","228","1412782","0.0-114.0","battery-v0.2","","""event"",""trial"",""time""
""fullscreenenter"",""1"",""3199""
","
","
","""event"",""trial"",""time""
""fullscreenenter"",""1"",""3199""
","
","","","1507.1000000238419","","","12","20729","7696","r","elianto","#3366ff99"," "," ","1","+10","[2358.899999976158]","1","2","","","20729","110","8","1","win","go","0"
"pit-trial","229","1417661","0.0-115.0","battery-v0.2","","""event"",""trial"",""time""
""fullscreenenter"",""1"",""3199""
","
","
","""event"",""trial"",""time""
""fullscreenenter"",""1"",""3199""
","
","","","-1","","","12","20729","7696","z","elianto","#3366ff99","-1","-1","1","+10","[]","0","2","","","20729","111","5","2","win","no-go","0"
"pit-trial","230","1422167","0.0-116.0","battery-v0.2","","""event"",""trial"",""time""
""fullscreenenter"",""1"",""3199""
","
","
","""event"",""trial"",""time""
""fullscreenenter"",""1"",""3199""
","
","","","1644","","","12","20729","7696","h","elianto","#f73b6a7A"," "," ","1","0","[2496.5]","1","2","","","20729","112","6","3","lose","go","0"
"pit-trial","231","1425881","0.0-117.0","battery-v0.2","","""event"",""trial"",""time""
""fullscreenenter"",""1"",""3199""
","
","
","""event"",""trial"",""time""
""fullscreenenter"",""1"",""3199""
","
","","","844.5","","","12","20729","7696","h","elianto","#f73b6a7A"," "," ","1","0","[1701.6000000238419]","1","2","","","20729","113","6","3","lose","go","0"
"pit-trial","232","1429716","0.0-118.0","battery-v0.2","","""event"",""trial"",""time""
""fullscreenenter"",""1"",""3199""
","
","
","""event"",""trial"",""time""
""fullscreenenter"",""1"",""3199""
","
","","","965.1999999880791","","","12","20729","7696","m","elianto","#3366ff99"," "," ","1","+10","[1820]","1","2","","","20729","114","9","1","win","go","0"
"pit-trial","233","1434577","0.0-119.0","battery-v0.2","","""event"",""trial"",""time""
""fullscreenenter"",""1"",""3199""
","
","
","""event"",""trial"",""time""
""fullscreenenter"",""1"",""3199""
","
","","","-1","","","12","20729","7696","z","elianto","#3366ff99","-1","-1","1","+10","[]","0","2","","","20729","115","5","2","win","no-go","0"
"pit-trial","234","1438641","0.0-120.0","battery-v0.2","","""event"",""trial"",""time""
""fullscreenenter"",""1"",""3199""
","
","
","""event"",""trial"",""time""
""fullscreenenter"",""1"",""3199""
","
","","","1206.5","","","12","20729","7696","r","elianto","#3366ff99"," "," ","1","+10","[2059.399999976158]","1","2","","","20729","116","8","1","win","go","0"
"pit-trial","235","1443515","0.0-121.0","battery-v0.2","","""event"",""trial"",""time""
""fullscreenenter"",""1"",""3199""
","
","
","""event"",""trial"",""time""
""fullscreenenter"",""1"",""3199""
","
","","","-1","","","12","20729","7696","z","elianto","#3366ff99","-1","-1","1","+10","[]","0","2","","","20729","117","5","2","win","no-go","0"
"pit-trial","236","1448121","0.0-122.0","battery-v0.2","","""event"",""trial"",""time""
""fullscreenenter"",""1"",""3199""
","
","
","""event"",""trial"",""time""
""fullscreenenter"",""1"",""3199""
","
","","","1737.1000000238419","","","12","20729","7696","h","elianto","#f73b6a7A"," "," ","1","0","[2593.600000023842]","1","2","","","20729","118","6","3","lose","go","0"
"pit-trial","237","1452071","0.0-123.0","battery-v0.2","","""event"",""trial"",""time""
""fullscreenenter"",""1"",""3199""
","
","
","""event"",""trial"",""time""
""fullscreenenter"",""1"",""3199""
","
","","","1083","","","12","20729","7696","r","elianto","#3366ff99"," "," ","1","+10","[1942]","1","2","","","20729","119","8","1","win","go","0"
"pit-trial","238","1455736","0.0-124.0","battery-v0.2","","""event"",""trial"",""time""
""fullscreenenter"",""1"",""3199""
","
","
","""event"",""trial"",""time""
""fullscreenenter"",""1"",""3199""
","
","","","799.2000000476837","","","12","20729","7696","m","elianto","#3366ff99"," "," ","1","+10","[1656.300000011921]","1","2","","","20729","120","9","1","win","go","0"
"pit-trial","239","1460002","0.0-125.0","battery-v0.2","","""event"",""trial"",""time""
""fullscreenenter"",""1"",""3199""
","
","
","""event"",""trial"",""time""
""fullscreenenter"",""1"",""3199""
","
","","","1391.3999999761581","","","12","20729","7696","h","elianto","#f73b6a7A"," "," ","1","0","[2248.300000011921]","1","2","","","20729","121","6","3","lose","go","0"
"pit-trial","240","1463092","0.0-126.0","battery-v0.2","","""event"",""trial"",""time""
""fullscreenenter"",""1"",""3199""
","
","
","""event"",""trial"",""time""
""fullscreenenter"",""1"",""3199""
","
","","","233.10000002384186","","","12","20729","7696","r","elianto","#3366ff99"," "," ","1","0","[1086.2999999523163]","1","2","","","20729","122","8","1","win","go","1"
"pit-trial","241","1467963","0.0-127.0","battery-v0.2","","""event"",""trial"",""time""
""fullscreenenter"",""1"",""3199""
","
","
","""event"",""trial"",""time""
""fullscreenenter"",""1"",""3199""
","
","","","-1","","","12","20729","7696","y","elianto","#f73b6a7A","-1","-1","1","0","[]","0","2","","","20729","123","7","4","lose","no-go","0"
"pit-trial","242","1471637","0.0-128.0","battery-v0.2","","""event"",""trial"",""time""
""fullscreenenter"",""1"",""3199""
","
","
","""event"",""trial"",""time""
""fullscreenenter"",""1"",""3199""
","
","","","818.3999999761581","","","12","20729","7696","m","elianto","#3366ff99"," "," ","1","+10","[1669.5]","1","2","","","20729","124","9","1","win","go","0"
"pit-trial","243","1475156","0.0-129.0","battery-v0.2","","""event"",""trial"",""time""
""fullscreenenter"",""1"",""3199""
","
","
","""event"",""trial"",""time""
""fullscreenenter"",""1"",""3199""
","
","","","659.6000000238419","","","12","20729","7696","r","elianto","#3366ff99"," "," ","1","+10","[1516.199999988079]","1","2","","","20729","125","8","1","win","go","0"
"pit-trial","244","1478837","0.0-130.0","battery-v0.2","","""event"",""trial"",""time""
""fullscreenenter"",""1"",""3199""
","
","
","""event"",""trial"",""time""
""fullscreenenter"",""1"",""3199""
","
","","","816.8000000119209","","","12","20729","7696","m","elianto","#3366ff99"," "," ","1","+10","[1666.8999999761581]","1","2","","","20729","126","9","1","win","go","0"
"pit-trial","245","1483048","0.0-131.0","battery-v0.2","","""event"",""trial"",""time""
""fullscreenenter"",""1"",""3199""
","
","
","""event"",""trial"",""time""
""fullscreenenter"",""1"",""3199""
","
","","","1341.5","","","12","20729","7696","h","elianto","#f73b6a7A"," "," ","1","-10","[2194.5]","1","2","","","20729","127","6","3","lose","go","1"
"pit-trial","246","1487047","0.0-132.0","battery-v0.2","","""event"",""trial"",""time""
""fullscreenenter"",""1"",""3199""
","
","
","""event"",""trial"",""time""
""fullscreenenter"",""1"",""3199""
","
","","","1133.5999999642372","","","12","20729","7696","y","elianto","#f73b6a7A","-1"," ","0","-10","[1985.1000000238419]","1","2","","","20729","128","7","4","lose","no-go","0"
"pit-trial","247","1491917","0.0-133.0","battery-v0.2","","""event"",""trial"",""time""
""fullscreenenter"",""1"",""3199""
","
","
","""event"",""trial"",""time""
""fullscreenenter"",""1"",""3199""
","
","","","-1","","","12","20729","7696","y","elianto","#f73b6a7A","-1","-1","1","0","[]","0","2","","","20729","129","7","4","lose","no-go","0"
"pit-trial","248","1495563","0.0-134.0","battery-v0.2","","""event"",""trial"",""time""
""fullscreenenter"",""1"",""3199""
","
","
","""event"",""trial"",""time""
""fullscreenenter"",""1"",""3199""
","
","","","783.6999999880791","","","12","20729","7696","r","elianto","#3366ff99"," "," ","1","+10","[1639.7999999523163]","1","2","","","20729","130","8","1","win","go","0"
"pit-trial","249","1499311","0.0-135.0","battery-v0.2","","""event"",""trial"",""time""
""fullscreenenter"",""1"",""3199""
","
","
","""event"",""trial"",""time""
""fullscreenenter"",""1"",""3199""
","
","","","872.6999999880791","","","12","20729","7696","m","elianto","#3366ff99"," "," ","1","+10","[1730.1000000238419]","1","2","","","20729","131","9","1","win","go","0"
"pit-trial","250","1503866","0.0-136.0","battery-v0.2","","""event"",""trial"",""time""
""fullscreenenter"",""1"",""3199""
","
","
","""event"",""trial"",""time""
""fullscreenenter"",""1"",""3199""
","
","","","1694.6000000238419","","","12","20729","7696","h","elianto","#f73b6a7A"," "," ","1","0","[2550.699999988079]","1","2","","","20729","132","6","3","lose","go","0"
"pit-trial","251","1507462","0.0-137.0","battery-v0.2","","""event"",""trial"",""time""
""fullscreenenter"",""1"",""3199""
","
","
","""event"",""trial"",""time""
""fullscreenenter"",""1"",""3199""
","
","","","731.9000000357628","","","12","20729","7696","m","elianto","#3366ff99"," "," ","1","0","[1582.5]","1","2","","","20729","133","9","1","win","go","1"
"pit-trial","252","1512339","0.0-138.0","battery-v0.2","","""event"",""trial"",""time""
""fullscreenenter"",""1"",""3199""
","
","
","""event"",""trial"",""time""
""fullscreenenter"",""1"",""3199""
","
","","","-1","","","12","20729","7696","y","elianto","#f73b6a7A","-1","-1","1","0","[]","0","2","","","20729","134","7","4","lose","no-go","0"
"pit-trial","253","1515890","0.0-139.0","battery-v0.2","","""event"",""trial"",""time""
""fullscreenenter"",""1"",""3199""
","
","
","""event"",""trial"",""time""
""fullscreenenter"",""1"",""3199""
","
","","","693.0999999642372","","","12","20729","7696","r","elianto","#3366ff99"," "," ","1","+10","[1543]","1","2","","","20729","135","8","1","win","go","0"
"pit-trial","254","1519983","0.0-140.0","battery-v0.2","","""event"",""trial"",""time""
""fullscreenenter"",""1"",""3199""
","
","
","""event"",""trial"",""time""
""fullscreenenter"",""1"",""3199""
","
","","","1223.800000011921","","","12","20729","7696","h","elianto","#f73b6a7A"," "," ","1","0","[2082.199999988079]","1","2","","","20729","136","6","3","lose","go","0"
"pit-trial","255","1524041","0.0-141.0","battery-v0.2","","""event"",""trial"",""time""
""fullscreenenter"",""1"",""3199""
","
","
","""event"",""trial"",""time""
""fullscreenenter"",""1"",""3199""
","
","","","1199.6000000238419","","","12","20729","7696","m","elianto","#3366ff99"," "," ","1","0","[2050.300000011921]","1","2","","","20729","137","9","1","win","go","1"
"pit-trial","256","1527882","0.0-142.0","battery-v0.2","","""event"",""trial"",""time""
""fullscreenenter"",""1"",""3199""
","
","
","""event"",""trial"",""time""
""fullscreenenter"",""1"",""3199""
","
","","","972.6999999880791","","","12","20729","7696","r","elianto","#3366ff99"," "," ","1","0","[1823.8999999761581]","1","2","","","20729","138","8","1","win","go","1"
"pit-trial","257","1532422","0.0-143.0","battery-v0.2","","""event"",""trial"",""time""
""fullscreenenter"",""1"",""3199""
","
","
","""event"",""trial"",""time""
""fullscreenenter"",""1"",""3199""
","
","","","1670.9000000357628","","","12","20729","7696","h","elianto","#f73b6a7A"," "," ","1","0","[2528.300000011921]","1","2","","","20729","139","6","3","lose","go","0"
"pit-trial","258","1537288","0.0-144.0","battery-v0.2","","""event"",""trial"",""time""
""fullscreenenter"",""1"",""3199""
","
","
","""event"",""trial"",""time""
""fullscreenenter"",""1"",""3199""
","
","","","-1","","","12","20729","7696","y","elianto","#f73b6a7A","-1","-1","1","0","[]","0","2","","","20729","140","7","4","lose","no-go","0"
"pit-instructions","259","1553346","0.0-145.0","battery-v0.2","","""event"",""trial"",""time""
""fullscreenenter"",""1"",""3199""
","
","
","""event"",""trial"",""time""
""fullscreenenter"",""1"",""3199""
","
","","[{""page_index"":0,""viewing_time"":7466},{""page_index"":1,""viewing_time"":8588.900000035763}]","16055.800000011921","","","","","","","","","","","","","","","","","","","","","","","",""
"pit-trial","260","1557441","0.0-146.0","battery-v0.2","","""event"",""trial"",""time""
""fullscreenenter"",""1"",""3199""
","
","
","""event"",""trial"",""time""
""fullscreenenter"",""1"",""3199""
","
","","","1222","","","12","20729","7696","w","elianto","#f73b6a7A"," "," ","1","0","[2080.400000035763]","1","3","","","20729","141","3","3","lose","go","0"
"pit-trial","261","1562311","0.0-147.0","battery-v0.2","","""event"",""trial"",""time""
""fullscreenenter"",""1"",""3199""
","
","
","""event"",""trial"",""time""
""fullscreenenter"",""1"",""3199""
","
","","","-1","","","12","20729","7696","d","elianto","#3366ff99"," ","-1","0","0","[]","0","3","","","20729","142","1","1","win","go","0"
"pit-trial","262","1567182","0.0-148.0","battery-v0.2","","""event"",""trial"",""time""
""fullscreenenter"",""1"",""3199""
","
","
","""event"",""trial"",""time""
""fullscreenenter"",""1"",""3199""
","
","","","-1","","","12","20729","7696","e","elianto","#f73b6a7A","-1","-1","1","0","[]","0","3","","","20729","143","2","4","lose","no-go","0"
"pit-trial","263","1571356","0.0-149.0","battery-v0.2","","""event"",""trial"",""time""
""fullscreenenter"",""1"",""3199""
","
","
","""event"",""trial"",""time""
""fullscreenenter"",""1"",""3199""
