"trial_type","trial_index","time_elapsed","internal_node_id","task_version","subject_id","interactions","blur_events","focus_events","fullscreenenter_events","fullscreenexit_events","success","view_history","rt","responses","num_errors","age","subject","participantId","rune","rune_set","hex","correct","choice","accuracy","outcome","keys","total_keys","block","practice","value","sub","trial","stimulus","robot","valence","action","sham"
"pavlovia","0","14","0.0-0.0","battery-v0.2","","""event"",""trial"",""time""
""fullscreenenter"",""1"",""5174""
","
","
","""event"",""trial"",""time""
""fullscreenenter"",""1"",""5174""
","
","","","","","","","","","","","","","","","","","","","","","","","","","","",""
"fullscreen","1","6150","0.0-1.0","battery-v0.2","","""event"",""trial"",""time""
""fullscreenenter"",""1"",""5174""
","
","
","""event"",""trial"",""time""
""fullscreenenter"",""1"",""5174""
","
","true","","","","","","","","","","","","","","","","","","","","","","","","","",""
"pit-instructions","2","12522","0.0-2.0-0.0","battery-v0.2","","""event"",""trial"",""time""
""fullscreenenter"",""1"",""5174""
","
","
","""event"",""trial"",""time""
""fullscreenenter"",""1"",""5174""
","
","","[{""page_index"":0,""viewing_time"":6367.400000035763}]","6368.200000047684","","","","","","","","","","","","","","","","","","","","","","","",""
"pit-comprehension","3","15424","0.0-2.0-1.0-0.0","battery-v0.2","","""event"",""trial"",""time""
""fullscreenenter"",""1"",""5174""
","
","
","""event"",""trial"",""time""
""fullscreenenter"",""1"",""5174""
","
","","","2896.300000011921","[""shark""]","0","24","10384","4824","","","","","","","","","","","","","","","","","","",""
"pit-instructions","4","19422","0.0-2.0-1.0-1.0","battery-v0.2","","""event"",""trial"",""time""
""fullscreenenter"",""1"",""5174""
","
","
","""event"",""trial"",""time""
""fullscreenenter"",""1"",""5174""
","
","","[{""page_index"":0,""viewing_time"":3969.099999964237}]","3969.699999988079","","","","","","","","","","","","","","","","","","","","","","","",""
"pit-comprehension","5","23090","0.0-2.0-2.0-0.0","battery-v0.2","","""event"",""trial"",""time""
""fullscreenenter"",""1"",""5174""
","
","
","""event"",""trial"",""time""
""fullscreenenter"",""1"",""5174""
","
","","","3662.199999988079","[""tiger""]","0","24","10384","4824","","","","","","","","","","","","","","","","","","",""
"pit-instructions","6","25160","0.0-2.0-2.0-1.0","battery-v0.2","","""event"",""trial"",""time""
""fullscreenenter"",""1"",""5174""
","
","
","""event"",""trial"",""time""
""fullscreenenter"",""1"",""5174""
","
","","[{""page_index"":0,""viewing_time"":2064.2000000476837}]","2064.900000035763","","","","","","","","","","","","","","","","","","","","","","","",""
"pit-instructions","7","138920","0.0-2.0-3.0","battery-v0.2","","""event"",""trial"",""time""
""fullscreenenter"",""1"",""5174""
","
","
","""event"",""trial"",""time""
""fullscreenenter"",""1"",""5174""
","
","","[{""page_index"":0,""viewing_time"":7609},{""page_index"":1,""viewing_time"":7166.900000035763},{""page_index"":2,""viewing_time"":6641.299999952316},{""page_index"":3,""viewing_time"":5487.300000011921},{""page_index"":4,""viewing_time"":5672.699999988079},{""page_index"":5,""viewing_time"":6766.800000011921},{""page_index"":6,""viewing_time"":6997.400000035763},{""page_index"":7,""viewing_time"":7205.5},{""page_index"":8,""viewing_time"":6574.299999952316},{""page_index"":9,""viewing_time"":7553.600000023842},{""page_index"":10,""viewing_time"":25231.69999998808},{""page_index"":11,""viewing_time"":7681.699999988079},{""page_index"":12,""viewing_time"":7329.300000011921},{""page_index"":13,""viewing_time"":5841.900000035763}]","113760.19999998808","","","","","","","","","","","","","","","","","","","","","","","",""
"pit-trial","8","143800","0.0-2.0-4.0-0.0","battery-v0.2","","""event"",""trial"",""time""
""fullscreenenter"",""1"",""5174""
","
","
","""event"",""trial"",""time""
""fullscreenenter"",""1"",""5174""
","
","","","-1","","","24","10384","4824","&#9784;","elianto","#FFFFF080"," ","-1","0","&#10060","[]","0","0","0","","","","","","","",""
"pit-trial","9","148671","0.0-2.0-4.1-0.1","battery-v0.2","","""event"",""trial"",""time""
""fullscreenenter"",""1"",""5174""
","
","
","""event"",""trial"",""time""
""fullscreenenter"",""1"",""5174""
","
","","","-1","","","24","10384","4824","&#9784;","elianto","#FFFFF080"," ","-1","0","&#10060","[]","0","0","0","","","","","","","",""
"pit-trial","10","152375","0.0-2.0-4.2-0.2","battery-v0.2","","""event"",""trial"",""time""
""fullscreenenter"",""1"",""5174""
","
","
","""event"",""trial"",""time""
""fullscreenenter"",""1"",""5174""
","
","","","842.1999999880791","","","24","10384","4824","&#9784;","elianto","#FFFFF080"," "," ","1","&#10004","[1694]","1","0","0","","","","","","","",""
"pit-trial","11","156510","0.0-2.0-4.3-0.3","battery-v0.2","","""event"",""trial"",""time""
""fullscreenenter"",""1"",""5174""
","
","
","""event"",""trial"",""time""
""fullscreenenter"",""1"",""5174""
","
","","","1264.5999999642372","","","24","10384","4824","&#9784;","elianto","#FFFFF080"," "," ","1","&#10004","[2119.399999976158]","1","0","0","","","","","","","",""
"pit-trial","12","160119","0.0-2.0-4.4-0.4","battery-v0.2","","""event"",""trial"",""time""
""fullscreenenter"",""1"",""5174""
","
","
","""event"",""trial"",""time""
""fullscreenenter"",""1"",""5174""
","
","","","738.1000000238419","","","24","10384","4824","&#9784;","elianto","#FFFFF080"," "," ","1","&#10004","[1596.9000000357628]","1","0","0","","","","","","","",""
"pit-instructions","13","184014","0.0-2.0-5.0","battery-v0.2","","""event"",""trial"",""time""
""fullscreenenter"",""1"",""5174""
","
","
","""event"",""trial"",""time""
""fullscreenenter"",""1"",""5174""
","
","","[{""page_index"":0,""viewing_time"":5394.100000023842},{""page_index"":1,""viewing_time"":5820.199999988079},{""page_index"":2,""viewing_time"":4897.300000011921},{""page_index"":3,""viewing_time"":7779.199999988079}]","23891.600000023842","","","","","","","","","","","","","","","","","","","","","","","",""
"pit-trial","14","188886","0.0-2.0-6.0-0.0","battery-v0.2","","""event"",""trial"",""time""
""fullscreenenter"",""1"",""5174""
","
","
","""event"",""trial"",""time""
""fullscreenenter"",""1"",""5174""
","
","","","-1","","","24","10384","4824","&#9854;","elianto","#FFFFF080","-1","-1","1","&#10004","[]","0","0","1","","","","","","","",""
"pit-trial","15","193753","0.0-2.0-6.1-0.1","battery-v0.2","","""event"",""trial"",""time""
""fullscreenenter"",""1"",""5174""
","
","
","""event"",""trial"",""time""
""fullscreenenter"",""1"",""5174""
","
","","","-1","","","24","10384","4824","&#9854;","elianto","#FFFFF080","-1","-1","1","&#10004","[]","0","0","1","","","","","","","",""
"pit-trial","16","198622","0.0-2.0-6.2-0.2","battery-v0.2","","""event"",""trial"",""time""
""fullscreenenter"",""1"",""5174""
","
","
","""event"",""trial"",""time""
""fullscreenenter"",""1"",""5174""
","
","","","-1","","","24","10384","4824","&#9854;","elianto","#FFFFF080","-1","-1","1","&#10004","[]","0","0","1","","","","","","","",""
"pit-trial","17","203493","0.0-2.0-6.3-0.3","battery-v0.2","","""event"",""trial"",""time""
""fullscreenenter"",""1"",""5174""
","
","
","""event"",""trial"",""time""
""fullscreenenter"",""1"",""5174""
","
","","","-1","","","24","10384","4824","&#9854;","elianto","#FFFFF080","-1","-1","1","&#10004","[]","0","0","1","","","","","","","",""
"pit-trial","18","208365","0.0-2.0-6.4-0.4","battery-v0.2","","""event"",""trial"",""time""
""fullscreenenter"",""1"",""5174""
","
","
","""event"",""trial"",""time""
""fullscreenenter"",""1"",""5174""
","
","","","-1","","","24","10384","4824","&#9854;","elianto","#FFFFF080","-1","-1","1","&#10004","[]","0","0","1","","","","","","","",""
"pit-instructions","19","344474","0.0-2.0-7.0","battery-v0.2","","""event"",""trial"",""time""
""fullscreenenter"",""1"",""5174""
","
","
","""event"",""trial"",""time""
""fullscreenenter"",""1"",""5174""
","
","","[{""page_index"":0,""viewing_time"":8851.800000011921},{""page_index"":1,""viewing_time"":6252.5},{""page_index"":2,""viewing_time"":6742.5},{""page_index"":3,""viewing_time"":6863.100000023842},{""page_index"":4,""viewing_time"":7182.399999976158},{""page_index"":5,""viewing_time"":5303.699999988079},{""page_index"":6,""viewing_time"":4438.600000023842},{""page_index"":7,""viewing_time"":10874.300000011921},{""page_index"":8,""viewing_time"":7386.299999952316},{""page_index"":9,""viewing_time"":6121.800000011921},{""page_index"":10,""viewing_time"":7199.600000023842},{""page_index"":11,""viewing_time"":7314.899999976158},{""page_index"":12,""viewing_time"":6996.300000011921},{""page_index"":13,""viewing_time"":6345.199999988079},{""page_index"":14,""viewing_time"":6719.600000023842},{""page_index"":15,""viewing_time"":8122.599999964237},{""page_index"":16,""viewing_time"":15679.900000035763},{""page_index"":17,""viewing_time"":7714.599999964237}]","136110.40000003576","","","","","","","","","","","","","","","","","","","","","","","",""
"pit-trial","20","349172","0.0-2.0-8.0-0.0","battery-v0.2","","""event"",""trial"",""time""
""fullscreenenter"",""1"",""5174""
","
","
","""event"",""trial"",""time""
""fullscreenenter"",""1"",""5174""
","
","","","1834.300000011921","","","24","10384","4824","&#9776;","elianto","#3366ff99"," "," ","1","+10","[2688.600000023842]","1","0","1","","","","","","","",""
"pit-trial","21","352590","0.0-2.0-8.0-1.0","battery-v0.2","","""event"",""trial"",""time""
""fullscreenenter"",""1"",""5174""
","
","
","""event"",""trial"",""time""
""fullscreenenter"",""1"",""5174""
","
","","","552","","","24","10384","4824","&#9776;","elianto","#3366ff99"," "," ","1","+10","[1403.199999988079]","1","0","1","","","","","","","",""
"pit-trial","22","355991","0.0-2.0-8.0-2.0","battery-v0.2","","""event"",""trial"",""time""
""fullscreenenter"",""1"",""5174""
","
","
","""event"",""trial"",""time""
""fullscreenenter"",""1"",""5174""
","
","","","530.9000000357628","","","24","10384","4824","&#9776;","elianto","#3366ff99"," "," ","1","+10","[1388.3999999761581]","1","0","1","","","","","","","",""
"pit-trial","23","359398","0.0-2.0-8.0-3.0","battery-v0.2","","""event"",""trial"",""time""
""fullscreenenter"",""1"",""5174""
","
","
","""event"",""trial"",""time""
""fullscreenenter"",""1"",""5174""
","
","","","544.6999999880791","","","24","10384","4824","&#9776;","elianto","#3366ff99"," "," ","1","0","[1395.199999988079]","1","0","1","","","","","","","",""
"pit-trial","24","362781","0.0-2.0-8.0-4.0","battery-v0.2","","""event"",""trial"",""time""
""fullscreenenter"",""1"",""5174""
","
","
","""event"",""trial"",""time""
""fullscreenenter"",""1"",""5174""
","
","","","513.6999999880791","","","24","10384","4824","&#9776;","elianto","#3366ff99"," "," ","1","+10","[1369.199999988079]","1","0","1","","","","","","","",""
"pit-trial","25","366060","0.0-2.0-8.1-0.1","battery-v0.2","","""event"",""trial"",""time""
""fullscreenenter"",""1"",""5174""
","
","
","""event"",""trial"",""time""
""fullscreenenter"",""1"",""5174""
","
","","","410","","","24","10384","4824","&#9776;","elianto","#3366ff99"," "," ","1","+10","[1263.300000011921]","1","0","1","","","","","","","",""
"pit-trial","26","369422","0.0-2.0-8.1-1.1","battery-v0.2","","""event"",""trial"",""time""
""fullscreenenter"",""1"",""5174""
","
","
","""event"",""trial"",""time""
""fullscreenenter"",""1"",""5174""
","
","","","496.69999998807907","","","24","10384","4824","&#9776;","elianto","#3366ff99"," "," ","1","+10","[1348.300000011921]","1","0","1","","","","","","","",""
"pit-trial","27","372738","0.0-2.0-8.1-2.1","battery-v0.2","","""event"",""trial"",""time""
""fullscreenenter"",""1"",""5174""
","
","
","""event"",""trial"",""time""
""fullscreenenter"",""1"",""5174""
","
","","","458.30000001192093","","","24","10384","4824","&#9776;","elianto","#3366ff99"," "," ","1","+10","[1308.800000011921]","1","0","1","","","","","","","",""
"pit-trial","28","376081","0.0-2.0-8.1-3.1","battery-v0.2","","""event"",""trial"",""time""
""fullscreenenter"",""1"",""5174""
","
","
","""event"",""trial"",""time""
""fullscreenenter"",""1"",""5174""
","
","","","485.5","","","24","10384","4824","&#9776;","elianto","#3366ff99"," "," ","1","0","[1338]","1","0","1","","","","","","","",""
"pit-trial","29","379611","0.0-2.0-8.1-4.1","battery-v0.2","","""event"",""trial"",""time""
""fullscreenenter"",""1"",""5174""
","
","
","""event"",""trial"",""time""
""fullscreenenter"",""1"",""5174""
","
","","","666.1000000238419","","","24","10384","4824","&#9776;","elianto","#3366ff99"," "," ","1","+10","[1519.4000000357628]","1","0","1","","","","","","","",""
"pit-trial","30","383214","0.0-2.0-8.2-0.2","battery-v0.2","","""event"",""trial"",""time""
""fullscreenenter"",""1"",""5174""
","
","
","""event"",""trial"",""time""
""fullscreenenter"",""1"",""5174""
","
","","","732.6999999880791","","","24","10384","4824","&#9776;","elianto","#3366ff99"," "," ","1","+10","[1592.699999988079,2843.699999988079]","2","0","1","","","","","","","",""
"pit-trial","31","386801","0.0-2.0-8.2-1.2","battery-v0.2","","""event"",""trial"",""time""
""fullscreenenter"",""1"",""5174""
","
","
","""event"",""trial"",""time""
""fullscreenenter"",""1"",""5174""
","
","","","723.9000000357628","","","24","10384","4824","&#9776;","elianto","#3366ff99"," "," ","1","+10","[1580.300000011921]","1","0","1","","","","","","","",""
"pit-trial","32","390289","0.0-2.0-8.2-2.2","battery-v0.2","","""event"",""trial"",""time""
""fullscreenenter"",""1"",""5174""
","
","
","""event"",""trial"",""time""
""fullscreenenter"",""1"",""5174""
","
","","","626.1999999880791","","","24","10384","4824","&#9776;","elianto","#3366ff99"," "," ","1","+10","[1477.800000011921]","1","0","1","","","","","","","",""
"pit-trial","33","393621","0.0-2.0-8.2-3.2","battery-v0.2","","""event"",""trial"",""time""
""fullscreenenter"",""1"",""5174""
","
","
","""event"",""trial"",""time""
""fullscreenenter"",""1"",""5174""
","
","","","463.10000002384186","","","24","10384","4824","&#9776;","elianto","#3366ff99"," "," ","1","0","[1316.7999999523163]","1","0","1","","","","","","","",""
"pit-trial","34","396973","0.0-2.0-8.2-4.2","battery-v0.2","","""event"",""trial"",""time""
""fullscreenenter"",""1"",""5174""
","
","
","""event"",""trial"",""time""
""fullscreenenter"",""1"",""5174""
","
","","","481.30000001192093","","","24","10384","4824","&#9776;","elianto","#3366ff99"," "," ","1","+10","[1340.1000000238419]","1","0","1","","","","","","","",""
"call-function","35","396976","0.0-2.0-9.0","battery-v0.2","","""event"",""trial"",""time""
""fullscreenenter"",""1"",""5174""
","
","
","""event"",""trial"",""time""
""fullscreenenter"",""1"",""5174""
","
","","","","","","","","","","","","","","","","","","","","","","","","","","",""
"pit-instructions","36","441684","0.0-2.0-10.0","battery-v0.2","","""event"",""trial"",""time""
""fullscreenenter"",""1"",""5174""
","
","
","""event"",""trial"",""time""
""fullscreenenter"",""1"",""5174""
","
","","[{""page_index"":0,""viewing_time"":6172.600000023842},{""page_index"":1,""viewing_time"":7246.600000023842},{""page_index"":2,""viewing_time"":12844.199999988079},{""page_index"":3,""viewing_time"":10137},{""page_index"":4,""viewing_time"":8307.5}]","44708.5","","","","","","","","","","","","","","","","","","","","","","","",""
"pit-trial","37","445102","0.0-2.0-11.0-0.0","battery-v0.2","","""event"",""trial"",""time""
""fullscreenenter"",""1"",""5174""
","
","
","""event"",""trial"",""time""
""fullscreenenter"",""1"",""5174""
","
","","","560","","","24","10384","4824","&#9761;","elianto","#3366ff99","-1"," ","0","0","[1412.4000000357628]","1","0","2","","","","","","","",""
"pit-trial","38","448328","0.0-2.0-11.0-1.0","battery-v0.2","","""event"",""trial"",""time""
""fullscreenenter"",""1"",""5174""
","
","
","""event"",""trial"",""time""
""fullscreenenter"",""1"",""5174""
","
","","","362.10000002384186","","","24","10384","4824","&#9761;","elianto","#3366ff99","-1"," ","0","0","[1214.300000011921]","1","0","2","","","","","","","",""
"pit-trial","39","451193","0.0-2.0-11.0-2.0","battery-v0.2","","""event"",""trial"",""time""
""fullscreenenter"",""1"",""5174""
","
","
","""event"",""trial"",""time""
""fullscreenenter"",""1"",""5174""
","
","","","0.8999999761581421","","","24","10384","4824","&#9761;","elianto","#3366ff99","-1"," ","0","0","[852.9000000357628]","1","0","2","","","","","","","",""
"pit-trial","40","454992","0.0-2.0-11.0-3.0","battery-v0.2","","""event"",""trial"",""time""
""fullscreenenter"",""1"",""5174""
","
","
","""event"",""trial"",""time""
""fullscreenenter"",""1"",""5174""
","
","","","927.4000000357628","","","24","10384","4824","&#9761;","elianto","#3366ff99","-1"," ","0","+10","[1786.300000011921]","1","0","2","","","","","","","",""
"pit-trial","41","458265","0.0-2.0-11.0-4.0","battery-v0.2","","""event"",""trial"",""time""
""fullscreenenter"",""1"",""5174""
","
","
","""event"",""trial"",""time""
""fullscreenenter"",""1"",""5174""
","
","","","406.10000002384186","","","24","10384","4824","&#9761;","elianto","#3366ff99","-1"," ","0","0","[1258.1000000238419]","1","0","2","","","","","","","",""
"pit-trial","42","461314","0.0-2.0-11.1-0.1","battery-v0.2","","""event"",""trial"",""time""
""fullscreenenter"",""1"",""5174""
","
","
","""event"",""trial"",""time""
""fullscreenenter"",""1"",""5174""
","
","","","179.69999998807907","","","24","10384","4824","&#9761;","elianto","#3366ff99","-1"," ","0","0","[1032.3999999761581]","1","0","2","","","","","","","",""
"pit-trial","43","464663","0.0-2.0-11.1-1.1","battery-v0.2","","""event"",""trial"",""time""
""fullscreenenter"",""1"",""5174""
","
","
","""event"",""trial"",""time""
""fullscreenenter"",""1"",""5174""
","
","","","485.30000001192093","","","24","10384","4824","&#9761;","elianto","#3366ff99","-1"," ","0","0","[1341.3999999761581]","1","0","2","","","","","","","",""
"pit-trial","44","467961","0.0-2.0-11.1-2.1","battery-v0.2","","""event"",""trial"",""time""
""fullscreenenter"",""1"",""5174""
","
","
","""event"",""trial"",""time""
""fullscreenenter"",""1"",""5174""
","
","","","435.19999998807907","","","24","10384","4824","&#9761;","elianto","#3366ff99","-1"," ","0","0","[1287.800000011921]","1","0","2","","","","","","","",""
"pit-trial","45","471353","0.0-2.0-11.1-3.1","battery-v0.2","","""event"",""trial"",""time""
""fullscreenenter"",""1"",""5174""
","
","
","""event"",""trial"",""time""
""fullscreenenter"",""1"",""5174""
","
","","","519.1000000238419","","","24","10384","4824","&#9761;","elianto","#3366ff99","-1"," ","0","+10","[1377]","1","0","2","","","","","","","",""
"pit-trial","46","476225","0.0-2.0-11.1-4.1","battery-v0.2","","""event"",""trial"",""time""
""fullscreenenter"",""1"",""5174""
","
","
","""event"",""trial"",""time""
""fullscreenenter"",""1"",""5174""
","
","","","-1","","","24","10384","4824","&#9761;","elianto","#3366ff99","-1","-1","1","+10","[]","0","0","2","","","","","","","",""
"pit-trial","47","481097","0.0-2.0-11.2-0.2","battery-v0.2","","""event"",""trial"",""time""
""fullscreenenter"",""1"",""5174""
","
","
","""event"",""trial"",""time""
""fullscreenenter"",""1"",""5174""
","
","","","-1","","","24","10384","4824","&#9761;","elianto","#3366ff99","-1","-1","1","+10","[]","0","0","2","","","","","","","",""
"pit-trial","48","485969","0.0-2.0-11.2-1.2","battery-v0.2","","""event"",""trial"",""time""
""fullscreenenter"",""1"",""5174""
","
","
","""event"",""trial"",""time""
""fullscreenenter"",""1"",""5174""
","
","","","-1","","","24","10384","4824","&#9761;","elianto","#3366ff99","-1","-1","1","+10","[]","0","0","2","","","","","","","",""
"pit-trial","49","488929","0.0-2.0-11.2-2.2","battery-v0.2","","""event"",""trial"",""time""
""fullscreenenter"",""1"",""5174""
","
","
","""event"",""trial"",""time""
""fullscreenenter"",""1"",""5174""
","
","","","95.69999998807907","","","24","10384","4824","&#9761;","elianto","#3366ff99","-1"," ","0","0","[945.9000000357628]","1","0","2","","","","","","","",""
"pit-trial","50","493800","0.0-2.0-11.2-3.2","battery-v0.2","","""event"",""trial"",""time""
""fullscreenenter"",""1"",""5174""
","
","
","""event"",""trial"",""time""
""fullscreenenter"",""1"",""5174""
","
","","","-1","","","24","10384","4824","&#9761;","elianto","#3366ff99","-1","-1","1","0","[]","0","0","2","","","","","","","",""
"pit-trial","51","498669","0.0-2.0-11.2-4.2","battery-v0.2","","""event"",""trial"",""time""
""fullscreenenter"",""1"",""5174""
","
","
","""event"",""trial"",""time""
""fullscreenenter"",""1"",""5174""
","
","","","-1","","","24","10384","4824","&#9761;","elianto","#3366ff99","-1","-1","1","+10","[]","0","0","2","","","","","","","",""
"pit-trial","52","503536","0.0-2.0-11.3-0.3","battery-v0.2","","""event"",""trial"",""time""
""fullscreenenter"",""1"",""5174""
","
","
","""event"",""trial"",""time""
""fullscreenenter"",""1"",""5174""
","
","","","-1","","","24","10384","4824","&#9761;","elianto","#3366ff99","-1","-1","1","+10","[]","0","0","2","","","","","","","",""
"pit-trial","53","508409","0.0-2.0-11.3-1.3","battery-v0.2","","""event"",""trial"",""time""
""fullscreenenter"",""1"",""5174""
","
","
","""event"",""trial"",""time""
""fullscreenenter"",""1"",""5174""
","
","","","-1","","","24","10384","4824","&#9761;","elianto","#3366ff99","-1","-1","1","+10","[]","0","0","2","","","","","","","",""
"pit-trial","54","513280","0.0-2.0-11.3-2.3","battery-v0.2","","""event"",""trial"",""time""
""fullscreenenter"",""1"",""5174""
","
","
","""event"",""trial"",""time""
""fullscreenenter"",""1"",""5174""
","
","","","-1","","","24","10384","4824","&#9761;","elianto","#3366ff99","-1","-1","1","+10","[]","0","0","2","","","","","","","",""
"pit-trial","55","518152","0.0-2.0-11.3-3.3","battery-v0.2","","""event"",""trial"",""time""
""fullscreenenter"",""1"",""5174""
","
","
","""event"",""trial"",""time""
""fullscreenenter"",""1"",""5174""
","
","","","-1","","","24","10384","4824","&#9761;","elianto","#3366ff99","-1","-1","1","0","[]","0","0","2","","","","","","","",""
"pit-trial","56","523023","0.0-2.0-11.3-4.3","battery-v0.2","","""event"",""trial"",""time""
""fullscreenenter"",""1"",""5174""
","
","
","""event"",""trial"",""time""
""fullscreenenter"",""1"",""5174""
","
","","","-1","","","24","10384","4824","&#9761;","elianto","#3366ff99","-1","-1","1","+10","[]","0","0","2","","","","","","","",""
"call-function","57","523026","0.0-2.0-12.0","battery-v0.2","","""event"",""trial"",""time""
""fullscreenenter"",""1"",""5174""
","
","
","""event"",""trial"",""time""
""fullscreenenter"",""1"",""5174""
","
","","","","","","","","","","","","","","","","","","","","","","","","","","",""
"pit-instructions","58","562839","0.0-2.0-13.0","battery-v0.2","","""event"",""trial"",""time""
""fullscreenenter"",""1"",""5174""
","
","
","""event"",""trial"",""time""
""fullscreenenter"",""1"",""5174""
","
","","[{""page_index"":0,""viewing_time"":4561.699999988079},{""page_index"":1,""viewing_time"":8801.5},{""page_index"":2,""viewing_time"":4509.800000011921},{""page_index"":3,""viewing_time"":16418.099999964237},{""page_index"":4,""viewing_time"":5521.100000023842}]","39812.89999997616","","","","","","","","","","","","","","","","","","","","","","","",""
"pit-trial","59","565803","0.0-2.0-14.0-0.0","battery-v0.2","","""event"",""trial"",""time""
""fullscreenenter"",""1"",""5174""
","
","
","""event"",""trial"",""time""
""fullscreenenter"",""1"",""5174""
","
","","","98","","","24","10384","4824","&#9826;","elianto","#f73b6a7A","-1"," ","0","-10","[954]","1","0","3","","","","","","","",""
"pit-trial","60","568801","0.0-2.0-14.0-1.0","battery-v0.2","","""event"",""trial"",""time""
""fullscreenenter"",""1"",""5174""
","
","
","""event"",""trial"",""time""
""fullscreenenter"",""1"",""5174""
","
","","","137.9000000357628","","","24","10384","4824","&#9826;","elianto","#f73b6a7A","-1"," ","0","-10","[988.4000000357628]","1","0","3","","","","","","","",""
"pit-trial","61","571674","0.0-2.0-14.0-2.0","battery-v0.2","","""event"",""trial"",""time""
""fullscreenenter"",""1"",""5174""
","
","
","""event"",""trial"",""time""
""fullscreenenter"",""1"",""5174""
","
","","","13.899999976158142","","","24","10384","4824","&#9826;","elianto","#f73b6a7A","-1"," ","0","-10","[864.5]","1","0","3","","","","","","","",""
"pit-trial","62","576541","0.0-2.0-14.0-3.0","battery-v0.2","","""event"",""trial"",""time""
""fullscreenenter"",""1"",""5174""
","
","
","""event"",""trial"",""time""
""fullscreenenter"",""1"",""5174""
","
","","","-1","","","24","10384","4824","&#9826;","elianto","#f73b6a7A","-1","-1","1","-10","[]","0","0","3","","","","","","","",""
"pit-trial","63","581409","0.0-2.0-14.0-4.0","battery-v0.2","","""event"",""trial"",""time""
""fullscreenenter"",""1"",""5174""
","
","
","""event"",""trial"",""time""
""fullscreenenter"",""1"",""5174""
","
","","","-1","","","24","10384","4824","&#9826;","elianto","#f73b6a7A","-1","-1","1","0","[]","0","0","3","","","","","","","",""
"pit-trial","64","586276","0.0-2.0-14.1-0.1","battery-v0.2","","""event"",""trial"",""time""
""fullscreenenter"",""1"",""5174""
","
","
","""event"",""trial"",""time""
""fullscreenenter"",""1"",""5174""
","
","","","-1","","","24","10384","4824","&#9826;","elianto","#f73b6a7A","-1","-1","1","0","[]","0","0","3","","","","","","","",""
"pit-trial","65","591146","0.0-2.0-14.1-1.1","battery-v0.2","","""event"",""trial"",""time""
""fullscreenenter"",""1"",""5174""
","
","
","""event"",""trial"",""time""
""fullscreenenter"",""1"",""5174""
","
","","","-1","","","24","10384","4824","&#9826;","elianto","#f73b6a7A","-1","-1","1","0","[]","0","0","3","","","","","","","",""
"pit-trial","66","596019","0.0-2.0-14.1-2.1","battery-v0.2","","""event"",""trial"",""time""
""fullscreenenter"",""1"",""5174""
","
","
","""event"",""trial"",""time""
""fullscreenenter"",""1"",""5174""
","
","","","-1","","","24","10384","4824","&#9826;","elianto","#f73b6a7A","-1","-1","1","0","[]","0","0","3","","","","","","","",""
"pit-trial","67","600892","0.0-2.0-14.1-3.1","battery-v0.2","","""event"",""trial"",""time""
""fullscreenenter"",""1"",""5174""
","
","
","""event"",""trial"",""time""
""fullscreenenter"",""1"",""5174""
","
","","","-1","","","24","10384","4824","&#9826;","elianto","#f73b6a7A","-1","-1","1","-10","[]","0","0","3","","","","","","","",""
"pit-trial","68","605764","0.0-2.0-14.1-4.1","battery-v0.2","","""event"",""trial"",""time""
""fullscreenenter"",""1"",""5174""
","
","
","""event"",""trial"",""time""
""fullscreenenter"",""1"",""5174""
","
","","","-1","","","24","10384","4824","&#9826;","elianto","#f73b6a7A","-1","-1","1","0","[]","0","0","3","","","","","","","",""
"pit-trial","69","610635","0.0-2.0-14.2-0.2","battery-v0.2","","""event"",""trial"",""time""
""fullscreenenter"",""1"",""5174""
","
","
","""event"",""trial"",""time""
""fullscreenenter"",""1"",""5174""
","
","","","-1","","","24","10384","4824","&#9826;","elianto","#f73b6a7A","-1","-1","1","0","[]","0","0","3","","","","","","","",""
"pit-trial","70","615508","0.0-2.0-14.2-1.2","battery-v0.2","","""event"",""trial"",""time""
""fullscreenenter"",""1"",""5174""
","
","
","""event"",""trial"",""time""
""fullscreenenter"",""1"",""5174""
","
","","","-1","","","24","10384","4824","&#9826;","elianto","#f73b6a7A","-1","-1","1","0","[]","0","0","3","","","","","","","",""
"pit-trial","71","620376","0.0-2.0-14.2-2.2","battery-v0.2","","""event"",""trial"",""time""
""fullscreenenter"",""1"",""5174""
","
","
","""event"",""trial"",""time""
""fullscreenenter"",""1"",""5174""
","
","","","-1","","","24","10384","4824","&#9826;","elianto","#f73b6a7A","-1","-1","1","0","[]","0","0","3","","","","","","","",""
"pit-trial","72","625244","0.0-2.0-14.2-3.2","battery-v0.2","","""event"",""trial"",""time""
""fullscreenenter"",""1"",""5174""
","
","
","""event"",""trial"",""time""
""fullscreenenter"",""1"",""5174""
","
","","","-1","","","24","10384","4824","&#9826;","elianto","#f73b6a7A","-1","-1","1","-10","[]","0","0","3","","","","","","","",""
"pit-trial","73","630115","0.0-2.0-14.2-4.2","battery-v0.2","","""event"",""trial"",""time""
""fullscreenenter"",""1"",""5174""
","
","
","""event"",""trial"",""time""
""fullscreenenter"",""1"",""5174""
","
","","","-1","","","24","10384","4824","&#9826;","elianto","#f73b6a7A","-1","-1","1","0","[]","0","0","3","","","","","","","",""
"pit-trial","74","634986","0.0-2.0-14.3-0.3","battery-v0.2","","""event"",""trial"",""time""
""fullscreenenter"",""1"",""5174""
","
","
","""event"",""trial"",""time""
""fullscreenenter"",""1"",""5174""
","
","","","-1","","","24","10384","4824","&#9826;","elianto","#f73b6a7A","-1","-1","1","0","[]","0","0","3","","","","","","","",""
"pit-trial","75","639856","0.0-2.0-14.3-1.3","battery-v0.2","","""event"",""trial"",""time""
""fullscreenenter"",""1"",""5174""
","
","
","""event"",""trial"",""time""
""fullscreenenter"",""1"",""5174""
","
","","","-1","","","24","10384","4824","&#9826;","elianto","#f73b6a7A","-1","-1","1","0","[]","0","0","3","","","","","","","",""
"pit-trial","76","644722","0.0-2.0-14.3-2.3","battery-v0.2","","""event"",""trial"",""time""
""fullscreenenter"",""1"",""5174""
","
","
","""event"",""trial"",""time""
""fullscreenenter"",""1"",""5174""
","
","","","-1","","","24","10384","4824","&#9826;","elianto","#f73b6a7A","-1","-1","1","0","[]","0","0","3","","","","","","","",""
"pit-trial","77","649590","0.0-2.0-14.3-3.3","battery-v0.2","","""event"",""trial"",""time""
""fullscreenenter"",""1"",""5174""
","
","
","""event"",""trial"",""time""
""fullscreenenter"",""1"",""5174""
","
","","","-1","","","24","10384","4824","&#9826;","elianto","#f73b6a7A","-1","-1","1","-10","[]","0","0","3","","","","","","","",""
"pit-trial","78","654458","0.0-2.0-14.3-4.3","battery-v0.2","","""event"",""trial"",""time""
""fullscreenenter"",""1"",""5174""
","
","
","""event"",""trial"",""time""
""fullscreenenter"",""1"",""5174""
","
","","","-1","","","24","10384","4824","&#9826;","elianto","#f73b6a7A","-1","-1","1","0","[]","0","0","3","","","","","","","",""
"call-function","79","654461","0.0-2.0-15.0","battery-v0.2","","""event"",""trial"",""time""
""fullscreenenter"",""1"",""5174""
","
","
","""event"",""trial"",""time""
""fullscreenenter"",""1"",""5174""
","
","","","","","","","","","","","","","","","","","","","","","","","","","","",""
"pit-instructions","80","683692","0.0-2.0-16.0","battery-v0.2","","""event"",""trial"",""time""
""fullscreenenter"",""1"",""5174""
","
","
","""event"",""trial"",""time""
""fullscreenenter"",""1"",""5174""
","
","","[{""page_index"":0,""viewing_time"":6505},{""page_index"":1,""viewing_time"":8136.5},{""page_index"":2,""viewing_time"":7702.900000035763},{""page_index"":3,""viewing_time"":6886.299999952316}]","29231.5","","","","","","","","","","","","","","","","","","","","","","","",""
"pit-trial","81","688561","0.0-2.0-17.0-0.0","battery-v0.2","","""event"",""trial"",""time""
""fullscreenenter"",""1"",""5174""
","
","
","""event"",""trial"",""time""
""fullscreenenter"",""1"",""5174""
","
","","","-1","","","24","10384","4824","&#9789;","elianto","#f73b6a7A"," ","-1","0","-10","[]","0","0","4","","","","","","","",""
"pit-trial","82","691853","0.0-2.0-17.0-1.0","battery-v0.2","","""event"",""trial"",""time""
""fullscreenenter"",""1"",""5174""
","
","
","""event"",""trial"",""time""
""fullscreenenter"",""1"",""5174""
","
","","","428.19999998807907","","","24","10384","4824","&#9789;","elianto","#f73b6a7A"," "," ","1","0","[1285.5999999642372]","1","0","4","","","","","","","",""
"pit-trial","83","695117","0.0-2.0-17.0-2.0","battery-v0.2","","""event"",""trial"",""time""
""fullscreenenter"",""1"",""5174""
","
","
","""event"",""trial"",""time""
""fullscreenenter"",""1"",""5174""
","
","","","399.80000001192093","","","24","10384","4824","&#9789;","elianto","#f73b6a7A"," "," ","1","0","[1251.8999999761581]","1","0","4","","","","","","","",""
"pit-trial","84","698229","0.0-2.0-17.0-3.0","battery-v0.2","","""event"",""trial"",""time""
""fullscreenenter"",""1"",""5174""
","
","
","""event"",""trial"",""time""
""fullscreenenter"",""1"",""5174""
","
","","","255","","","24","10384","4824","&#9789;","elianto","#f73b6a7A"," "," ","1","-10","[1106]","1","0","4","","","","","","","",""
"pit-trial","85","701217","0.0-2.0-17.0-4.0","battery-v0.2","","""event"",""trial"",""time""
""fullscreenenter"",""1"",""5174""
","
","
","""event"",""trial"",""time""
""fullscreenenter"",""1"",""5174""
","
","","","122.09999996423721","","","24","10384","4824","&#9789;","elianto","#f73b6a7A"," "," ","1","0","[975.6999999880791]","1","0","4","","","","","","","",""
"pit-trial","86","704350","0.0-2.0-17.1-0.1","battery-v0.2","","""event"",""trial"",""time""
""fullscreenenter"",""1"",""5174""
","
","
","""event"",""trial"",""time""
""fullscreenenter"",""1"",""5174""
","
","","","270","","","24","10384","4824","&#9789;","elianto","#f73b6a7A"," "," ","1","0","[1121]","1","0","4","","","","","","","",""
"pit-trial","87","707272","0.0-2.0-17.1-1.1","battery-v0.2","","""event"",""trial"",""time""
""fullscreenenter"",""1"",""5174""
","
","
","""event"",""trial"",""time""
""fullscreenenter"",""1"",""5174""
","
","","","55.5","","","24","10384","4824","&#9789;","elianto","#f73b6a7A"," "," ","1","0","[372,905.6999999880791]","2","0","4","","","","","","","",""
"pit-trial","88","711995","0.0-2.0-17.1-2.1","battery-v0.2","","""event"",""trial"",""time""
""fullscreenenter"",""1"",""5174""
","
","
","""event"",""trial"",""time""
""fullscreenenter"",""1"",""5174""
","
","","","1854.9000000357628","","","24","10384","4824","&#9789;","elianto","#f73b6a7A"," "," ","1","0","[788.1999999880791,2711.899999976158]","2","0","4","","","","","","","",""
"pit-trial","89","715127","0.0-2.0-17.1-3.1","battery-v0.2","","""event"",""trial"",""time""
""fullscreenenter"",""1"",""5174""
","
","
","""event"",""trial"",""time""
""fullscreenenter"",""1"",""5174""
","
","","","266.9000000357628","","","24","10384","4824","&#9789;","elianto","#f73b6a7A"," "," ","1","-10","[1122.6000000238419]","1","0","4","","","","","","","",""
"pit-trial","90","718099","0.0-2.0-17.1-4.1","battery-v0.2","","""event"",""trial"",""time""
""fullscreenenter"",""1"",""5174""
","
","
","""event"",""trial"",""time""
""fullscreenenter"",""1"",""5174""
","
","","","104.39999997615814","","","24","10384","4824","&#9789;","elianto","#f73b6a7A"," "," ","1","0","[962.0999999642372]","1","0","4","","","","","","","",""
"pit-trial","91","721356","0.0-2.0-17.2-0.2","battery-v0.2","","""event"",""trial"",""time""
""fullscreenenter"",""1"",""5174""
","
","
","""event"",""trial"",""time""
""fullscreenenter"",""1"",""5174""
","
","","","393.30000001192093","","","24","10384","4824","&#9789;","elianto","#f73b6a7A"," "," ","1","0","[1243.8999999761581]","1","0","4","","","","","","","",""
"pit-trial","92","725223","0.0-2.0-17.2-1.2","battery-v0.2","","""event"",""trial"",""time""
""fullscreenenter"",""1"",""5174""
","
","
","""event"",""trial"",""time""
""fullscreenenter"",""1"",""5174""
","
","","","998.8000000119209","","","24","10384","4824","&#9789;","elianto","#f73b6a7A"," "," ","1","0","[1850.6000000238419]","1","0","4","","","","","","","",""
"pit-trial","93","728103","0.0-2.0-17.2-2.2","battery-v0.2","","""event"",""trial"",""time""
""fullscreenenter"",""1"",""5174""
","
","
","""event"",""trial"",""time""
""fullscreenenter"",""1"",""5174""
","
","","","10","","","24","10384","4824","&#9789;","elianto","#f73b6a7A"," "," ","1","0","[867.3000000119209]","1","0","4","","","","","","","",""
"pit-trial","94","732062","0.0-2.0-17.2-3.2","battery-v0.2","","""event"",""trial"",""time""
""fullscreenenter"",""1"",""5174""
","
","
","""event"",""trial"",""time""
""fullscreenenter"",""1"",""5174""
","
","","","1090.300000011921","","","24","10384","4824","&#9789;","elianto","#f73b6a7A"," "," ","1","-10","[1947.0999999642372]","1","0","4","","","","","","","",""
"pit-trial","95","735215","0.0-2.0-17.2-4.2","battery-v0.2","","""event"",""trial"",""time""
""fullscreenenter"",""1"",""5174""
","
","
","""event"",""trial"",""time""
""fullscreenenter"",""1"",""5174""
","
","","","283.5","","","24","10384","4824","&#9789;","elianto","#f73b6a7A"," "," ","1","0","[194.5,1140.199999988079,2129.399999976158]","3","0","4","","","","","","","",""
"pit-trial","96","739198","0.0-2.0-17.3-0.3","battery-v0.2","","""event"",""trial"",""time""
""fullscreenenter"",""1"",""5174""
","
","
","""event"",""trial"",""time""
""fullscreenenter"",""1"",""5174""
","
","","","1122","","","24","10384","4824","&#9789;","elianto","#f73b6a7A"," "," ","1","0","[1973.8999999761581,3286.599999964237]","2","0","4","","","","","","","",""
"pit-trial","97","742398","0.0-2.0-17.3-1.3","battery-v0.2","","""event"",""trial"",""time""
""fullscreenenter"",""1"",""5174""
","
","
","""event"",""trial"",""time""
""fullscreenenter"",""1"",""5174""
","
","","","338.7999999523163","","","24","10384","4824","&#9789;","elianto","#f73b6a7A"," "," ","1","0","[1190.2999999523163,1479.3999999761581,3131.699999988079]","3","0","4","","","","","","","",""
"pit-trial","98","746018","0.0-2.0-17.3-2.3","battery-v0.2","","""event"",""trial"",""time""
""fullscreenenter"",""1"",""5174""
","
","
","""event"",""trial"",""time""
""fullscreenenter"",""1"",""5174""
","
","","","757.0999999642372","","","24","10384","4824","&#9789;","elianto","#f73b6a7A"," "," ","1","0","[1609.6000000238419]","1","0","4","","","","","","","",""
"pit-trial","99","750422","0.0-2.0-17.3-3.3","battery-v0.2","","""event"",""trial"",""time""
""fullscreenenter"",""1"",""5174""
","
","
","""event"",""trial"",""time""
""fullscreenenter"",""1"",""5174""
","
","","","1534.9000000357628","","","24","10384","4824","&#9789;","elianto","#f73b6a7A"," "," ","1","-10","[2387.699999988079]","1","0","4","","","","","","","",""
"pit-trial","100","754844","0.0-2.0-17.3-4.3","battery-v0.2","","""event"",""trial"",""time""
""fullscreenenter"",""1"",""5174""
","
","
","""event"",""trial"",""time""
""fullscreenenter"",""1"",""5174""
","
","","","1553.800000011921","","","24","10384","4824","&#9789;","elianto","#f73b6a7A"," "," ","1","0","[270.10000002384186,2411.899999976158]","2","0","4","","","","","","","",""
"call-function","101","754847","0.0-2.0-18.0","battery-v0.2","","""event"",""trial"",""time""
""fullscreenenter"",""1"",""5174""
""blur"",""102"",""817132""
""focus"",""102"",""823751""
","""event"",""trial"",""time""
""blur"",""102"",""817132""
","""event"",""trial"",""time""
""focus"",""102"",""823751""
","""event"",""trial"",""time""
""fullscreenenter"",""1"",""5174""
","
","","","","","","","","","","","","","","","","","","","","","","","","","","",""
"pit-instructions","102","831538","0.0-2.0-19.0","battery-v0.2","","""event"",""trial"",""time""
""fullscreenenter"",""1"",""5174""
""blur"",""102"",""817132""
""focus"",""102"",""823751""
","""event"",""trial"",""time""
""blur"",""102"",""817132""
","""event"",""trial"",""time""
""focus"",""102"",""823751""
","""event"",""trial"",""time""
""fullscreenenter"",""1"",""5174""
","
","","[{""page_index"":0,""viewing_time"":12578.299999952316},{""page_index"":1,""viewing_time"":6945},{""page_index"":2,""viewing_time"":11109.5},{""page_index"":3,""viewing_time"":4064.5},{""page_index"":4,""viewing_time"":8195.800000011921},{""page_index"":5,""viewing_time"":8749.800000011921},{""page_index"":6,""viewing_time"":5145.100000023842},{""page_index"":7,""viewing_time"":12802.599999964237},{""page_index"":8,""viewing_time"":7101.199999988079}]","76692.79999995232","","","","","","","","","","","","","","","","","","","","","","","",""
"pit-comprehension","103","836021","0.0-2.0-20.0-0.0","battery-v0.2","","""event"",""trial"",""time""
""fullscreenenter"",""1"",""5174""
""blur"",""102"",""817132""
""focus"",""102"",""823751""
","""event"",""trial"",""time""
""blur"",""102"",""817132""
","""event"",""trial"",""time""
""focus"",""102"",""823751""
","""event"",""trial"",""time""
""fullscreenenter"",""1"",""5174""
","
","","","4477.800000011921","[""SPACE""]","0","24","10384","4824","","","","","","","","","","","","","","","","","","",""
"pit-instructions","104","840238","0.0-2.0-20.0-1.0","battery-v0.2","","""event"",""trial"",""time""
""fullscreenenter"",""1"",""5174""
""blur"",""102"",""817132""
""focus"",""102"",""823751""
","""event"",""trial"",""time""
""blur"",""102"",""817132""
","""event"",""trial"",""time""
""focus"",""102"",""823751""
","""event"",""trial"",""time""
""fullscreenenter"",""1"",""5174""
","
","","[{""page_index"":0,""viewing_time"":4191.100000023842}]","4191.900000035763","","","","","","","","","","","","","","","","","","","","","","","",""
"pit-comprehension","105","844889","0.0-2.0-21.0-0.0","battery-v0.2","","""event"",""trial"",""time""
""fullscreenenter"",""1"",""5174""
""blur"",""102"",""817132""
""focus"",""102"",""823751""
","""event"",""trial"",""time""
""blur"",""102"",""817132""
","""event"",""trial"",""time""
""focus"",""102"",""823751""
","""event"",""trial"",""time""
""fullscreenenter"",""1"",""5174""
","
","","","4646.199999988079","[""10""]","0","24","10384","4824","","","","","","","","","","","","","","","","","","",""
"pit-instructions","106","848389","0.0-2.0-21.0-1.0","battery-v0.2","","""event"",""trial"",""time""
""fullscreenenter"",""1"",""5174""
""blur"",""102"",""817132""
""focus"",""102"",""823751""
","""event"",""trial"",""time""
""blur"",""102"",""817132""
","""event"",""trial"",""time""
""focus"",""102"",""823751""
","""event"",""trial"",""time""
""fullscreenenter"",""1"",""5174""
","
","","[{""page_index"":0,""viewing_time"":3475}]","3475.600000023842","","","","","","","","","","","","","","","","","","","","","","","",""
"pit-comprehension","107","857621","0.0-2.0-22.0-0.0","battery-v0.2","","""event"",""trial"",""time""
""fullscreenenter"",""1"",""5174""
""blur"",""102"",""817132""
""focus"",""102"",""823751""
","""event"",""trial"",""time""
""blur"",""102"",""817132""
","""event"",""trial"",""time""
""focus"",""102"",""823751""
","""event"",""trial"",""time""
""fullscreenenter"",""1"",""5174""
","
","","","9227.400000035763","[""0""]","0","24","10384","4824","","","","","","","","","","","","","","","","","","",""
"pit-instructions","108","862991","0.0-2.0-22.0-1.0","battery-v0.2","","""event"",""trial"",""time""
""fullscreenenter"",""1"",""5174""
""blur"",""102"",""817132""
""focus"",""102"",""823751""
","""event"",""trial"",""time""
""blur"",""102"",""817132""
","""event"",""trial"",""time""
""focus"",""102"",""823751""
","""event"",""trial"",""time""
""fullscreenenter"",""1"",""5174""
","
","","[{""page_index"":0,""viewing_time"":5346.199999988079}]","5346.800000011921","","","","","","","","","","","","","","","","","","","","","","","",""
"pit-comprehension","109","876879","0.0-2.0-23.0-0.0","battery-v0.2","","""event"",""trial"",""time""
""fullscreenenter"",""1"",""5174""
""blur"",""102"",""817132""
""focus"",""102"",""823751""
","""event"",""trial"",""time""
""blur"",""102"",""817132""
","""event"",""trial"",""time""
""focus"",""102"",""823751""
","""event"",""trial"",""time""
""fullscreenenter"",""1"",""5174""
","
","","","13882.200000047684","[""True""]","0","24","10384","4824","","","","","","","","","","","","","","","","","","",""
"pit-instructions","110","881469","0.0-2.0-23.0-1.0","battery-v0.2","","""event"",""trial"",""time""
""fullscreenenter"",""1"",""5174""
""blur"",""102"",""817132""
""focus"",""102"",""823751""
","""event"",""trial"",""time""
""blur"",""102"",""817132""
","""event"",""trial"",""time""
""focus"",""102"",""823751""
","""event"",""trial"",""time""
""fullscreenenter"",""1"",""5174""
","
","","[{""page_index"":0,""viewing_time"":4565.200000047684}]","4565.400000035763","","","","","","","","","","","","","","","","","","","","","","","",""
"pit-comprehension","111","891123","0.0-2.0-24.0-0.0","battery-v0.2","","""event"",""trial"",""time""
""fullscreenenter"",""1"",""5174""
""blur"",""102"",""817132""
""focus"",""102"",""823751""
","""event"",""trial"",""time""
""blur"",""102"",""817132""
","""event"",""trial"",""time""
""focus"",""102"",""823751""
","""event"",""trial"",""time""
""fullscreenenter"",""1"",""5174""
","
","","","9651.300000011921","[""True""]","0","24","10384","4824","","","","","","","","","","","","","","","","","","",""
"pit-instructions","112","897590","0.0-2.0-24.0-1.0","battery-v0.2","","""event"",""trial"",""time""
""fullscreenenter"",""1"",""5174""
""blur"",""102"",""817132""
""focus"",""102"",""823751""
","""event"",""trial"",""time""
""blur"",""102"",""817132""
","""event"",""trial"",""time""
""focus"",""102"",""823751""
","""event"",""trial"",""time""
""fullscreenenter"",""1"",""5174""
","
","","[{""page_index"":0,""viewing_time"":6440.5}]","6441","","","","","","","","","","","","","","","","","","","","","","","",""
"pit-comprehension","113","904961","0.0-2.0-25.0-0.0","battery-v0.2","","""event"",""trial"",""time""
""fullscreenenter"",""1"",""5174""
""blur"",""102"",""817132""
""focus"",""102"",""823751""
","""event"",""trial"",""time""
""blur"",""102"",""817132""
","""event"",""trial"",""time""
""focus"",""102"",""823751""
","""event"",""trial"",""time""
""fullscreenenter"",""1"",""5174""
","
","","","7366.800000011921","[""True""]","0","24","10384","4824","","","","","","","","","","","","","","","","","","",""
"pit-instructions","114","907874","0.0-2.0-25.0-1.0","battery-v0.2","","""event"",""trial"",""time""
""fullscreenenter"",""1"",""5174""
""blur"",""102"",""817132""
""focus"",""102"",""823751""
","""event"",""trial"",""time""
""blur"",""102"",""817132""
","""event"",""trial"",""time""
""focus"",""102"",""823751""
","""event"",""trial"",""time""
""fullscreenenter"",""1"",""5174""
","
","","[{""page_index"":0,""viewing_time"":2887.900000035763}]","2888.5","","","","","","","","","","","","","","","","","","","","","","","",""
"pit-comprehension","115","912471","0.0-2.0-26.0-0.0","battery-v0.2","","""event"",""trial"",""time""
""fullscreenenter"",""1"",""5174""
""blur"",""102"",""817132""
""focus"",""102"",""823751""
","""event"",""trial"",""time""
""blur"",""102"",""817132""
","""event"",""trial"",""time""
""focus"",""102"",""823751""
","""event"",""trial"",""time""
""fullscreenenter"",""1"",""5174""
","
","","","4591.699999988079","[""False""]","0","24","10384","4824","","","","","","","","","","","","","","","","","","",""
"pit-instructions","116","916292","0.0-2.0-26.0-1.0","battery-v0.2","","""event"",""trial"",""time""
""fullscreenenter"",""1"",""5174""
""blur"",""102"",""817132""
""focus"",""102"",""823751""
","""event"",""trial"",""time""
""blur"",""102"",""817132""
","""event"",""trial"",""time""
""focus"",""102"",""823751""
","""event"",""trial"",""time""
""fullscreenenter"",""1"",""5174""
","
","","[{""page_index"":0,""viewing_time"":3792.900000035763}]","3793.5","","","","","","","","","","","","","","","","","","","","","","","",""
"pit-instructions","117","939532","0.0-3.0","battery-v0.2","","""event"",""trial"",""time""
""fullscreenenter"",""1"",""5174""
""blur"",""102"",""817132""
""focus"",""102"",""823751""
","""event"",""trial"",""time""
""blur"",""102"",""817132""
","""event"",""trial"",""time""
""focus"",""102"",""823751""
","""event"",""trial"",""time""
""fullscreenenter"",""1"",""5174""
","
","","[{""page_index"":0,""viewing_time"":5018.899999976158},{""page_index"":1,""viewing_time"":11424.699999988079},{""page_index"":2,""viewing_time"":6793.300000011921}]","23237.5","","","","","","","","","","","","","","","","","","","","","","","",""
"pit-trial","118","942893","0.0-4.0","battery-v0.2","","""event"",""trial"",""time""
""fullscreenenter"",""1"",""5174""
""blur"",""102"",""817132""
""focus"",""102"",""823751""
","""event"",""trial"",""time""
""blur"",""102"",""817132""
","""event"",""trial"",""time""
""focus"",""102"",""823751""
","""event"",""trial"",""time""
""fullscreenenter"",""1"",""5174""
","
","","","493.5999999642372","","","24","10384","4824","&#9733;","elianto","#3366ff99","-1"," ","0","+10","[1348.1000000238419]","1","1","","","10384","1","2","2","win","no-go","1"
"pit-trial","119","946365","0.0-5.0","battery-v0.2","","""event"",""trial"",""time""
""fullscreenenter"",""1"",""5174""
""blur"",""102"",""817132""
""focus"",""102"",""823751""
","""event"",""trial"",""time""
""blur"",""102"",""817132""
","""event"",""trial"",""time""
""focus"",""102"",""823751""
","""event"",""trial"",""time""
""fullscreenenter"",""1"",""5174""
","
","","","604.1000000238419","","","24","10384","4824","&#9730;","elianto","#3366ff99"," "," ","1","+10","[1458.5]","1","1","","","10384","2","1","1","win","go","0"
"pit-trial","120","949750","0.0-6.0","battery-v0.2","","""event"",""trial"",""time""
""fullscreenenter"",""1"",""5174""
""blur"",""102"",""817132""
""focus"",""102"",""823751""
","""event"",""trial"",""time""
""blur"",""102"",""817132""
","""event"",""trial"",""time""
""focus"",""102"",""823751""
","""event"",""trial"",""time""
""fullscreenenter"",""1"",""5174""
","
","","","518.3000000119209","","","24","10384","4824","&#9752;","elianto","#f73b6a7A"," "," ","1","0","[1369.5999999642372]","1","1","","","10384","3","3","3","lose","go","0"
"pit-trial","121","953293","0.0-7.0","battery-v0.2","","""event"",""trial"",""time""
""fullscreenenter"",""1"",""5174""
""blur"",""102"",""817132""
""focus"",""102"",""823751""
","""event"",""trial"",""time""
""blur"",""102"",""817132""
","""event"",""trial"",""time""
""focus"",""102"",""823751""
","""event"",""trial"",""time""
""fullscreenenter"",""1"",""5174""
","
","","","682.3000000119209","","","24","10384","4824","&#9728;","elianto","#f73b6a7A","-1"," ","0","-10","[1533.800000011921]","1","1","","","10384","4","0","4","lose","no-go","0"
"pit-trial","122","956796","0.0-8.0","battery-v0.2","","""event"",""trial"",""time""
""fullscreenenter"",""1"",""5174""
""blur"",""102"",""817132""
""focus"",""102"",""823751""
","""event"",""trial"",""time""
""blur"",""102"",""817132""
","""event"",""trial"",""time""
""focus"",""102"",""823751""
","""event"",""trial"",""time""
""fullscreenenter"",""1"",""5174""
","
","","","638.5","","","24","10384","4824","&#9733;","elianto","#3366ff99","-1"," ","0","0","[1494.6000000238419]","1","1","","","10384","5","2","2","win","no-go","0"
"pit-trial","123","960376","0.0-9.0","battery-v0.2","","""event"",""trial"",""time""
""fullscreenenter"",""1"",""5174""
""blur"",""102"",""817132""
""focus"",""102"",""823751""
","""event"",""trial"",""time""
""blur"",""102"",""817132""
","""event"",""trial"",""time""
""focus"",""102"",""823751""
","""event"",""trial"",""time""
""fullscreenenter"",""1"",""5174""
","
","","","715.5","","","24","10384","4824","&#9752;","elianto","#f73b6a7A"," "," ","1","0","[1568.8999999761581]","1","1","","","10384","6","3","3","lose","go","0"
"pit-trial","124","965241","0.0-10.0","battery-v0.2","","""event"",""trial"",""time""
""fullscreenenter"",""1"",""5174""
""blur"",""102"",""817132""
""focus"",""102"",""823751""
","""event"",""trial"",""time""
""blur"",""102"",""817132""
","""event"",""trial"",""time""
""focus"",""102"",""823751""
","""event"",""trial"",""time""
""fullscreenenter"",""1"",""5174""
","
","","","-1","","","24","10384","4824","&#9728;","elianto","#f73b6a7A","-1","-1","1","0","[]","0","1","","","10384","7","0","4","lose","no-go","0"
"pit-trial","125","969445","0.0-11.0","battery-v0.2","","""event"",""trial"",""time""
""fullscreenenter"",""1"",""5174""
""blur"",""102"",""817132""
""focus"",""102"",""823751""
","""event"",""trial"",""time""
""blur"",""102"",""817132""
","""event"",""trial"",""time""
""focus"",""102"",""823751""
","""event"",""trial"",""time""
""fullscreenenter"",""1"",""5174""
","
","","","1338.0999999642372","","","24","10384","4824","&#9730;","elianto","#3366ff99"," "," ","1","+10","[2191.599999964237]","1","1","","","10384","8","1","1","win","go","0"
"pit-trial","126","974316","0.0-12.0","battery-v0.2","","""event"",""trial"",""time""
""fullscreenenter"",""1"",""5174""
""blur"",""102"",""817132""
""focus"",""102"",""823751""
","""event"",""trial"",""time""
""blur"",""102"",""817132""
","""event"",""trial"",""time""
""focus"",""102"",""823751""
","""event"",""trial"",""time""
""fullscreenenter"",""1"",""5174""
","
","","","-1","","","24","10384","4824","&#9728;","elianto","#f73b6a7A","-1","-1","1","-10","[]","0","1","","","10384","9","0","4","lose","no-go","1"
"pit-trial","127","977775","0.0-13.0","battery-v0.2","","""event"",""trial"",""time""
""fullscreenenter"",""1"",""5174""
""blur"",""102"",""817132""
""focus"",""102"",""823751""
","""event"",""trial"",""time""
""blur"",""102"",""817132""
","""event"",""trial"",""time""
""focus"",""102"",""823751""
","""event"",""trial"",""time""
""fullscreenenter"",""1"",""5174""
","
","","","601.1999999880791","","","24","10384","4824","&#9733;","elianto","#3366ff99","-1"," ","0","0","[1452.300000011921]","1","1","","","10384","10","2","2","win","no-go","0"
"pit-trial","128","981888","0.0-14.0","battery-v0.2","","""event"",""trial"",""time""
""fullscreenenter"",""1"",""5174""
""blur"",""102"",""817132""
""focus"",""102"",""823751""
","""event"",""trial"",""time""
""blur"",""102"",""817132""
","""event"",""trial"",""time""
""focus"",""102"",""823751""
","""event"",""trial"",""time""
""fullscreenenter"",""1"",""5174""
","
","","","1247.8999999761581","","","24","10384","4824","&#9752;","elianto","#f73b6a7A"," "," ","1","0","[2104.599999964237]","1","1","","","10384","11","3","3","lose","go","0"
"pit-trial","129","985321","0.0-15.0","battery-v0.2","","""event"",""trial"",""time""
""fullscreenenter"",""1"",""5174""
""blur"",""102"",""817132""
""focus"",""102"",""823751""
","""event"",""trial"",""time""
""blur"",""102"",""817132""
","""event"",""trial"",""time""
""focus"",""102"",""823751""
","""event"",""trial"",""time""
""fullscreenenter"",""1"",""5174""
","
","","","565.6999999880791","","","24","10384","4824","&#9730;","elianto","#3366ff99"," "," ","1","0","[1419.699999988079]","1","1","","","10384","12","1","1","win","go","1"
"pit-trial","130","988827","0.0-16.0","battery-v0.2","","""event"",""trial"",""time""
""fullscreenenter"",""1"",""5174""
""blur"",""102"",""817132""
""focus"",""102"",""823751""
","""event"",""trial"",""time""
""blur"",""102"",""817132""
","""event"",""trial"",""time""
""focus"",""102"",""823751""
","""event"",""trial"",""time""
""fullscreenenter"",""1"",""5174""
","
","","","643.1000000238419","","","24","10384","4824","&#9752;","elianto","#f73b6a7A"," "," ","1","0","[1495.3999999761581]","1","1","","","10384","13","3","3","lose","go","0"
"pit-trial","131","993700","0.0-17.0","battery-v0.2","","""event"",""trial"",""time""
""fullscreenenter"",""1"",""5174""
""blur"",""102"",""817132""
""focus"",""102"",""823751""
","""event"",""trial"",""time""
""blur"",""102"",""817132""
","""event"",""trial"",""time""
""focus"",""102"",""823751""
","""event"",""trial"",""time""
""fullscreenenter"",""1"",""5174""
","
","","","-1","","","24","10384","4824","&#9728;","elianto","#f73b6a7A","-1","-1","1","0","[]","0","1","","","10384","14","0","4","lose","no-go","0"
"pit-trial","132","997321","0.0-18.0","battery-v0.2","","""event"",""trial"",""time""
""fullscreenenter"",""1"",""5174""
""blur"",""102"",""817132""
""focus"",""102"",""823751""
","""event"",""trial"",""time""
""blur"",""102"",""817132""
","""event"",""trial"",""time""
""focus"",""102"",""823751""
","""event"",""trial"",""time""
""fullscreenenter"",""1"",""5174""
","
","","","760","","","24","10384","4824","&#9733;","elianto","#3366ff99","-1"," ","0","0","[1617.5]","1","1","","","10384","15","2","2","win","no-go","0"
"pit-trial","133","1002186","0.0-19.0","battery-v0.2","","""event"",""trial"",""time""
""fullscreenenter"",""1"",""5174""
""blur"",""102"",""817132""
""focus"",""102"",""823751""
","""event"",""trial"",""time""
""blur"",""102"",""817132""
","""event"",""trial"",""time""
""focus"",""102"",""823751""
","""event"",""trial"",""time""
""fullscreenenter"",""1"",""5174""
","
","","","-1","","","24","10384","4824","&#9730;","elianto","#3366ff99"," ","-1","0","0","[3647]","1","1","","","10384","16","1","1","win","go","0"
"pit-trial","134","1005787","0.0-20.0","battery-v0.2","","""event"",""trial"",""time""
""fullscreenenter"",""1"",""5174""
""blur"",""102"",""817132""
""focus"",""102"",""823751""
","""event"",""trial"",""time""
""blur"",""102"",""817132""
","""event"",""trial"",""time""
""focus"",""102"",""823751""
","""event"",""trial"",""time""
""fullscreenenter"",""1"",""5174""
","
","","","727.1000000238419","","","24","10384","4824","&#9752;","elianto","#f73b6a7A"," "," ","1","-10","[1585.8999999761581]","1","1","","","10384","17","3","3","lose","go","1"
"pit-trial","135","1010651","0.0-21.0","battery-v0.2","","""event"",""trial"",""time""
""fullscreenenter"",""1"",""5174""
""blur"",""102"",""817132""
""focus"",""102"",""823751""
","""event"",""trial"",""time""
""blur"",""102"",""817132""
","""event"",""trial"",""time""
""focus"",""102"",""823751""
","""event"",""trial"",""time""
""fullscreenenter"",""1"",""5174""
","
","","","-1","","","24","10384","4824","&#9728;","elianto","#f73b6a7A","-1","-1","1","0","[]","0","1","","","10384","18","0","4","lose","no-go","0"
"pit-trial","136","1014593","0.0-22.0","battery-v0.2","","""event"",""trial"",""time""
""fullscreenenter"",""1"",""5174""
""blur"",""102"",""817132""
""focus"",""102"",""823751""
","""event"",""trial"",""time""
""blur"",""102"",""817132""
","""event"",""trial"",""time""
""focus"",""102"",""823751""
","""event"",""trial"",""time""
""fullscreenenter"",""1"",""5174""
","
","","","1075.0999999642372","","","24","10384","4824","&#9733;","elianto","#3366ff99","-1"," ","0","0","[1932.699999988079]","1","1","","","10384","19","2","2","win","no-go","0"
"pit-trial","137","1018785","0.0-23.0","battery-v0.2","","""event"",""trial"",""time""
""fullscreenenter"",""1"",""5174""
""blur"",""102"",""817132""
""focus"",""102"",""823751""
","""event"",""trial"",""time""
""blur"",""102"",""817132""
","""event"",""trial"",""time""
""focus"",""102"",""823751""
","""event"",""trial"",""time""
""fullscreenenter"",""1"",""5174""
","
","","","1322.6000000238419","","","24","10384","4824","&#9730;","elianto","#3366ff99"," "," ","1","+10","[2179.100000023842]","1","1","","","10384","20","1","1","win","go","0"
"pit-instructions","138","1035001","0.0-24.0","battery-v0.2","","""event"",""trial"",""time""
""fullscreenenter"",""1"",""5174""
""blur"",""102"",""817132""
""focus"",""102"",""823751""
","""event"",""trial"",""time""
""blur"",""102"",""817132""
","""event"",""trial"",""time""
""focus"",""102"",""823751""
","""event"",""trial"",""time""
""fullscreenenter"",""1"",""5174""
","
","","[{""page_index"":0,""viewing_time"":6516},{""page_index"":1,""viewing_time"":9697.300000011921}]","16213.900000035763","","","","","","","","","","","","","","","","","","","","","","","",""
"pit-trial","139","1039574","0.0-25.0","battery-v0.2","","""event"",""trial"",""time""
""fullscreenenter"",""1"",""5174""
""blur"",""102"",""817132""
""focus"",""102"",""823751""
","""event"",""trial"",""time""
""blur"",""102"",""817132""
","""event"",""trial"",""time""
""focus"",""102"",""823751""
","""event"",""trial"",""time""
""fullscreenenter"",""1"",""5174""
","
","","","1715.5","","","24","10384","4824","f","elianto","#3366ff99"," "," ","1","+10","[2565.5]","1","2","","","10384","21","1","1","win","go","0"
"pit-trial","140","1042614","0.0-26.0","battery-v0.2","","""event"",""trial"",""time""
""fullscreenenter"",""1"",""5174""
""blur"",""102"",""817132""
""focus"",""102"",""823751""
","""event"",""trial"",""time""
""blur"",""102"",""817132""
","""event"",""trial"",""time""
""focus"",""102"",""823751""
","""event"",""trial"",""time""
""fullscreenenter"",""1"",""5174""
","
","","","175.69999998807907","","","24","10384","4824","b","elianto","#f73b6a7A"," "," ","1","0","[1029.8999999761581]","1","2","","","10384","22","3","3","lose","go","0"
"pit-trial","141","1046249","0.0-27.0","battery-v0.2","","""event"",""trial"",""time""
""fullscreenenter"",""1"",""5174""
""blur"",""102"",""817132""
""focus"",""102"",""823751""
","""event"",""trial"",""time""
""blur"",""102"",""817132""
","""event"",""trial"",""time""
""focus"",""102"",""823751""
","""event"",""trial"",""time""
""fullscreenenter"",""1"",""5174""
","
","","","774.5","","","24","10384","4824","t","elianto","#f73b6a7A","-1"," ","0","-10","[1627.5999999642372]","1","2","","","10384","23","2","4","lose","no-go","0"
"pit-trial","142","1049953","0.0-28.0","battery-v0.2","","""event"",""trial"",""time""
""fullscreenenter"",""1"",""5174""
""blur"",""102"",""817132""
""focus"",""102"",""823751""
","""event"",""trial"",""time""
""blur"",""102"",""817132""
","""event"",""trial"",""time""
""focus"",""102"",""823751""
","""event"",""trial"",""time""
""fullscreenenter"",""1"",""5174""
","
","","","833.8000000119209","","","24","10384","4824","n","elianto","#f73b6a7A","-1"," ","0","-10","[1690.699999988079]","1","2","","","10384","24","0","4","lose","no-go","0"
"pit-trial","143","1054249","0.0-29.0","battery-v0.2","","""event"",""trial"",""time""
""fullscreenenter"",""1"",""5174""
""blur"",""102"",""817132""
""focus"",""102"",""823751""
","""event"",""trial"",""time""
""blur"",""102"",""817132""
","""event"",""trial"",""time""
""focus"",""102"",""823751""
","""event"",""trial"",""time""
""fullscreenenter"",""1"",""5174""
","
","","","1423.5","","","24","10384","4824","n","elianto","#f73b6a7A","-1"," ","0","-10","[2280.100000023842]","1","2","","","10384","25","0","4","lose","no-go","0"
"pit-trial","144","1057937","0.0-30.0","battery-v0.2","","""event"",""trial"",""time""
""fullscreenenter"",""1"",""5174""
""blur"",""102"",""817132""
""focus"",""102"",""823751""
","""event"",""trial"",""time""
""blur"",""102"",""817132""
","""event"",""trial"",""time""
""focus"",""102"",""823751""
","""event"",""trial"",""time""
""fullscreenenter"",""1"",""5174""
","
","","","825.1000000238419","","","24","10384","4824","f","elianto","#3366ff99"," "," ","1","+10","[1675.800000011921]","1","2","","","10384","26","1","1","win","go","0"
"pit-trial","145","1062808","0.0-31.0","battery-v0.2","","""event"",""trial"",""time""
""fullscreenenter"",""1"",""5174""
""blur"",""102"",""817132""
""focus"",""102"",""823751""
","""event"",""trial"",""time""
""blur"",""102"",""817132""
","""event"",""trial"",""time""
""focus"",""102"",""823751""
","""event"",""trial"",""time""
""fullscreenenter"",""1"",""5174""
","
","","","-1","","","24","10384","4824","t","elianto","#f73b6a7A","-1","-1","1","0","[]","0","2","","","10384","27","2","4","lose","no-go","0"
"pit-trial","146","1066672","0.0-32.0","battery-v0.2","","""event"",""trial"",""time""
""fullscreenenter"",""1"",""5174""
""blur"",""102"",""817132""
""focus"",""102"",""823751""
","""event"",""trial"",""time""
""blur"",""102"",""817132""
","""event"",""trial"",""time""
""focus"",""102"",""823751""
","""event"",""trial"",""time""
""fullscreenenter"",""1"",""5174""
","
","","","996.3999999761581","","","24","10384","4824","b","elianto","#f73b6a7A"," "," ","1","0","[1853.0999999642372]","1","2","","","10384","28","3","3","lose","go","0"
"pit-trial","147","1071544","0.0-33.0","battery-v0.2","","""event"",""trial"",""time""
""fullscreenenter"",""1"",""5174""
""blur"",""102"",""817132""
""focus"",""102"",""823751""
","""event"",""trial"",""time""
""blur"",""102"",""817132""
","""event"",""trial"",""time""
""focus"",""102"",""823751""
","""event"",""trial"",""time""
""fullscreenenter"",""1"",""5174""
","
","","","-1","","","24","10384","4824","n","elianto","#f73b6a7A","-1","-1","1","-10","[]","0","2","","","10384","29","0","4","lose","no-go","1"
"pit-trial","148","1075072","0.0-34.0","battery-v0.2","","""event"",""trial"",""time""
""fullscreenenter"",""1"",""5174""
""blur"",""102"",""817132""
""focus"",""102"",""823751""
","""event"",""trial"",""time""
""blur"",""102"",""817132""
","""event"",""trial"",""time""
""focus"",""102"",""823751""
","""event"",""trial"",""time""
""fullscreenenter"",""1"",""5174""
","
","","","668","","","24","10384","4824","f","elianto","#3366ff99"," "," ","1","+10","[1518]","1","2","","","10384","30","1","1","win","go","0"
"pit-trial","149","1078967","0.0-35.0","battery-v0.2","","""event"",""trial"",""time""
""fullscreenenter"",""1"",""5174""
""blur"",""102"",""817132""
""focus"",""102"",""823751""
","""event"",""trial"",""time""
""blur"",""102"",""817132""
","""event"",""trial"",""time""
""focus"",""102"",""823751""
","""event"",""trial"",""time""
""fullscreenenter"",""1"",""5174""
","
","","","1022.7999999523163","","","24","10384","4824","t","elianto","#f73b6a7A","-1"," ","0","-10","[1879.8999999761581]","1","2","","","10384","31","2","4","lose","no-go","0"
"pit-trial","150","1082608","0.0-36.0","battery-v0.2","","""event"",""trial"",""time""
""fullscreenenter"",""1"",""5174""
""blur"",""102"",""817132""
""focus"",""102"",""823751""
","""event"",""trial"",""time""
""blur"",""102"",""817132""
","""event"",""trial"",""time""
""focus"",""102"",""823751""
","""event"",""trial"",""time""
""fullscreenenter"",""1"",""5174""
","
","","","769","","","24","10384","4824","b","elianto","#f73b6a7A"," "," ","1","0","[1628.0999999642372]","1","2","","","10384","32","3","3","lose","go","0"
"pit-trial","151","1086205","0.0-37.0","battery-v0.2","","""event"",""trial"",""time""
""fullscreenenter"",""1"",""5174""
""blur"",""102"",""817132""
""focus"",""102"",""823751""
","""event"",""trial"",""time""
""blur"",""102"",""817132""
","""event"",""trial"",""time""
""focus"",""102"",""823751""
","""event"",""trial"",""time""
""fullscreenenter"",""1"",""5174""
","
","","","732.1000000238419","","","24","10384","4824","f","elianto","#3366ff99"," "," ","1","+10","[1589.5]","1","2","","","10384","33","1","1","win","go","0"
"pit-trial","152","1089928","0.0-38.0","battery-v0.2","","""event"",""trial"",""time""
""fullscreenenter"",""1"",""5174""
""blur"",""102"",""817132""
""focus"",""102"",""823751""
","""event"",""trial"",""time""
""blur"",""102"",""817132""
","""event"",""trial"",""time""
""focus"",""102"",""823751""
","""event"",""trial"",""time""
""fullscreenenter"",""1"",""5174""
","
","","","862.3000000119209","","","24","10384","4824","n","elianto","#f73b6a7A","-1"," ","0","-10","[1715.2000000476837]","1","2","","","10384","34","0","4","lose","no-go","0"
"pit-trial","153","1094791","0.0-39.0","battery-v0.2","","""event"",""trial"",""time""
""fullscreenenter"",""1"",""5174""
""blur"",""102"",""817132""
""focus"",""102"",""823751""
","""event"",""trial"",""time""
""blur"",""102"",""817132""
","""event"",""trial"",""time""
""focus"",""102"",""823751""
","""event"",""trial"",""time""
""fullscreenenter"",""1"",""5174""
","
","","","-1","","","24","10384","4824","t","elianto","#f73b6a7A","-1","-1","1","0","[]","0","2","","","10384","35","2","4","lose","no-go","0"
"pit-trial","154","1098499","0.0-40.0","battery-v0.2","","""event"",""trial"",""time""
""fullscreenenter"",""1"",""5174""
""blur"",""102"",""817132""
""focus"",""102"",""823751""
","""event"",""trial"",""time""
""blur"",""102"",""817132""
","""event"",""trial"",""time""
""focus"",""102"",""823751""
","""event"",""trial"",""time""
""fullscreenenter"",""1"",""5174""
","
","","","839.8999999761581","","","24","10384","4824","b","elianto","#f73b6a7A"," "," ","1","-10","[1695.300000011921]","1","2","","","10384","36","3","3","lose","go","1"
"pit-trial","155","1103327","0.0-41.0","battery-v0.2","","""event"",""trial"",""time""
""fullscreenenter"",""1"",""5174""
""blur"",""102"",""817132""
""focus"",""102"",""823751""
","""event"",""trial"",""time""
""blur"",""102"",""817132""
","""event"",""trial"",""time""
""focus"",""102"",""823751""
","""event"",""trial"",""time""
""fullscreenenter"",""1"",""5174""
","
","","","1963.800000011921","","","24","10384","4824","b","elianto","#f73b6a7A"," "," ","1","0","[2814.600000023842]","1","2","","","10384","37","3","3","lose","go","0"
"pit-trial","156","1107431","0.0-42.0","battery-v0.2","","""event"",""trial"",""time""
""fullscreenenter"",""1"",""5174""
""blur"",""102"",""817132""
""focus"",""102"",""823751""
","""event"",""trial"",""time""
""blur"",""102"",""817132""
","""event"",""trial"",""time""
""focus"",""102"",""823751""
","""event"",""trial"",""time""
""fullscreenenter"",""1"",""5174""
","
","","","1239.6000000238419","","","24","10384","4824","n","elianto","#f73b6a7A","-1"," ","0","-10","[2091.300000011921]","1","2","","","10384","38","0","4","lose","no-go","0"
"pit-trial","157","1112303","0.0-43.0","battery-v0.2","","""event"",""trial"",""time""
""fullscreenenter"",""1"",""5174""
""blur"",""102"",""817132""
""focus"",""102"",""823751""
","""event"",""trial"",""time""
""blur"",""102"",""817132""
","""event"",""trial"",""time""
""focus"",""102"",""823751""
","""event"",""trial"",""time""
""fullscreenenter"",""1"",""5174""
","
","","","-1","","","24","10384","4824","t","elianto","#f73b6a7A","-1","-1","1","-10","[]","0","2","","","10384","39","2","4","lose","no-go","1"
"pit-trial","158","1115711","0.0-44.0","battery-v0.2","","""event"",""trial"",""time""
""fullscreenenter"",""1"",""5174""
""blur"",""102"",""817132""
""focus"",""102"",""823751""
","""event"",""trial"",""time""
""blur"",""102"",""817132""
","""event"",""trial"",""time""
""focus"",""102"",""823751""
","""event"",""trial"",""time""
""fullscreenenter"",""1"",""5174""
","
","","","540.8000000119209","","","24","10384","4824","f","elianto","#3366ff99"," "," ","1","+10","[1397.199999988079]","1","2","","","10384","40","1","1","win","go","0"
"pit-trial","159","1119198","0.0-45.0","battery-v0.2","","""event"",""trial"",""time""
""fullscreenenter"",""1"",""5174""
""blur"",""102"",""817132""
""focus"",""102"",""823751""
","""event"",""trial"",""time""
""blur"",""102"",""817132""
","""event"",""trial"",""time""
""focus"",""102"",""823751""
","""event"",""trial"",""time""
""fullscreenenter"",""1"",""5174""
","
","","","621.3999999761581","","","24","10384","4824","f","elianto","#3366ff99"," "," ","1","0","[1476.199999988079]","1","2","","","10384","41","1","1","win","go","1"
"pit-trial","160","1124070","0.0-46.0","battery-v0.2","","""event"",""trial"",""time""
""fullscreenenter"",""1"",""5174""
""blur"",""102"",""817132""
""focus"",""102"",""823751""
","""event"",""trial"",""time""
""blur"",""102"",""817132""
","""event"",""trial"",""time""
""focus"",""102"",""823751""
","""event"",""trial"",""time""
""fullscreenenter"",""1"",""5174""
","
","","","-1","","","24","10384","4824","t","elianto","#f73b6a7A","-1","-1","1","0","[]","0","2","","","10384","42","2","4","lose","no-go","0"
"pit-trial","161","1128190","0.0-47.0","battery-v0.2","","""event"",""trial"",""time""
""fullscreenenter"",""1"",""5174""
""blur"",""102"",""817132""
""focus"",""102"",""823751""
","""event"",""trial"",""time""
""blur"",""102"",""817132""
","""event"",""trial"",""time""
""focus"",""102"",""823751""
","""event"",""trial"",""time""
""fullscreenenter"",""1"",""5174""
","
","","","1249.4000000357628","","","24","10384","4824","n","elianto","#f73b6a7A","-1"," ","0","0","[2106.900000035763]","1","2","","","10384","43","0","4","lose","no-go","1"
"pit-trial","162","1133061","0.0-48.0","battery-v0.2","","""event"",""trial"",""time""
""fullscreenenter"",""1"",""5174""
""blur"",""102"",""817132""
""focus"",""102"",""823751""
","""event"",""trial"",""time""
""blur"",""102"",""817132""
","""event"",""trial"",""time""
""focus"",""102"",""823751""
","""event"",""trial"",""time""
""fullscreenenter"",""1"",""5174""
","
","","","-1","","","24","10384","4824","b","elianto","#f73b6a7A"," ","-1","0","0","[]","0","2","","","10384","44","3","3","lose","go","1"
"pit-trial","163","1137931","0.0-49.0","battery-v0.2","","""event"",""trial"",""time""
""fullscreenenter"",""1"",""5174""
""blur"",""102"",""817132""
""focus"",""102"",""823751""
","""event"",""trial"",""time""
""blur"",""102"",""817132""
","""event"",""trial"",""time""
""focus"",""102"",""823751""
","""event"",""trial"",""time""
""fullscreenenter"",""1"",""5174""
","
","","","-1","","","24","10384","4824","b","elianto","#f73b6a7A"," ","-1","0","-10","[3701.399999976158]","1","2","","","10384","45","3","3","lose","go","0"
"pit-trial","164","1142805","0.0-50.0","battery-v0.2","","""event"",""trial"",""time""
""fullscreenenter"",""1"",""5174""
""blur"",""102"",""817132""
""focus"",""102"",""823751""
","""event"",""trial"",""time""
""blur"",""102"",""817132""
","""event"",""trial"",""time""
""focus"",""102"",""823751""
","""event"",""trial"",""time""
""fullscreenenter"",""1"",""5174""
","
","","","-1","","","24","10384","4824","t","elianto","#f73b6a7A","-1","-1","1","0","[]","0","2","","","10384","46","2","4","lose","no-go","0"
"pit-trial","165","1146685","0.0-51.0","battery-v0.2","","""event"",""trial"",""time""
""fullscreenenter"",""1"",""5174""
""blur"",""102"",""817132""
""focus"",""102"",""823751""
","""event"",""trial"",""time""
""blur"",""102"",""817132""
","""event"",""trial"",""time""
""focus"",""102"",""823751""
","""event"",""trial"",""time""
""fullscreenenter"",""1"",""5174""
","
","","","1004.8999999761581","","","24","10384","4824","n","elianto","#f73b6a7A","-1"," ","0","-10","[1863.2999999523163]","1","2","","","10384","47","0","4","lose","no-go","0"
"pit-trial","166","1150237","0.0-52.0","battery-v0.2","","""event"",""trial"",""time""
""fullscreenenter"",""1"",""5174""
""blur"",""102"",""817132""
""focus"",""102"",""823751""
","""event"",""trial"",""time""
""blur"",""102"",""817132""
","""event"",""trial"",""time""
""focus"",""102"",""823751""
","""event"",""trial"",""time""
""fullscreenenter"",""1"",""5174""
","
","","","680.8000000119209","","","24","10384","4824","c","elianto","#3366ff99","-1"," ","0","+10","[1537.9000000357628]","1","2","","","10384","48","4","2","win","no-go","1"
"pit-trial","167","1153677","0.0-53.0","battery-v0.2","","""event"",""trial"",""time""
""fullscreenenter"",""1"",""5174""
""blur"",""102"",""817132""
""focus"",""102"",""823751""
","""event"",""trial"",""time""
""blur"",""102"",""817132""
","""event"",""trial"",""time""
""focus"",""102"",""823751""
","""event"",""trial"",""time""
""fullscreenenter"",""1"",""5174""
","
","","","572.1999999880791","","","24","10384","4824","n","elianto","#f73b6a7A","-1"," ","0","0","[1430]","1","2","","","10384","49","0","4","lose","no-go","1"
"pit-trial","168","1157068","0.0-54.0","battery-v0.2","","""event"",""trial"",""time""
""fullscreenenter"",""1"",""5174""
""blur"",""102"",""817132""
""focus"",""102"",""823751""
","""event"",""trial"",""time""
""blur"",""102"",""817132""
","""event"",""trial"",""time""
""focus"",""102"",""823751""
","""event"",""trial"",""time""
""fullscreenenter"",""1"",""5174""
","
","","","522.3999999761581","","","24","10384","4824","f","elianto","#3366ff99"," "," ","1","+10","[1376.699999988079]","1","2","","","10384","50","1","1","win","go","0"
"pit-trial","169","1161941","0.0-55.0","battery-v0.2","","""event"",""trial"",""time""
""fullscreenenter"",""1"",""5174""
""blur"",""102"",""817132""
""focus"",""102"",""823751""
","""event"",""trial"",""time""
""blur"",""102"",""817132""
","""event"",""trial"",""time""
""focus"",""102"",""823751""
","""event"",""trial"",""time""
""fullscreenenter"",""1"",""5174""
","
","","","-1","","","24","10384","4824","b","elianto","#f73b6a7A"," ","-1","0","-10","[]","0","2","","","10384","51","3","3","lose","go","0"
"pit-trial","170","1165332","0.0-56.0","battery-v0.2","","""event"",""trial"",""time""
""fullscreenenter"",""1"",""5174""
""blur"",""102"",""817132""
""focus"",""102"",""823751""
","""event"",""trial"",""time""
""blur"",""102"",""817132""
","""event"",""trial"",""time""
""focus"",""102"",""823751""
","""event"",""trial"",""time""
""fullscreenenter"",""1"",""5174""
","
","","","526.1999999880791","","","24","10384","4824","c","elianto","#3366ff99","-1"," ","0","0","[1382.5]","1","2","","","10384","52","4","2","win","no-go","0"
"pit-trial","171","1170205","0.0-57.0","battery-v0.2","","""event"",""trial"",""time""
""fullscreenenter"",""1"",""5174""
""blur"",""102"",""817132""
""focus"",""102"",""823751""
","""event"",""trial"",""time""
""blur"",""102"",""817132""
","""event"",""trial"",""time""
""focus"",""102"",""823751""
","""event"",""trial"",""time""
""fullscreenenter"",""1"",""5174""
","
","","","-1","","","24","10384","4824","t","elianto","#f73b6a7A","-1","-1","1","-10","[]","0","2","","","10384","53","2","4","lose","no-go","1"
"pit-trial","172","1173387","0.0-58.0","battery-v0.2","","""event"",""trial"",""time""
""fullscreenenter"",""1"",""5174""
""blur"",""102"",""817132""
""focus"",""102"",""823751""
","""event"",""trial"",""time""
""blur"",""102"",""817132""
","""event"",""trial"",""time""
""focus"",""102"",""823751""
","""event"",""trial"",""time""
""fullscreenenter"",""1"",""5174""
","
","","","309.30000001192093","","","24","10384","4824","f","elianto","#3366ff99"," "," ","1","+10","[1168.1000000238419]","1","2","","","10384","54","1","1","win","go","0"
"pit-trial","173","1178260","0.0-59.0","battery-v0.2","","""event"",""trial"",""time""
""fullscreenenter"",""1"",""5174""
""blur"",""102"",""817132""
""focus"",""102"",""823751""
","""event"",""trial"",""time""
""blur"",""102"",""817132""
","""event"",""trial"",""time""
""focus"",""102"",""823751""
","""event"",""trial"",""time""
""fullscreenenter"",""1"",""5174""
","
","","","-1","","","24","10384","4824","n","elianto","#f73b6a7A","-1","-1","1","0","[]","0","2","","","10384","55","0","4","lose","no-go","0"
"pit-trial","174","1181876","0.0-60.0","battery-v0.2","","""event"",""trial"",""time""
""fullscreenenter"",""1"",""5174""
""blur"",""102"",""817132""
""focus"",""102"",""823751""
","""event"",""trial"",""time""
""blur"",""102"",""817132""
","""event"",""trial"",""time""
""focus"",""102"",""823751""
","""event"",""trial"",""time""
""fullscreenenter"",""1"",""5174""
","
","","","747.5","","","24","10384","4824","c","elianto","#3366ff99","-1"," ","0","0","[1600.5]","1","2","","","10384","56","4","2","win","no-go","0"
"pit-trial","175","1186065","0.0-61.0","battery-v0.2","","""event"",""trial"",""time""
""fullscreenenter"",""1"",""5174""
""blur"",""102"",""817132""
""focus"",""102"",""823751""
","""event"",""trial"",""time""
""blur"",""102"",""817132""
","""event"",""trial"",""time""
""focus"",""102"",""823751""
","""event"",""trial"",""time""
""fullscreenenter"",""1"",""5174""
","
","","","1323.3999999761581","","","24","10384","4824","c","elianto","#3366ff99","-1"," ","0","0","[2176.2999999523163]","1","2","","","10384","57","4","2","win","no-go","0"
"pit-trial","176","1190936","0.0-62.0","battery-v0.2","","""event"",""trial"",""time""
""fullscreenenter"",""1"",""5174""
""blur"",""102"",""817132""
""focus"",""102"",""823751""
","""event"",""trial"",""time""
""blur"",""102"",""817132""
","""event"",""trial"",""time""
""focus"",""102"",""823751""
","""event"",""trial"",""time""
""fullscreenenter"",""1"",""5174""
","
","","","-1","","","24","10384","4824","n","elianto","#f73b6a7A","-1","-1","1","0","[]","0","2","","","10384","58","0","4","lose","no-go","0"
"pit-trial","177","1194631","0.0-63.0","battery-v0.2","","""event"",""trial"",""time""
""fullscreenenter"",""1"",""5174""
""blur"",""102"",""817132""
""focus"",""102"",""823751""
","""event"",""trial"",""time""
""blur"",""102"",""817132""
","""event"",""trial"",""time""
""focus"",""102"",""823751""
","""event"",""trial"",""time""
""fullscreenenter"",""1"",""5174""
","
","","","836.6000000238419","","","24","10384","4824","f","elianto","#3366ff99"," "," ","1","+10","[1688.5]","1","2","","","10384","59","1","1","win","go","0"
"pit-trial","178","1199496","0.0-64.0","battery-v0.2","","""event"",""trial"",""time""
""fullscreenenter"",""1"",""5174""
""blur"",""102"",""817132""
""focus"",""102"",""823751""
","""event"",""trial"",""time""
""blur"",""102"",""817132""
","""event"",""trial"",""time""
""focus"",""102"",""823751""
","""event"",""trial"",""time""
""fullscreenenter"",""1"",""5174""
","
","","","-1","","","24","10384","4824","b","elianto","#f73b6a7A"," ","-1","0","0","[2991.300000011921]","1","2","","","10384","60","3","3","lose","go","1"
"pit-trial","179","1204371","0.0-65.0","battery-v0.2","","""event"",""trial"",""time""
""fullscreenenter"",""1"",""5174""
""blur"",""102"",""817132""
""focus"",""102"",""823751""
","""event"",""trial"",""time""
""blur"",""102"",""817132""
","""event"",""trial"",""time""
""focus"",""102"",""823751""
","""event"",""trial"",""time""
""fullscreenenter"",""1"",""5174""
","
","","","-1","","","24","10384","4824","b","elianto","#f73b6a7A"," ","-1","0","-10","[]","0","2","","","10384","61","3","3","lose","go","0"
"pit-trial","180","1207714","0.0-66.0","battery-v0.2","","""event"",""trial"",""time""
""fullscreenenter"",""1"",""5174""
""blur"",""102"",""817132""
""focus"",""102"",""823751""
","""event"",""trial"",""time""
""blur"",""102"",""817132""
","""event"",""trial"",""time""
""focus"",""102"",""823751""
","""event"",""trial"",""time""
""fullscreenenter"",""1"",""5174""
","
","","","469.80000001192093","","","24","10384","4824","t","elianto","#f73b6a7A","-1"," ","0","0","[1327.3999999761581]","1","2","","","10384","62","2","4","lose","no-go","1"
"pit-trial","181","1211144","0.0-67.0","battery-v0.2","","""event"",""trial"",""time""
""fullscreenenter"",""1"",""5174""
""blur"",""102"",""817132""
""focus"",""102"",""823751""
","""event"",""trial"",""time""
""blur"",""102"",""817132""
","""event"",""trial"",""time""
""focus"",""102"",""823751""
","""event"",""trial"",""time""
""fullscreenenter"",""1"",""5174""
","
","","","569.0999999642372","","","24","10384","4824","c","elianto","#3366ff99","-1"," ","0","+10","[1419.5999999642372]","1","2","","","10384","63","4","2","win","no-go","1"
"pit-trial","182","1215480","0.0-68.0","battery-v0.2","","""event"",""trial"",""time""
""fullscreenenter"",""1"",""5174""
""blur"",""102"",""817132""
""focus"",""102"",""823751""
","""event"",""trial"",""time""
""blur"",""102"",""817132""
","""event"",""trial"",""time""
""focus"",""102"",""823751""
","""event"",""trial"",""time""
""fullscreenenter"",""1"",""5174""
","
","","","1470.300000011921","","","24","10384","4824","f","elianto","#3366ff99"," "," ","1","+10","[2324.600000023842]","1","2","","","10384","64","1","1","win","go","0"
"pit-trial","183","1219022","0.0-69.0","battery-v0.2","","""event"",""trial"",""time""
""fullscreenenter"",""1"",""5174""
""blur"",""102"",""817132""
""focus"",""102"",""823751""
","""event"",""trial"",""time""
""blur"",""102"",""817132""
","""event"",""trial"",""time""
""focus"",""102"",""823751""
","""event"",""trial"",""time""
""fullscreenenter"",""1"",""5174""
","
","","","686.5","","","24","10384","4824","t","elianto","#f73b6a7A","-1"," ","0","0","[1536.699999988079]","1","2","","","10384","65","2","4","lose","no-go","1"
"pit-trial","184","1222466","0.0-70.0","battery-v0.2","","""event"",""trial"",""time""
""fullscreenenter"",""1"",""5174""
""blur"",""102"",""817132""
""focus"",""102"",""823751""
","""event"",""trial"",""time""
""blur"",""102"",""817132""
","""event"",""trial"",""time""
""focus"",""102"",""823751""
","""event"",""trial"",""time""
""fullscreenenter"",""1"",""5174""
","
","","","580.3000000119209","","","24","10384","4824","f","elianto","#3366ff99"," "," ","1","0","[1434.5999999642372]","1","2","","","10384","66","1","1","win","go","1"
"pit-trial","185","1225922","0.0-71.0","battery-v0.2","","""event"",""trial"",""time""
""fullscreenenter"",""1"",""5174""
""blur"",""102"",""817132""
""focus"",""102"",""823751""
","""event"",""trial"",""time""
""blur"",""102"",""817132""
","""event"",""trial"",""time""
""focus"",""102"",""823751""
","""event"",""trial"",""time""
""fullscreenenter"",""1"",""5174""
","
","","","586.1999999880791","","","24","10384","4824","c","elianto","#3366ff99","-1"," ","0","0","[1443.199999988079]","1","2","","","10384","67","4","2","win","no-go","0"
"pit-trial","186","1230793","0.0-72.0","battery-v0.2","","""event"",""trial"",""time""
""fullscreenenter"",""1"",""5174""
""blur"",""102"",""817132""
""focus"",""102"",""823751""
","""event"",""trial"",""time""
""blur"",""102"",""817132""
","""event"",""trial"",""time""
""focus"",""102"",""823751""
","""event"",""trial"",""time""
""fullscreenenter"",""1"",""5174""
","
","","","-1","","","24","10384","4824","b","elianto","#f73b6a7A"," ","-1","0","-10","[]","0","2","","","10384","68","3","3","lose","go","0"
"pit-trial","187","1234497","0.0-73.0","battery-v0.2","","""event"",""trial"",""time""
""fullscreenenter"",""1"",""5174""
""blur"",""102"",""817132""
""focus"",""102"",""823751""
","""event"",""trial"",""time""
""blur"",""102"",""817132""
","""event"",""trial"",""time""
""focus"",""102"",""823751""
","""event"",""trial"",""time""
""fullscreenenter"",""1"",""5174""
","
","","","836.5","","","24","10384","4824","b","elianto","#f73b6a7A"," "," ","1","0","[1690.2999999523163]","1","2","","","10384","69","3","3","lose","go","0"
"pit-trial","188","1238177","0.0-74.0","battery-v0.2","","""event"",""trial"",""time""
""fullscreenenter"",""1"",""5174""
""blur"",""102"",""817132""
""focus"",""102"",""823751""
","""event"",""trial"",""time""
""blur"",""102"",""817132""
","""event"",""trial"",""time""
""focus"",""102"",""823751""
","""event"",""trial"",""time""
""fullscreenenter"",""1"",""5174""
","
","","","816.4000000357628","","","24","10384","4824","f","elianto","#3366ff99"," "," ","1","+10","[1666.6000000238419]","1","2","","","10384","70","1","1","win","go","0"
"pit-trial","189","1241845","0.0-75.0","battery-v0.2","","""event"",""trial"",""time""
""fullscreenenter"",""1"",""5174""
""blur"",""102"",""817132""
""focus"",""102"",""823751""
","""event"",""trial"",""time""
""blur"",""102"",""817132""
","""event"",""trial"",""time""
""focus"",""102"",""823751""
","""event"",""trial"",""time""
""fullscreenenter"",""1"",""5174""
","
","","","808.7000000476837","","","24","10384","4824","c","elianto","#3366ff99","-1"," ","0","0","[1662.199999988079]","1","2","","","10384","71","4","2","win","no-go","0"
"pit-trial","190","1245518","0.0-76.0","battery-v0.2","","""event"",""trial"",""time""
""fullscreenenter"",""1"",""5174""
""blur"",""102"",""817132""
""focus"",""102"",""823751""
","""event"",""trial"",""time""
""blur"",""102"",""817132""
","""event"",""trial"",""time""
""focus"",""102"",""823751""
","""event"",""trial"",""time""
""fullscreenenter"",""1"",""5174""
","
","","","815.0999999642372","","","24","10384","4824","z","elianto","#3366ff99"," "," ","1","+10","[1666.9000000357628]","1","2","","","10384","72","5","1","win","go","0"
"pit-trial","191","1250390","0.0-77.0","battery-v0.2","","""event"",""trial"",""time""
""fullscreenenter"",""1"",""5174""
""blur"",""102"",""817132""
""focus"",""102"",""823751""
","""event"",""trial"",""time""
""blur"",""102"",""817132""
","""event"",""trial"",""time""
""focus"",""102"",""823751""
","""event"",""trial"",""time""
""fullscreenenter"",""1"",""5174""
","
","","","-1","","","24","10384","4824","c","elianto","#3366ff99","-1","-1","1","+10","[]","0","2","","","10384","73","4","2","win","no-go","0"
"pit-trial","192","1253945","0.0-78.0","battery-v0.2","","""event"",""trial"",""time""
""fullscreenenter"",""1"",""5174""
""blur"",""102"",""817132""
""focus"",""102"",""823751""
","""event"",""trial"",""time""
""blur"",""102"",""817132""
","""event"",""trial"",""time""
""focus"",""102"",""823751""
","""event"",""trial"",""time""
""fullscreenenter"",""1"",""5174""
","
","","","681.2000000476837","","","24","10384","4824","z","elianto","#3366ff99"," "," ","1","+10","[1538.199999988079]","1","2","","","10384","74","5","1","win","go","0"
"pit-trial","193","1257824","0.0-79.0","battery-v0.2","","""event"",""trial"",""time""
""fullscreenenter"",""1"",""5174""
""blur"",""102"",""817132""
""focus"",""102"",""823751""
","""event"",""trial"",""time""
""blur"",""102"",""817132""
","""event"",""trial"",""time""
""focus"",""102"",""823751""
","""event"",""trial"",""time""
""fullscreenenter"",""1"",""5174""
","
","","","1018.6999999880791","","","24","10384","4824","f","elianto","#3366ff99"," "," ","1","0","[1870.8999999761581]","1","2","","","10384","75","1","1","win","go","1"
"pit-trial","194","1262694","0.0-80.0","battery-v0.2","","""event"",""trial"",""time""
""fullscreenenter"",""1"",""5174""
""blur"",""102"",""817132""
""focus"",""102"",""823751""
","""event"",""trial"",""time""
""blur"",""102"",""817132""
","""event"",""trial"",""time""
""focus"",""102"",""823751""
","""event"",""trial"",""time""
""fullscreenenter"",""1"",""5174""
","
","","","-1","","","24","10384","4824","b","elianto","#f73b6a7A"," ","-1","0","-10","[]","0","2","","","10384","76","3","3","lose","go","0"
"pit-trial","195","1266192","0.0-81.0","battery-v0.2","","""event"",""trial"",""time""
""fullscreenenter"",""1"",""5174""
""blur"",""102"",""817132""
""focus"",""102"",""823751""
","""event"",""trial"",""time""
""blur"",""102"",""817132""
","""event"",""trial"",""time""
""focus"",""102"",""823751""
","""event"",""trial"",""time""
""fullscreenenter"",""1"",""5174""
","
","","","629","","","24","10384","4824","c","elianto","#3366ff99","-1"," ","0","0","[1482.5]","1","2","","","10384","77","4","2","win","no-go","0"
"pit-trial","196","1269800","0.0-82.0","battery-v0.2","","""event"",""trial"",""time""
""fullscreenenter"",""1"",""5174""
""blur"",""102"",""817132""
""focus"",""102"",""823751""
","""event"",""trial"",""time""
""blur"",""102"",""817132""
","""event"",""trial"",""time""
""focus"",""102"",""823751""
","""event"",""trial"",""time""
""fullscreenenter"",""1"",""5174""
","
","","","738.7000000476837","","","24","10384","4824","h","elianto","#f73b6a7A","-1"," ","0","-10","[1593.800000011921]","1","2","","","10384","78","6","4","lose","no-go","0"
"pit-trial","197","1274109","0.0-83.0","battery-v0.2","","""event"",""trial"",""time""
""fullscreenenter"",""1"",""5174""
""blur"",""102"",""817132""
""focus"",""102"",""823751""
","""event"",""trial"",""time""
""blur"",""102"",""817132""
","""event"",""trial"",""time""
""focus"",""102"",""823751""
","""event"",""trial"",""time""
""fullscreenenter"",""1"",""5174""
","
","","","1438.8999999761581","","","24","10384","4824","b","elianto","#f73b6a7A"," "," ","1","0","[2296.899999976158]","1","2","","","10384","79","3","3","lose","go","0"
"pit-trial","198","1277552","0.0-84.0","battery-v0.2","","""event"",""trial"",""time""
""fullscreenenter"",""1"",""5174""
""blur"",""102"",""817132""
""focus"",""102"",""823751""
","""event"",""trial"",""time""
""blur"",""102"",""817132""
","""event"",""trial"",""time""
""focus"",""102"",""823751""
","""event"",""trial"",""time""
""fullscreenenter"",""1"",""5174""
","
","","","574.7999999523163","","","24","10384","4824","z","elianto","#3366ff99"," "," ","1","+10","[1426.699999988079]","1","2","","","10384","80","5","1","win","go","0"
"pit-trial","199","1282422","0.0-85.0","battery-v0.2","","""event"",""trial"",""time""
""fullscreenenter"",""1"",""5174""
""blur"",""102"",""817132""
""focus"",""102"",""823751""
","""event"",""trial"",""time""
""blur"",""102"",""817132""
","""event"",""trial"",""time""
""focus"",""102"",""823751""
","""event"",""trial"",""time""
""fullscreenenter"",""1"",""5174""
","
","","","-1","","","24","10384","4824","c","elianto","#3366ff99","-1","-1","1","+10","[]","0","2","","","10384","81","4","2","win","no-go","0"
"pit-trial","200","1286231","0.0-86.0","battery-v0.2","","""event"",""trial"",""time""
""fullscreenenter"",""1"",""5174""
""blur"",""102"",""817132""
""focus"",""102"",""823751""
","""event"",""trial"",""time""
""blur"",""102"",""817132""
","""event"",""trial"",""time""
""focus"",""102"",""823751""
","""event"",""trial"",""time""
""fullscreenenter"",""1"",""5174""
","
","","","938.7999999523163","","","24","10384","4824","h","elianto","#f73b6a7A","-1"," ","0","-10","[1794.3999999761581]","1","2","","","10384","82","6","4","lose","no-go","0"
"pit-trial","201","1289932","0.0-87.0","battery-v0.2","","""event"",""trial"",""time""
""fullscreenenter"",""1"",""5174""
""blur"",""102"",""817132""
""focus"",""102"",""823751""
","""event"",""trial"",""time""
""blur"",""102"",""817132""
","""event"",""trial"",""time""
""focus"",""102"",""823751""
","""event"",""trial"",""time""
""fullscreenenter"",""1"",""5174""
","
","","","841.6000000238419","","","24","10384","4824","z","elianto","#3366ff99"," "," ","1","+10","[1691.5999999642372]","1","2","","","10384","83","5","1","win","go","0"
"pit-trial","202","1293493","0.0-88.0","battery-v0.2","","""event"",""trial"",""time""
""fullscreenenter"",""1"",""5174""
""blur"",""102"",""817132""
""focus"",""102"",""823751""
","""event"",""trial"",""time""
""blur"",""102"",""817132""
","""event"",""trial"",""time""
""focus"",""102"",""823751""
","""event"",""trial"",""time""
""fullscreenenter"",""1"",""5174""
","
","","","696.7000000476837","","","24","10384","4824","y","elianto","#f73b6a7A"," "," ","1","0","[1547.5]","1","2","","","10384","84","7","3","lose","go","0"
"pit-trial","203","1296932","0.0-89.0","battery-v0.2","","""event"",""trial"",""time""
""fullscreenenter"",""1"",""5174""
""blur"",""102"",""817132""
""focus"",""102"",""823751""
","""event"",""trial"",""time""
""blur"",""102"",""817132""
","""event"",""trial"",""time""
""focus"",""102"",""823751""
","""event"",""trial"",""time""
""fullscreenenter"",""1"",""5174""
","
","","","575.3000000119209","","","24","10384","4824","z","elianto","#3366ff99"," "," ","1","+10","[1429.3999999761581]","1","2","","","10384","85","5","1","win","go","0"
"pit-trial","204","1300295","0.0-90.0","battery-v0.2","","""event"",""trial"",""time""
""fullscreenenter"",""1"",""5174""
""blur"",""102"",""817132""
""focus"",""102"",""823751""
","""event"",""trial"",""time""
""blur"",""102"",""817132""
","""event"",""trial"",""time""
""focus"",""102"",""823751""
","""event"",""trial"",""time""
""fullscreenenter"",""1"",""5174""
","
","","","495.2999999523163","","","24","10384","4824","c","elianto","#3366ff99","-1"," ","0","0","[1345.5]","1","2","","","10384","86","4","2","win","no-go","0"
"pit-trial","205","1304245","0.0-91.0","battery-v0.2","","""event"",""trial"",""time""
""fullscreenenter"",""1"",""5174""
""blur"",""102"",""817132""
""focus"",""102"",""823751""
","""event"",""trial"",""time""
""blur"",""102"",""817132""
","""event"",""trial"",""time""
""focus"",""102"",""823751""
","""event"",""trial"",""time""
""fullscreenenter"",""1"",""5174""
","
","","","1090.300000011921","","","24","10384","4824","h","elianto","#f73b6a7A","-1"," ","0","-10","[1941.5]","1","2","","","10384","87","6","4","lose","no-go","0"
"pit-trial","206","1307818","0.0-92.0","battery-v0.2","","""event"",""trial"",""time""
""fullscreenenter"",""1"",""5174""
""blur"",""102"",""817132""
""focus"",""102"",""823751""
","""event"",""trial"",""time""
""blur"",""102"",""817132""
","""event"",""trial"",""time""
""focus"",""102"",""823751""
","""event"",""trial"",""time""
""fullscreenenter"",""1"",""5174""
","
","","","715","","","24","10384","4824","y","elianto","#f73b6a7A"," "," ","1","0","[1567.5]","1","2","","","10384","88","7","3","lose","go","0"
"pit-trial","207","1311188","0.0-93.0","battery-v0.2","","""event"",""trial"",""time""
""fullscreenenter"",""1"",""5174""
""blur"",""102"",""817132""
""focus"",""102"",""823751""
","""event"",""trial"",""time""
""blur"",""102"",""817132""
","""event"",""trial"",""time""
""focus"",""102"",""823751""
","""event"",""trial"",""time""
""fullscreenenter"",""1"",""5174""
","
","","","503","","","24","10384","4824","y","elianto","#f73b6a7A"," "," ","1","0","[1355.6000000238419]","1","2","","","10384","89","7","3","lose","go","0"
"pit-trial","208","1314654","0.0-94.0","battery-v0.2","","""event"",""trial"",""time""
""fullscreenenter"",""1"",""5174""
""blur"",""102"",""817132""
""focus"",""102"",""823751""
","""event"",""trial"",""time""
""blur"",""102"",""817132""
","""event"",""trial"",""time""
""focus"",""102"",""823751""
","""event"",""trial"",""time""
""fullscreenenter"",""1"",""5174""
","
","","","600.1999999880791","","","24","10384","4824","z","elianto","#3366ff99"," "," ","1","+10","[1453.300000011921]","1","2","","","10384","90","5","1","win","go","0"
"pit-trial","209","1318243","0.0-95.0","battery-v0.2","","""event"",""trial"",""time""
""fullscreenenter"",""1"",""5174""
""blur"",""102"",""817132""
""focus"",""102"",""823751""
","""event"",""trial"",""time""
""blur"",""102"",""817132""
","""event"",""trial"",""time""
""focus"",""102"",""823751""
","""event"",""trial"",""time""
""fullscreenenter"",""1"",""5174""
","
","","","717.6999999880791","","","24","10384","4824","h","elianto","#f73b6a7A","-1"," ","0","-10","[1576.199999988079]","1","2","","","10384","91","6","4","lose","no-go","0"
"pit-trial","210","1322062","0.0-96.0","battery-v0.2","","""event"",""trial"",""time""
""fullscreenenter"",""1"",""5174""
""blur"",""102"",""817132""
""focus"",""102"",""823751""
","""event"",""trial"",""time""
""blur"",""102"",""817132""
","""event"",""trial"",""time""
""focus"",""102"",""823751""
","""event"",""trial"",""time""
""fullscreenenter"",""1"",""5174""
","
","","","953.4000000357628","","","24","10384","4824","c","elianto","#3366ff99","-1"," ","0","0","[1805.699999988079]","1","2","","","10384","92","4","2","win","no-go","0"
"pit-trial","211","1326062","0.0-97.0","battery-v0.2","","""event"",""trial"",""time""
""fullscreenenter"",""1"",""5174""
""blur"",""102"",""817132""
""focus"",""102"",""823751""
","""event"",""trial"",""time""
""blur"",""102"",""817132""
","""event"",""trial"",""time""
""focus"",""102"",""823751""
","""event"",""trial"",""time""
""fullscreenenter"",""1"",""5174""
","
","","","1135","","","24","10384","4824","h","elianto","#f73b6a7A","-1"," ","0","-10","[1985.300000011921]","1","2","","","10384","93","6","4","lose","no-go","0"
"pit-trial","212","1329699","0.0-98.0","battery-v0.2","","""event"",""trial"",""time""
""fullscreenenter"",""1"",""5174""
