"trial_type","trial_index","time_elapsed","internal_node_id","task_version","subject_id","interactions","blur_events","focus_events","fullscreenenter_events","fullscreenexit_events","success","view_history","rt","responses","num_errors","age","subject","participantId","rune","rune_set","hex","correct","choice","accuracy","outcome","keys","total_keys","block","practice","value","sub","trial","stimulus","robot","valence","action","sham"
"pavlovia","0","19","0.0-0.0","battery-v0.2","","""event"",""trial"",""time""
""fullscreenenter"",""1"",""2370""
","
","
","""event"",""trial"",""time""
""fullscreenenter"",""1"",""2370""
","
","","","","","","","","","","","","","","","","","","","","","","","","","","",""
"fullscreen","1","3351","0.0-1.0","battery-v0.2","","""event"",""trial"",""time""
""fullscreenenter"",""1"",""2370""
","
","
","""event"",""trial"",""time""
""fullscreenenter"",""1"",""2370""
","
","true","","","","","","","","","","","","","","","","","","","","","","","","","",""
"pit-instructions","2","9628","0.0-2.0-0.0","battery-v0.2","","""event"",""trial"",""time""
""fullscreenenter"",""1"",""2370""
","
","
","""event"",""trial"",""time""
""fullscreenenter"",""1"",""2370""
","
","","[{""page_index"":0,""viewing_time"":6274}]","6274","","","","","","","","","","","","","","","","","","","","","","","",""
"pit-comprehension","3","13011","0.0-2.0-1.0-0.0","battery-v0.2","","""event"",""trial"",""time""
""fullscreenenter"",""1"",""2370""
","
","
","""event"",""trial"",""time""
""fullscreenenter"",""1"",""2370""
","
","","","3379","[""shark""]","0","10","10978","208","","","","","","","","","","","","","","","","","","",""
"pit-instructions","4","14311","0.0-2.0-1.0-1.0","battery-v0.2","","""event"",""trial"",""time""
""fullscreenenter"",""1"",""2370""
","
","
","""event"",""trial"",""time""
""fullscreenenter"",""1"",""2370""
","
","","[{""page_index"":0,""viewing_time"":1287}]","1287","","","","","","","","","","","","","","","","","","","","","","","",""
"pit-comprehension","5","17694","0.0-2.0-2.0-0.0","battery-v0.2","","""event"",""trial"",""time""
""fullscreenenter"",""1"",""2370""
","
","
","""event"",""trial"",""time""
""fullscreenenter"",""1"",""2370""
","
","","","3379","[""tiger""]","0","10","10978","208","","","","","","","","","","","","","","","","","","",""
"pit-instructions","6","19927","0.0-2.0-2.0-1.0","battery-v0.2","","""event"",""trial"",""time""
""fullscreenenter"",""1"",""2370""
","
","
","""event"",""trial"",""time""
""fullscreenenter"",""1"",""2370""
","
","","[{""page_index"":0,""viewing_time"":2229}]","2230","","","","","","","","","","","","","","","","","","","","","","","",""
"pit-instructions","7","118587","0.0-2.0-3.0","battery-v0.2","","""event"",""trial"",""time""
""fullscreenenter"",""1"",""2370""
","
","
","""event"",""trial"",""time""
""fullscreenenter"",""1"",""2370""
","
","","[{""page_index"":0,""viewing_time"":8195},{""page_index"":1,""viewing_time"":6573},{""page_index"":2,""viewing_time"":6646},{""page_index"":3,""viewing_time"":7116},{""page_index"":4,""viewing_time"":5699},{""page_index"":5,""viewing_time"":5539},{""page_index"":6,""viewing_time"":7450},{""page_index"":7,""viewing_time"":7024},{""page_index"":8,""viewing_time"":6084},{""page_index"":9,""viewing_time"":8266},{""page_index"":10,""viewing_time"":7356},{""page_index"":11,""viewing_time"":7511},{""page_index"":12,""viewing_time"":8460},{""page_index"":13,""viewing_time"":6742}]","98661","","","","","","","","","","","","","","","","","","","","","","","",""
"pit-trial","8","123432","0.0-2.0-4.0-0.0","battery-v0.2","","""event"",""trial"",""time""
""fullscreenenter"",""1"",""2370""
","
","
","""event"",""trial"",""time""
""fullscreenenter"",""1"",""2370""
","
","","","1986","","","10","10978","208","&#9784;","elianto","#FFFFF080"," "," ","1","&#10004","[2839]","1","0","0","","","","","","","",""
"pit-trial","9","127405","0.0-2.0-4.1-0.1","battery-v0.2","","""event"",""trial"",""time""
""fullscreenenter"",""1"",""2370""
","
","
","""event"",""trial"",""time""
""fullscreenenter"",""1"",""2370""
","
","","","1113","","","10","10978","208","&#9784;","elianto","#FFFFF080"," "," ","1","&#10004","[1964]","1","0","0","","","","","","","",""
"pit-trial","10","131016","0.0-2.0-4.2-0.2","battery-v0.2","","""event"",""trial"",""time""
""fullscreenenter"",""1"",""2370""
","
","
","""event"",""trial"",""time""
""fullscreenenter"",""1"",""2370""
","
","","","752","","","10","10978","208","&#9784;","elianto","#FFFFF080"," "," ","1","&#10004","[1602]","1","0","0","","","","","","","",""
"pit-trial","11","134610","0.0-2.0-4.3-0.3","battery-v0.2","","""event"",""trial"",""time""
""fullscreenenter"",""1"",""2370""
","
","
","""event"",""trial"",""time""
""fullscreenenter"",""1"",""2370""
","
","","","738","","","10","10978","208","&#9784;","elianto","#FFFFF080"," "," ","1","&#10004","[1589]","1","0","0","","","","","","","",""
"pit-trial","12","138136","0.0-2.0-4.4-0.4","battery-v0.2","","""event"",""trial"",""time""
""fullscreenenter"",""1"",""2370""
","
","
","""event"",""trial"",""time""
""fullscreenenter"",""1"",""2370""
","
","","","669","","","10","10978","208","&#9784;","elianto","#FFFFF080"," "," ","1","&#10004","[1520]","1","0","0","","","","","","","",""
"pit-instructions","13","161512","0.0-2.0-5.0","battery-v0.2","","""event"",""trial"",""time""
""fullscreenenter"",""1"",""2370""
","
","
","""event"",""trial"",""time""
""fullscreenenter"",""1"",""2370""
","
","","[{""page_index"":0,""viewing_time"":5283},{""page_index"":1,""viewing_time"":6907},{""page_index"":2,""viewing_time"":5396},{""page_index"":3,""viewing_time"":5787}]","23374","","","","","","","","","","","","","","","","","","","","","","","",""
"pit-trial","14","166371","0.0-2.0-6.0-0.0","battery-v0.2","","""event"",""trial"",""time""
""fullscreenenter"",""1"",""2370""
","
","
","""event"",""trial"",""time""
""fullscreenenter"",""1"",""2370""
","
","","","-1","","","10","10978","208","&#9854;","elianto","#FFFFF080","-1","-1","1","&#10004","[]","0","0","1","","","","","","","",""
"pit-trial","15","171232","0.0-2.0-6.1-0.1","battery-v0.2","","""event"",""trial"",""time""
""fullscreenenter"",""1"",""2370""
","
","
","""event"",""trial"",""time""
""fullscreenenter"",""1"",""2370""
","
","","","-1","","","10","10978","208","&#9854;","elianto","#FFFFF080","-1","-1","1","&#10004","[]","0","0","1","","","","","","","",""
"pit-trial","16","176096","0.0-2.0-6.2-0.2","battery-v0.2","","""event"",""trial"",""time""
""fullscreenenter"",""1"",""2370""
","
","
","""event"",""trial"",""time""
""fullscreenenter"",""1"",""2370""
","
","","","-1","","","10","10978","208","&#9854;","elianto","#FFFFF080","-1","-1","1","&#10004","[]","0","0","1","","","","","","","",""
"pit-trial","17","180960","0.0-2.0-6.3-0.3","battery-v0.2","","""event"",""trial"",""time""
""fullscreenenter"",""1"",""2370""
","
","
","""event"",""trial"",""time""
""fullscreenenter"",""1"",""2370""
","
","","","-1","","","10","10978","208","&#9854;","elianto","#FFFFF080","-1","-1","1","&#10004","[]","0","0","1","","","","","","","",""
"pit-trial","18","185824","0.0-2.0-6.4-0.4","battery-v0.2","","""event"",""trial"",""time""
""fullscreenenter"",""1"",""2370""
","
","
","""event"",""trial"",""time""
""fullscreenenter"",""1"",""2370""
","
","","","-1","","","10","10978","208","&#9854;","elianto","#FFFFF080","-1","-1","1","&#10004","[]","0","0","1","","","","","","","",""
"pit-instructions","19","307479","0.0-2.0-7.0","battery-v0.2","","""event"",""trial"",""time""
""fullscreenenter"",""1"",""2370""
","
","
","""event"",""trial"",""time""
""fullscreenenter"",""1"",""2370""
","
","","[{""page_index"":0,""viewing_time"":5741},{""page_index"":1,""viewing_time"":7140},{""page_index"":2,""viewing_time"":6190},{""page_index"":3,""viewing_time"":6088},{""page_index"":4,""viewing_time"":5425},{""page_index"":5,""viewing_time"":8863},{""page_index"":6,""viewing_time"":6777},{""page_index"":7,""viewing_time"":8293},{""page_index"":8,""viewing_time"":6261},{""page_index"":9,""viewing_time"":5779},{""page_index"":10,""viewing_time"":6621},{""page_index"":11,""viewing_time"":4909},{""page_index"":12,""viewing_time"":6648},{""page_index"":13,""viewing_time"":9282},{""page_index"":14,""viewing_time"":7275},{""page_index"":15,""viewing_time"":6557},{""page_index"":16,""viewing_time"":6744},{""page_index"":17,""viewing_time"":7062}]","121655","","","","","","","","","","","","","","","","","","","","","","","",""
"pit-trial","20","310869","0.0-2.0-8.0-0.0","battery-v0.2","","""event"",""trial"",""time""
""fullscreenenter"",""1"",""2370""
","
","
","""event"",""trial"",""time""
""fullscreenenter"",""1"",""2370""
","
","","","537","","","10","10978","208","&#9776;","elianto","#3366ff99"," "," ","1","+10","[1387]","1","0","1","","","","","","","",""
"pit-trial","21","314133","0.0-2.0-8.0-1.0","battery-v0.2","","""event"",""trial"",""time""
""fullscreenenter"",""1"",""2370""
","
","
","""event"",""trial"",""time""
""fullscreenenter"",""1"",""2370""
","
","","","404","","","10","10978","208","&#9776;","elianto","#3366ff99"," "," ","1","+10","[1255]","1","0","1","","","","","","","",""
"pit-trial","22","317437","0.0-2.0-8.0-2.0","battery-v0.2","","""event"",""trial"",""time""
""fullscreenenter"",""1"",""2370""
","
","
","""event"",""trial"",""time""
""fullscreenenter"",""1"",""2370""
","
","","","444","","","10","10978","208","&#9776;","elianto","#3366ff99"," "," ","1","+10","[1296]","1","0","1","","","","","","","",""
"pit-trial","23","320714","0.0-2.0-8.0-3.0","battery-v0.2","","""event"",""trial"",""time""
""fullscreenenter"",""1"",""2370""
","
","
","""event"",""trial"",""time""
""fullscreenenter"",""1"",""2370""
","
","","","417","","","10","10978","208","&#9776;","elianto","#3366ff99"," "," ","1","0","[1269]","1","0","1","","","","","","","",""
"pit-trial","24","324010","0.0-2.0-8.0-4.0","battery-v0.2","","""event"",""trial"",""time""
""fullscreenenter"",""1"",""2370""
","
","
","""event"",""trial"",""time""
""fullscreenenter"",""1"",""2370""
","
","","","437","","","10","10978","208","&#9776;","elianto","#3366ff99"," "," ","1","+10","[1289]","1","0","1","","","","","","","",""
"pit-trial","25","327733","0.0-2.0-8.1-0.1","battery-v0.2","","""event"",""trial"",""time""
""fullscreenenter"",""1"",""2370""
","
","
","""event"",""trial"",""time""
""fullscreenenter"",""1"",""2370""
","
","","","867","","","10","10978","208","&#9776;","elianto","#3366ff99"," "," ","1","+10","[1718]","1","0","1","","","","","","","",""
"pit-trial","26","331065","0.0-2.0-8.1-1.1","battery-v0.2","","""event"",""trial"",""time""
""fullscreenenter"",""1"",""2370""
","
","
","""event"",""trial"",""time""
""fullscreenenter"",""1"",""2370""
","
","","","474","","","10","10978","208","&#9776;","elianto","#3366ff99"," "," ","1","+10","[1326]","1","0","1","","","","","","","",""
"pit-trial","27","333982","0.0-2.0-8.1-2.1","battery-v0.2","","""event"",""trial"",""time""
""fullscreenenter"",""1"",""2370""
","
","
","""event"",""trial"",""time""
""fullscreenenter"",""1"",""2370""
","
","","","60","","","10","10978","208","&#9776;","elianto","#3366ff99"," "," ","1","+10","[909]","1","0","1","","","","","","","",""
"pit-trial","28","337211","0.0-2.0-8.1-3.1","battery-v0.2","","""event"",""trial"",""time""
""fullscreenenter"",""1"",""2370""
","
","
","""event"",""trial"",""time""
""fullscreenenter"",""1"",""2370""
","
","","","369","","","10","10978","208","&#9776;","elianto","#3366ff99"," "," ","1","0","[1222]","1","0","1","","","","","","","",""
"pit-trial","29","340438","0.0-2.0-8.1-4.1","battery-v0.2","","""event"",""trial"",""time""
""fullscreenenter"",""1"",""2370""
","
","
","""event"",""trial"",""time""
""fullscreenenter"",""1"",""2370""
","
","","","368","","","10","10978","208","&#9776;","elianto","#3366ff99"," "," ","1","+10","[1219]","1","0","1","","","","","","","",""
"pit-trial","30","343305","0.0-2.0-8.2-0.2","battery-v0.2","","""event"",""trial"",""time""
""fullscreenenter"",""1"",""2370""
","
","
","""event"",""trial"",""time""
""fullscreenenter"",""1"",""2370""
","
","","","10","","","10","10978","208","&#9776;","elianto","#3366ff99"," "," ","1","+10","[861]","1","0","1","","","","","","","",""
"pit-trial","31","346581","0.0-2.0-8.2-1.2","battery-v0.2","","""event"",""trial"",""time""
""fullscreenenter"",""1"",""2370""
","
","
","""event"",""trial"",""time""
""fullscreenenter"",""1"",""2370""
","
","","","419","","","10","10978","208","&#9776;","elianto","#3366ff99"," "," ","1","+10","[514,1270]","2","0","1","","","","","","","",""
"pit-trial","32","349858","0.0-2.0-8.2-2.2","battery-v0.2","","""event"",""trial"",""time""
""fullscreenenter"",""1"",""2370""
","
","
","""event"",""trial"",""time""
""fullscreenenter"",""1"",""2370""
","
","","","422","","","10","10978","208","&#9776;","elianto","#3366ff99"," "," ","1","+10","[1273]","1","0","1","","","","","","","",""
"pit-trial","33","353176","0.0-2.0-8.2-3.2","battery-v0.2","","""event"",""trial"",""time""
""fullscreenenter"",""1"",""2370""
","
","
","""event"",""trial"",""time""
""fullscreenenter"",""1"",""2370""
","
","","","462","","","10","10978","208","&#9776;","elianto","#3366ff99"," "," ","1","0","[1312]","1","0","1","","","","","","","",""
"pit-trial","34","356287","0.0-2.0-8.2-4.2","battery-v0.2","","""event"",""trial"",""time""
""fullscreenenter"",""1"",""2370""
","
","
","""event"",""trial"",""time""
""fullscreenenter"",""1"",""2370""
","
","","","254","","","10","10978","208","&#9776;","elianto","#3366ff99"," "," ","1","+10","[476,1106,2145,2381,2600,2823,3042]","7","0","1","","","","","","","",""
"call-function","35","356291","0.0-2.0-9.0","battery-v0.2","","""event"",""trial"",""time""
""fullscreenenter"",""1"",""2370""
","
","
","""event"",""trial"",""time""
""fullscreenenter"",""1"",""2370""
","
","","","","","","","","","","","","","","","","","","","","","","","","","","",""
"pit-instructions","36","399436","0.0-2.0-10.0","battery-v0.2","","""event"",""trial"",""time""
""fullscreenenter"",""1"",""2370""
","
","
","""event"",""trial"",""time""
""fullscreenenter"",""1"",""2370""
","
","","[{""page_index"":0,""viewing_time"":7491},{""page_index"":1,""viewing_time"":8726},{""page_index"":2,""viewing_time"":9643},{""page_index"":3,""viewing_time"":8950},{""page_index"":4,""viewing_time"":8335}]","43145","","","","","","","","","","","","","","","","","","","","","","","",""
"pit-trial","37","402798","0.0-2.0-11.0-0.0","battery-v0.2","","""event"",""trial"",""time""
""fullscreenenter"",""1"",""2370""
","
","
","""event"",""trial"",""time""
""fullscreenenter"",""1"",""2370""
","
","","","499","","","10","10978","208","&#9761;","elianto","#3366ff99","-1"," ","0","0","[293,1352]","2","0","2","","","","","","","",""
"pit-trial","38","407656","0.0-2.0-11.0-1.0","battery-v0.2","","""event"",""trial"",""time""
""fullscreenenter"",""1"",""2370""
","
","
","""event"",""trial"",""time""
""fullscreenenter"",""1"",""2370""
","
","","","-1","","","10","10978","208","&#9761;","elianto","#3366ff99","-1","-1","1","+10","[]","0","0","2","","","","","","","",""
"pit-trial","39","412515","0.0-2.0-11.0-2.0","battery-v0.2","","""event"",""trial"",""time""
""fullscreenenter"",""1"",""2370""
","
","
","""event"",""trial"",""time""
""fullscreenenter"",""1"",""2370""
","
","","","-1","","","10","10978","208","&#9761;","elianto","#3366ff99","-1","-1","1","+10","[]","0","0","2","","","","","","","",""
"pit-trial","40","417379","0.0-2.0-11.0-3.0","battery-v0.2","","""event"",""trial"",""time""
""fullscreenenter"",""1"",""2370""
","
","
","""event"",""trial"",""time""
""fullscreenenter"",""1"",""2370""
","
","","","-1","","","10","10978","208","&#9761;","elianto","#3366ff99","-1","-1","1","0","[]","0","0","2","","","","","","","",""
"pit-trial","41","422242","0.0-2.0-11.0-4.0","battery-v0.2","","""event"",""trial"",""time""
""fullscreenenter"",""1"",""2370""
","
","
","""event"",""trial"",""time""
""fullscreenenter"",""1"",""2370""
","
","","","-1","","","10","10978","208","&#9761;","elianto","#3366ff99","-1","-1","1","+10","[]","0","0","2","","","","","","","",""
"pit-trial","42","427106","0.0-2.0-11.1-0.1","battery-v0.2","","""event"",""trial"",""time""
""fullscreenenter"",""1"",""2370""
","
","
","""event"",""trial"",""time""
""fullscreenenter"",""1"",""2370""
","
","","","-1","","","10","10978","208","&#9761;","elianto","#3366ff99","-1","-1","1","+10","[]","0","0","2","","","","","","","",""
"pit-trial","43","431966","0.0-2.0-11.1-1.1","battery-v0.2","","""event"",""trial"",""time""
""fullscreenenter"",""1"",""2370""
","
","
","""event"",""trial"",""time""
""fullscreenenter"",""1"",""2370""
","
","","","-1","","","10","10978","208","&#9761;","elianto","#3366ff99","-1","-1","1","+10","[]","0","0","2","","","","","","","",""
"pit-trial","44","436825","0.0-2.0-11.1-2.1","battery-v0.2","","""event"",""trial"",""time""
""fullscreenenter"",""1"",""2370""
","
","
","""event"",""trial"",""time""
""fullscreenenter"",""1"",""2370""
","
","","","-1","","","10","10978","208","&#9761;","elianto","#3366ff99","-1","-1","1","+10","[]","0","0","2","","","","","","","",""
"pit-trial","45","441103","0.0-2.0-11.1-3.1","battery-v0.2","","""event"",""trial"",""time""
""fullscreenenter"",""1"",""2370""
","
","
","""event"",""trial"",""time""
""fullscreenenter"",""1"",""2370""
","
","","","1418","","","10","10978","208","&#9761;","elianto","#3366ff99","-1"," ","0","+10","[2269]","1","0","2","","","","","","","",""
"pit-trial","46","445966","0.0-2.0-11.1-4.1","battery-v0.2","","""event"",""trial"",""time""
""fullscreenenter"",""1"",""2370""
","
","
","""event"",""trial"",""time""
""fullscreenenter"",""1"",""2370""
","
","","","-1","","","10","10978","208","&#9761;","elianto","#3366ff99","-1","-1","1","+10","[]","0","0","2","","","","","","","",""
"pit-trial","47","450827","0.0-2.0-11.2-0.2","battery-v0.2","","""event"",""trial"",""time""
""fullscreenenter"",""1"",""2370""
","
","
","""event"",""trial"",""time""
""fullscreenenter"",""1"",""2370""
","
","","","-1","","","10","10978","208","&#9761;","elianto","#3366ff99","-1","-1","1","+10","[]","0","0","2","","","","","","","",""
"pit-trial","48","455688","0.0-2.0-11.2-1.2","battery-v0.2","","""event"",""trial"",""time""
""fullscreenenter"",""1"",""2370""
","
","
","""event"",""trial"",""time""
""fullscreenenter"",""1"",""2370""
","
","","","-1","","","10","10978","208","&#9761;","elianto","#3366ff99","-1","-1","1","+10","[]","0","0","2","","","","","","","",""
"pit-trial","49","460546","0.0-2.0-11.2-2.2","battery-v0.2","","""event"",""trial"",""time""
""fullscreenenter"",""1"",""2370""
","
","
","""event"",""trial"",""time""
""fullscreenenter"",""1"",""2370""
","
","","","-1","","","10","10978","208","&#9761;","elianto","#3366ff99","-1","-1","1","+10","[]","0","0","2","","","","","","","",""
"pit-trial","50","465407","0.0-2.0-11.2-3.2","battery-v0.2","","""event"",""trial"",""time""
""fullscreenenter"",""1"",""2370""
","
","
","""event"",""trial"",""time""
""fullscreenenter"",""1"",""2370""
","
","","","-1","","","10","10978","208","&#9761;","elianto","#3366ff99","-1","-1","1","0","[]","0","0","2","","","","","","","",""
"pit-trial","51","470268","0.0-2.0-11.2-4.2","battery-v0.2","","""event"",""trial"",""time""
""fullscreenenter"",""1"",""2370""
","
","
","""event"",""trial"",""time""
""fullscreenenter"",""1"",""2370""
","
","","","-1","","","10","10978","208","&#9761;","elianto","#3366ff99","-1","-1","1","+10","[]","0","0","2","","","","","","","",""
"pit-trial","52","475127","0.0-2.0-11.3-0.3","battery-v0.2","","""event"",""trial"",""time""
""fullscreenenter"",""1"",""2370""
","
","
","""event"",""trial"",""time""
""fullscreenenter"",""1"",""2370""
","
","","","-1","","","10","10978","208","&#9761;","elianto","#3366ff99","-1","-1","1","+10","[]","0","0","2","","","","","","","",""
"pit-trial","53","479988","0.0-2.0-11.3-1.3","battery-v0.2","","""event"",""trial"",""time""
""fullscreenenter"",""1"",""2370""
","
","
","""event"",""trial"",""time""
""fullscreenenter"",""1"",""2370""
","
","","","-1","","","10","10978","208","&#9761;","elianto","#3366ff99","-1","-1","1","+10","[]","0","0","2","","","","","","","",""
"pit-trial","54","484849","0.0-2.0-11.3-2.3","battery-v0.2","","""event"",""trial"",""time""
""fullscreenenter"",""1"",""2370""
","
","
","""event"",""trial"",""time""
""fullscreenenter"",""1"",""2370""
","
","","","-1","","","10","10978","208","&#9761;","elianto","#3366ff99","-1","-1","1","+10","[]","0","0","2","","","","","","","",""
"pit-trial","55","489708","0.0-2.0-11.3-3.3","battery-v0.2","","""event"",""trial"",""time""
""fullscreenenter"",""1"",""2370""
","
","
","""event"",""trial"",""time""
""fullscreenenter"",""1"",""2370""
","
","","","-1","","","10","10978","208","&#9761;","elianto","#3366ff99","-1","-1","1","0","[]","0","0","2","","","","","","","",""
"pit-trial","56","494572","0.0-2.0-11.3-4.3","battery-v0.2","","""event"",""trial"",""time""
""fullscreenenter"",""1"",""2370""
","
","
","""event"",""trial"",""time""
""fullscreenenter"",""1"",""2370""
","
","","","-1","","","10","10978","208","&#9761;","elianto","#3366ff99","-1","-1","1","+10","[]","0","0","2","","","","","","","",""
"call-function","57","494575","0.0-2.0-12.0","battery-v0.2","","""event"",""trial"",""time""
""fullscreenenter"",""1"",""2370""
","
","
","""event"",""trial"",""time""
""fullscreenenter"",""1"",""2370""
","
","","","","","","","","","","","","","","","","","","","","","","","","","","",""
"pit-instructions","58","552365","0.0-2.0-13.0","battery-v0.2","","""event"",""trial"",""time""
""fullscreenenter"",""1"",""2370""
","
","
","""event"",""trial"",""time""
""fullscreenenter"",""1"",""2370""
","
","","[{""page_index"":0,""viewing_time"":18514},{""page_index"":1,""viewing_time"":8623},{""page_index"":2,""viewing_time"":9785},{""page_index"":3,""viewing_time"":13796},{""page_index"":4,""viewing_time"":7074}]","57792","","","","","","","","","","","","","","","","","","","","","","","",""
"pit-trial","59","557226","0.0-2.0-14.0-0.0","battery-v0.2","","""event"",""trial"",""time""
""fullscreenenter"",""1"",""2370""
","
","
","""event"",""trial"",""time""
""fullscreenenter"",""1"",""2370""
","
","","","-1","","","10","10978","208","&#9826;","elianto","#f73b6a7A","-1","-1","1","0","[]","0","0","3","","","","","","","",""
"pit-trial","60","562085","0.0-2.0-14.0-1.0","battery-v0.2","","""event"",""trial"",""time""
""fullscreenenter"",""1"",""2370""
","
","
","""event"",""trial"",""time""
""fullscreenenter"",""1"",""2370""
","
","","","-1","","","10","10978","208","&#9826;","elianto","#f73b6a7A","-1","-1","1","0","[]","0","0","3","","","","","","","",""
"pit-trial","61","566944","0.0-2.0-14.0-2.0","battery-v0.2","","""event"",""trial"",""time""
""fullscreenenter"",""1"",""2370""
","
","
","""event"",""trial"",""time""
""fullscreenenter"",""1"",""2370""
","
","","","-1","","","10","10978","208","&#9826;","elianto","#f73b6a7A","-1","-1","1","0","[2972]","1","0","3","","","","","","","",""
"pit-trial","62","571178","0.0-2.0-14.0-3.0","battery-v0.2","","""event"",""trial"",""time""
""fullscreenenter"",""1"",""2370""
","
","
","""event"",""trial"",""time""
""fullscreenenter"",""1"",""2370""
","
","","","1377","","","10","10978","208","&#9826;","elianto","#f73b6a7A","-1"," ","0","0","[2228]","1","0","3","","","","","","","",""
"pit-trial","63","576041","0.0-2.0-14.0-4.0","battery-v0.2","","""event"",""trial"",""time""
""fullscreenenter"",""1"",""2370""
","
","
","""event"",""trial"",""time""
""fullscreenenter"",""1"",""2370""
","
","","","-1","","","10","10978","208","&#9826;","elianto","#f73b6a7A","-1","-1","1","0","[]","0","0","3","","","","","","","",""
"pit-trial","64","579386","0.0-2.0-14.1-0.1","battery-v0.2","","""event"",""trial"",""time""
""fullscreenenter"",""1"",""2370""
","
","
","""event"",""trial"",""time""
""fullscreenenter"",""1"",""2370""
","
","","","483","","","10","10978","208","&#9826;","elianto","#f73b6a7A","-1"," ","0","-10","[1336]","1","0","3","","","","","","","",""
"pit-trial","65","584246","0.0-2.0-14.1-1.1","battery-v0.2","","""event"",""trial"",""time""
""fullscreenenter"",""1"",""2370""
","
","
","""event"",""trial"",""time""
""fullscreenenter"",""1"",""2370""
","
","","","-1","","","10","10978","208","&#9826;","elianto","#f73b6a7A","-1","-1","1","0","[]","0","0","3","","","","","","","",""
"pit-trial","66","589105","0.0-2.0-14.1-2.1","battery-v0.2","","""event"",""trial"",""time""
""fullscreenenter"",""1"",""2370""
","
","
","""event"",""trial"",""time""
""fullscreenenter"",""1"",""2370""
","
","","","-1","","","10","10978","208","&#9826;","elianto","#f73b6a7A","-1","-1","1","0","[]","0","0","3","","","","","","","",""
"pit-trial","67","593963","0.0-2.0-14.1-3.1","battery-v0.2","","""event"",""trial"",""time""
""fullscreenenter"",""1"",""2370""
","
","
","""event"",""trial"",""time""
""fullscreenenter"",""1"",""2370""
","
","","","-1","","","10","10978","208","&#9826;","elianto","#f73b6a7A","-1","-1","1","-10","[]","0","0","3","","","","","","","",""
"pit-trial","68","598822","0.0-2.0-14.1-4.1","battery-v0.2","","""event"",""trial"",""time""
""fullscreenenter"",""1"",""2370""
","
","
","""event"",""trial"",""time""
""fullscreenenter"",""1"",""2370""
","
","","","-1","","","10","10978","208","&#9826;","elianto","#f73b6a7A","-1","-1","1","0","[]","0","0","3","","","","","","","",""
"pit-trial","69","603686","0.0-2.0-14.2-0.2","battery-v0.2","","""event"",""trial"",""time""
""fullscreenenter"",""1"",""2370""
","
","
","""event"",""trial"",""time""
""fullscreenenter"",""1"",""2370""
","
","","","-1","","","10","10978","208","&#9826;","elianto","#f73b6a7A","-1","-1","1","0","[]","0","0","3","","","","","","","",""
"pit-trial","70","608544","0.0-2.0-14.2-1.2","battery-v0.2","","""event"",""trial"",""time""
""fullscreenenter"",""1"",""2370""
","
","
","""event"",""trial"",""time""
""fullscreenenter"",""1"",""2370""
","
","","","-1","","","10","10978","208","&#9826;","elianto","#f73b6a7A","-1","-1","1","0","[]","0","0","3","","","","","","","",""
"pit-trial","71","613406","0.0-2.0-14.2-2.2","battery-v0.2","","""event"",""trial"",""time""
""fullscreenenter"",""1"",""2370""
","
","
","""event"",""trial"",""time""
""fullscreenenter"",""1"",""2370""
","
","","","-1","","","10","10978","208","&#9826;","elianto","#f73b6a7A","-1","-1","1","0","[]","0","0","3","","","","","","","",""
"pit-trial","72","618266","0.0-2.0-14.2-3.2","battery-v0.2","","""event"",""trial"",""time""
""fullscreenenter"",""1"",""2370""
","
","
","""event"",""trial"",""time""
""fullscreenenter"",""1"",""2370""
","
","","","-1","","","10","10978","208","&#9826;","elianto","#f73b6a7A","-1","-1","1","-10","[]","0","0","3","","","","","","","",""
"pit-trial","73","623128","0.0-2.0-14.2-4.2","battery-v0.2","","""event"",""trial"",""time""
""fullscreenenter"",""1"",""2370""
","
","
","""event"",""trial"",""time""
""fullscreenenter"",""1"",""2370""
","
","","","-1","","","10","10978","208","&#9826;","elianto","#f73b6a7A","-1","-1","1","0","[]","0","0","3","","","","","","","",""
"pit-trial","74","627988","0.0-2.0-14.3-0.3","battery-v0.2","","""event"",""trial"",""time""
""fullscreenenter"",""1"",""2370""
","
","
","""event"",""trial"",""time""
""fullscreenenter"",""1"",""2370""
","
","","","-1","","","10","10978","208","&#9826;","elianto","#f73b6a7A","-1","-1","1","0","[]","0","0","3","","","","","","","",""
"pit-trial","75","632845","0.0-2.0-14.3-1.3","battery-v0.2","","""event"",""trial"",""time""
""fullscreenenter"",""1"",""2370""
","
","
","""event"",""trial"",""time""
""fullscreenenter"",""1"",""2370""
","
","","","-1","","","10","10978","208","&#9826;","elianto","#f73b6a7A","-1","-1","1","0","[]","0","0","3","","","","","","","",""
"pit-trial","76","637707","0.0-2.0-14.3-2.3","battery-v0.2","","""event"",""trial"",""time""
""fullscreenenter"",""1"",""2370""
","
","
","""event"",""trial"",""time""
""fullscreenenter"",""1"",""2370""
","
","","","-1","","","10","10978","208","&#9826;","elianto","#f73b6a7A","-1","-1","1","0","[]","0","0","3","","","","","","","",""
"pit-trial","77","642570","0.0-2.0-14.3-3.3","battery-v0.2","","""event"",""trial"",""time""
""fullscreenenter"",""1"",""2370""
","
","
","""event"",""trial"",""time""
""fullscreenenter"",""1"",""2370""
","
","","","-1","","","10","10978","208","&#9826;","elianto","#f73b6a7A","-1","-1","1","-10","[]","0","0","3","","","","","","","",""
"pit-trial","78","647434","0.0-2.0-14.3-4.3","battery-v0.2","","""event"",""trial"",""time""
""fullscreenenter"",""1"",""2370""
","
","
","""event"",""trial"",""time""
""fullscreenenter"",""1"",""2370""
","
","","","-1","","","10","10978","208","&#9826;","elianto","#f73b6a7A","-1","-1","1","0","[]","0","0","3","","","","","","","",""
"call-function","79","647437","0.0-2.0-15.0","battery-v0.2","","""event"",""trial"",""time""
""fullscreenenter"",""1"",""2370""
","
","
","""event"",""trial"",""time""
""fullscreenenter"",""1"",""2370""
","
","","","","","","","","","","","","","","","","","","","","","","","","","","",""
"pit-instructions","80","673677","0.0-2.0-16.0","battery-v0.2","","""event"",""trial"",""time""
""fullscreenenter"",""1"",""2370""
","
","
","""event"",""trial"",""time""
""fullscreenenter"",""1"",""2370""
","
","","[{""page_index"":0,""viewing_time"":7379},{""page_index"":1,""viewing_time"":8342},{""page_index"":2,""viewing_time"":5651},{""page_index"":3,""viewing_time"":4870}]","26242","","","","","","","","","","","","","","","","","","","","","","","",""
"pit-trial","81","676861","0.0-2.0-17.0-0.0","battery-v0.2","","""event"",""trial"",""time""
""fullscreenenter"",""1"",""2370""
","
","
","""event"",""trial"",""time""
""fullscreenenter"",""1"",""2370""
","
","","","325","","","10","10978","208","&#9789;","elianto","#f73b6a7A"," "," ","1","0","[1177]","1","0","4","","","","","","","",""
"pit-trial","82","679746","0.0-2.0-17.0-1.0","battery-v0.2","","""event"",""trial"",""time""
""fullscreenenter"",""1"",""2370""
","
","
","""event"",""trial"",""time""
""fullscreenenter"",""1"",""2370""
","
","","","29","","","10","10978","208","&#9789;","elianto","#f73b6a7A"," "," ","1","0","[379,878,1489,1787,2001,2865]","6","0","4","","","","","","","",""
"pit-trial","83","682706","0.0-2.0-17.0-2.0","battery-v0.2","","""event"",""trial"",""time""
""fullscreenenter"",""1"",""2370""
","
","
","""event"",""trial"",""time""
""fullscreenenter"",""1"",""2370""
","
","","","103","","","10","10978","208","&#9789;","elianto","#f73b6a7A"," "," ","1","0","[955]","1","0","4","","","","","","","",""
"pit-trial","84","685917","0.0-2.0-17.0-3.0","battery-v0.2","","""event"",""trial"",""time""
""fullscreenenter"",""1"",""2370""
","
","
","""event"",""trial"",""time""
""fullscreenenter"",""1"",""2370""
","
","","","355","","","10","10978","208","&#9789;","elianto","#f73b6a7A"," "," ","1","-10","[1206]","1","0","4","","","","","","","",""
"pit-trial","85","689217","0.0-2.0-17.0-4.0","battery-v0.2","","""event"",""trial"",""time""
""fullscreenenter"",""1"",""2370""
","
","
","""event"",""trial"",""time""
""fullscreenenter"",""1"",""2370""
","
","","","442","","","10","10978","208","&#9789;","elianto","#f73b6a7A"," "," ","1","0","[1293]","1","0","4","","","","","","","",""
"pit-trial","86","692737","0.0-2.0-17.1-0.1","battery-v0.2","","""event"",""trial"",""time""
""fullscreenenter"",""1"",""2370""
","
","
","""event"",""trial"",""time""
""fullscreenenter"",""1"",""2370""
","
","","","661","","","10","10978","208","&#9789;","elianto","#f73b6a7A"," "," ","1","0","[1512]","1","0","4","","","","","","","",""
"pit-trial","87","696044","0.0-2.0-17.1-1.1","battery-v0.2","","""event"",""trial"",""time""
""fullscreenenter"",""1"",""2370""
","
","
","""event"",""trial"",""time""
""fullscreenenter"",""1"",""2370""
","
","","","450","","","10","10978","208","&#9789;","elianto","#f73b6a7A"," "," ","1","0","[1301]","1","0","4","","","","","","","",""
"pit-trial","88","699414","0.0-2.0-17.1-2.1","battery-v0.2","","""event"",""trial"",""time""
""fullscreenenter"",""1"",""2370""
","
","
","""event"",""trial"",""time""
""fullscreenenter"",""1"",""2370""
","
","","","517","","","10","10978","208","&#9789;","elianto","#f73b6a7A"," "," ","1","0","[797,1366]","2","0","4","","","","","","","",""
"pit-trial","89","702465","0.0-2.0-17.1-3.1","battery-v0.2","","""event"",""trial"",""time""
""fullscreenenter"",""1"",""2370""
","
","
","""event"",""trial"",""time""
""fullscreenenter"",""1"",""2370""
","
","","","194","","","10","10978","208","&#9789;","elianto","#f73b6a7A"," "," ","1","-10","[1045]","1","0","4","","","","","","","",""
"pit-trial","90","705691","0.0-2.0-17.1-4.1","battery-v0.2","","""event"",""trial"",""time""
""fullscreenenter"",""1"",""2370""
","
","
","""event"",""trial"",""time""
""fullscreenenter"",""1"",""2370""
","
","","","369","","","10","10978","208","&#9789;","elianto","#f73b6a7A"," "," ","1","0","[1220]","1","0","4","","","","","","","",""
"pit-trial","91","709522","0.0-2.0-17.2-0.2","battery-v0.2","","""event"",""trial"",""time""
""fullscreenenter"",""1"",""2370""
","
","
","""event"",""trial"",""time""
""fullscreenenter"",""1"",""2370""
","
","","","977","","","10","10978","208","&#9789;","elianto","#f73b6a7A"," "," ","1","0","[1829,2595,3107]","3","0","4","","","","","","","",""
"pit-trial","92","712842","0.0-2.0-17.2-1.2","battery-v0.2","","""event"",""trial"",""time""
""fullscreenenter"",""1"",""2370""
","
","
","""event"",""trial"",""time""
""fullscreenenter"",""1"",""2370""
","
","","","460","","","10","10978","208","&#9789;","elianto","#f73b6a7A"," "," ","1","0","[1311,1765,2120]","3","0","4","","","","","","","",""
"pit-trial","93","716317","0.0-2.0-17.2-2.2","battery-v0.2","","""event"",""trial"",""time""
""fullscreenenter"",""1"",""2370""
","
","
","""event"",""trial"",""time""
""fullscreenenter"",""1"",""2370""
","
","","","617","","","10","10978","208","&#9789;","elianto","#f73b6a7A"," "," ","1","0","[1468]","1","0","4","","","","","","","",""
"pit-trial","94","719351","0.0-2.0-17.2-3.2","battery-v0.2","","""event"",""trial"",""time""
""fullscreenenter"",""1"",""2370""
","
","
","""event"",""trial"",""time""
""fullscreenenter"",""1"",""2370""
","
","","","180","","","10","10978","208","&#9789;","elianto","#f73b6a7A"," "," ","1","-10","[1030]","1","0","4","","","","","","","",""
"pit-trial","95","722358","0.0-2.0-17.2-4.2","battery-v0.2","","""event"",""trial"",""time""
""fullscreenenter"",""1"",""2370""
","
","
","""event"",""trial"",""time""
""fullscreenenter"",""1"",""2370""
","
","","","149","","","10","10978","208","&#9789;","elianto","#f73b6a7A"," "," ","1","0","[1001]","1","0","4","","","","","","","",""
"pit-trial","96","725459","0.0-2.0-17.3-0.3","battery-v0.2","","""event"",""trial"",""time""
""fullscreenenter"",""1"",""2370""
","
","
","""event"",""trial"",""time""
""fullscreenenter"",""1"",""2370""
","
","","","241","","","10","10978","208","&#9789;","elianto","#f73b6a7A"," "," ","1","0","[1091]","1","0","4","","","","","","","",""
"pit-trial","97","728346","0.0-2.0-17.3-1.3","battery-v0.2","","""event"",""trial"",""time""
""fullscreenenter"",""1"",""2370""
","
","
","""event"",""trial"",""time""
""fullscreenenter"",""1"",""2370""
","
","","","26","","","10","10978","208","&#9789;","elianto","#f73b6a7A"," "," ","1","0","[876]","1","0","4","","","","","","","",""
"pit-trial","98","732423","0.0-2.0-17.3-2.3","battery-v0.2","","""event"",""trial"",""time""
""fullscreenenter"",""1"",""2370""
","
","
","""event"",""trial"",""time""
""fullscreenenter"",""1"",""2370""
","
","","","1217","","","10","10978","208","&#9789;","elianto","#f73b6a7A"," "," ","1","0","[765,2069]","2","0","4","","","","","","","",""
"pit-trial","99","735425","0.0-2.0-17.3-3.3","battery-v0.2","","""event"",""trial"",""time""
""fullscreenenter"",""1"",""2370""
","
","
","""event"",""trial"",""time""
""fullscreenenter"",""1"",""2370""
","
","","","143","","","10","10978","208","&#9789;","elianto","#f73b6a7A"," "," ","1","-10","[994]","1","0","4","","","","","","","",""
"pit-trial","100","738981","0.0-2.0-17.3-4.3","battery-v0.2","","""event"",""trial"",""time""
""fullscreenenter"",""1"",""2370""
","
","
","""event"",""trial"",""time""
""fullscreenenter"",""1"",""2370""
","
","","","698","","","10","10978","208","&#9789;","elianto","#f73b6a7A"," "," ","1","0","[847,1549]","2","0","4","","","","","","","",""
"call-function","101","738984","0.0-2.0-18.0","battery-v0.2","","""event"",""trial"",""time""
""fullscreenenter"",""1"",""2370""
""blur"",""102"",""813354""
""focus"",""102"",""813357""
","""event"",""trial"",""time""
""blur"",""102"",""813354""
","""event"",""trial"",""time""
""focus"",""102"",""813357""
","""event"",""trial"",""time""
""fullscreenenter"",""1"",""2370""
","
","","","","","","","","","","","","","","","","","","","","","","","","","","",""
"pit-instructions","102","816341","0.0-2.0-19.0","battery-v0.2","","""event"",""trial"",""time""
""fullscreenenter"",""1"",""2370""
""blur"",""102"",""813354""
""focus"",""102"",""813357""
","""event"",""trial"",""time""
""blur"",""102"",""813354""
","""event"",""trial"",""time""
""focus"",""102"",""813357""
","""event"",""trial"",""time""
""fullscreenenter"",""1"",""2370""
","
","","[{""page_index"":0,""viewing_time"":7150},{""page_index"":1,""viewing_time"":6836},{""page_index"":2,""viewing_time"":16757},{""page_index"":3,""viewing_time"":7109},{""page_index"":4,""viewing_time"":9414},{""page_index"":5,""viewing_time"":8250},{""page_index"":6,""viewing_time"":9122},{""page_index"":7,""viewing_time"":7412},{""page_index"":8,""viewing_time"":5309}]","77359","","","","","","","","","","","","","","","","","","","","","","","",""
"pit-comprehension","103","825786","0.0-2.0-20.0-0.0","battery-v0.2","","""event"",""trial"",""time""
""fullscreenenter"",""1"",""2370""
""blur"",""102"",""813354""
""focus"",""102"",""813357""
","""event"",""trial"",""time""
""blur"",""102"",""813354""
","""event"",""trial"",""time""
""focus"",""102"",""813357""
","""event"",""trial"",""time""
""fullscreenenter"",""1"",""2370""
","
","","","9436","[""SPACE""]","0","10","10978","208","","","","","","","","","","","","","","","","","","",""
"pit-instructions","104","828201","0.0-2.0-20.0-1.0","battery-v0.2","","""event"",""trial"",""time""
""fullscreenenter"",""1"",""2370""
""blur"",""102"",""813354""
""focus"",""102"",""813357""
","""event"",""trial"",""time""
""blur"",""102"",""813354""
","""event"",""trial"",""time""
""focus"",""102"",""813357""
","""event"",""trial"",""time""
""fullscreenenter"",""1"",""2370""
","
","","[{""page_index"":0,""viewing_time"":2367}]","2367","","","","","","","","","","","","","","","","","","","","","","","",""
"pit-comprehension","105","834818","0.0-2.0-21.0-0.0","battery-v0.2","","""event"",""trial"",""time""
""fullscreenenter"",""1"",""2370""
""blur"",""102"",""813354""
""focus"",""102"",""813357""
","""event"",""trial"",""time""
""blur"",""102"",""813354""
","""event"",""trial"",""time""
""focus"",""102"",""813357""
","""event"",""trial"",""time""
""fullscreenenter"",""1"",""2370""
","
","","","6611","[""10""]","0","10","10978","208","","","","","","","","","","","","","","","","","","",""
"pit-instructions","106","836222","0.0-2.0-21.0-1.0","battery-v0.2","","""event"",""trial"",""time""
""fullscreenenter"",""1"",""2370""
""blur"",""102"",""813354""
""focus"",""102"",""813357""
","""event"",""trial"",""time""
""blur"",""102"",""813354""
","""event"",""trial"",""time""
""focus"",""102"",""813357""
","""event"",""trial"",""time""
""fullscreenenter"",""1"",""2370""
","
","","[{""page_index"":0,""viewing_time"":1353}]","1353","","","","","","","","","","","","","","","","","","","","","","","",""
"pit-comprehension","107","849408","0.0-2.0-22.0-0.0","battery-v0.2","","""event"",""trial"",""time""
""fullscreenenter"",""1"",""2370""
""blur"",""102"",""813354""
""focus"",""102"",""813357""
","""event"",""trial"",""time""
""blur"",""102"",""813354""
","""event"",""trial"",""time""
""focus"",""102"",""813357""
","""event"",""trial"",""time""
""fullscreenenter"",""1"",""2370""
","
","","","13179","[""0""]","0","10","10978","208","","","","","","","","","","","","","","","","","","",""
"pit-instructions","108","850990","0.0-2.0-22.0-1.0","battery-v0.2","","""event"",""trial"",""time""
""fullscreenenter"",""1"",""2370""
""blur"",""102"",""813354""
""focus"",""102"",""813357""
","""event"",""trial"",""time""
""blur"",""102"",""813354""
","""event"",""trial"",""time""
""focus"",""102"",""813357""
","""event"",""trial"",""time""
""fullscreenenter"",""1"",""2370""
","
","","[{""page_index"":0,""viewing_time"":1538}]","1538","","","","","","","","","","","","","","","","","","","","","","","",""
"pit-comprehension","109","863312","0.0-2.0-23.0-0.0","battery-v0.2","","""event"",""trial"",""time""
""fullscreenenter"",""1"",""2370""
""blur"",""102"",""813354""
""focus"",""102"",""813357""
","""event"",""trial"",""time""
""blur"",""102"",""813354""
","""event"",""trial"",""time""
""focus"",""102"",""813357""
","""event"",""trial"",""time""
""fullscreenenter"",""1"",""2370""
","
","","","12317","[""True""]","0","10","10978","208","","","","","","","","","","","","","","","","","","",""
"pit-instructions","110","864824","0.0-2.0-23.0-1.0","battery-v0.2","","""event"",""trial"",""time""
""fullscreenenter"",""1"",""2370""
""blur"",""102"",""813354""
""focus"",""102"",""813357""
","""event"",""trial"",""time""
""blur"",""102"",""813354""
","""event"",""trial"",""time""
""focus"",""102"",""813357""
","""event"",""trial"",""time""
""fullscreenenter"",""1"",""2370""
","
","","[{""page_index"":0,""viewing_time"":1463}]","1464","","","","","","","","","","","","","","","","","","","","","","","",""
"pit-comprehension","111","872993","0.0-2.0-24.0-0.0","battery-v0.2","","""event"",""trial"",""time""
""fullscreenenter"",""1"",""2370""
""blur"",""102"",""813354""
""focus"",""102"",""813357""
","""event"",""trial"",""time""
""blur"",""102"",""813354""
","""event"",""trial"",""time""
""focus"",""102"",""813357""
","""event"",""trial"",""time""
""fullscreenenter"",""1"",""2370""
","
","","","8164","[""True""]","0","10","10978","208","","","","","","","","","","","","","","","","","","",""
"pit-instructions","112","876704","0.0-2.0-24.0-1.0","battery-v0.2","","""event"",""trial"",""time""
""fullscreenenter"",""1"",""2370""
""blur"",""102"",""813354""
""focus"",""102"",""813357""
","""event"",""trial"",""time""
""blur"",""102"",""813354""
","""event"",""trial"",""time""
""focus"",""102"",""813357""
","""event"",""trial"",""time""
""fullscreenenter"",""1"",""2370""
","
","","[{""page_index"":0,""viewing_time"":3662}]","3663","","","","","","","","","","","","","","","","","","","","","","","",""
"pit-comprehension","113","882793","0.0-2.0-25.0-0.0","battery-v0.2","","""event"",""trial"",""time""
""fullscreenenter"",""1"",""2370""
""blur"",""102"",""813354""
""focus"",""102"",""813357""
","""event"",""trial"",""time""
""blur"",""102"",""813354""
","""event"",""trial"",""time""
""focus"",""102"",""813357""
","""event"",""trial"",""time""
""fullscreenenter"",""1"",""2370""
","
","","","6084","[""True""]","0","10","10978","208","","","","","","","","","","","","","","","","","","",""
"pit-instructions","114","884059","0.0-2.0-25.0-1.0","battery-v0.2","","""event"",""trial"",""time""
""fullscreenenter"",""1"",""2370""
""blur"",""102"",""813354""
""focus"",""102"",""813357""
","""event"",""trial"",""time""
""blur"",""102"",""813354""
","""event"",""trial"",""time""
""focus"",""102"",""813357""
","""event"",""trial"",""time""
""fullscreenenter"",""1"",""2370""
","
","","[{""page_index"":0,""viewing_time"":1222}]","1222","","","","","","","","","","","","","","","","","","","","","","","",""
"pit-comprehension","115","888633","0.0-2.0-26.0-0.0","battery-v0.2","","""event"",""trial"",""time""
""fullscreenenter"",""1"",""2370""
""blur"",""102"",""813354""
""focus"",""102"",""813357""
","""event"",""trial"",""time""
""blur"",""102"",""813354""
","""event"",""trial"",""time""
""focus"",""102"",""813357""
","""event"",""trial"",""time""
""fullscreenenter"",""1"",""2370""
","
","","","4570","[""False""]","0","10","10978","208","","","","","","","","","","","","","","","","","","",""
"pit-instructions","116","889790","0.0-2.0-26.0-1.0","battery-v0.2","","""event"",""trial"",""time""
""fullscreenenter"",""1"",""2370""
""blur"",""102"",""813354""
""focus"",""102"",""813357""
","""event"",""trial"",""time""
""blur"",""102"",""813354""
","""event"",""trial"",""time""
""focus"",""102"",""813357""
","""event"",""trial"",""time""
""fullscreenenter"",""1"",""2370""
","
","","[{""page_index"":0,""viewing_time"":1126}]","1127","","","","","","","","","","","","","","","","","","","","","","","",""
"pit-instructions","117","911788","0.0-3.0","battery-v0.2","","""event"",""trial"",""time""
""fullscreenenter"",""1"",""2370""
""blur"",""102"",""813354""
""focus"",""102"",""813357""
","""event"",""trial"",""time""
""blur"",""102"",""813354""
","""event"",""trial"",""time""
""focus"",""102"",""813357""
","""event"",""trial"",""time""
""fullscreenenter"",""1"",""2370""
","
","","[{""page_index"":0,""viewing_time"":6910},{""page_index"":1,""viewing_time"":7467},{""page_index"":2,""viewing_time"":7620}]","21997","","","","","","","","","","","","","","","","","","","","","","","",""
"pit-trial","118","916130","0.0-4.0","battery-v0.2","","""event"",""trial"",""time""
""fullscreenenter"",""1"",""2370""
""blur"",""102"",""813354""
""focus"",""102"",""813357""
","""event"",""trial"",""time""
""blur"",""102"",""813354""
","""event"",""trial"",""time""
""focus"",""102"",""813357""
","""event"",""trial"",""time""
""fullscreenenter"",""1"",""2370""
","
","","","1483","","","10","10978","208","&#9730;","elianto","#3366ff99"," "," ","1","+10","[2334]","1","1","","","10978","1","1","1","win","go","0"
"pit-trial","119","920994","0.0-5.0","battery-v0.2","","""event"",""trial"",""time""
""fullscreenenter"",""1"",""2370""
""blur"",""102"",""813354""
""focus"",""102"",""813357""
","""event"",""trial"",""time""
""blur"",""102"",""813354""
","""event"",""trial"",""time""
""focus"",""102"",""813357""
","""event"",""trial"",""time""
""fullscreenenter"",""1"",""2370""
","
","","","-1","","","10","10978","208","&#9752;","elianto","#f73b6a7A"," ","-1","0","-10","[]","0","1","","","10978","2","3","3","lose","go","0"
"pit-trial","120","925858","0.0-6.0","battery-v0.2","","""event"",""trial"",""time""
""fullscreenenter"",""1"",""2370""
""blur"",""102"",""813354""
""focus"",""102"",""813357""
","""event"",""trial"",""time""
""blur"",""102"",""813354""
","""event"",""trial"",""time""
""focus"",""102"",""813357""
","""event"",""trial"",""time""
""fullscreenenter"",""1"",""2370""
","
","","","-1","","","10","10978","208","&#9733;","elianto","#3366ff99","-1","-1","1","+10","[]","0","1","","","10978","3","2","2","win","no-go","0"
"pit-trial","121","930721","0.0-7.0","battery-v0.2","","""event"",""trial"",""time""
""fullscreenenter"",""1"",""2370""
""blur"",""102"",""813354""
""focus"",""102"",""813357""
","""event"",""trial"",""time""
""blur"",""102"",""813354""
","""event"",""trial"",""time""
""focus"",""102"",""813357""
","""event"",""trial"",""time""
""fullscreenenter"",""1"",""2370""
","
","","","-1","","","10","10978","208","&#9728;","elianto","#f73b6a7A","-1","-1","1","-10","[]","0","1","","","10978","4","0","4","lose","no-go","1"
"pit-trial","122","934327","0.0-8.0","battery-v0.2","","""event"",""trial"",""time""
""fullscreenenter"",""1"",""2370""
""blur"",""102"",""813354""
""focus"",""102"",""813357""
","""event"",""trial"",""time""
""blur"",""102"",""813354""
","""event"",""trial"",""time""
""focus"",""102"",""813357""
","""event"",""trial"",""time""
""fullscreenenter"",""1"",""2370""
","
","","","750","","","10","10978","208","&#9730;","elianto","#3366ff99"," "," ","1","+10","[1600]","1","1","","","10978","5","1","1","win","go","0"
"pit-trial","123","939190","0.0-9.0","battery-v0.2","","""event"",""trial"",""time""
""fullscreenenter"",""1"",""2370""
""blur"",""102"",""813354""
""focus"",""102"",""813357""
","""event"",""trial"",""time""
""blur"",""102"",""813354""
","""event"",""trial"",""time""
""focus"",""102"",""813357""
","""event"",""trial"",""time""
""fullscreenenter"",""1"",""2370""
","
","","","-1","","","10","10978","208","&#9733;","elianto","#3366ff99","-1","-1","1","+10","[]","0","1","","","10978","6","2","2","win","no-go","0"
"pit-trial","124","943475","0.0-10.0","battery-v0.2","","""event"",""trial"",""time""
""fullscreenenter"",""1"",""2370""
""blur"",""102"",""813354""
""focus"",""102"",""813357""
","""event"",""trial"",""time""
""blur"",""102"",""813354""
","""event"",""trial"",""time""
""focus"",""102"",""813357""
","""event"",""trial"",""time""
""fullscreenenter"",""1"",""2370""
","
","","","1426","","","10","10978","208","&#9728;","elianto","#f73b6a7A","-1"," ","0","-10","[2278]","1","1","","","10978","7","0","4","lose","no-go","0"
"pit-trial","125","947408","0.0-11.0","battery-v0.2","","""event"",""trial"",""time""
""fullscreenenter"",""1"",""2370""
""blur"",""102"",""813354""
""focus"",""102"",""813357""
","""event"",""trial"",""time""
""blur"",""102"",""813354""
","""event"",""trial"",""time""
""focus"",""102"",""813357""
","""event"",""trial"",""time""
""fullscreenenter"",""1"",""2370""
","
","","","1073","","","10","10978","208","&#9752;","elianto","#f73b6a7A"," "," ","1","0","[1924]","1","1","","","10978","8","3","3","lose","go","0"
"pit-trial","126","952269","0.0-12.0","battery-v0.2","","""event"",""trial"",""time""
""fullscreenenter"",""1"",""2370""
""blur"",""102"",""813354""
""focus"",""102"",""813357""
","""event"",""trial"",""time""
""blur"",""102"",""813354""
","""event"",""trial"",""time""
""focus"",""102"",""813357""
","""event"",""trial"",""time""
""fullscreenenter"",""1"",""2370""
","
","","","-1","","","10","10978","208","&#9733;","elianto","#3366ff99","-1","-1","1","+10","[]","0","1","","","10978","9","2","2","win","no-go","0"
"pit-trial","127","957133","0.0-13.0","battery-v0.2","","""event"",""trial"",""time""
""fullscreenenter"",""1"",""2370""
""blur"",""102"",""813354""
""focus"",""102"",""813357""
","""event"",""trial"",""time""
""blur"",""102"",""813354""
","""event"",""trial"",""time""
""focus"",""102"",""813357""
","""event"",""trial"",""time""
""fullscreenenter"",""1"",""2370""
","
","","","-1","","","10","10978","208","&#9752;","elianto","#f73b6a7A"," ","-1","0","-10","[]","0","1","","","10978","10","3","3","lose","go","0"
"pit-trial","128","960797","0.0-14.0","battery-v0.2","","""event"",""trial"",""time""
""fullscreenenter"",""1"",""2370""
""blur"",""102"",""813354""
""focus"",""102"",""813357""
","""event"",""trial"",""time""
""blur"",""102"",""813354""
","""event"",""trial"",""time""
""focus"",""102"",""813357""
","""event"",""trial"",""time""
""fullscreenenter"",""1"",""2370""
","
","","","804","","","10","10978","208","&#9730;","elianto","#3366ff99"," "," ","1","+10","[1655]","1","1","","","10978","11","1","1","win","go","0"
"pit-trial","129","965657","0.0-15.0","battery-v0.2","","""event"",""trial"",""time""
""fullscreenenter"",""1"",""2370""
""blur"",""102"",""813354""
""focus"",""102"",""813357""
","""event"",""trial"",""time""
""blur"",""102"",""813354""
","""event"",""trial"",""time""
""focus"",""102"",""813357""
","""event"",""trial"",""time""
""fullscreenenter"",""1"",""2370""
","
","","","-1","","","10","10978","208","&#9728;","elianto","#f73b6a7A","-1","-1","1","0","[]","0","1","","","10978","12","0","4","lose","no-go","0"
"pit-trial","130","970521","0.0-16.0","battery-v0.2","","""event"",""trial"",""time""
""fullscreenenter"",""1"",""2370""
""blur"",""102"",""813354""
""focus"",""102"",""813357""
","""event"",""trial"",""time""
""blur"",""102"",""813354""
","""event"",""trial"",""time""
""focus"",""102"",""813357""
","""event"",""trial"",""time""
""fullscreenenter"",""1"",""2370""
","
","","","-1","","","10","10978","208","&#9728;","elianto","#f73b6a7A","-1","-1","1","0","[]","0","1","","","10978","13","0","4","lose","no-go","0"
"pit-trial","131","974092","0.0-17.0","battery-v0.2","","""event"",""trial"",""time""
""fullscreenenter"",""1"",""2370""
""blur"",""102"",""813354""
""focus"",""102"",""813357""
","""event"",""trial"",""time""
""blur"",""102"",""813354""
","""event"",""trial"",""time""
""focus"",""102"",""813357""
","""event"",""trial"",""time""
""fullscreenenter"",""1"",""2370""
","
","","","717","","","10","10978","208","&#9733;","elianto","#3366ff99","-1"," ","0","0","[1568]","1","1","","","10978","14","2","2","win","no-go","0"
"pit-trial","132","978134","0.0-18.0","battery-v0.2","","""event"",""trial"",""time""
""fullscreenenter"",""1"",""2370""
""blur"",""102"",""813354""
""focus"",""102"",""813357""
","""event"",""trial"",""time""
""blur"",""102"",""813354""
","""event"",""trial"",""time""
""focus"",""102"",""813357""
","""event"",""trial"",""time""
""fullscreenenter"",""1"",""2370""
","
","","","1183","","","10","10978","208","&#9752;","elianto","#f73b6a7A"," "," ","1","0","[2034]","1","1","","","10978","15","3","3","lose","go","0"
"pit-trial","133","981505","0.0-19.0","battery-v0.2","","""event"",""trial"",""time""
""fullscreenenter"",""1"",""2370""
""blur"",""102"",""813354""
""focus"",""102"",""813357""
","""event"",""trial"",""time""
""blur"",""102"",""813354""
","""event"",""trial"",""time""
""focus"",""102"",""813357""
","""event"",""trial"",""time""
""fullscreenenter"",""1"",""2370""
","
","","","515","","","10","10978","208","&#9730;","elianto","#3366ff99"," "," ","1","+10","[1366]","1","1","","","10978","16","1","1","win","go","0"
"pit-trial","134","986364","0.0-20.0","battery-v0.2","","""event"",""trial"",""time""
""fullscreenenter"",""1"",""2370""
""blur"",""102"",""813354""
""focus"",""102"",""813357""
","""event"",""trial"",""time""
""blur"",""102"",""813354""
","""event"",""trial"",""time""
""focus"",""102"",""813357""
","""event"",""trial"",""time""
""fullscreenenter"",""1"",""2370""
","
","","","-1","","","10","10978","208","&#9733;","elianto","#3366ff99","-1","-1","1","+10","[]","0","1","","","10978","17","2","2","win","no-go","0"
"pit-trial","135","991225","0.0-21.0","battery-v0.2","","""event"",""trial"",""time""
""fullscreenenter"",""1"",""2370""
""blur"",""102"",""813354""
""focus"",""102"",""813357""
","""event"",""trial"",""time""
""blur"",""102"",""813354""
","""event"",""trial"",""time""
""focus"",""102"",""813357""
","""event"",""trial"",""time""
""fullscreenenter"",""1"",""2370""
","
","","","-1","","","10","10978","208","&#9728;","elianto","#f73b6a7A","-1","-1","1","-10","[]","0","1","","","10978","18","0","4","lose","no-go","1"
"pit-trial","136","995654","0.0-22.0","battery-v0.2","","""event"",""trial"",""time""
""fullscreenenter"",""1"",""2370""
""blur"",""102"",""813354""
""focus"",""102"",""813357""
","""event"",""trial"",""time""
""blur"",""102"",""813354""
","""event"",""trial"",""time""
""focus"",""102"",""813357""
","""event"",""trial"",""time""
""fullscreenenter"",""1"",""2370""
","
","","","1571","","","10","10978","208","&#9752;","elianto","#f73b6a7A"," "," ","1","0","[2422]","1","1","","","10978","19","3","3","lose","go","0"
"pit-trial","137","999259","0.0-23.0","battery-v0.2","","""event"",""trial"",""time""
""fullscreenenter"",""1"",""2370""
""blur"",""102"",""813354""
""focus"",""102"",""813357""
","""event"",""trial"",""time""
""blur"",""102"",""813354""
","""event"",""trial"",""time""
""focus"",""102"",""813357""
","""event"",""trial"",""time""
""fullscreenenter"",""1"",""2370""
","
","","","746","","","10","10978","208","&#9730;","elianto","#3366ff99"," "," ","1","+10","[1597]","1","1","","","10978","20","1","1","win","go","0"
"pit-instructions","138","1010610","0.0-24.0","battery-v0.2","","""event"",""trial"",""time""
""fullscreenenter"",""1"",""2370""
""blur"",""102"",""813354""
""focus"",""102"",""813357""
","""event"",""trial"",""time""
""blur"",""102"",""813354""
","""event"",""trial"",""time""
""focus"",""102"",""813357""
","""event"",""trial"",""time""
""fullscreenenter"",""1"",""2370""
","
","","[{""page_index"":0,""viewing_time"":5219},{""page_index"":1,""viewing_time"":6129}]","11349","","","","","","","","","","","","","","","","","","","","","","","",""
"pit-trial","139","1014742","0.0-25.0","battery-v0.2","","""event"",""trial"",""time""
""fullscreenenter"",""1"",""2370""
""blur"",""102"",""813354""
""focus"",""102"",""813357""
","""event"",""trial"",""time""
""blur"",""102"",""813354""
","""event"",""trial"",""time""
""focus"",""102"",""813357""
","""event"",""trial"",""time""
""fullscreenenter"",""1"",""2370""
","
","","","1274","","","10","10978","208","g","elianto","#f73b6a7A"," "," ","1","0","[2123]","1","2","","","10978","21","3","3","lose","go","0"
"pit-trial","140","1019046","0.0-26.0","battery-v0.2","","""event"",""trial"",""time""
""fullscreenenter"",""1"",""2370""
""blur"",""102"",""813354""
""focus"",""102"",""813357""
","""event"",""trial"",""time""
""blur"",""102"",""813354""
","""event"",""trial"",""time""
""focus"",""102"",""813357""
","""event"",""trial"",""time""
""fullscreenenter"",""1"",""2370""
","
","","","1447","","","10","10978","208","u","elianto","#f73b6a7A","-1"," ","0","-10","[2298]","1","2","","","10978","22","0","4","lose","no-go","0"
"pit-trial","141","1022672","0.0-27.0","battery-v0.2","","""event"",""trial"",""time""
""fullscreenenter"",""1"",""2370""
""blur"",""102"",""813354""
""focus"",""102"",""813357""
","""event"",""trial"",""time""
""blur"",""102"",""813354""
","""event"",""trial"",""time""
""focus"",""102"",""813357""
","""event"",""trial"",""time""
""fullscreenenter"",""1"",""2370""
","
","","","771","","","10","10978","208","l","elianto","#3366ff99"," "," ","1","0","[1622]","1","2","","","10978","23","1","1","win","go","1"
"pit-trial","142","1025968","0.0-28.0","battery-v0.2","","""event"",""trial"",""time""
""fullscreenenter"",""1"",""2370""
""blur"",""102"",""813354""
""focus"",""102"",""813357""
","""event"",""trial"",""time""
""blur"",""102"",""813354""
","""event"",""trial"",""time""
""focus"",""102"",""813357""
","""event"",""trial"",""time""
""fullscreenenter"",""1"",""2370""
","
","","","436","","","10","10978","208","a","elianto","#f73b6a7A","-1"," ","0","0","[1287]","1","2","","","10978","24","2","4","lose","no-go","1"
"pit-trial","143","1030832","0.0-29.0","battery-v0.2","","""event"",""trial"",""time""
""fullscreenenter"",""1"",""2370""
""blur"",""102"",""813354""
""focus"",""102"",""813357""
","""event"",""trial"",""time""
""blur"",""102"",""813354""
","""event"",""trial"",""time""
""focus"",""102"",""813357""
","""event"",""trial"",""time""
""fullscreenenter"",""1"",""2370""
","
","","","-1","","","10","10978","208","g","elianto","#f73b6a7A"," ","-1","0","-10","[]","0","2","","","10978","25","3","3","lose","go","0"
"pit-trial","144","1034512","0.0-30.0","battery-v0.2","","""event"",""trial"",""time""
""fullscreenenter"",""1"",""2370""
""blur"",""102"",""813354""
""focus"",""102"",""813357""
","""event"",""trial"",""time""
""blur"",""102"",""813354""
","""event"",""trial"",""time""
""focus"",""102"",""813357""
","""event"",""trial"",""time""
""fullscreenenter"",""1"",""2370""
","
","","","820","","","10","10978","208","l","elianto","#3366ff99"," "," ","1","0","[1671]","1","2","","","10978","26","1","1","win","go","1"
"pit-trial","145","1039376","0.0-31.0","battery-v0.2","","""event"",""trial"",""time""
""fullscreenenter"",""1"",""2370""
""blur"",""102"",""813354""
""focus"",""102"",""813357""
","""event"",""trial"",""time""
""blur"",""102"",""813354""
","""event"",""trial"",""time""
""focus"",""102"",""813357""
","""event"",""trial"",""time""
""fullscreenenter"",""1"",""2370""
","
","","","-1","","","10","10978","208","u","elianto","#f73b6a7A","-1","-1","1","0","[]","0","2","","","10978","27","0","4","lose","no-go","0"
"pit-trial","146","1043455","0.0-32.0","battery-v0.2","","""event"",""trial"",""time""
""fullscreenenter"",""1"",""2370""
""blur"",""102"",""813354""
""focus"",""102"",""813357""
","""event"",""trial"",""time""
""blur"",""102"",""813354""
","""event"",""trial"",""time""
""focus"",""102"",""813357""
","""event"",""trial"",""time""
""fullscreenenter"",""1"",""2370""
","
","","","1219","","","10","10978","208","a","elianto","#f73b6a7A","-1"," ","0","-10","[2071]","1","2","","","10978","28","2","4","lose","no-go","0"
"pit-trial","147","1048316","0.0-33.0","battery-v0.2","","""event"",""trial"",""time""
""fullscreenenter"",""1"",""2370""
""blur"",""102"",""813354""
""focus"",""102"",""813357""
","""event"",""trial"",""time""
""blur"",""102"",""813354""
","""event"",""trial"",""time""
""focus"",""102"",""813357""
","""event"",""trial"",""time""
""fullscreenenter"",""1"",""2370""
","
","","","-1","","","10","10978","208","g","elianto","#f73b6a7A"," ","-1","0","-10","[]","0","2","","","10978","29","3","3","lose","go","0"
"pit-trial","148","1052596","0.0-34.0","battery-v0.2","","""event"",""trial"",""time""
""fullscreenenter"",""1"",""2370""
""blur"",""102"",""813354""
""focus"",""102"",""813357""
","""event"",""trial"",""time""
""blur"",""102"",""813354""
","""event"",""trial"",""time""
""focus"",""102"",""813357""
","""event"",""trial"",""time""
""fullscreenenter"",""1"",""2370""
","
","","","1423","","","10","10978","208","u","elianto","#f73b6a7A","-1"," ","0","-10","[2274]","1","2","","","10978","30","0","4","lose","no-go","0"
"pit-trial","149","1056173","0.0-35.0","battery-v0.2","","""event"",""trial"",""time""
""fullscreenenter"",""1"",""2370""
""blur"",""102"",""813354""
""focus"",""102"",""813357""
","""event"",""trial"",""time""
""blur"",""102"",""813354""
","""event"",""trial"",""time""
""focus"",""102"",""813357""
","""event"",""trial"",""time""
""fullscreenenter"",""1"",""2370""
","
","","","724","","","10","10978","208","l","elianto","#3366ff99"," "," ","1","+10","[1575]","1","2","","","10978","31","1","1","win","go","0"
"pit-trial","150","1061033","0.0-36.0","battery-v0.2","","""event"",""trial"",""time""
""fullscreenenter"",""1"",""2370""
""blur"",""102"",""813354""
""focus"",""102"",""813357""
","""event"",""trial"",""time""
""blur"",""102"",""813354""
","""event"",""trial"",""time""
""focus"",""102"",""813357""
","""event"",""trial"",""time""
""fullscreenenter"",""1"",""2370""
","
","","","-1","","","10","10978","208","a","elianto","#f73b6a7A","-1","-1","1","0","[]","0","2","","","10978","32","2","4","lose","no-go","0"
"pit-trial","151","1065894","0.0-37.0","battery-v0.2","","""event"",""trial"",""time""
""fullscreenenter"",""1"",""2370""
""blur"",""102"",""813354""
""focus"",""102"",""813357""
","""event"",""trial"",""time""
""blur"",""102"",""813354""
","""event"",""trial"",""time""
""focus"",""102"",""813357""
","""event"",""trial"",""time""
""fullscreenenter"",""1"",""2370""
","
","","","-1","","","10","10978","208","u","elianto","#f73b6a7A","-1","-1","1","0","[]","0","2","","","10978","33","0","4","lose","no-go","0"
"pit-trial","152","1069653","0.0-38.0","battery-v0.2","","""event"",""trial"",""time""
""fullscreenenter"",""1"",""2370""
""blur"",""102"",""813354""
""focus"",""102"",""813357""
","""event"",""trial"",""time""
""blur"",""102"",""813354""
","""event"",""trial"",""time""
""focus"",""102"",""813357""
","""event"",""trial"",""time""
""fullscreenenter"",""1"",""2370""
","
","","","900","","","10","10978","208","l","elianto","#3366ff99"," "," ","1","+10","[1753]","1","2","","","10978","34","1","1","win","go","0"
"pit-trial","153","1073189","0.0-39.0","battery-v0.2","","""event"",""trial"",""time""
""fullscreenenter"",""1"",""2370""
""blur"",""102"",""813354""
""focus"",""102"",""813357""
","""event"",""trial"",""time""
""blur"",""102"",""813354""
","""event"",""trial"",""time""
""focus"",""102"",""813357""
","""event"",""trial"",""time""
""fullscreenenter"",""1"",""2370""
","
","","","680","","","10","10978","208","a","elianto","#f73b6a7A","-1"," ","0","-10","[1531]","1","2","","","10978","35","2","4","lose","no-go","0"
"pit-trial","154","1078047","0.0-40.0","battery-v0.2","","""event"",""trial"",""time""
""fullscreenenter"",""1"",""2370""
""blur"",""102"",""813354""
""focus"",""102"",""813357""
","""event"",""trial"",""time""
""blur"",""102"",""813354""
","""event"",""trial"",""time""
""focus"",""102"",""813357""
","""event"",""trial"",""time""
""fullscreenenter"",""1"",""2370""
","
","","","-1","","","10","10978","208","g","elianto","#f73b6a7A"," ","-1","0","-10","[]","0","2","","","10978","36","3","3","lose","go","0"
"pit-trial","155","1082905","0.0-41.0","battery-v0.2","","""event"",""trial"",""time""
""fullscreenenter"",""1"",""2370""
""blur"",""102"",""813354""
""focus"",""102"",""813357""
","""event"",""trial"",""time""
""blur"",""102"",""813354""
","""event"",""trial"",""time""
""focus"",""102"",""813357""
","""event"",""trial"",""time""
""fullscreenenter"",""1"",""2370""
","
","","","-1","","","10","10978","208","u","elianto","#f73b6a7A","-1","-1","1","-10","[]","0","2","","","10978","37","0","4","lose","no-go","1"
"pit-trial","156","1086760","0.0-42.0","battery-v0.2","","""event"",""trial"",""time""
""fullscreenenter"",""1"",""2370""
""blur"",""102"",""813354""
""focus"",""102"",""813357""
","""event"",""trial"",""time""
""blur"",""102"",""813354""
","""event"",""trial"",""time""
""focus"",""102"",""813357""
","""event"",""trial"",""time""
""fullscreenenter"",""1"",""2370""
","
","","","999","","","10","10978","208","l","elianto","#3366ff99"," "," ","1","+10","[1849]","1","2","","","10978","38","1","1","win","go","0"
"pit-trial","157","1091064","0.0-43.0","battery-v0.2","","""event"",""trial"",""time""
""fullscreenenter"",""1"",""2370""
""blur"",""102"",""813354""
""focus"",""102"",""813357""
","""event"",""trial"",""time""
""blur"",""102"",""813354""
","""event"",""trial"",""time""
""focus"",""102"",""813357""
","""event"",""trial"",""time""
""fullscreenenter"",""1"",""2370""
","
","","","1449","","","10","10978","208","a","elianto","#f73b6a7A","-1"," ","0","-10","[2300]","1","2","","","10978","39","2","4","lose","no-go","0"
"pit-trial","158","1095925","0.0-44.0","battery-v0.2","","""event"",""trial"",""time""
""fullscreenenter"",""1"",""2370""
""blur"",""102"",""813354""
""focus"",""102"",""813357""
","""event"",""trial"",""time""
""blur"",""102"",""813354""
","""event"",""trial"",""time""
""focus"",""102"",""813357""
","""event"",""trial"",""time""
""fullscreenenter"",""1"",""2370""
","
","","","-1","","","10","10978","208","g","elianto","#f73b6a7A"," ","-1","0","0","[]","0","2","","","10978","40","3","3","lose","go","1"
"pit-trial","159","1100789","0.0-45.0","battery-v0.2","","""event"",""trial"",""time""
""fullscreenenter"",""1"",""2370""
""blur"",""102"",""813354""
""focus"",""102"",""813357""
","""event"",""trial"",""time""
""blur"",""102"",""813354""
","""event"",""trial"",""time""
""focus"",""102"",""813357""
","""event"",""trial"",""time""
""fullscreenenter"",""1"",""2370""
","
","","","-1","","","10","10978","208","a","elianto","#f73b6a7A","-1","-1","1","0","[]","0","2","","","10978","41","2","4","lose","no-go","0"
"pit-trial","160","1104235","0.0-46.0","battery-v0.2","","""event"",""trial"",""time""
""fullscreenenter"",""1"",""2370""
""blur"",""102"",""813354""
""focus"",""102"",""813357""
","""event"",""trial"",""time""
""blur"",""102"",""813354""
","""event"",""trial"",""time""
""focus"",""102"",""813357""
","""event"",""trial"",""time""
""fullscreenenter"",""1"",""2370""
","
","","","588","","","10","10978","208","l","elianto","#3366ff99"," "," ","1","+10","[1438]","1","2","","","10978","42","1","1","win","go","0"
"pit-trial","161","1109092","0.0-47.0","battery-v0.2","","""event"",""trial"",""time""
""fullscreenenter"",""1"",""2370""
""blur"",""102"",""813354""
""focus"",""102"",""813357""
","""event"",""trial"",""time""
""blur"",""102"",""813354""
","""event"",""trial"",""time""
""focus"",""102"",""813357""
","""event"",""trial"",""time""
""fullscreenenter"",""1"",""2370""
","
","","","-1","","","10","10978","208","g","elianto","#f73b6a7A"," ","-1","0","0","[]","0","2","","","10978","43","3","3","lose","go","1"
"pit-trial","162","1113947","0.0-48.0","battery-v0.2","","""event"",""trial"",""time""
""fullscreenenter"",""1"",""2370""
""blur"",""102"",""813354""
""focus"",""102"",""813357""
","""event"",""trial"",""time""
""blur"",""102"",""813354""
","""event"",""trial"",""time""
""focus"",""102"",""813357""
","""event"",""trial"",""time""
""fullscreenenter"",""1"",""2370""
","
","","","-1","","","10","10978","208","u","elianto","#f73b6a7A","-1","-1","1","0","[]","0","2","","","10978","44","0","4","lose","no-go","0"
"pit-trial","163","1118809","0.0-49.0","battery-v0.2","","""event"",""trial"",""time""
""fullscreenenter"",""1"",""2370""
""blur"",""102"",""813354""
""focus"",""102"",""813357""
","""event"",""trial"",""time""
""blur"",""102"",""813354""
","""event"",""trial"",""time""
""focus"",""102"",""813357""
","""event"",""trial"",""time""
""fullscreenenter"",""1"",""2370""
","
","","","-1","","","10","10978","208","u","elianto","#f73b6a7A","-1","-1","1","-10","[]","0","2","","","10978","45","0","4","lose","no-go","1"
"pit-trial","164","1123668","0.0-50.0","battery-v0.2","","""event"",""trial"",""time""
""fullscreenenter"",""1"",""2370""
""blur"",""102"",""813354""
""focus"",""102"",""813357""
","""event"",""trial"",""time""
""blur"",""102"",""813354""
","""event"",""trial"",""time""
""focus"",""102"",""813357""
","""event"",""trial"",""time""
""fullscreenenter"",""1"",""2370""
","
","","","-1","","","10","10978","208","g","elianto","#f73b6a7A"," ","-1","0","-10","[]","0","2","","","10978","46","3","3","lose","go","0"
"pit-trial","165","1128530","0.0-51.0","battery-v0.2","","""event"",""trial"",""time""
""fullscreenenter"",""1"",""2370""
""blur"",""102"",""813354""
""focus"",""102"",""813357""
","""event"",""trial"",""time""
""blur"",""102"",""813354""
","""event"",""trial"",""time""
""focus"",""102"",""813357""
","""event"",""trial"",""time""
""fullscreenenter"",""1"",""2370""
","
","","","-1","","","10","10978","208","a","elianto","#f73b6a7A","-1","-1","1","0","[]","0","2","","","10978","47","2","4","lose","no-go","0"
"pit-trial","166","1131906","0.0-52.0","battery-v0.2","","""event"",""trial"",""time""
""fullscreenenter"",""1"",""2370""
""blur"",""102"",""813354""
""focus"",""102"",""813357""
","""event"",""trial"",""time""
""blur"",""102"",""813354""
","""event"",""trial"",""time""
""focus"",""102"",""813357""
","""event"",""trial"",""time""
""fullscreenenter"",""1"",""2370""
","
","","","520","","","10","10978","208","p","elianto","#3366ff99","-1"," ","0","0","[1371]","1","2","","","10978","48","4","2","win","no-go","0"
"pit-trial","167","1136771","0.0-53.0","battery-v0.2","","""event"",""trial"",""time""
""fullscreenenter"",""1"",""2370""
""blur"",""102"",""813354""
""focus"",""102"",""813357""
","""event"",""trial"",""time""
""blur"",""102"",""813354""
","""event"",""trial"",""time""
""focus"",""102"",""813357""
","""event"",""trial"",""time""
""fullscreenenter"",""1"",""2370""
","
","","","-1","","","10","10978","208","p","elianto","#3366ff99","-1","-1","1","+10","[]","0","2","","","10978","49","4","2","win","no-go","0"
"pit-trial","168","1141633","0.0-54.0","battery-v0.2","","""event"",""trial"",""time""
""fullscreenenter"",""1"",""2370""
""blur"",""102"",""813354""
""focus"",""102"",""813357""
","""event"",""trial"",""time""
""blur"",""102"",""813354""
","""event"",""trial"",""time""
""focus"",""102"",""813357""
","""event"",""trial"",""time""
""fullscreenenter"",""1"",""2370""
","
","","","-1","","","10","10978","208","u","elianto","#f73b6a7A","-1","-1","1","-10","[]","0","2","","","10978","50","0","4","lose","no-go","1"
"pit-trial","169","1146494","0.0-55.0","battery-v0.2","","""event"",""trial"",""time""
""fullscreenenter"",""1"",""2370""
""blur"",""102"",""813354""
""focus"",""102"",""813357""
","""event"",""trial"",""time""
""blur"",""102"",""813354""
","""event"",""trial"",""time""
""focus"",""102"",""813357""
","""event"",""trial"",""time""
""fullscreenenter"",""1"",""2370""
","
","","","-1","","","10","10978","208","g","elianto","#f73b6a7A"," ","-1","0","-10","[2857]","1","2","","","10978","51","3","3","lose","go","0"
"pit-trial","170","1150483","0.0-56.0","battery-v0.2","","""event"",""trial"",""time""
""fullscreenenter"",""1"",""2370""
""blur"",""102"",""813354""
""focus"",""102"",""813357""
","""event"",""trial"",""time""
""blur"",""102"",""813354""
","""event"",""trial"",""time""
""focus"",""102"",""813357""
","""event"",""trial"",""time""
""fullscreenenter"",""1"",""2370""
","
","","","1127","","","10","10978","208","l","elianto","#3366ff99"," "," ","1","+10","[1982]","1","2","","","10978","52","1","1","win","go","0"
"pit-trial","171","1155346","0.0-57.0","battery-v0.2","","""event"",""trial"",""time""
""fullscreenenter"",""1"",""2370""
""blur"",""102"",""813354""
""focus"",""102"",""813357""
","""event"",""trial"",""time""
""blur"",""102"",""813354""
","""event"",""trial"",""time""
""focus"",""102"",""813357""
","""event"",""trial"",""time""
""fullscreenenter"",""1"",""2370""
","
","","","-1","","","10","10978","208","a","elianto","#f73b6a7A","-1","-1","1","0","[]","0","2","","","10978","53","2","4","lose","no-go","0"
"pit-trial","172","1160211","0.0-58.0","battery-v0.2","","""event"",""trial"",""time""
""fullscreenenter"",""1"",""2370""
""blur"",""102"",""813354""
""focus"",""102"",""813357""
","""event"",""trial"",""time""
""blur"",""102"",""813354""
","""event"",""trial"",""time""
""focus"",""102"",""813357""
","""event"",""trial"",""time""
""fullscreenenter"",""1"",""2370""
","
","","","-1","","","10","10978","208","u","elianto","#f73b6a7A","-1","-1","1","-10","[]","0","2","","","10978","54","0","4","lose","no-go","1"
"pit-trial","173","1164024","0.0-59.0","battery-v0.2","","""event"",""trial"",""time""
""fullscreenenter"",""1"",""2370""
""blur"",""102"",""813354""
""focus"",""102"",""813357""
","""event"",""trial"",""time""
""blur"",""102"",""813354""
","""event"",""trial"",""time""
""focus"",""102"",""813357""
","""event"",""trial"",""time""
""fullscreenenter"",""1"",""2370""
","
","","","955","","","10","10978","208","l","elianto","#3366ff99"," "," ","1","+10","[1806]","1","2","","","10978","55","1","1","win","go","0"
"pit-trial","174","1168013","0.0-60.0","battery-v0.2","","""event"",""trial"",""time""
""fullscreenenter"",""1"",""2370""
""blur"",""102"",""813354""
""focus"",""102"",""813357""
","""event"",""trial"",""time""
""blur"",""102"",""813354""
","""event"",""trial"",""time""
""focus"",""102"",""813357""
","""event"",""trial"",""time""
""fullscreenenter"",""1"",""2370""
","
","","","1132","","","10","10978","208","p","elianto","#3366ff99","-1"," ","0","0","[1984]","1","2","","","10978","56","4","2","win","no-go","0"
"pit-trial","175","1172876","0.0-61.0","battery-v0.2","","""event"",""trial"",""time""
""fullscreenenter"",""1"",""2370""
""blur"",""102"",""813354""
""focus"",""102"",""813357""
","""event"",""trial"",""time""
""blur"",""102"",""813354""
","""event"",""trial"",""time""
""focus"",""102"",""813357""
","""event"",""trial"",""time""
""fullscreenenter"",""1"",""2370""
","
","","","-1","","","10","10978","208","g","elianto","#f73b6a7A"," ","-1","0","-10","[]","0","2","","","10978","57","3","3","lose","go","0"
"pit-trial","176","1176426","0.0-62.0","battery-v0.2","","""event"",""trial"",""time""
""fullscreenenter"",""1"",""2370""
""blur"",""102"",""813354""
""focus"",""102"",""813357""
","""event"",""trial"",""time""
""blur"",""102"",""813354""
","""event"",""trial"",""time""
""focus"",""102"",""813357""
","""event"",""trial"",""time""
""fullscreenenter"",""1"",""2370""
","
","","","689","","","10","10978","208","l","elianto","#3366ff99"," "," ","1","+10","[1540]","1","2","","","10978","58","1","1","win","go","0"
"pit-trial","177","1181287","0.0-63.0","battery-v0.2","","""event"",""trial"",""time""
""fullscreenenter"",""1"",""2370""
""blur"",""102"",""813354""
""focus"",""102"",""813357""
","""event"",""trial"",""time""
""blur"",""102"",""813354""
","""event"",""trial"",""time""
""focus"",""102"",""813357""
","""event"",""trial"",""time""
""fullscreenenter"",""1"",""2370""
","
","","","-1","","","10","10978","208","u","elianto","#f73b6a7A","-1","-1","1","-10","[]","0","2","","","10978","59","0","4","lose","no-go","1"
"pit-trial","178","1184890","0.0-64.0","battery-v0.2","","""event"",""trial"",""time""
""fullscreenenter"",""1"",""2370""
""blur"",""102"",""813354""
""focus"",""102"",""813357""
","""event"",""trial"",""time""
""blur"",""102"",""813354""
","""event"",""trial"",""time""
""focus"",""102"",""813357""
","""event"",""trial"",""time""
""fullscreenenter"",""1"",""2370""
","
","","","749","","","10","10978","208","p","elianto","#3366ff99","-1"," ","0","0","[1599,1891]","2","2","","","10978","60","4","2","win","no-go","0"
"pit-trial","179","1188593","0.0-65.0","battery-v0.2","","""event"",""trial"",""time""
""fullscreenenter"",""1"",""2370""
""blur"",""102"",""813354""
""focus"",""102"",""813357""
","""event"",""trial"",""time""
""blur"",""102"",""813354""
","""event"",""trial"",""time""
""focus"",""102"",""813357""
","""event"",""trial"",""time""
""fullscreenenter"",""1"",""2370""
","
","","","850","","","10","10978","208","p","elianto","#3366ff99","-1"," ","0","0","[1700]","1","2","","","10978","61","4","2","win","no-go","0"
"pit-trial","180","1192968","0.0-66.0","battery-v0.2","","""event"",""trial"",""time""
""fullscreenenter"",""1"",""2370""
""blur"",""102"",""813354""
""focus"",""102"",""813357""
","""event"",""trial"",""time""
""blur"",""102"",""813354""
","""event"",""trial"",""time""
""focus"",""102"",""813357""
","""event"",""trial"",""time""
""fullscreenenter"",""1"",""2370""
","
","","","1516","","","10","10978","208","l","elianto","#3366ff99"," "," ","1","+10","[2368]","1","2","","","10978","62","1","1","win","go","0"
"pit-trial","181","1197830","0.0-67.0","battery-v0.2","","""event"",""trial"",""time""
""fullscreenenter"",""1"",""2370""
""blur"",""102"",""813354""
""focus"",""102"",""813357""
","""event"",""trial"",""time""
""blur"",""102"",""813354""
","""event"",""trial"",""time""
""focus"",""102"",""813357""
","""event"",""trial"",""time""
""fullscreenenter"",""1"",""2370""
","
","","","-1","","","10","10978","208","a","elianto","#f73b6a7A","-1","-1","1","0","[]","0","2","","","10978","63","2","4","lose","no-go","0"
"pit-trial","182","1202688","0.0-68.0","battery-v0.2","","""event"",""trial"",""time""
""fullscreenenter"",""1"",""2370""
""blur"",""102"",""813354""
""focus"",""102"",""813357""
","""event"",""trial"",""time""
""blur"",""102"",""813354""
","""event"",""trial"",""time""
""focus"",""102"",""813357""
","""event"",""trial"",""time""
""fullscreenenter"",""1"",""2370""
","
","","","-1","","","10","10978","208","g","elianto","#f73b6a7A"," ","-1","0","-10","[]","0","2","","","10978","64","3","3","lose","go","0"
"pit-trial","183","1207552","0.0-69.0","battery-v0.2","","""event"",""trial"",""time""
""fullscreenenter"",""1"",""2370""
""blur"",""102"",""813354""
""focus"",""102"",""813357""
","""event"",""trial"",""time""
""blur"",""102"",""813354""
","""event"",""trial"",""time""
""focus"",""102"",""813357""
","""event"",""trial"",""time""
""fullscreenenter"",""1"",""2370""
","
","","","-1","","","10","10978","208","a","elianto","#f73b6a7A","-1","-1","1","-10","[]","0","2","","","10978","65","2","4","lose","no-go","1"
"pit-trial","184","1211092","0.0-70.0","battery-v0.2","","""event"",""trial"",""time""
""fullscreenenter"",""1"",""2370""
""blur"",""102"",""813354""
""focus"",""102"",""813357""
","""event"",""trial"",""time""
""blur"",""102"",""813354""
","""event"",""trial"",""time""
""focus"",""102"",""813357""
","""event"",""trial"",""time""
""fullscreenenter"",""1"",""2370""
","
","","","683","","","10","10978","208","p","elianto","#3366ff99","-1"," ","0","0","[1536]","1","2","","","10978","66","4","2","win","no-go","0"
"pit-trial","185","1214554","0.0-71.0","battery-v0.2","","""event"",""trial"",""time""
""fullscreenenter"",""1"",""2370""
""blur"",""102"",""813354""
""focus"",""102"",""813357""
","""event"",""trial"",""time""
""blur"",""102"",""813354""
","""event"",""trial"",""time""
""focus"",""102"",""813357""
","""event"",""trial"",""time""
""fullscreenenter"",""1"",""2370""
","
","","","609","","","10","10978","208","l","elianto","#3366ff99"," "," ","1","+10","[1459]","1","2","","","10978","67","1","1","win","go","0"
"pit-trial","186","1219416","0.0-72.0","battery-v0.2","","""event"",""trial"",""time""
""fullscreenenter"",""1"",""2370""
""blur"",""102"",""813354""
""focus"",""102"",""813357""
","""event"",""trial"",""time""
""blur"",""102"",""813354""
","""event"",""trial"",""time""
""focus"",""102"",""813357""
","""event"",""trial"",""time""
""fullscreenenter"",""1"",""2370""
","
","","","-1","","","10","10978","208","g","elianto","#f73b6a7A"," ","-1","0","-10","[]","0","2","","","10978","68","3","3","lose","go","0"
"pit-trial","187","1224277","0.0-73.0","battery-v0.2","","""event"",""trial"",""time""
""fullscreenenter"",""1"",""2370""
""blur"",""102"",""813354""
""focus"",""102"",""813357""
","""event"",""trial"",""time""
""blur"",""102"",""813354""
","""event"",""trial"",""time""
""focus"",""102"",""813357""
","""event"",""trial"",""time""
""fullscreenenter"",""1"",""2370""
","
","","","-1","","","10","10978","208","p","elianto","#3366ff99","-1","-1","1","+10","[]","0","2","","","10978","69","4","2","win","no-go","0"
"pit-trial","188","1228089","0.0-74.0","battery-v0.2","","""event"",""trial"",""time""
""fullscreenenter"",""1"",""2370""
""blur"",""102"",""813354""
""focus"",""102"",""813357""
","""event"",""trial"",""time""
""blur"",""102"",""813354""
","""event"",""trial"",""time""
""focus"",""102"",""813357""
","""event"",""trial"",""time""
""fullscreenenter"",""1"",""2370""
","
","","","956","","","10","10978","208","l","elianto","#3366ff99"," "," ","1","+10","[1807]","1","2","","","10978","70","1","1","win","go","0"
"pit-trial","189","1232341","0.0-75.0","battery-v0.2","","""event"",""trial"",""time""
""fullscreenenter"",""1"",""2370""
""blur"",""102"",""813354""
""focus"",""102"",""813357""
","""event"",""trial"",""time""
""blur"",""102"",""813354""
","""event"",""trial"",""time""
""focus"",""102"",""813357""
","""event"",""trial"",""time""
""fullscreenenter"",""1"",""2370""
","
","","","1393","","","10","10978","208","g","elianto","#f73b6a7A"," "," ","1","0","[2244]","1","2","","","10978","71","3","3","lose","go","0"
"pit-trial","190","1237199","0.0-76.0","battery-v0.2","","""event"",""trial"",""time""
""fullscreenenter"",""1"",""2370""
""blur"",""102"",""813354""
""focus"",""102"",""813357""
","""event"",""trial"",""time""
""blur"",""102"",""813354""
","""event"",""trial"",""time""
""focus"",""102"",""813357""
","""event"",""trial"",""time""
""fullscreenenter"",""1"",""2370""
","
","","","-1","","","10","10978","208","s","elianto","#3366ff99"," ","-1","0","0","[]","0","2","","","10978","72","5","1","win","go","0"
"pit-trial","191","1242063","0.0-77.0","battery-v0.2","","""event"",""trial"",""time""
""fullscreenenter"",""1"",""2370""
""blur"",""102"",""813354""
""focus"",""102"",""813357""
","""event"",""trial"",""time""
""blur"",""102"",""813354""
","""event"",""trial"",""time""
""focus"",""102"",""813357""
","""event"",""trial"",""time""
""fullscreenenter"",""1"",""2370""
","
","","","-1","","","10","10978","208","p","elianto","#3366ff99","-1","-1","1","+10","[]","0","2","","","10978","73","4","2","win","no-go","0"
"pit-trial","192","1245861","0.0-78.0","battery-v0.2","","""event"",""trial"",""time""
""fullscreenenter"",""1"",""2370""
""blur"",""102"",""813354""
""focus"",""102"",""813357""
","""event"",""trial"",""time""
""blur"",""102"",""813354""
","""event"",""trial"",""time""
""focus"",""102"",""813357""
","""event"",""trial"",""time""
""fullscreenenter"",""1"",""2370""
","
","","","939","","","10","10978","208","l","elianto","#3366ff99"," "," ","1","+10","[1791]","1","2","","","10978","74","1","1","win","go","0"
"pit-trial","193","1249763","0.0-79.0","battery-v0.2","","""event"",""trial"",""time""
""fullscreenenter"",""1"",""2370""
""blur"",""102"",""813354""
""focus"",""102"",""813357""
","""event"",""trial"",""time""
""blur"",""102"",""813354""
","""event"",""trial"",""time""
""focus"",""102"",""813357""
","""event"",""trial"",""time""
""fullscreenenter"",""1"",""2370""
","
","","","1048","","","10","10978","208","g","elianto","#f73b6a7A"," "," ","1","0","[1898]","1","2","","","10978","75","3","3","lose","go","0"
"pit-trial","194","1254105","0.0-80.0","battery-v0.2","","""event"",""trial"",""time""
""fullscreenenter"",""1"",""2370""
""blur"",""102"",""813354""
""focus"",""102"",""813357""
","""event"",""trial"",""time""
""blur"",""102"",""813354""
","""event"",""trial"",""time""
""focus"",""102"",""813357""
","""event"",""trial"",""time""
""fullscreenenter"",""1"",""2370""
","
","","","1485","","","10","10978","208","s","elianto","#3366ff99"," "," ","1","0","[2338]","1","2","","","10978","76","5","1","win","go","1"
"pit-trial","195","1258963","0.0-81.0","battery-v0.2","","""event"",""trial"",""time""
""fullscreenenter"",""1"",""2370""
""blur"",""102"",""813354""
""focus"",""102"",""813357""
","""event"",""trial"",""time""
""blur"",""102"",""813354""
","""event"",""trial"",""time""
""focus"",""102"",""813357""
","""event"",""trial"",""time""
""fullscreenenter"",""1"",""2370""
","
","","","-1","","","10","10978","208","w","elianto","#f73b6a7A","-1","-1","1","-10","[]","0","2","","","10978","77","6","4","lose","no-go","1"
"pit-trial","196","1263256","0.0-82.0","battery-v0.2","","""event"",""trial"",""time""
""fullscreenenter"",""1"",""2370""
""blur"",""102"",""813354""
""focus"",""102"",""813357""
","""event"",""trial"",""time""
""blur"",""102"",""813354""
","""event"",""trial"",""time""
""focus"",""102"",""813357""
","""event"",""trial"",""time""
""fullscreenenter"",""1"",""2370""
","
","","","1437","","","10","10978","208","g","elianto","#f73b6a7A"," "," ","1","0","[2289]","1","2","","","10978","78","3","3","lose","go","0"
"pit-trial","197","1268115","0.0-83.0","battery-v0.2","","""event"",""trial"",""time""
""fullscreenenter"",""1"",""2370""
""blur"",""102"",""813354""
""focus"",""102"",""813357""
","""event"",""trial"",""time""
""blur"",""102"",""813354""
","""event"",""trial"",""time""
""focus"",""102"",""813357""
","""event"",""trial"",""time""
""fullscreenenter"",""1"",""2370""
","
","","","-1","","","10","10978","208","s","elianto","#3366ff99"," ","-1","0","0","[]","0","2","","","10978","79","5","1","win","go","0"
"pit-trial","198","1272973","0.0-84.0","battery-v0.2","","""event"",""trial"",""time""
""fullscreenenter"",""1"",""2370""
""blur"",""102"",""813354""
""focus"",""102"",""813357""
","""event"",""trial"",""time""
""blur"",""102"",""813354""
","""event"",""trial"",""time""
""focus"",""102"",""813357""
","""event"",""trial"",""time""
""fullscreenenter"",""1"",""2370""
","
","","","-1","","","10","10978","208","p","elianto","#3366ff99","-1","-1","1","+10","[]","0","2","","","10978","80","4","2","win","no-go","0"
"pit-trial","199","1277838","0.0-85.0","battery-v0.2","","""event"",""trial"",""time""
""fullscreenenter"",""1"",""2370""
""blur"",""102"",""813354""
""focus"",""102"",""813357""
","""event"",""trial"",""time""
""blur"",""102"",""813354""
","""event"",""trial"",""time""
""focus"",""102"",""813357""
","""event"",""trial"",""time""
""fullscreenenter"",""1"",""2370""
","
","","","-1","","","10","10978","208","p","elianto","#3366ff99","-1","-1","1","+10","[]","0","2","","","10978","81","4","2","win","no-go","0"
"pit-trial","200","1282701","0.0-86.0","battery-v0.2","","""event"",""trial"",""time""
""fullscreenenter"",""1"",""2370""
""blur"",""102"",""813354""
""focus"",""102"",""813357""
","""event"",""trial"",""time""
""blur"",""102"",""813354""
","""event"",""trial"",""time""
""focus"",""102"",""813357""
","""event"",""trial"",""time""
""fullscreenenter"",""1"",""2370""
","
","","","-1","","","10","10978","208","w","elianto","#f73b6a7A","-1","-1","1","0","[]","0","2","","","10978","82","6","4","lose","no-go","0"
"pit-trial","201","1287560","0.0-87.0","battery-v0.2","","""event"",""trial"",""time""
""fullscreenenter"",""1"",""2370""
""blur"",""102"",""813354""
""focus"",""102"",""813357""
","""event"",""trial"",""time""
""blur"",""102"",""813354""
","""event"",""trial"",""time""
""focus"",""102"",""813357""
","""event"",""trial"",""time""
""fullscreenenter"",""1"",""2370""
","
","","","-1","","","10","10978","208","e","elianto","#f73b6a7A"," ","-1","0","-10","[]","0","2","","","10978","83","7","3","lose","go","0"
"pit-trial","202","1291931","0.0-88.0","battery-v0.2","","""event"",""trial"",""time""
""fullscreenenter"",""1"",""2370""
""blur"",""102"",""813354""
""focus"",""102"",""813357""
","""event"",""trial"",""time""
""blur"",""102"",""813354""
","""event"",""trial"",""time""
""focus"",""102"",""813357""
","""event"",""trial"",""time""
""fullscreenenter"",""1"",""2370""
","
","","","1512","","","10","10978","208","s","elianto","#3366ff99"," "," ","1","0","[2365]","1","2","","","10978","84","5","1","win","go","1"
"pit-trial","203","1296423","0.0-89.0","battery-v0.2","","""event"",""trial"",""time""
""fullscreenenter"",""1"",""2370""
""blur"",""102"",""813354""
""focus"",""102"",""813357""
","""event"",""trial"",""time""
""blur"",""102"",""813354""
","""event"",""trial"",""time""
""focus"",""102"",""813357""
","""event"",""trial"",""time""
""fullscreenenter"",""1"",""2370""
","
","","","1636","","","10","10978","208","e","elianto","#f73b6a7A"," "," ","1","0","[2488]","1","2","","","10978","85","7","3","lose","go","0"
"pit-trial","204","1301287","0.0-90.0","battery-v0.2","","""event"",""trial"",""time""
""fullscreenenter"",""1"",""2370""
""blur"",""102"",""813354""
""focus"",""102"",""813357""
","""event"",""trial"",""time""
""blur"",""102"",""813354""
","""event"",""trial"",""time""
""focus"",""102"",""813357""
","""event"",""trial"",""time""
""fullscreenenter"",""1"",""2370""
","
","","","-1","","","10","10978","208","s","elianto","#3366ff99"," ","-1","0","0","[]","0","2","","","10978","86","5","1","win","go","0"
"pit-trial","205","1306151","0.0-91.0","battery-v0.2","","""event"",""trial"",""time""
""fullscreenenter"",""1"",""2370""
""blur"",""102"",""813354""
""focus"",""102"",""813357""
","""event"",""trial"",""time""
""blur"",""102"",""813354""
","""event"",""trial"",""time""
""focus"",""102"",""813357""
","""event"",""trial"",""time""
""fullscreenenter"",""1"",""2370""
","
","","","-1","","","10","10978","208","p","elianto","#3366ff99","-1","-1","1","+10","[]","0","2","","","10978","87","4","2","win","no-go","0"
"pit-trial","206","1311009","0.0-92.0","battery-v0.2","","""event"",""trial"",""time""
""fullscreenenter"",""1"",""2370""
""blur"",""102"",""813354""
""focus"",""102"",""813357""
","""event"",""trial"",""time""
""blur"",""102"",""813354""
","""event"",""trial"",""time""
""focus"",""102"",""813357""
","""event"",""trial"",""time""
""fullscreenenter"",""1"",""2370""
","
","","","-1","","","10","10978","208","w","elianto","#f73b6a7A","-1","-1","1","0","[]","0","2","","","10978","88","6","4","lose","no-go","0"
"pit-trial","207","1315868","0.0-93.0","battery-v0.2","","""event"",""trial"",""time""
""fullscreenenter"",""1"",""2370""
""blur"",""102"",""813354""
""focus"",""102"",""813357""
","""event"",""trial"",""time""
""blur"",""102"",""813354""
","""event"",""trial"",""time""
""focus"",""102"",""813357""
","""event"",""trial"",""time""
""fullscreenenter"",""1"",""2370""
","
","","","-1","","","10","10978","208","w","elianto","#f73b6a7A","-1","-1","1","0","[]","0","2","","","10978","89","6","4","lose","no-go","0"
"pit-trial","208","1320732","0.0-94.0","battery-v0.2","","""event"",""trial"",""time""
""fullscreenenter"",""1"",""2370""
""blur"",""102"",""813354""
""focus"",""102"",""813357""
","""event"",""trial"",""time""
""blur"",""102"",""813354""
","""event"",""trial"",""time""
""focus"",""102"",""813357""
","""event"",""trial"",""time""
""fullscreenenter"",""1"",""2370""
","
","","","-1","","","10","10978","208","s","elianto","#3366ff99"," ","-1","0","+10","[]","0","2","","","10978","90","5","1","win","go","1"
"pit-trial","209","1325592","0.0-95.0","battery-v0.2","","""event"",""trial"",""time""
""fullscreenenter"",""1"",""2370""
""blur"",""102"",""813354""
""focus"",""102"",""813357""
","""event"",""trial"",""time""
""blur"",""102"",""813354""
","""event"",""trial"",""time""
""focus"",""102"",""813357""
","""event"",""trial"",""time""
""fullscreenenter"",""1"",""2370""
","
","","","-1","","","10","10978","208","p","elianto","#3366ff99","-1","-1","1","+10","[]","0","2","","","10978","91","4","2","win","no-go","0"
"pit-trial","210","1330454","0.0-96.0","battery-v0.2","","""event"",""trial"",""time""
""fullscreenenter"",""1"",""2370""
""blur"",""102"",""813354""
""focus"",""102"",""813357""
","""event"",""trial"",""time""
""blur"",""102"",""813354""
","""event"",""trial"",""time""
""focus"",""102"",""813357""
","""event"",""trial"",""time""
""fullscreenenter"",""1"",""2370""
","
","","","-1","","","10","10978","208","e","elianto","#f73b6a7A"," ","-1","0","-10","[]","0","2","","","10978","92","7","3","lose","go","0"
"pit-trial","211","1334752","0.0-97.0","battery-v0.2","","""event"",""trial"",""time""
""fullscreenenter"",""1"",""2370""
""blur"",""102"",""813354""
""focus"",""102"",""813357""
","""event"",""trial"",""time""
""blur"",""102"",""813354""
","""event"",""trial"",""time""
""focus"",""102"",""813357""
","""event"",""trial"",""time""
""fullscreenenter"",""1"",""2370""
","
","","","1443","","","10","10978","208","w","elianto","#f73b6a7A","-1"," ","0","-10","[2292]","1","2","","","10978","93","6","4","lose","no-go","0"
"pit-trial","212","1339472","0.0-98.0","battery-v0.2","","""event"",""trial"",""time""
""fullscreenenter"",""1"",""2370""
""blur"",""102"",""813354""
""focus"",""102"",""813357""
","""event"",""trial"",""time""
""blur"",""102"",""813354""
","""event"",""trial"",""time""
""focus"",""102"",""813357""
","""event"",""trial"",""time""
""fullscreenenter"",""1"",""2370""
","
","","","1863","","","10","10978","208","e","elianto","#f73b6a7A"," "," ","1","-10","[2714]","1","2","","","10978","94","7","3","lose","go","1"
"pit-trial","213","1344330","0.0-99.0","battery-v0.2","","""event"",""trial"",""time""
""fullscreenenter"",""1"",""2370""
""blur"",""102"",""813354""
""focus"",""102"",""813357""
","""event"",""trial"",""time""
""blur"",""102"",""813354""
","""event"",""trial"",""time""
""focus"",""102"",""813357""
","""event"",""trial"",""time""
""fullscreenenter"",""1"",""2370""
","
","","","-1","","","10","10978","208","d","elianto","#3366ff99","-1","-1","1","+10","[]","0","2","","","10978","95","8","2","win","no-go","0"
"pit-trial","214","1349191","0.0-100.0","battery-v0.2","","""event"",""trial"",""time""
""fullscreenenter"",""1"",""2370""
""blur"",""102"",""813354""
""focus"",""102"",""813357""
","""event"",""trial"",""time""
""blur"",""102"",""813354""
","""event"",""trial"",""time""
""focus"",""102"",""813357""
","""event"",""trial"",""time""
""fullscreenenter"",""1"",""2370""
","
","","","-1","","","10","10978","208","s","elianto","#3366ff99"," ","-1","0","0","[]","0","2","","","10978","96","5","1","win","go","0"
"pit-trial","215","1354053","0.0-101.0","battery-v0.2","","""event"",""trial"",""time""
""fullscreenenter"",""1"",""2370""
""blur"",""102"",""813354""
""focus"",""102"",""813357""
","""event"",""trial"",""time""
""blur"",""102"",""813354""
","""event"",""trial"",""time""
""focus"",""102"",""813357""
","""event"",""trial"",""time""
""fullscreenenter"",""1"",""2370""
","
","","","-1","","","10","10978","208","d","elianto","#3366ff99","-1","-1","1","+10","[]","0","2","","","10978","97","8","2","win","no-go","0"
"pit-trial","216","1358756","0.0-102.0","battery-v0.2","","""event"",""trial"",""time""
""fullscreenenter"",""1"",""2370""
""blur"",""102"",""813354""
""focus"",""102"",""813357""
","""event"",""trial"",""time""
""blur"",""102"",""813354""
","""event"",""trial"",""time""
""focus"",""102"",""813357""
","""event"",""trial"",""time""
""fullscreenenter"",""1"",""2370""
","
","","","1847","","","10","10978","208","e","elianto","#f73b6a7A"," "," ","1","0","[2697,3803,4470]","3","2","","","10978","98","7","3","lose","go","0"
"pit-trial","217","1363617","0.0-103.0","battery-v0.2","","""event"",""trial"",""time""
""fullscreenenter"",""1"",""2370""
""blur"",""102"",""813354""
""focus"",""102"",""813357""
","""event"",""trial"",""time""
""blur"",""102"",""813354""
","""event"",""trial"",""time""
""focus"",""102"",""813357""
","""event"",""trial"",""time""
""fullscreenenter"",""1"",""2370""
","
","","","-1","","","10","10978","208","s","elianto","#3366ff99"," ","-1","0","0","[]","0","2","","","10978","99","5","1","win","go","0"
"pit-trial","218","1368482","0.0-104.0","battery-v0.2","","""event"",""trial"",""time""
""fullscreenenter"",""1"",""2370""
""blur"",""102"",""813354""
""focus"",""102"",""813357""
","""event"",""trial"",""time""
""blur"",""102"",""813354""
","""event"",""trial"",""time""
""focus"",""102"",""813357""
","""event"",""trial"",""time""
""fullscreenenter"",""1"",""2370""
","
","","","-1","","","10","10978","208","w","elianto","#f73b6a7A","-1","-1","1","0","[]","0","2","","","10978","100","6","4","lose","no-go","0"
"pit-trial","219","1373340","0.0-105.0","battery-v0.2","","""event"",""trial"",""time""
""fullscreenenter"",""1"",""2370""
""blur"",""102"",""813354""
""focus"",""102"",""813357""
","""event"",""trial"",""time""
""blur"",""102"",""813354""
","""event"",""trial"",""time""
""focus"",""102"",""813357""
","""event"",""trial"",""time""
""fullscreenenter"",""1"",""2370""
","
","","","-1","","","10","10978","208","w","elianto","#f73b6a7A","-1","-1","1","0","[]","0","2","","","10978","101","6","4","lose","no-go","0"
"pit-trial","220","1378196","0.0-106.0","battery-v0.2","","""event"",""trial"",""time""
