"trial_type","trial_index","time_elapsed","internal_node_id","task_version","subject_id","interactions","blur_events","focus_events","fullscreenenter_events","fullscreenexit_events","success","view_history","rt","responses","num_errors","age","subject","participantId","rune","rune_set","hex","correct","choice","accuracy","outcome","keys","total_keys","block","practice","value","sub","trial","stimulus","robot","valence","action","sham"
"pavlovia","0","12","0.0-0.0","battery-v0.2","","""event"",""trial"",""time""
""fullscreenenter"",""1"",""1484""
","
","
","""event"",""trial"",""time""
""fullscreenenter"",""1"",""1484""
","
","","","","","","","","","","","","","","","","","","","","","","","","","","",""
"fullscreen","1","2478","0.0-1.0","battery-v0.2","","""event"",""trial"",""time""
""fullscreenenter"",""1"",""1484""
","
","
","""event"",""trial"",""time""
""fullscreenenter"",""1"",""1484""
","
","true","","","","","","","","","","","","","","","","","","","","","","","","","",""
"pit-instructions","2","8357","0.0-2.0-0.0","battery-v0.2","","""event"",""trial"",""time""
""fullscreenenter"",""1"",""1484""
","
","
","""event"",""trial"",""time""
""fullscreenenter"",""1"",""1484""
","
","","[{""page_index"":0,""viewing_time"":5871.299999952316}]","5872.200000047684","","","","","","","","","","","","","","","","","","","","","","","",""
"pit-comprehension","3","11875","0.0-2.0-1.0-0.0","battery-v0.2","","""event"",""trial"",""time""
""fullscreenenter"",""1"",""1484""
","
","
","""event"",""trial"",""time""
""fullscreenenter"",""1"",""1484""
","
","","","3513.2000000476837","[""shark""]","0","20","10836","305","","","","","","","","","","","","","","","","","","",""
"pit-instructions","4","14273","0.0-2.0-1.0-1.0","battery-v0.2","","""event"",""trial"",""time""
""fullscreenenter"",""1"",""1484""
","
","
","""event"",""trial"",""time""
""fullscreenenter"",""1"",""1484""
","
","","[{""page_index"":0,""viewing_time"":2385.2999999523163}]","2385.7999999523163","","","","","","","","","","","","","","","","","","","","","","","",""
"pit-comprehension","5","16625","0.0-2.0-2.0-0.0","battery-v0.2","","""event"",""trial"",""time""
""fullscreenenter"",""1"",""1484""
","
","
","""event"",""trial"",""time""
""fullscreenenter"",""1"",""1484""
","
","","","2347.899999856949","[""tiger""]","0","20","10836","305","","","","","","","","","","","","","","","","","","",""
"pit-instructions","6","17223","0.0-2.0-2.0-1.0","battery-v0.2","","""event"",""trial"",""time""
""fullscreenenter"",""1"",""1484""
","
","
","""event"",""trial"",""time""
""fullscreenenter"",""1"",""1484""
","
","","[{""page_index"":0,""viewing_time"":593.1999998092651}]","593.7999999523163","","","","","","","","","","","","","","","","","","","","","","","",""
"pit-instructions","7","137088","0.0-2.0-3.0","battery-v0.2","","""event"",""trial"",""time""
""fullscreenenter"",""1"",""1484""
","
","
","""event"",""trial"",""time""
""fullscreenenter"",""1"",""1484""
","
","","[{""page_index"":0,""viewing_time"":25432},{""page_index"":1,""viewing_time"":5450.400000095367},{""page_index"":2,""viewing_time"":6180.799999952316},{""page_index"":3,""viewing_time"":5150.400000095367},{""page_index"":4,""viewing_time"":10183.5},{""page_index"":5,""viewing_time"":5183.5},{""page_index"":6,""viewing_time"":8251.299999952316},{""page_index"":7,""viewing_time"":8831.900000095367},{""page_index"":8,""viewing_time"":6034.199999809265},{""page_index"":9,""viewing_time"":7604.800000190735},{""page_index"":10,""viewing_time"":8246.199999809265},{""page_index"":11,""viewing_time"":9350.300000190735},{""page_index"":12,""viewing_time"":6183.899999856949},{""page_index"":13,""viewing_time"":7782.700000047684}]","119866.60000014305","","","","","","","","","","","","","","","","","","","","","","","",""
"pit-trial","8","141955","0.0-2.0-4.0-0.0","battery-v0.2","","""event"",""trial"",""time""
""fullscreenenter"",""1"",""1484""
","
","
","""event"",""trial"",""time""
""fullscreenenter"",""1"",""1484""
","
","","","-1","","","20","10836","305","&#9784;","elianto","#FFFFF080"," ","-1","0","&#10060","[]","0","0","0","","","","","","","",""
"pit-trial","9","146819","0.0-2.0-4.1-0.1","battery-v0.2","","""event"",""trial"",""time""
""fullscreenenter"",""1"",""1484""
","
","
","""event"",""trial"",""time""
""fullscreenenter"",""1"",""1484""
","
","","","-1","","","20","10836","305","&#9784;","elianto","#FFFFF080"," ","-1","0","&#10060","[]","0","0","0","","","","","","","",""
"pit-trial","10","151447","0.0-2.0-4.2-0.2","battery-v0.2","","""event"",""trial"",""time""
""fullscreenenter"",""1"",""1484""
","
","
","""event"",""trial"",""time""
""fullscreenenter"",""1"",""1484""
","
","","","1770.9000000953674","","","20","10836","305","&#9784;","elianto","#FFFFF080"," "," ","1","&#10004","[2622.2000000476837]","1","0","0","","","","","","","",""
"pit-trial","11","156311","0.0-2.0-4.3-0.3","battery-v0.2","","""event"",""trial"",""time""
""fullscreenenter"",""1"",""1484""
","
","
","""event"",""trial"",""time""
""fullscreenenter"",""1"",""1484""
","
","","","-1","","","20","10836","305","&#9784;","elianto","#FFFFF080"," ","-1","0","&#10060","[]","0","0","0","","","","","","","",""
"pit-trial","12","161168","0.0-2.0-4.4-0.4","battery-v0.2","","""event"",""trial"",""time""
""fullscreenenter"",""1"",""1484""
","
","
","""event"",""trial"",""time""
""fullscreenenter"",""1"",""1484""
","
","","","-1","","","20","10836","305","&#9784;","elianto","#FFFFF080"," ","-1","0","&#10060","[4794.799999952316]","1","0","0","","","","","","","",""
"pit-trial","13","164402","0.0-2.0-4.5-0.5","battery-v0.2","","""event"",""trial"",""time""
""fullscreenenter"",""1"",""1484""
","
","
","""event"",""trial"",""time""
""fullscreenenter"",""1"",""1484""
","
","","","374","","","20","10836","305","&#9784;","elianto","#FFFFF080"," "," ","1","&#10004","[1224.5]","1","0","0","","","","","","","",""
"pit-trial","14","169265","0.0-2.0-4.6-0.6","battery-v0.2","","""event"",""trial"",""time""
""fullscreenenter"",""1"",""1484""
","
","
","""event"",""trial"",""time""
""fullscreenenter"",""1"",""1484""
","
","","","-1","","","20","10836","305","&#9784;","elianto","#FFFFF080"," ","-1","0","&#10060","[]","0","0","0","","","","","","","",""
"pit-instructions","15","189723","0.0-2.0-4.6-1.6-0.6","battery-v0.2","","""event"",""trial"",""time""
""fullscreenenter"",""1"",""1484""
","
","
","""event"",""trial"",""time""
""fullscreenenter"",""1"",""1484""
","
","","[{""page_index"":0,""viewing_time"":12420.5},{""page_index"":1,""viewing_time"":8033.700000047684}]","20454.900000095367","","","","","","","","","","","","","","","","","","","","","","","",""
"pit-trial","16","193061","0.0-2.0-4.7-0.7","battery-v0.2","","""event"",""trial"",""time""
""fullscreenenter"",""1"",""1484""
","
","
","""event"",""trial"",""time""
""fullscreenenter"",""1"",""1484""
","
","","","481.09999990463257","","","20","10836","305","&#9784;","elianto","#FFFFF080"," "," ","1","&#10004","[1333.0999999046326]","1","0","0","","","","","","","",""
"pit-trial","17","196435","0.0-2.0-4.8-0.8","battery-v0.2","","""event"",""trial"",""time""
""fullscreenenter"",""1"",""1484""
","
","
","""event"",""trial"",""time""
""fullscreenenter"",""1"",""1484""
","
","","","515.5","","","20","10836","305","&#9784;","elianto","#FFFFF080"," "," ","1","&#10004","[1366.5]","1","0","0","","","","","","","",""
"pit-trial","18","199897","0.0-2.0-4.9-0.9","battery-v0.2","","""event"",""trial"",""time""
""fullscreenenter"",""1"",""1484""
","
","
","""event"",""trial"",""time""
""fullscreenenter"",""1"",""1484""
","
","","","601.8999998569489","","","20","10836","305","&#9784;","elianto","#FFFFF080"," "," ","1","&#10004","[1453.2999999523163]","1","0","0","","","","","","","",""
"pit-instructions","19","227655","0.0-2.0-5.0","battery-v0.2","","""event"",""trial"",""time""
""fullscreenenter"",""1"",""1484""
","
","
","""event"",""trial"",""time""
""fullscreenenter"",""1"",""1484""
","
","","[{""page_index"":0,""viewing_time"":7355.5},{""page_index"":1,""viewing_time"":9498.299999952316},{""page_index"":2,""viewing_time"":5666.799999952316},{""page_index"":3,""viewing_time"":5232.400000095367}]","27753.799999952316","","","","","","","","","","","","","","","","","","","","","","","",""
"pit-trial","20","232517","0.0-2.0-6.0-0.0","battery-v0.2","","""event"",""trial"",""time""
""fullscreenenter"",""1"",""1484""
","
","
","""event"",""trial"",""time""
""fullscreenenter"",""1"",""1484""
","
","","","-1","","","20","10836","305","&#9854;","elianto","#FFFFF080","-1","-1","1","&#10004","[]","0","0","1","","","","","","","",""
"pit-trial","21","237381","0.0-2.0-6.1-0.1","battery-v0.2","","""event"",""trial"",""time""
""fullscreenenter"",""1"",""1484""
","
","
","""event"",""trial"",""time""
""fullscreenenter"",""1"",""1484""
","
","","","-1","","","20","10836","305","&#9854;","elianto","#FFFFF080","-1","-1","1","&#10004","[]","0","0","1","","","","","","","",""
"pit-trial","22","242241","0.0-2.0-6.2-0.2","battery-v0.2","","""event"",""trial"",""time""
""fullscreenenter"",""1"",""1484""
","
","
","""event"",""trial"",""time""
""fullscreenenter"",""1"",""1484""
","
","","","-1","","","20","10836","305","&#9854;","elianto","#FFFFF080","-1","-1","1","&#10004","[]","0","0","1","","","","","","","",""
"pit-trial","23","247104","0.0-2.0-6.3-0.3","battery-v0.2","","""event"",""trial"",""time""
""fullscreenenter"",""1"",""1484""
","
","
","""event"",""trial"",""time""
""fullscreenenter"",""1"",""1484""
","
","","","-1","","","20","10836","305","&#9854;","elianto","#FFFFF080","-1","-1","1","&#10004","[]","0","0","1","","","","","","","",""
"pit-trial","24","251968","0.0-2.0-6.4-0.4","battery-v0.2","","""event"",""trial"",""time""
""fullscreenenter"",""1"",""1484""
","
","
","""event"",""trial"",""time""
""fullscreenenter"",""1"",""1484""
","
","","","-1","","","20","10836","305","&#9854;","elianto","#FFFFF080","-1","-1","1","&#10004","[]","0","0","1","","","","","","","",""
"pit-instructions","25","440621","0.0-2.0-7.0","battery-v0.2","","""event"",""trial"",""time""
""fullscreenenter"",""1"",""1484""
","
","
","""event"",""trial"",""time""
""fullscreenenter"",""1"",""1484""
","
","","[{""page_index"":0,""viewing_time"":8615.299999952316},{""page_index"":1,""viewing_time"":9666.799999952316},{""page_index"":2,""viewing_time"":10050.400000095367},{""page_index"":3,""viewing_time"":9048.899999856949},{""page_index"":4,""viewing_time"":9151.700000047684},{""page_index"":5,""viewing_time"":7701.099999904633},{""page_index"":6,""viewing_time"":7082},{""page_index"":7,""viewing_time"":9886},{""page_index"":8,""viewing_time"":9082.200000047684},{""page_index"":9,""viewing_time"":19100.299999952316},{""page_index"":10,""viewing_time"":12933.300000190735},{""page_index"":11,""viewing_time"":9252.5},{""page_index"":12,""viewing_time"":9064},{""page_index"":13,""viewing_time"":9934.699999809265},{""page_index"":14,""viewing_time"":11283.400000095367},{""page_index"":15,""viewing_time"":7233.5},{""page_index"":16,""viewing_time"":18787.900000095367},{""page_index"":17,""viewing_time"":10779.799999952316}]","188654.59999990463","","","","","","","","","","","","","","","","","","","","","","","",""
"pit-trial","26","445483","0.0-2.0-8.0-0.0","battery-v0.2","","""event"",""trial"",""time""
""fullscreenenter"",""1"",""1484""
","
","
","""event"",""trial"",""time""
""fullscreenenter"",""1"",""1484""
","
","","","-1","","","20","10836","305","&#9776;","elianto","#3366ff99"," ","-1","0","0","[]","0","0","1","","","","","","","",""
"pit-trial","27","449102","0.0-2.0-8.0-1.0","battery-v0.2","","""event"",""trial"",""time""
""fullscreenenter"",""1"",""1484""
","
","
","""event"",""trial"",""time""
""fullscreenenter"",""1"",""1484""
","
","","","760.2000000476837","","","20","10836","305","&#9776;","elianto","#3366ff99"," "," ","1","+10","[1610.8000001907349]","1","0","1","","","","","","","",""
"pit-trial","28","452547","0.0-2.0-8.0-2.0","battery-v0.2","","""event"",""trial"",""time""
""fullscreenenter"",""1"",""1484""
","
","
","""event"",""trial"",""time""
""fullscreenenter"",""1"",""1484""
","
","","","585.1000001430511","","","20","10836","305","&#9776;","elianto","#3366ff99"," "," ","1","+10","[1436.7000000476837]","1","0","1","","","","","","","",""
"pit-trial","29","455908","0.0-2.0-8.0-3.0","battery-v0.2","","""event"",""trial"",""time""
""fullscreenenter"",""1"",""1484""
","
","
","""event"",""trial"",""time""
""fullscreenenter"",""1"",""1484""
","
","","","501","","","20","10836","305","&#9776;","elianto","#3366ff99"," "," ","1","0","[1352.0999999046326]","1","0","1","","","","","","","",""
"pit-trial","30","459334","0.0-2.0-8.0-4.0","battery-v0.2","","""event"",""trial"",""time""
""fullscreenenter"",""1"",""1484""
","
","
","""event"",""trial"",""time""
""fullscreenenter"",""1"",""1484""
","
","","","564.3999998569489","","","20","10836","305","&#9776;","elianto","#3366ff99"," "," ","1","+10","[1417.2000000476837]","1","0","1","","","","","","","",""
"pit-trial","31","462809","0.0-2.0-8.1-0.1","battery-v0.2","","""event"",""trial"",""time""
""fullscreenenter"",""1"",""1484""
","
","
","""event"",""trial"",""time""
""fullscreenenter"",""1"",""1484""
","
","","","615.2000000476837","","","20","10836","305","&#9776;","elianto","#3366ff99"," "," ","1","+10","[1466.9000000953674]","1","0","1","","","","","","","",""
"pit-trial","32","466203","0.0-2.0-8.1-1.1","battery-v0.2","","""event"",""trial"",""time""
""fullscreenenter"",""1"",""1484""
","
","
","""event"",""trial"",""time""
""fullscreenenter"",""1"",""1484""
","
","","","533","","","20","10836","305","&#9776;","elianto","#3366ff99"," "," ","1","+10","[1385.7000000476837]","1","0","1","","","","","","","",""
"pit-trial","33","469530","0.0-2.0-8.1-2.1","battery-v0.2","","""event"",""trial"",""time""
""fullscreenenter"",""1"",""1484""
","
","
","""event"",""trial"",""time""
""fullscreenenter"",""1"",""1484""
","
","","","467.5","","","20","10836","305","&#9776;","elianto","#3366ff99"," "," ","1","+10","[1319.2000000476837]","1","0","1","","","","","","","",""
"pit-trial","34","473061","0.0-2.0-8.1-3.1","battery-v0.2","","""event"",""trial"",""time""
""fullscreenenter"",""1"",""1484""
","
","
","""event"",""trial"",""time""
""fullscreenenter"",""1"",""1484""
","
","","","674.9000000953674","","","20","10836","305","&#9776;","elianto","#3366ff99"," "," ","1","0","[1525.6999998092651]","1","0","1","","","","","","","",""
"pit-trial","35","476382","0.0-2.0-8.1-4.1","battery-v0.2","","""event"",""trial"",""time""
""fullscreenenter"",""1"",""1484""
","
","
","""event"",""trial"",""time""
""fullscreenenter"",""1"",""1484""
","
","","","465.59999990463257","","","20","10836","305","&#9776;","elianto","#3366ff99"," "," ","1","+10","[1315.9000000953674]","1","0","1","","","","","","","",""
"pit-trial","36","479713","0.0-2.0-8.2-0.2","battery-v0.2","","""event"",""trial"",""time""
""fullscreenenter"",""1"",""1484""
","
","
","""event"",""trial"",""time""
""fullscreenenter"",""1"",""1484""
","
","","","469.39999985694885","","","20","10836","305","&#9776;","elianto","#3366ff99"," "," ","1","+10","[1320.9000000953674]","1","0","1","","","","","","","",""
"pit-trial","37","483112","0.0-2.0-8.2-1.2","battery-v0.2","","""event"",""trial"",""time""
""fullscreenenter"",""1"",""1484""
","
","
","""event"",""trial"",""time""
""fullscreenenter"",""1"",""1484""
","
","","","543.6999998092651","","","20","10836","305","&#9776;","elianto","#3366ff99"," "," ","1","+10","[1393.7000000476837]","1","0","1","","","","","","","",""
"pit-trial","38","486636","0.0-2.0-8.2-2.2","battery-v0.2","","""event"",""trial"",""time""
""fullscreenenter"",""1"",""1484""
","
","
","""event"",""trial"",""time""
""fullscreenenter"",""1"",""1484""
","
","","","667.2000000476837","","","20","10836","305","&#9776;","elianto","#3366ff99"," "," ","1","+10","[1517.6000001430511]","1","0","1","","","","","","","",""
"pit-trial","39","491387","0.0-2.0-8.2-3.2","battery-v0.2","","""event"",""trial"",""time""
""fullscreenenter"",""1"",""1484""
","
","
","""event"",""trial"",""time""
""fullscreenenter"",""1"",""1484""
","
","","","1890.6000001430511","","","20","10836","305","&#9776;","elianto","#3366ff99"," "," ","1","0","[2741.699999809265]","1","0","1","","","","","","","",""
"pit-trial","40","495274","0.0-2.0-8.2-4.2","battery-v0.2","","""event"",""trial"",""time""
""fullscreenenter"",""1"",""1484""
","
","
","""event"",""trial"",""time""
""fullscreenenter"",""1"",""1484""
","
","","","1024.0999999046326","","","20","10836","305","&#9776;","elianto","#3366ff99"," "," ","1","+10","[1876.7999999523163]","1","0","1","","","","","","","",""
"call-function","41","495279","0.0-2.0-9.0","battery-v0.2","","""event"",""trial"",""time""
""fullscreenenter"",""1"",""1484""
","
","
","""event"",""trial"",""time""
""fullscreenenter"",""1"",""1484""
","
","","","","","","","","","","","","","","","","","","","","","","","","","","",""
"pit-instructions","42","546338","0.0-2.0-10.0","battery-v0.2","","""event"",""trial"",""time""
""fullscreenenter"",""1"",""1484""
","
","
","""event"",""trial"",""time""
""fullscreenenter"",""1"",""1484""
","
","","[{""page_index"":0,""viewing_time"":7478.299999952316},{""page_index"":1,""viewing_time"":7978.5},{""page_index"":2,""viewing_time"":15632.900000095367},{""page_index"":3,""viewing_time"":11436.899999856949},{""page_index"":4,""viewing_time"":8532.299999952316}]","51059.59999990463","","","","","","","","","","","","","","","","","","","","","","","",""
"pit-trial","43","549614","0.0-2.0-11.0-0.0","battery-v0.2","","""event"",""trial"",""time""
""fullscreenenter"",""1"",""1484""
","
","
","""event"",""trial"",""time""
""fullscreenenter"",""1"",""1484""
","
","","","414.7999999523163","","","20","10836","305","&#9761;","elianto","#3366ff99","-1"," ","0","0","[1267]","1","0","2","","","","","","","",""
"pit-trial","44","552832","0.0-2.0-11.0-1.0","battery-v0.2","","""event"",""trial"",""time""
""fullscreenenter"",""1"",""1484""
","
","
","""event"",""trial"",""time""
""fullscreenenter"",""1"",""1484""
","
","","","364.2999999523163","","","20","10836","305","&#9761;","elianto","#3366ff99","-1"," ","0","0","[1214.3999998569489]","1","0","2","","","","","","","",""
"pit-trial","45","556219","0.0-2.0-11.0-2.0","battery-v0.2","","""event"",""trial"",""time""
""fullscreenenter"",""1"",""1484""
","
","
","""event"",""trial"",""time""
""fullscreenenter"",""1"",""1484""
","
","","","530.3999998569489","","","20","10836","305","&#9761;","elianto","#3366ff99","-1"," ","0","0","[1382.5]","1","0","2","","","","","","","",""
"pit-trial","46","561083","0.0-2.0-11.0-3.0","battery-v0.2","","""event"",""trial"",""time""
""fullscreenenter"",""1"",""1484""
","
","
","""event"",""trial"",""time""
""fullscreenenter"",""1"",""1484""
","
","","","-1","","","20","10836","305","&#9761;","elianto","#3366ff99","-1","-1","1","0","[]","0","0","2","","","","","","","",""
"pit-trial","47","565943","0.0-2.0-11.0-4.0","battery-v0.2","","""event"",""trial"",""time""
""fullscreenenter"",""1"",""1484""
","
","
","""event"",""trial"",""time""
""fullscreenenter"",""1"",""1484""
","
","","","-1","","","20","10836","305","&#9761;","elianto","#3366ff99","-1","-1","1","+10","[]","0","0","2","","","","","","","",""
"pit-trial","48","570799","0.0-2.0-11.1-0.1","battery-v0.2","","""event"",""trial"",""time""
""fullscreenenter"",""1"",""1484""
","
","
","""event"",""trial"",""time""
""fullscreenenter"",""1"",""1484""
","
","","","-1","","","20","10836","305","&#9761;","elianto","#3366ff99","-1","-1","1","+10","[]","0","0","2","","","","","","","",""
"pit-trial","49","575663","0.0-2.0-11.1-1.1","battery-v0.2","","""event"",""trial"",""time""
""fullscreenenter"",""1"",""1484""
","
","
","""event"",""trial"",""time""
""fullscreenenter"",""1"",""1484""
","
","","","-1","","","20","10836","305","&#9761;","elianto","#3366ff99","-1","-1","1","+10","[]","0","0","2","","","","","","","",""
"pit-trial","50","580528","0.0-2.0-11.1-2.1","battery-v0.2","","""event"",""trial"",""time""
""fullscreenenter"",""1"",""1484""
","
","
","""event"",""trial"",""time""
""fullscreenenter"",""1"",""1484""
","
","","","-1","","","20","10836","305","&#9761;","elianto","#3366ff99","-1","-1","1","+10","[]","0","0","2","","","","","","","",""
"pit-trial","51","585390","0.0-2.0-11.1-3.1","battery-v0.2","","""event"",""trial"",""time""
""fullscreenenter"",""1"",""1484""
","
","
","""event"",""trial"",""time""
""fullscreenenter"",""1"",""1484""
","
","","","-1","","","20","10836","305","&#9761;","elianto","#3366ff99","-1","-1","1","0","[]","0","0","2","","","","","","","",""
"pit-trial","52","590249","0.0-2.0-11.1-4.1","battery-v0.2","","""event"",""trial"",""time""
""fullscreenenter"",""1"",""1484""
","
","
","""event"",""trial"",""time""
""fullscreenenter"",""1"",""1484""
","
","","","-1","","","20","10836","305","&#9761;","elianto","#3366ff99","-1","-1","1","+10","[]","0","0","2","","","","","","","",""
"pit-trial","53","595112","0.0-2.0-11.2-0.2","battery-v0.2","","""event"",""trial"",""time""
""fullscreenenter"",""1"",""1484""
","
","
","""event"",""trial"",""time""
""fullscreenenter"",""1"",""1484""
","
","","","-1","","","20","10836","305","&#9761;","elianto","#3366ff99","-1","-1","1","+10","[]","0","0","2","","","","","","","",""
"pit-trial","54","599971","0.0-2.0-11.2-1.2","battery-v0.2","","""event"",""trial"",""time""
""fullscreenenter"",""1"",""1484""
","
","
","""event"",""trial"",""time""
""fullscreenenter"",""1"",""1484""
","
","","","-1","","","20","10836","305","&#9761;","elianto","#3366ff99","-1","-1","1","+10","[]","0","0","2","","","","","","","",""
"pit-trial","55","604835","0.0-2.0-11.2-2.2","battery-v0.2","","""event"",""trial"",""time""
""fullscreenenter"",""1"",""1484""
","
","
","""event"",""trial"",""time""
""fullscreenenter"",""1"",""1484""
","
","","","-1","","","20","10836","305","&#9761;","elianto","#3366ff99","-1","-1","1","+10","[]","0","0","2","","","","","","","",""
"pit-trial","56","609699","0.0-2.0-11.2-3.2","battery-v0.2","","""event"",""trial"",""time""
""fullscreenenter"",""1"",""1484""
","
","
","""event"",""trial"",""time""
""fullscreenenter"",""1"",""1484""
","
","","","-1","","","20","10836","305","&#9761;","elianto","#3366ff99","-1","-1","1","0","[]","0","0","2","","","","","","","",""
"pit-trial","57","614555","0.0-2.0-11.2-4.2","battery-v0.2","","""event"",""trial"",""time""
""fullscreenenter"",""1"",""1484""
","
","
","""event"",""trial"",""time""
""fullscreenenter"",""1"",""1484""
","
","","","-1","","","20","10836","305","&#9761;","elianto","#3366ff99","-1","-1","1","+10","[]","0","0","2","","","","","","","",""
"pit-trial","58","619413","0.0-2.0-11.3-0.3","battery-v0.2","","""event"",""trial"",""time""
""fullscreenenter"",""1"",""1484""
","
","
","""event"",""trial"",""time""
""fullscreenenter"",""1"",""1484""
","
","","","-1","","","20","10836","305","&#9761;","elianto","#3366ff99","-1","-1","1","+10","[]","0","0","2","","","","","","","",""
"pit-trial","59","624272","0.0-2.0-11.3-1.3","battery-v0.2","","""event"",""trial"",""time""
""fullscreenenter"",""1"",""1484""
","
","
","""event"",""trial"",""time""
""fullscreenenter"",""1"",""1484""
","
","","","-1","","","20","10836","305","&#9761;","elianto","#3366ff99","-1","-1","1","+10","[]","0","0","2","","","","","","","",""
"pit-trial","60","629134","0.0-2.0-11.3-2.3","battery-v0.2","","""event"",""trial"",""time""
""fullscreenenter"",""1"",""1484""
","
","
","""event"",""trial"",""time""
""fullscreenenter"",""1"",""1484""
","
","","","-1","","","20","10836","305","&#9761;","elianto","#3366ff99","-1","-1","1","+10","[]","0","0","2","","","","","","","",""
"pit-trial","61","633992","0.0-2.0-11.3-3.3","battery-v0.2","","""event"",""trial"",""time""
""fullscreenenter"",""1"",""1484""
","
","
","""event"",""trial"",""time""
""fullscreenenter"",""1"",""1484""
","
","","","-1","","","20","10836","305","&#9761;","elianto","#3366ff99","-1","-1","1","0","[]","0","0","2","","","","","","","",""
"pit-trial","62","638855","0.0-2.0-11.3-4.3","battery-v0.2","","""event"",""trial"",""time""
""fullscreenenter"",""1"",""1484""
","
","
","""event"",""trial"",""time""
""fullscreenenter"",""1"",""1484""
","
","","","-1","","","20","10836","305","&#9761;","elianto","#3366ff99","-1","-1","1","+10","[]","0","0","2","","","","","","","",""
"call-function","63","638859","0.0-2.0-12.0","battery-v0.2","","""event"",""trial"",""time""
""fullscreenenter"",""1"",""1484""
","
","
","""event"",""trial"",""time""
""fullscreenenter"",""1"",""1484""
","
","","","","","","","","","","","","","","","","","","","","","","","","","","",""
"pit-instructions","64","697955","0.0-2.0-13.0","battery-v0.2","","""event"",""trial"",""time""
""fullscreenenter"",""1"",""1484""
","
","
","""event"",""trial"",""time""
""fullscreenenter"",""1"",""1484""
","
","","[{""page_index"":0,""viewing_time"":12859.400000095367},{""page_index"":1,""viewing_time"":20717.199999809265},{""page_index"":2,""viewing_time"":5602},{""page_index"":3,""viewing_time"":12198.700000047684},{""page_index"":4,""viewing_time"":7719}]","59097.09999990463","","","","","","","","","","","","","","","","","","","","","","","",""
"pit-trial","65","702817","0.0-2.0-14.0-0.0","battery-v0.2","","""event"",""trial"",""time""
""fullscreenenter"",""1"",""1484""
","
","
","""event"",""trial"",""time""
""fullscreenenter"",""1"",""1484""
","
","","","-1","","","20","10836","305","&#9826;","elianto","#f73b6a7A","-1","-1","1","0","[]","0","0","3","","","","","","","",""
"pit-trial","66","707681","0.0-2.0-14.0-1.0","battery-v0.2","","""event"",""trial"",""time""
""fullscreenenter"",""1"",""1484""
","
","
","""event"",""trial"",""time""
""fullscreenenter"",""1"",""1484""
","
","","","-1","","","20","10836","305","&#9826;","elianto","#f73b6a7A","-1","-1","1","0","[]","0","0","3","","","","","","","",""
"pit-trial","67","712544","0.0-2.0-14.0-2.0","battery-v0.2","","""event"",""trial"",""time""
""fullscreenenter"",""1"",""1484""
","
","
","""event"",""trial"",""time""
""fullscreenenter"",""1"",""1484""
","
","","","-1","","","20","10836","305","&#9826;","elianto","#f73b6a7A","-1","-1","1","0","[]","0","0","3","","","","","","","",""
"pit-trial","68","717405","0.0-2.0-14.0-3.0","battery-v0.2","","""event"",""trial"",""time""
""fullscreenenter"",""1"",""1484""
","
","
","""event"",""trial"",""time""
""fullscreenenter"",""1"",""1484""
","
","","","-1","","","20","10836","305","&#9826;","elianto","#f73b6a7A","-1","-1","1","-10","[]","0","0","3","","","","","","","",""
"pit-trial","69","722266","0.0-2.0-14.0-4.0","battery-v0.2","","""event"",""trial"",""time""
""fullscreenenter"",""1"",""1484""
","
","
","""event"",""trial"",""time""
""fullscreenenter"",""1"",""1484""
","
","","","-1","","","20","10836","305","&#9826;","elianto","#f73b6a7A","-1","-1","1","0","[]","0","0","3","","","","","","","",""
"pit-trial","70","727125","0.0-2.0-14.1-0.1","battery-v0.2","","""event"",""trial"",""time""
""fullscreenenter"",""1"",""1484""
","
","
","""event"",""trial"",""time""
""fullscreenenter"",""1"",""1484""
","
","","","-1","","","20","10836","305","&#9826;","elianto","#f73b6a7A","-1","-1","1","0","[]","0","0","3","","","","","","","",""
"pit-trial","71","731988","0.0-2.0-14.1-1.1","battery-v0.2","","""event"",""trial"",""time""
""fullscreenenter"",""1"",""1484""
","
","
","""event"",""trial"",""time""
""fullscreenenter"",""1"",""1484""
","
","","","-1","","","20","10836","305","&#9826;","elianto","#f73b6a7A","-1","-1","1","0","[]","0","0","3","","","","","","","",""
"pit-trial","72","736847","0.0-2.0-14.1-2.1","battery-v0.2","","""event"",""trial"",""time""
""fullscreenenter"",""1"",""1484""
","
","
","""event"",""trial"",""time""
""fullscreenenter"",""1"",""1484""
","
","","","-1","","","20","10836","305","&#9826;","elianto","#f73b6a7A","-1","-1","1","0","[]","0","0","3","","","","","","","",""
"pit-trial","73","741706","0.0-2.0-14.1-3.1","battery-v0.2","","""event"",""trial"",""time""
""fullscreenenter"",""1"",""1484""
","
","
","""event"",""trial"",""time""
""fullscreenenter"",""1"",""1484""
","
","","","-1","","","20","10836","305","&#9826;","elianto","#f73b6a7A","-1","-1","1","-10","[]","0","0","3","","","","","","","",""
"pit-trial","74","746567","0.0-2.0-14.1-4.1","battery-v0.2","","""event"",""trial"",""time""
""fullscreenenter"",""1"",""1484""
","
","
","""event"",""trial"",""time""
""fullscreenenter"",""1"",""1484""
","
","","","-1","","","20","10836","305","&#9826;","elianto","#f73b6a7A","-1","-1","1","0","[]","0","0","3","","","","","","","",""
"pit-trial","75","751430","0.0-2.0-14.2-0.2","battery-v0.2","","""event"",""trial"",""time""
""fullscreenenter"",""1"",""1484""
","
","
","""event"",""trial"",""time""
""fullscreenenter"",""1"",""1484""
","
","","","-1","","","20","10836","305","&#9826;","elianto","#f73b6a7A","-1","-1","1","0","[]","0","0","3","","","","","","","",""
"pit-trial","76","756292","0.0-2.0-14.2-1.2","battery-v0.2","","""event"",""trial"",""time""
""fullscreenenter"",""1"",""1484""
","
","
","""event"",""trial"",""time""
""fullscreenenter"",""1"",""1484""
","
","","","-1","","","20","10836","305","&#9826;","elianto","#f73b6a7A","-1","-1","1","0","[]","0","0","3","","","","","","","",""
"pit-trial","77","761153","0.0-2.0-14.2-2.2","battery-v0.2","","""event"",""trial"",""time""
""fullscreenenter"",""1"",""1484""
","
","
","""event"",""trial"",""time""
""fullscreenenter"",""1"",""1484""
","
","","","-1","","","20","10836","305","&#9826;","elianto","#f73b6a7A","-1","-1","1","0","[]","0","0","3","","","","","","","",""
"pit-trial","78","766015","0.0-2.0-14.2-3.2","battery-v0.2","","""event"",""trial"",""time""
""fullscreenenter"",""1"",""1484""
","
","
","""event"",""trial"",""time""
""fullscreenenter"",""1"",""1484""
","
","","","-1","","","20","10836","305","&#9826;","elianto","#f73b6a7A","-1","-1","1","-10","[]","0","0","3","","","","","","","",""
"pit-trial","79","770877","0.0-2.0-14.2-4.2","battery-v0.2","","""event"",""trial"",""time""
""fullscreenenter"",""1"",""1484""
","
","
","""event"",""trial"",""time""
""fullscreenenter"",""1"",""1484""
","
","","","-1","","","20","10836","305","&#9826;","elianto","#f73b6a7A","-1","-1","1","0","[]","0","0","3","","","","","","","",""
"pit-trial","80","775743","0.0-2.0-14.3-0.3","battery-v0.2","","""event"",""trial"",""time""
""fullscreenenter"",""1"",""1484""
","
","
","""event"",""trial"",""time""
""fullscreenenter"",""1"",""1484""
","
","","","-1","","","20","10836","305","&#9826;","elianto","#f73b6a7A","-1","-1","1","0","[]","0","0","3","","","","","","","",""
"pit-trial","81","780606","0.0-2.0-14.3-1.3","battery-v0.2","","""event"",""trial"",""time""
""fullscreenenter"",""1"",""1484""
","
","
","""event"",""trial"",""time""
""fullscreenenter"",""1"",""1484""
","
","","","-1","","","20","10836","305","&#9826;","elianto","#f73b6a7A","-1","-1","1","0","[]","0","0","3","","","","","","","",""
"pit-trial","82","785471","0.0-2.0-14.3-2.3","battery-v0.2","","""event"",""trial"",""time""
""fullscreenenter"",""1"",""1484""
","
","
","""event"",""trial"",""time""
""fullscreenenter"",""1"",""1484""
","
","","","-1","","","20","10836","305","&#9826;","elianto","#f73b6a7A","-1","-1","1","0","[]","0","0","3","","","","","","","",""
"pit-trial","83","790333","0.0-2.0-14.3-3.3","battery-v0.2","","""event"",""trial"",""time""
""fullscreenenter"",""1"",""1484""
","
","
","""event"",""trial"",""time""
""fullscreenenter"",""1"",""1484""
","
","","","-1","","","20","10836","305","&#9826;","elianto","#f73b6a7A","-1","-1","1","-10","[]","0","0","3","","","","","","","",""
"pit-trial","84","795193","0.0-2.0-14.3-4.3","battery-v0.2","","""event"",""trial"",""time""
""fullscreenenter"",""1"",""1484""
","
","
","""event"",""trial"",""time""
""fullscreenenter"",""1"",""1484""
","
","","","-1","","","20","10836","305","&#9826;","elianto","#f73b6a7A","-1","-1","1","0","[]","0","0","3","","","","","","","",""
"call-function","85","795197","0.0-2.0-15.0","battery-v0.2","","""event"",""trial"",""time""
""fullscreenenter"",""1"",""1484""
","
","
","""event"",""trial"",""time""
""fullscreenenter"",""1"",""1484""
","
","","","","","","","","","","","","","","","","","","","","","","","","","","",""
"pit-instructions","86","831702","0.0-2.0-16.0","battery-v0.2","","""event"",""trial"",""time""
""fullscreenenter"",""1"",""1484""
","
","
","""event"",""trial"",""time""
""fullscreenenter"",""1"",""1484""
","
","","[{""page_index"":0,""viewing_time"":8739},{""page_index"":1,""viewing_time"":11449.299999952316},{""page_index"":2,""viewing_time"":9481.399999856949},{""page_index"":3,""viewing_time"":6834.100000143051}]","36504.5","","","","","","","","","","","","","","","","","","","","","","","",""
"pit-trial","87","836560","0.0-2.0-17.0-0.0","battery-v0.2","","""event"",""trial"",""time""
""fullscreenenter"",""1"",""1484""
","
","
","""event"",""trial"",""time""
""fullscreenenter"",""1"",""1484""
","
","","","-1","","","20","10836","305","&#9789;","elianto","#f73b6a7A"," ","-1","0","-10","[]","0","0","4","","","","","","","",""
"pit-trial","88","841417","0.0-2.0-17.0-1.0","battery-v0.2","","""event"",""trial"",""time""
""fullscreenenter"",""1"",""1484""
","
","
","""event"",""trial"",""time""
""fullscreenenter"",""1"",""1484""
","
","","","-1","","","20","10836","305","&#9789;","elianto","#f73b6a7A"," ","-1","0","-10","[]","0","0","4","","","","","","","",""
"pit-trial","89","844683","0.0-2.0-17.0-2.0","battery-v0.2","","""event"",""trial"",""time""
""fullscreenenter"",""1"",""1484""
","
","
","""event"",""trial"",""time""
""fullscreenenter"",""1"",""1484""
","
","","","405.2000000476837","","","20","10836","305","&#9789;","elianto","#f73b6a7A"," "," ","1","0","[1257.4000000953674]","1","0","4","","","","","","","",""
"pit-trial","90","847642","0.0-2.0-17.0-3.0","battery-v0.2","","""event"",""trial"",""time""
""fullscreenenter"",""1"",""1484""
","
","
","""event"",""trial"",""time""
""fullscreenenter"",""1"",""1484""
","
","","","102","","","20","10836","305","&#9789;","elianto","#f73b6a7A"," "," ","1","-10","[952.7000000476837]","1","0","4","","","","","","","",""
"pit-trial","91","851217","0.0-2.0-17.0-4.0","battery-v0.2","","""event"",""trial"",""time""
""fullscreenenter"",""1"",""1484""
","
","
","""event"",""trial"",""time""
""fullscreenenter"",""1"",""1484""
","
","","","715.1999998092651","","","20","10836","305","&#9789;","elianto","#f73b6a7A"," "," ","1","0","[1567.5999999046326]","1","0","4","","","","","","","",""
"pit-trial","92","854453","0.0-2.0-17.1-0.1","battery-v0.2","","""event"",""trial"",""time""
""fullscreenenter"",""1"",""1484""
","
","
","""event"",""trial"",""time""
""fullscreenenter"",""1"",""1484""
","
","","","375.39999985694885","","","20","10836","305","&#9789;","elianto","#f73b6a7A"," "," ","1","0","[1227.7000000476837]","1","0","4","","","","","","","",""
"pit-trial","93","857834","0.0-2.0-17.1-1.1","battery-v0.2","","""event"",""trial"",""time""
""fullscreenenter"",""1"",""1484""
","
","
","""event"",""trial"",""time""
""fullscreenenter"",""1"",""1484""
","
","","","521.4000000953674","","","20","10836","305","&#9789;","elianto","#f73b6a7A"," "," ","1","0","[1372.0999999046326]","1","0","4","","","","","","","",""
"pit-trial","94","860988","0.0-2.0-17.1-2.1","battery-v0.2","","""event"",""trial"",""time""
""fullscreenenter"",""1"",""1484""
","
","
","""event"",""trial"",""time""
""fullscreenenter"",""1"",""1484""
","
","","","294.30000019073486","","","20","10836","305","&#9789;","elianto","#f73b6a7A"," "," ","1","0","[1145.7000000476837]","1","0","4","","","","","","","",""
"pit-trial","95","865846","0.0-2.0-17.1-3.1","battery-v0.2","","""event"",""trial"",""time""
""fullscreenenter"",""1"",""1484""
","
","
","""event"",""trial"",""time""
""fullscreenenter"",""1"",""1484""
","
","","","-1","","","20","10836","305","&#9789;","elianto","#f73b6a7A"," ","-1","0","0","[2953.0999999046326]","1","0","4","","","","","","","",""
"pit-trial","96","870706","0.0-2.0-17.1-4.1","battery-v0.2","","""event"",""trial"",""time""
""fullscreenenter"",""1"",""1484""
","
","
","""event"",""trial"",""time""
""fullscreenenter"",""1"",""1484""
","
","","","-1","","","20","10836","305","&#9789;","elianto","#f73b6a7A"," ","-1","0","-10","[]","0","0","4","","","","","","","",""
"pit-trial","97","875572","0.0-2.0-17.2-0.2","battery-v0.2","","""event"",""trial"",""time""
""fullscreenenter"",""1"",""1484""
","
","
","""event"",""trial"",""time""
""fullscreenenter"",""1"",""1484""
","
","","","-1","","","20","10836","305","&#9789;","elianto","#f73b6a7A"," ","-1","0","-10","[193.09999990463257]","1","0","4","","","","","","","",""
"pit-trial","98","880395","0.0-2.0-17.2-1.2","battery-v0.2","","""event"",""trial"",""time""
""fullscreenenter"",""1"",""1484""
","
","
","""event"",""trial"",""time""
""fullscreenenter"",""1"",""1484""
","
","","","1965.2000000476837","","","20","10836","305","&#9789;","elianto","#f73b6a7A"," "," ","1","0","[2817.5]","1","0","4","","","","","","","",""
"pit-trial","99","885255","0.0-2.0-17.2-2.2","battery-v0.2","","""event"",""trial"",""time""
""fullscreenenter"",""1"",""1484""
","
","
","""event"",""trial"",""time""
""fullscreenenter"",""1"",""1484""
","
","","","-1","","","20","10836","305","&#9789;","elianto","#f73b6a7A"," ","-1","0","-10","[4818.200000047684]","1","0","4","","","","","","","",""
"pit-trial","100","890114","0.0-2.0-17.2-3.2","battery-v0.2","","""event"",""trial"",""time""
""fullscreenenter"",""1"",""1484""
","
","
","""event"",""trial"",""time""
""fullscreenenter"",""1"",""1484""
","
","","","-1","","","20","10836","305","&#9789;","elianto","#f73b6a7A"," ","-1","0","0","[]","0","0","4","","","","","","","",""
"pit-trial","101","893957","0.0-2.0-17.2-4.2","battery-v0.2","","""event"",""trial"",""time""
""fullscreenenter"",""1"",""1484""
","
","
","""event"",""trial"",""time""
""fullscreenenter"",""1"",""1484""
","
","","","984.9000000953674","","","20","10836","305","&#9789;","elianto","#f73b6a7A"," "," ","1","0","[1835.1000001430511]","1","0","4","","","","","","","",""
"pit-trial","102","897192","0.0-2.0-17.3-0.3","battery-v0.2","","""event"",""trial"",""time""
""fullscreenenter"",""1"",""1484""
","
","
","""event"",""trial"",""time""
""fullscreenenter"",""1"",""1484""
","
","","","372.7000000476837","","","20","10836","305","&#9789;","elianto","#f73b6a7A"," "," ","1","0","[1223.7000000476837]","1","0","4","","","","","","","",""
"pit-trial","103","900700","0.0-2.0-17.3-1.3","battery-v0.2","","""event"",""trial"",""time""
""fullscreenenter"",""1"",""1484""
","
","
","""event"",""trial"",""time""
""fullscreenenter"",""1"",""1484""
","
","","","650.5","","","20","10836","305","&#9789;","elianto","#f73b6a7A"," "," ","1","0","[1501.9000000953674]","1","0","4","","","","","","","",""
"pit-trial","104","905039","0.0-2.0-17.3-2.3","battery-v0.2","","""event"",""trial"",""time""
""fullscreenenter"",""1"",""1484""
","
","
","""event"",""trial"",""time""
""fullscreenenter"",""1"",""1484""
","
","","","1482.7000000476837","","","20","10836","305","&#9789;","elianto","#f73b6a7A"," "," ","1","0","[2334.5999999046326]","1","0","4","","","","","","","",""
"pit-trial","105","908741","0.0-2.0-17.3-3.3","battery-v0.2","","""event"",""trial"",""time""
""fullscreenenter"",""1"",""1484""
","
","
","""event"",""trial"",""time""
""fullscreenenter"",""1"",""1484""
","
","","","841.4000000953674","","","20","10836","305","&#9789;","elianto","#f73b6a7A"," "," ","1","-10","[1694.4000000953674]","1","0","4","","","","","","","",""
"pit-trial","106","912002","0.0-2.0-17.3-4.3","battery-v0.2","","""event"",""trial"",""time""
""fullscreenenter"",""1"",""1484""
","
","
","""event"",""trial"",""time""
""fullscreenenter"",""1"",""1484""
","
","","","398.7999999523163","","","20","10836","305","&#9789;","elianto","#f73b6a7A"," "," ","1","0","[1252.6000001430511]","1","0","4","","","","","","","",""
"call-function","107","912005","0.0-2.0-18.0","battery-v0.2","","""event"",""trial"",""time""
""fullscreenenter"",""1"",""1484""
","
","
","""event"",""trial"",""time""
""fullscreenenter"",""1"",""1484""
","
","","","","","","","","","","","","","","","","","","","","","","","","","","",""
"pit-instructions","108","989668","0.0-2.0-19.0","battery-v0.2","","""event"",""trial"",""time""
""fullscreenenter"",""1"",""1484""
","
","
","""event"",""trial"",""time""
""fullscreenenter"",""1"",""1484""
","
","","[{""page_index"":0,""viewing_time"":11494.5},{""page_index"":1,""viewing_time"":8668.799999952316},{""page_index"":2,""viewing_time"":11431.5},{""page_index"":3,""viewing_time"":9133.899999856949},{""page_index"":4,""viewing_time"":11117.300000190735},{""page_index"":5,""viewing_time"":8102.199999809265},{""page_index"":6,""viewing_time"":7949.800000190735},{""page_index"":7,""viewing_time"":6498.699999809265},{""page_index"":8,""viewing_time"":3266.5}]","77664","","","","","","","","","","","","","","","","","","","","","","","",""
"pit-comprehension","109","995572","0.0-2.0-20.0-0.0","battery-v0.2","","""event"",""trial"",""time""
""fullscreenenter"",""1"",""1484""
","
","
","""event"",""trial"",""time""
""fullscreenenter"",""1"",""1484""
","
","","","5897","[""SPACE""]","0","20","10836","305","","","","","","","","","","","","","","","","","","",""
"pit-instructions","110","1004502","0.0-2.0-20.0-1.0","battery-v0.2","","""event"",""trial"",""time""
""fullscreenenter"",""1"",""1484""
","
","
","""event"",""trial"",""time""
""fullscreenenter"",""1"",""1484""
","
","","[{""page_index"":0,""viewing_time"":8897.700000047684}]","8898","","","","","","","","","","","","","","","","","","","","","","","",""
"pit-comprehension","111","1009618","0.0-2.0-21.0-0.0","battery-v0.2","","""event"",""trial"",""time""
""fullscreenenter"",""1"",""1484""
","
","
","""event"",""trial"",""time""
""fullscreenenter"",""1"",""1484""
","
","","","5110.900000095367","[""10""]","0","20","10836","305","","","","","","","","","","","","","","","","","","",""
"pit-instructions","112","1011982","0.0-2.0-21.0-1.0","battery-v0.2","","""event"",""trial"",""time""
""fullscreenenter"",""1"",""1484""
","
","
","""event"",""trial"",""time""
""fullscreenenter"",""1"",""1484""
","
","","[{""page_index"":0,""viewing_time"":2337.300000190735}]","2337.5","","","","","","","","","","","","","","","","","","","","","","","",""
"pit-comprehension","113","1018836","0.0-2.0-22.0-0.0","battery-v0.2","","""event"",""trial"",""time""
""fullscreenenter"",""1"",""1484""
","
","
","""event"",""trial"",""time""
""fullscreenenter"",""1"",""1484""
","
","","","6851.700000047684","[""-10""]","1","20","10836","305","","","","","","","","","","","","","","","","","","",""
"pit-instructions","114","1021884","0.0-2.0-22.0-1.0","battery-v0.2","","""event"",""trial"",""time""
""fullscreenenter"",""1"",""1484""
","
","
","""event"",""trial"",""time""
""fullscreenenter"",""1"",""1484""
","
","","[{""page_index"":0,""viewing_time"":3018.7999999523163}]","3019.2000000476837","","","","","","","","","","","","","","","","","","","","","","","",""
"pit-instructions","115","1026667","0.0-2.0-22.0-2.0-0.0","battery-v0.2","","""event"",""trial"",""time""
""fullscreenenter"",""1"",""1484""
","
","
","""event"",""trial"",""time""
""fullscreenenter"",""1"",""1484""
","
","","[{""page_index"":0,""viewing_time"":4780.700000047684}]","4781.099999904633","","","","","","","","","","","","","","","","","","","","","","","",""
"pit-comprehension","116","1032700","0.0-2.0-22.1-0.1","battery-v0.2","","""event"",""trial"",""time""
""fullscreenenter"",""1"",""1484""
","
","
","""event"",""trial"",""time""
""fullscreenenter"",""1"",""1484""
","
","","","6030.200000047684","[""0""]","0","20","10836","305","","","","","","","","","","","","","","","","","","",""
"pit-instructions","117","1036069","0.0-2.0-22.1-1.1","battery-v0.2","","""event"",""trial"",""time""
""fullscreenenter"",""1"",""1484""
","
","
","""event"",""trial"",""time""
""fullscreenenter"",""1"",""1484""
","
","","[{""page_index"":0,""viewing_time"":3345}]","3345.5","","","","","","","","","","","","","","","","","","","","","","","",""
"pit-comprehension","118","1044883","0.0-2.0-23.0-0.0","battery-v0.2","","""event"",""trial"",""time""
""fullscreenenter"",""1"",""1484""
","
","
","""event"",""trial"",""time""
""fullscreenenter"",""1"",""1484""
","
","","","8810","[""True""]","0","20","10836","305","","","","","","","","","","","","","","","","","","",""
"pit-instructions","119","1049867","0.0-2.0-23.0-1.0","battery-v0.2","","""event"",""trial"",""time""
""fullscreenenter"",""1"",""1484""
","
","
","""event"",""trial"",""time""
""fullscreenenter"",""1"",""1484""
","
","","[{""page_index"":0,""viewing_time"":4967.400000095367}]","4967.700000047684","","","","","","","","","","","","","","","","","","","","","","","",""
"pit-comprehension","120","1057684","0.0-2.0-24.0-0.0","battery-v0.2","","""event"",""trial"",""time""
""fullscreenenter"",""1"",""1484""
","
","
","""event"",""trial"",""time""
""fullscreenenter"",""1"",""1484""
","
","","","7813.200000047684","[""True""]","0","20","10836","305","","","","","","","","","","","","","","","","","","",""
"pit-instructions","121","1061266","0.0-2.0-24.0-1.0","battery-v0.2","","""event"",""trial"",""time""
""fullscreenenter"",""1"",""1484""
","
","
","""event"",""trial"",""time""
""fullscreenenter"",""1"",""1484""
","
","","[{""page_index"":0,""viewing_time"":3550.800000190735}]","3551.2000000476837","","","","","","","","","","","","","","","","","","","","","","","",""
"pit-comprehension","122","1067801","0.0-2.0-25.0-0.0","battery-v0.2","","""event"",""trial"",""time""
""fullscreenenter"",""1"",""1484""
","
","
","""event"",""trial"",""time""
""fullscreenenter"",""1"",""1484""
","
","","","6531.899999856949","[""True""]","0","20","10836","305","","","","","","","","","","","","","","","","","","",""
"pit-instructions","123","1070884","0.0-2.0-25.0-1.0","battery-v0.2","","""event"",""trial"",""time""
""fullscreenenter"",""1"",""1484""
","
","
","""event"",""trial"",""time""
""fullscreenenter"",""1"",""1484""
","
","","[{""page_index"":0,""viewing_time"":3051.7000000476837}]","3052","","","","","","","","","","","","","","","","","","","","","","","",""
"pit-comprehension","124","1081466","0.0-2.0-26.0-0.0","battery-v0.2","","""event"",""trial"",""time""
""fullscreenenter"",""1"",""1484""
","
","
","""event"",""trial"",""time""
""fullscreenenter"",""1"",""1484""
","
","","","10579.599999904633","[""False""]","0","20","10836","305","","","","","","","","","","","","","","","","","","",""
"pit-instructions","125","1085101","0.0-2.0-26.0-1.0","battery-v0.2","","""event"",""trial"",""time""
""fullscreenenter"",""1"",""1484""
","
","
","""event"",""trial"",""time""
""fullscreenenter"",""1"",""1484""
","
","","[{""page_index"":0,""viewing_time"":3604.5}]","3605","","","","","","","","","","","","","","","","","","","","","","","",""
"pit-instructions","126","1115549","0.0-3.0","battery-v0.2","","""event"",""trial"",""time""
""fullscreenenter"",""1"",""1484""
","
","
","""event"",""trial"",""time""
""fullscreenenter"",""1"",""1484""
","
","","[{""page_index"":0,""viewing_time"":14447.200000047684},{""page_index"":1,""viewing_time"":9582.799999952316},{""page_index"":2,""viewing_time"":6417.400000095367}]","30447.799999952316","","","","","","","","","","","","","","","","","","","","","","","",""
"pit-trial","127","1120416","0.0-4.0","battery-v0.2","","""event"",""trial"",""time""
""fullscreenenter"",""1"",""1484""
","
","
","""event"",""trial"",""time""
""fullscreenenter"",""1"",""1484""
","
","","","-1","","","20","10836","305","&#9733;","elianto","#3366ff99","-1","-1","1","+10","[]","0","1","","","10836","1","2","2","win","no-go","0"
"pit-trial","128","1124465","0.0-5.0","battery-v0.2","","""event"",""trial"",""time""
""fullscreenenter"",""1"",""1484""
","
","
","""event"",""trial"",""time""
""fullscreenenter"",""1"",""1484""
","
","","","1191.7000000476837","","","20","10836","305","&#9728;","elianto","#f73b6a7A","-1"," ","0","-10","[2043.4000000953674]","1","1","","","10836","2","0","4","lose","no-go","0"
"pit-trial","129","1128044","0.0-6.0","battery-v0.2","","""event"",""trial"",""time""
""fullscreenenter"",""1"",""1484""
","
","
","""event"",""trial"",""time""
""fullscreenenter"",""1"",""1484""
","
","","","721.4000000953674","","","20","10836","305","&#9730;","elianto","#3366ff99"," "," ","1","+10","[1571.9000000953674]","1","1","","","10836","3","1","1","win","go","0"
"pit-trial","130","1131959","0.0-7.0","battery-v0.2","","""event"",""trial"",""time""
""fullscreenenter"",""1"",""1484""
","
","
","""event"",""trial"",""time""
""fullscreenenter"",""1"",""1484""
","
","","","1055.6999998092651","","","20","10836","305","&#9752;","elianto","#f73b6a7A"," "," ","1","-10","[1906.5999999046326]","1","1","","","10836","4","3","3","lose","go","1"
"pit-trial","131","1135888","0.0-8.0","battery-v0.2","","""event"",""trial"",""time""
""fullscreenenter"",""1"",""1484""
","
","
","""event"",""trial"",""time""
""fullscreenenter"",""1"",""1484""
","
","","","1072.3000001907349","","","20","10836","305","&#9728;","elianto","#f73b6a7A","-1"," ","0","-10","[1922.8999998569489]","1","1","","","10836","5","0","4","lose","no-go","0"
"pit-trial","132","1139224","0.0-9.0","battery-v0.2","","""event"",""trial"",""time""
""fullscreenenter"",""1"",""1484""
","
","
","""event"",""trial"",""time""
""fullscreenenter"",""1"",""1484""
","
","","","479.7999999523163","","","20","10836","305","&#9730;","elianto","#3366ff99"," "," ","1","+10","[1330.6999998092651]","1","1","","","10836","6","1","1","win","go","0"
"pit-trial","133","1144084","0.0-10.0","battery-v0.2","","""event"",""trial"",""time""
""fullscreenenter"",""1"",""1484""
","
","
","""event"",""trial"",""time""
""fullscreenenter"",""1"",""1484""
","
","","","-1","","","20","10836","305","&#9752;","elianto","#f73b6a7A"," ","-1","0","-10","[]","0","1","","","10836","7","3","3","lose","go","0"
"pit-trial","134","1147512","0.0-11.0","battery-v0.2","","""event"",""trial"",""time""
""fullscreenenter"",""1"",""1484""
","
","
","""event"",""trial"",""time""
""fullscreenenter"",""1"",""1484""
","
","","","567.8000001907349","","","20","10836","305","&#9733;","elianto","#3366ff99","-1"," ","0","0","[1419.7000000476837]","1","1","","","10836","8","2","2","win","no-go","0"
"pit-trial","135","1152368","0.0-12.0","battery-v0.2","","""event"",""trial"",""time""
""fullscreenenter"",""1"",""1484""
","
","
","""event"",""trial"",""time""
""fullscreenenter"",""1"",""1484""
","
","","","-1","","","20","10836","305","&#9728;","elianto","#f73b6a7A","-1","-1","1","0","[]","0","1","","","10836","9","0","4","lose","no-go","0"
"pit-trial","136","1155773","0.0-13.0","battery-v0.2","","""event"",""trial"",""time""
""fullscreenenter"",""1"",""1484""
","
","
","""event"",""trial"",""time""
""fullscreenenter"",""1"",""1484""
","
","","","542.2999999523163","","","20","10836","305","&#9733;","elianto","#3366ff99","-1"," ","0","0","[1396.5]","1","1","","","10836","10","2","2","win","no-go","0"
"pit-trial","137","1159456","0.0-14.0","battery-v0.2","","""event"",""trial"",""time""
""fullscreenenter"",""1"",""1484""
","
","
","""event"",""trial"",""time""
""fullscreenenter"",""1"",""1484""
","
","","","824.8999998569489","","","20","10836","305","&#9752;","elianto","#f73b6a7A"," "," ","1","-10","[1675.5]","1","1","","","10836","11","3","3","lose","go","1"
"pit-trial","138","1163319","0.0-15.0","battery-v0.2","","""event"",""trial"",""time""
""fullscreenenter"",""1"",""1484""
","
","
","""event"",""trial"",""time""
""fullscreenenter"",""1"",""1484""
","
","","","1006.8999998569489","","","20","10836","305","&#9730;","elianto","#3366ff99"," "," ","1","+10","[1859.7999999523163]","1","1","","","10836","12","1","1","win","go","0"
"pit-trial","139","1167353","0.0-16.0","battery-v0.2","","""event"",""trial"",""time""
""fullscreenenter"",""1"",""1484""
","
","
","""event"",""trial"",""time""
""fullscreenenter"",""1"",""1484""
","
","","","1172.4000000953674","","","20","10836","305","&#9733;","elianto","#3366ff99","-1"," ","0","0","[2026.0999999046326]","1","1","","","10836","13","2","2","win","no-go","0"
"pit-trial","140","1170906","0.0-17.0","battery-v0.2","","""event"",""trial"",""time""
""fullscreenenter"",""1"",""1484""
","
","
","""event"",""trial"",""time""
""fullscreenenter"",""1"",""1484""
","
","","","693","","","20","10836","305","&#9730;","elianto","#3366ff99"," "," ","1","+10","[1545.3999998569489]","1","1","","","10836","14","1","1","win","go","0"
"pit-trial","141","1175769","0.0-18.0","battery-v0.2","","""event"",""trial"",""time""
""fullscreenenter"",""1"",""1484""
","
","
","""event"",""trial"",""time""
""fullscreenenter"",""1"",""1484""
","
","","","-1","","","20","10836","305","&#9728;","elianto","#f73b6a7A","-1","-1","1","0","[]","0","1","","","10836","15","0","4","lose","no-go","0"
"pit-trial","142","1179269","0.0-19.0","battery-v0.2","","""event"",""trial"",""time""
""fullscreenenter"",""1"",""1484""
","
","
","""event"",""trial"",""time""
""fullscreenenter"",""1"",""1484""
","
","","","642.0999999046326","","","20","10836","305","&#9752;","elianto","#f73b6a7A"," "," ","1","0","[1494.1999998092651]","1","1","","","10836","16","3","3","lose","go","0"
"pit-trial","143","1183337","0.0-20.0","battery-v0.2","","""event"",""trial"",""time""
""fullscreenenter"",""1"",""1484""
","
","
","""event"",""trial"",""time""
""fullscreenenter"",""1"",""1484""
","
","","","1205.3999998569489","","","20","10836","305","&#9733;","elianto","#3366ff99","-1"," ","0","0","[2058.399999856949]","1","1","","","10836","17","2","2","win","no-go","0"
"pit-trial","144","1187748","0.0-21.0","battery-v0.2","","""event"",""trial"",""time""
""fullscreenenter"",""1"",""1484""
","
","
","""event"",""trial"",""time""
""fullscreenenter"",""1"",""1484""
","
","","","1548.7000000476837","","","20","10836","305","&#9730;","elianto","#3366ff99"," "," ","1","+10","[2401.5999999046326]","1","1","","","10836","18","1","1","win","go","0"
"pit-trial","145","1192607","0.0-22.0","battery-v0.2","","""event"",""trial"",""time""
""fullscreenenter"",""1"",""1484""
","
","
","""event"",""trial"",""time""
""fullscreenenter"",""1"",""1484""
","
","","","-1","","","20","10836","305","&#9752;","elianto","#f73b6a7A"," ","-1","0","0","[4024.5]","1","1","","","10836","19","3","3","lose","go","1"
"pit-trial","146","1197470","0.0-23.0","battery-v0.2","","""event"",""trial"",""time""
""fullscreenenter"",""1"",""1484""
","
","
","""event"",""trial"",""time""
""fullscreenenter"",""1"",""1484""
","
","","","-1","","","20","10836","305","&#9728;","elianto","#f73b6a7A","-1","-1","1","-10","[]","0","1","","","10836","20","0","4","lose","no-go","1"
"pit-instructions","147","1215468","0.0-24.0","battery-v0.2","","""event"",""trial"",""time""
""fullscreenenter"",""1"",""1484""
","
","
","""event"",""trial"",""time""
""fullscreenenter"",""1"",""1484""
","
","","[{""page_index"":0,""viewing_time"":9376.700000047684},{""page_index"":1,""viewing_time"":8619.299999952316}]","17996.60000014305","","","","","","","","","","","","","","","","","","","","","","","",""
"pit-trial","148","1219213","0.0-25.0","battery-v0.2","","""event"",""trial"",""time""
""fullscreenenter"",""1"",""1484""
","
","
","""event"",""trial"",""time""
""fullscreenenter"",""1"",""1484""
","
","","","884.5999999046326","","","20","10836","305","y","elianto","#f73b6a7A"," "," ","1","-10","[1736.1999998092651]","1","2","","","10836","21","2","3","lose","go","1"
"pit-trial","149","1222760","0.0-26.0","battery-v0.2","","""event"",""trial"",""time""
""fullscreenenter"",""1"",""1484""
","
","
","""event"",""trial"",""time""
""fullscreenenter"",""1"",""1484""
","
","","","687.5999999046326","","","20","10836","305","m","elianto","#f73b6a7A"," "," ","1","0","[1538.8999998569489]","1","2","","","10836","22","0","3","lose","go","0"
"pit-trial","150","1226205","0.0-27.0","battery-v0.2","","""event"",""trial"",""time""
""fullscreenenter"",""1"",""1484""
","
","
","""event"",""trial"",""time""
""fullscreenenter"",""1"",""1484""
","
","","","585.9000000953674","","","20","10836","305","r","elianto","#3366ff99","-1"," ","0","+10","[1435.9000000953674]","1","2","","","10836","23","1","2","win","no-go","1"
"pit-trial","151","1230108","0.0-28.0","battery-v0.2","","""event"",""trial"",""time""
""fullscreenenter"",""1"",""1484""
","
","
","""event"",""trial"",""time""
""fullscreenenter"",""1"",""1484""
","
","","","1043.0999999046326","","","20","10836","305","h","elianto","#f73b6a7A","-1"," ","0","-10","[1894.8999998569489]","1","2","","","10836","24","3","4","lose","no-go","0"
"pit-trial","152","1233664","0.0-29.0","battery-v0.2","","""event"",""trial"",""time""
""fullscreenenter"",""1"",""1484""
","
","
","""event"",""trial"",""time""
""fullscreenenter"",""1"",""1484""
","
","","","699","","","20","10836","305","h","elianto","#f73b6a7A","-1"," ","0","-10","[1551.9000000953674]","1","2","","","10836","25","3","4","lose","no-go","0"
"pit-trial","153","1238525","0.0-30.0","battery-v0.2","","""event"",""trial"",""time""
""fullscreenenter"",""1"",""1484""
","
","
","""event"",""trial"",""time""
""fullscreenenter"",""1"",""1484""
","
","","","-1","","","20","10836","305","y","elianto","#f73b6a7A"," ","-1","0","-10","[]","0","2","","","10836","26","2","3","lose","go","0"
"pit-trial","154","1242026","0.0-31.0","battery-v0.2","","""event"",""trial"",""time""
""fullscreenenter"",""1"",""1484""
","
","
","""event"",""trial"",""time""
""fullscreenenter"",""1"",""1484""
","
","","","640","","","20","10836","305","r","elianto","#3366ff99","-1"," ","0","+10","[1491.7999999523163]","1","2","","","10836","27","1","2","win","no-go","1"
"pit-trial","155","1246887","0.0-32.0","battery-v0.2","","""event"",""trial"",""time""
""fullscreenenter"",""1"",""1484""
","
","
","""event"",""trial"",""time""
""fullscreenenter"",""1"",""1484""
","
","","","-1","","","20","10836","305","m","elianto","#f73b6a7A"," ","-1","0","-10","[]","0","2","","","10836","28","0","3","lose","go","0"
"pit-trial","156","1250737","0.0-33.0","battery-v0.2","","""event"",""trial"",""time""
""fullscreenenter"",""1"",""1484""
","
","
","""event"",""trial"",""time""
""fullscreenenter"",""1"",""1484""
","
","","","988.2999999523163","","","20","10836","305","y","elianto","#f73b6a7A"," "," ","1","-10","[1841.5999999046326]","1","2","","","10836","29","2","3","lose","go","1"
"pit-trial","157","1254090","0.0-34.0","battery-v0.2","","""event"",""trial"",""time""
""fullscreenenter"",""1"",""1484""
","
","
","""event"",""trial"",""time""
""fullscreenenter"",""1"",""1484""
","
","","","490.2999999523163","","","20","10836","305","r","elianto","#3366ff99","-1"," ","0","0","[1344.2999999523163]","1","2","","","10836","30","1","2","win","no-go","0"
"pit-trial","158","1258953","0.0-35.0","battery-v0.2","","""event"",""trial"",""time""
""fullscreenenter"",""1"",""1484""
","
","
","""event"",""trial"",""time""
""fullscreenenter"",""1"",""1484""
","
","","","-1","","","20","10836","305","h","elianto","#f73b6a7A","-1","-1","1","-10","[]","0","2","","","10836","31","3","4","lose","no-go","1"
"pit-trial","159","1263817","0.0-36.0","battery-v0.2","","""event"",""trial"",""time""
""fullscreenenter"",""1"",""1484""
","
","
","""event"",""trial"",""time""
""fullscreenenter"",""1"",""1484""
","
","","","-1","","","20","10836","305","m","elianto","#f73b6a7A"," ","-1","0","-10","[]","0","2","","","10836","32","0","3","lose","go","0"
"pit-trial","160","1267432","0.0-37.0","battery-v0.2","","""event"",""trial"",""time""
""fullscreenenter"",""1"",""1484""
","
","
","""event"",""trial"",""time""
""fullscreenenter"",""1"",""1484""
","
","","","754.7000000476837","","","20","10836","305","h","elianto","#f73b6a7A","-1"," ","0","-10","[1606.7000000476837]","1","2","","","10836","33","3","4","lose","no-go","0"
"pit-trial","161","1271437","0.0-38.0","battery-v0.2","","""event"",""trial"",""time""
""fullscreenenter"",""1"",""1484""
","
","
","""event"",""trial"",""time""
""fullscreenenter"",""1"",""1484""
","
","","","1143.8000001907349","","","20","10836","305","m","elianto","#f73b6a7A"," "," ","1","0","[1996]","1","2","","","10836","34","0","3","lose","go","0"
"pit-trial","162","1274885","0.0-39.0","battery-v0.2","","""event"",""trial"",""time""
""fullscreenenter"",""1"",""1484""
","
","
","""event"",""trial"",""time""
""fullscreenenter"",""1"",""1484""
","
","","","586.2000000476837","","","20","10836","305","r","elianto","#3366ff99","-1"," ","0","0","[1438.9000000953674]","1","2","","","10836","35","1","2","win","no-go","0"
"pit-trial","163","1279749","0.0-40.0","battery-v0.2","","""event"",""trial"",""time""
""fullscreenenter"",""1"",""1484""
","
","
","""event"",""trial"",""time""
""fullscreenenter"",""1"",""1484""
","
","","","-1","","","20","10836","305","y","elianto","#f73b6a7A"," ","-1","0","0","[]","0","2","","","10836","36","2","3","lose","go","1"
"pit-trial","164","1283635","0.0-41.0","battery-v0.2","","""event"",""trial"",""time""
""fullscreenenter"",""1"",""1484""
","
","
","""event"",""trial"",""time""
""fullscreenenter"",""1"",""1484""
","
","","","1030.5","","","20","10836","305","m","elianto","#f73b6a7A"," "," ","1","0","[1880.8999998569489]","1","2","","","10836","37","0","3","lose","go","0"
"pit-trial","165","1287450","0.0-42.0","battery-v0.2","","""event"",""trial"",""time""
""fullscreenenter"",""1"",""1484""
","
","
","""event"",""trial"",""time""
""fullscreenenter"",""1"",""1484""
","
","","","956.3000001907349","","","20","10836","305","h","elianto","#f73b6a7A","-1"," ","0","-10","[1808.5999999046326]","1","2","","","10836","38","3","4","lose","no-go","0"
"pit-trial","166","1291033","0.0-43.0","battery-v0.2","","""event"",""trial"",""time""
""fullscreenenter"",""1"",""1484""
","
","
","""event"",""trial"",""time""
""fullscreenenter"",""1"",""1484""
","
","","","721.0999999046326","","","20","10836","305","r","elianto","#3366ff99","-1"," ","0","+10","[1573.9000000953674]","1","2","","","10836","39","1","2","win","no-go","1"
"pit-trial","167","1295892","0.0-44.0","battery-v0.2","","""event"",""trial"",""time""
""fullscreenenter"",""1"",""1484""
","
","
","""event"",""trial"",""time""
""fullscreenenter"",""1"",""1484""
","
","","","-1","","","20","10836","305","y","elianto","#f73b6a7A"," ","-1","0","-10","[]","0","2","","","10836","40","2","3","lose","go","0"
"pit-trial","168","1300751","0.0-45.0","battery-v0.2","","""event"",""trial"",""time""
""fullscreenenter"",""1"",""1484""
","
","
","""event"",""trial"",""time""
""fullscreenenter"",""1"",""1484""
","
","","","-1","","","20","10836","305","y","elianto","#f73b6a7A"," ","-1","0","-10","[]","0","2","","","10836","41","2","3","lose","go","0"
"pit-trial","169","1304264","0.0-46.0","battery-v0.2","","""event"",""trial"",""time""
""fullscreenenter"",""1"",""1484""
","
","
","""event"",""trial"",""time""
""fullscreenenter"",""1"",""1484""
","
","","","656","","","20","10836","305","r","elianto","#3366ff99","-1"," ","0","0","[1508.2000000476837]","1","2","","","10836","42","1","2","win","no-go","0"
"pit-trial","170","1309122","0.0-47.0","battery-v0.2","","""event"",""trial"",""time""
""fullscreenenter"",""1"",""1484""
","
","
","""event"",""trial"",""time""
""fullscreenenter"",""1"",""1484""
","
","","","-1","","","20","10836","305","m","elianto","#f73b6a7A"," ","-1","0","0","[]","0","2","","","10836","43","0","3","lose","go","1"
"pit-trial","171","1313138","0.0-48.0","battery-v0.2","","""event"",""trial"",""time""
""fullscreenenter"",""1"",""1484""
","
","
","""event"",""trial"",""time""
""fullscreenenter"",""1"",""1484""
","
","","","1154.8999998569489","","","20","10836","305","h","elianto","#f73b6a7A","-1"," ","0","-10","[2007.2999999523163]","1","2","","","10836","44","3","4","lose","no-go","0"
"pit-trial","172","1316649","0.0-49.0","battery-v0.2","","""event"",""trial"",""time""
""fullscreenenter"",""1"",""1484""
","
","
","""event"",""trial"",""time""
""fullscreenenter"",""1"",""1484""
","
","","","649.2999999523163","","","20","10836","305","m","elianto","#f73b6a7A"," "," ","1","0","[1502.0999999046326]","1","2","","","10836","45","0","3","lose","go","0"
"pit-trial","173","1321511","0.0-50.0","battery-v0.2","","""event"",""trial"",""time""
""fullscreenenter"",""1"",""1484""
","
","
","""event"",""trial"",""time""
""fullscreenenter"",""1"",""1484""
","
","","","-1","","","20","10836","305","h","elianto","#f73b6a7A","-1","-1","1","-10","[]","0","2","","","10836","46","3","4","lose","no-go","1"
"pit-trial","174","1325024","0.0-51.0","battery-v0.2","","""event"",""trial"",""time""
""fullscreenenter"",""1"",""1484""
","
","
","""event"",""trial"",""time""
""fullscreenenter"",""1"",""1484""
","
","","","655.5","","","20","10836","305","r","elianto","#3366ff99","-1"," ","0","0","[1505.7999999523163]","1","2","","","10836","47","1","2","win","no-go","0"
"pit-trial","175","1329884","0.0-52.0","battery-v0.2","","""event"",""trial"",""time""
""fullscreenenter"",""1"",""1484""
","
","
","""event"",""trial"",""time""
""fullscreenenter"",""1"",""1484""
","
","","","-1","","","20","10836","305","y","elianto","#f73b6a7A"," ","-1","0","-10","[]","0","2","","","10836","48","2","3","lose","go","0"
"pit-trial","176","1333008","0.0-53.0","battery-v0.2","","""event"",""trial"",""time""
""fullscreenenter"",""1"",""1484""
","
","
","""event"",""trial"",""time""
""fullscreenenter"",""1"",""1484""
","
","","","264.10000014305115","","","20","10836","305","h","elianto","#f73b6a7A","-1"," ","0","-10","[1117.4000000953674]","1","2","","","10836","49","3","4","lose","no-go","0"
"pit-trial","177","1336501","0.0-54.0","battery-v0.2","","""event"",""trial"",""time""
""fullscreenenter"",""1"",""1484""
","
","
","""event"",""trial"",""time""
""fullscreenenter"",""1"",""1484""
","
","","","638","","","20","10836","305","r","elianto","#3366ff99","-1"," ","0","0","[1488.8999998569489]","1","2","","","10836","50","1","2","win","no-go","0"
"pit-trial","178","1341160","0.0-55.0","battery-v0.2","","""event"",""trial"",""time""
""fullscreenenter"",""1"",""1484""
","
","
","""event"",""trial"",""time""
""fullscreenenter"",""1"",""1484""
","
","","","1798.6000001430511","","","20","10836","305","m","elianto","#f73b6a7A"," "," ","1","-10","[2651.7000000476837]","1","2","","","10836","51","0","3","lose","go","1"
"pit-trial","179","1346022","0.0-56.0","battery-v0.2","","""event"",""trial"",""time""
""fullscreenenter"",""1"",""1484""
","
","
","""event"",""trial"",""time""
""fullscreenenter"",""1"",""1484""
","
","","","-1","","","20","10836","305","y","elianto","#f73b6a7A"," ","-1","0","-10","[]","0","2","","","10836","52","2","3","lose","go","0"
"pit-trial","180","1350440","0.0-57.0","battery-v0.2","","""event"",""trial"",""time""
""fullscreenenter"",""1"",""1484""
","
","
","""event"",""trial"",""time""
""fullscreenenter"",""1"",""1484""
","
","","","1559.1000001430511","","","20","10836","305","h","elianto","#f73b6a7A","-1"," ","0","-10","[2411.7000000476837]","1","2","","","10836","53","3","4","lose","no-go","0"
"pit-trial","181","1353842","0.0-58.0","battery-v0.2","","""event"",""trial"",""time""
""fullscreenenter"",""1"",""1484""
","
","
","""event"",""trial"",""time""
""fullscreenenter"",""1"",""1484""
","
","","","541.1000001430511","","","20","10836","305","r","elianto","#3366ff99","-1"," ","0","0","[1392.1999998092651]","1","2","","","10836","54","1","2","win","no-go","0"
"pit-trial","182","1358702","0.0-59.0","battery-v0.2","","""event"",""trial"",""time""
""fullscreenenter"",""1"",""1484""
","
","
","""event"",""trial"",""time""
""fullscreenenter"",""1"",""1484""
","
","","","-1","","","20","10836","305","y","elianto","#f73b6a7A"," ","-1","0","-10","[]","0","2","","","10836","55","2","3","lose","go","0"
"pit-trial","183","1363315","0.0-60.0","battery-v0.2","","""event"",""trial"",""time""
""fullscreenenter"",""1"",""1484""
","
","
","""event"",""trial"",""time""
""fullscreenenter"",""1"",""1484""
","
","","","1752.2999999523163","","","20","10836","305","m","elianto","#f73b6a7A"," "," ","1","0","[2605]","1","2","","","10836","56","0","3","lose","go","0"
"pit-trial","184","1366952","0.0-61.0","battery-v0.2","","""event"",""trial"",""time""
""fullscreenenter"",""1"",""1484""
","
","
","""event"",""trial"",""time""
""fullscreenenter"",""1"",""1484""
","
","","","777.7000000476837","","","20","10836","305","z","elianto","#3366ff99"," "," ","1","+10","[1628.6000001430511]","1","2","","","10836","57","4","1","win","go","0"
"pit-trial","185","1371816","0.0-62.0","battery-v0.2","","""event"",""trial"",""time""
""fullscreenenter"",""1"",""1484""
","
","
","""event"",""trial"",""time""
""fullscreenenter"",""1"",""1484""
","
","","","-1","","","20","10836","305","m","elianto","#f73b6a7A"," ","-1","0","0","[2914.5]","1","2","","","10836","58","0","3","lose","go","1"
"pit-trial","186","1376675","0.0-63.0","battery-v0.2","","""event"",""trial"",""time""
""fullscreenenter"",""1"",""1484""
","
","
","""event"",""trial"",""time""
""fullscreenenter"",""1"",""1484""
","
","","","-1","","","20","10836","305","y","elianto","#f73b6a7A"," ","-1","0","-10","[]","0","2","","","10836","59","2","3","lose","go","0"
"pit-trial","187","1381538","0.0-64.0","battery-v0.2","","""event"",""trial"",""time""
""fullscreenenter"",""1"",""1484""
","
","
","""event"",""trial"",""time""
""fullscreenenter"",""1"",""1484""
","
","","","-1","","","20","10836","305","h","elianto","#f73b6a7A","-1","-1","1","-10","[]","0","2","","","10836","60","3","4","lose","no-go","1"
"pit-trial","188","1385147","0.0-65.0","battery-v0.2","","""event"",""trial"",""time""
""fullscreenenter"",""1"",""1484""
","
","
","""event"",""trial"",""time""
""fullscreenenter"",""1"",""1484""
","
","","","750.5","","","20","10836","305","r","elianto","#3366ff99","-1"," ","0","0","[1602.8000001907349]","1","2","","","10836","61","1","2","win","no-go","0"
"pit-trial","189","1389863","0.0-66.0","battery-v0.2","","""event"",""trial"",""time""
""fullscreenenter"",""1"",""1484""
","
","
","""event"",""trial"",""time""
""fullscreenenter"",""1"",""1484""
","
","","","1857.0999999046326","","","20","10836","305","h","elianto","#f73b6a7A","-1"," ","0","0","[2708.4000000953674]","1","2","","","10836","62","3","4","lose","no-go","1"
"pit-trial","190","1393452","0.0-67.0","battery-v0.2","","""event"",""trial"",""time""
""fullscreenenter"",""1"",""1484""
","
","
","""event"",""trial"",""time""
""fullscreenenter"",""1"",""1484""
","
","","","731.2999999523163","","","20","10836","305","z","elianto","#3366ff99"," "," ","1","+10","[1582.5999999046326]","1","2","","","10836","63","4","1","win","go","0"
"pit-trial","191","1398316","0.0-68.0","battery-v0.2","","""event"",""trial"",""time""
""fullscreenenter"",""1"",""1484""
","
","
","""event"",""trial"",""time""
""fullscreenenter"",""1"",""1484""
","
","","","-1","","","20","10836","305","y","elianto","#f73b6a7A"," ","-1","0","-10","[]","0","2","","","10836","64","2","3","lose","go","0"
"pit-trial","192","1401966","0.0-69.0","battery-v0.2","","""event"",""trial"",""time""
""fullscreenenter"",""1"",""1484""
","
","
","""event"",""trial"",""time""
""fullscreenenter"",""1"",""1484""
","
","","","789.5","","","20","10836","305","z","elianto","#3366ff99"," "," ","1","+10","[1641.3000001907349]","1","2","","","10836","65","4","1","win","go","0"
"pit-trial","193","1405593","0.0-70.0","battery-v0.2","","""event"",""trial"",""time""
""fullscreenenter"",""1"",""1484""
","
","
","""event"",""trial"",""time""
""fullscreenenter"",""1"",""1484""
","
","","","769.1999998092651","","","20","10836","305","r","elianto","#3366ff99","-1"," ","0","0","[1620.6999998092651]","1","2","","","10836","66","1","2","win","no-go","0"
"pit-trial","194","1409266","0.0-71.0","battery-v0.2","","""event"",""trial"",""time""
""fullscreenenter"",""1"",""1484""
","
","
","""event"",""trial"",""time""
""fullscreenenter"",""1"",""1484""
","
","","","815","","","20","10836","305","c","elianto","#3366ff99","-1"," ","0","0","[1665.9000000953674]","1","2","","","10836","67","5","2","win","no-go","0"
"pit-trial","195","1413009","0.0-72.0","battery-v0.2","","""event"",""trial"",""time""
""fullscreenenter"",""1"",""1484""
","
","
","""event"",""trial"",""time""
""fullscreenenter"",""1"",""1484""
","
","","","885.1000001430511","","","20","10836","305","h","elianto","#f73b6a7A","-1"," ","0","-10","[1738.3999998569489]","1","2","","","10836","68","3","4","lose","no-go","0"
"pit-trial","196","1416673","0.0-73.0","battery-v0.2","","""event"",""trial"",""time""
""fullscreenenter"",""1"",""1484""
","
","
","""event"",""trial"",""time""
""fullscreenenter"",""1"",""1484""
","
","","","804.1999998092651","","","20","10836","305","c","elianto","#3366ff99","-1"," ","0","0","[1655.2999999523163]","1","2","","","10836","69","5","2","win","no-go","0"
"pit-trial","197","1421537","0.0-74.0","battery-v0.2","","""event"",""trial"",""time""
""fullscreenenter"",""1"",""1484""
","
","
","""event"",""trial"",""time""
""fullscreenenter"",""1"",""1484""
","
","","","-1","","","20","10836","305","r","elianto","#3366ff99","-1","-1","1","+10","[]","0","2","","","10836","70","1","2","win","no-go","0"
"pit-trial","198","1426401","0.0-75.0","battery-v0.2","","""event"",""trial"",""time""
""fullscreenenter"",""1"",""1484""
","
","
","""event"",""trial"",""time""
""fullscreenenter"",""1"",""1484""
","
","","","-1","","","20","10836","305","y","elianto","#f73b6a7A"," ","-1","0","-10","[]","0","2","","","10836","71","2","3","lose","go","0"
"pit-trial","199","1430304","0.0-76.0","battery-v0.2","","""event"",""trial"",""time""
""fullscreenenter"",""1"",""1484""
","
","
","""event"",""trial"",""time""
""fullscreenenter"",""1"",""1484""
","
","","","1044.2000000476837","","","20","10836","305","z","elianto","#3366ff99"," "," ","1","+10","[1896.3999998569489]","1","2","","","10836","72","4","1","win","go","0"
"pit-trial","200","1434500","0.0-77.0","battery-v0.2","","""event"",""trial"",""time""
""fullscreenenter"",""1"",""1484""
","
","
","""event"",""trial"",""time""
""fullscreenenter"",""1"",""1484""
","
","","","1332.5999999046326","","","20","10836","305","h","elianto","#f73b6a7A","-1"," ","0","-10","[2186.7000000476837]","1","2","","","10836","73","3","4","lose","no-go","0"
"pit-trial","201","1438174","0.0-78.0","battery-v0.2","","""event"",""trial"",""time""
""fullscreenenter"",""1"",""1484""
","
","
","""event"",""trial"",""time""
""fullscreenenter"",""1"",""1484""
","
","","","816.2999999523163","","","20","10836","305","z","elianto","#3366ff99"," "," ","1","+10","[1667.4000000953674]","1","2","","","10836","74","4","1","win","go","0"
"pit-trial","202","1443038","0.0-79.0","battery-v0.2","","""event"",""trial"",""time""
""fullscreenenter"",""1"",""1484""
","
","
","""event"",""trial"",""time""
""fullscreenenter"",""1"",""1484""
","
","","","-1","","","20","10836","305","c","elianto","#3366ff99","-1","-1","1","+10","[]","0","2","","","10836","75","5","2","win","no-go","0"
"pit-trial","203","1447898","0.0-80.0","battery-v0.2","","""event"",""trial"",""time""
""fullscreenenter"",""1"",""1484""
","
","
","""event"",""trial"",""time""
""fullscreenenter"",""1"",""1484""
","
","","","-1","","","20","10836","305","r","elianto","#3366ff99","-1","-1","1","0","[]","0","2","","","10836","76","1","2","win","no-go","1"
"pit-trial","204","1451647","0.0-81.0","battery-v0.2","","""event"",""trial"",""time""
""fullscreenenter"",""1"",""1484""
","
","
","""event"",""trial"",""time""
""fullscreenenter"",""1"",""1484""
","
","","","893.1000001430511","","","20","10836","305","c","elianto","#3366ff99","-1"," ","0","0","[1743.3999998569489]","1","2","","","10836","77","5","2","win","no-go","0"
"pit-trial","205","1455956","0.0-82.0","battery-v0.2","","""event"",""trial"",""time""
""fullscreenenter"",""1"",""1484""
","
","
","""event"",""trial"",""time""
""fullscreenenter"",""1"",""1484""
","
","","","1449.7999999523163","","","20","10836","305","h","elianto","#f73b6a7A","-1"," ","0","-10","[2302.0999999046326]","1","2","","","10836","78","3","4","lose","no-go","0"
"pit-trial","206","1460669","0.0-83.0","battery-v0.2","","""event"",""trial"",""time""
""fullscreenenter"",""1"",""1484""
","
","
","""event"",""trial"",""time""
""fullscreenenter"",""1"",""1484""
","
","","","1852.5999999046326","","","20","10836","305","z","elianto","#3366ff99"," "," ","1","+10","[2705.2000000476837]","1","2","","","10836","79","4","1","win","go","0"
"pit-trial","207","1464666","0.0-84.0","battery-v0.2","","""event"",""trial"",""time""
""fullscreenenter"",""1"",""1484""
","
","
","""event"",""trial"",""time""
""fullscreenenter"",""1"",""1484""
","
","","","1135.8999998569489","","","20","10836","305","z","elianto","#3366ff99"," "," ","1","+10","[1988]","1","2","","","10836","80","4","1","win","go","0"
"pit-trial","208","1468205","0.0-85.0","battery-v0.2","","""event"",""trial"",""time""
""fullscreenenter"",""1"",""1484""
","
","
","""event"",""trial"",""time""
""fullscreenenter"",""1"",""1484""
","
","","","676.7999999523163","","","20","10836","305","z","elianto","#3366ff99"," "," ","1","+10","[1529.5999999046326]","1","2","","","10836","81","4","1","win","go","0"
"pit-trial","209","1473069","0.0-86.0","battery-v0.2","","""event"",""trial"",""time""
""fullscreenenter"",""1"",""1484""
","
","
","""event"",""trial"",""time""
""fullscreenenter"",""1"",""1484""
","
","","","-1","","","20","10836","305","t","elianto","#f73b6a7A","-1","-1","1","0","[]","0","2","","","10836","82","7","4","lose","no-go","0"
"pit-trial","210","1477932","0.0-87.0","battery-v0.2","","""event"",""trial"",""time""
""fullscreenenter"",""1"",""1484""
","
","
","""event"",""trial"",""time""
""fullscreenenter"",""1"",""1484""
","
","","","-1","","","20","10836","305","c","elianto","#3366ff99","-1","-1","1","+10","[]","0","2","","","10836","83","5","2","win","no-go","0"
"pit-trial","211","1482792","0.0-88.0","battery-v0.2","","""event"",""trial"",""time""
""fullscreenenter"",""1"",""1484""
","
","
","""event"",""trial"",""time""
""fullscreenenter"",""1"",""1484""
","
","","","-1","","","20","10836","305","h","elianto","#f73b6a7A","-1","-1","1","0","[]","0","2","","","10836","84","3","4","lose","no-go","0"
"pit-trial","212","1486631","0.0-89.0","battery-v0.2","","""event"",""trial"",""time""
""fullscreenenter"",""1"",""1484""
","
","
","""event"",""trial"",""time""
""fullscreenenter"",""1"",""1484""
","
","","","979","","","20","10836","305","b","elianto","#f73b6a7A"," "," ","1","0","[1830.4000000953674]","1","2","","","10836","85","6","3","lose","go","0"
"pit-trial","213","1491025","0.0-90.0","battery-v0.2","","""event"",""trial"",""time""
""fullscreenenter"",""1"",""1484""
","
","
","""event"",""trial"",""time""
""fullscreenenter"",""1"",""1484""
","
","","","1533.4000000953674","","","20","10836","305","z","elianto","#3366ff99"," "," ","1","0","[2385.2999999523163]","1","2","","","10836","86","4","1","win","go","1"
"pit-trial","214","1494787","0.0-91.0","battery-v0.2","","""event"",""trial"",""time""
""fullscreenenter"",""1"",""1484""
","
","
","""event"",""trial"",""time""
""fullscreenenter"",""1"",""1484""
","
","","","904.5","","","20","10836","305","c","elianto","#3366ff99","-1"," ","0","0","[1755.6000001430511]","1","2","","","10836","87","5","2","win","no-go","0"
"pit-trial","215","1499653","0.0-92.0","battery-v0.2","","""event"",""trial"",""time""
""fullscreenenter"",""1"",""1484""
","
","
","""event"",""trial"",""time""
""fullscreenenter"",""1"",""1484""
","
","","","-1","","","20","10836","305","t","elianto","#f73b6a7A","-1","-1","1","0","[]","0","2","","","10836","88","7","4","lose","no-go","0"
"pit-trial","216","1504445","0.0-93.0","battery-v0.2","","""event"",""trial"",""time""
""fullscreenenter"",""1"",""1484""
","
","
","""event"",""trial"",""time""
""fullscreenenter"",""1"",""1484""
","
","","","1933.8999998569489","","","20","10836","305","c","elianto","#3366ff99","-1"," ","0","0","[2786.199999809265]","1","2","","","10836","89","5","2","win","no-go","0"
"pit-trial","217","1509309","0.0-94.0","battery-v0.2","","""event"",""trial"",""time""
""fullscreenenter"",""1"",""1484""
","
","
","""event"",""trial"",""time""
""fullscreenenter"",""1"",""1484""
","
","","","-1","","","20","10836","305","b","elianto","#f73b6a7A"," ","-1","0","-10","[]","0","2","","","10836","90","6","3","lose","go","0"
"pit-trial","218","1513451","0.0-95.0","battery-v0.2","","""event"",""trial"",""time""
""fullscreenenter"",""1"",""1484""
","
","
","""event"",""trial"",""time""
""fullscreenenter"",""1"",""1484""
","
","","","1284.7999999523163","","","20","10836","305","z","elianto","#3366ff99"," "," ","1","0","[2135.199999809265]","1","2","","","10836","91","4","1","win","go","1"
"pit-trial","219","1518312","0.0-96.0","battery-v0.2","","""event"",""trial"",""time""
""fullscreenenter"",""1"",""1484""
","
","
","""event"",""trial"",""time""
""fullscreenenter"",""1"",""1484""
","
","","","-1","","","20","10836","305","t","elianto","#f73b6a7A","-1","-1","1","0","[]","0","2","","","10836","92","7","4","lose","no-go","0"
"pit-trial","220","1521966","0.0-97.0","battery-v0.2","","""event"",""trial"",""time""
""fullscreenenter"",""1"",""1484""
","
","
","""event"",""trial"",""time""
""fullscreenenter"",""1"",""1484""
","
","","","797.6000001430511","","","20","10836","305","f","elianto","#3366ff99"," "," ","1","+10","[1648.4000000953674]","1","2","","","10836","93","8","1","win","go","0"
"pit-trial","221","1526826","0.0-98.0","battery-v0.2","","""event"",""trial"",""time""
""fullscreenenter"",""1"",""1484""
","
","
","""event"",""trial"",""time""
""fullscreenenter"",""1"",""1484""
","
","","","-1","","","20","10836","305","b","elianto","#f73b6a7A"," ","-1","0","-10","[]","0","2","","","10836","94","6","3","lose","go","0"
"pit-trial","222","1531686","0.0-99.0","battery-v0.2","","""event"",""trial"",""time""
""fullscreenenter"",""1"",""1484""
","
","
","""event"",""trial"",""time""
""fullscreenenter"",""1"",""1484""
","
","","","-1","","","20","10836","305","c","elianto","#3366ff99","-1","-1","1","+10","[]","0","2","","","10836","95","5","2","win","no-go","0"
"pit-trial","223","1536552","0.0-100.0","battery-v0.2","","""event"",""trial"",""time""
""fullscreenenter"",""1"",""1484""
","
","
","""event"",""trial"",""time""
""fullscreenenter"",""1"",""1484""
","
","","","-1","","","20","10836","305","t","elianto","#f73b6a7A","-1","-1","1","0","[]","0","2","","","10836","96","7","4","lose","no-go","0"
"pit-trial","224","1541413","0.0-101.0","battery-v0.2","","""event"",""trial"",""time""
""fullscreenenter"",""1"",""1484""
","
","
","""event"",""trial"",""time""
""fullscreenenter"",""1"",""1484""
","
","","","-1","","","20","10836","305","b","elianto","#f73b6a7A"," ","-1","0","0","[]","0","2","","","10836","97","6","3","lose","go","1"
"pit-trial","225","1545927","0.0-102.0","battery-v0.2","","""event"",""trial"",""time""
""fullscreenenter"",""1"",""1484""
","
","
","""event"",""trial"",""time""
""fullscreenenter"",""1"",""1484""
","
","","","1656.9000000953674","","","20","10836","305","f","elianto","#3366ff99"," "," ","1","+10","[2507.7999999523163]","1","2","","","10836","98","8","1","win","go","0"
"pit-trial","226","1550789","0.0-103.0","battery-v0.2","","""event"",""trial"",""time""
""fullscreenenter"",""1"",""1484""
","
","
","""event"",""trial"",""time""
""fullscreenenter"",""1"",""1484""
","
","","","-1","","","20","10836","305","t","elianto","#f73b6a7A","-1","-1","1","-10","[]","0","2","","","10836","99","7","4","lose","no-go","1"
"pit-trial","227","1555654","0.0-104.0","battery-v0.2","","""event"",""trial"",""time""
""fullscreenenter"",""1"",""1484""
","
","
","""event"",""trial"",""time""
""fullscreenenter"",""1"",""1484""
","
","","","-1","","","20","10836","305","c","elianto","#3366ff99","-1","-1","1","+10","[]","0","2","","","10836","100","5","2","win","no-go","0"
"pit-trial","228","1560518","0.0-105.0","battery-v0.2","","""event"",""trial"",""time""
""fullscreenenter"",""1"",""1484""
","
","
","""event"",""trial"",""time""
""fullscreenenter"",""1"",""1484""
","
","","","-1","","","20","10836","305","c","elianto","#3366ff99","-1","-1","1","+10","[4136.899999856949]","1","2","","","10836","101","5","2","win","no-go","0"
"pit-trial","229","1565383","0.0-106.0","battery-v0.2","","""event"",""trial"",""time""
""fullscreenenter"",""1"",""1484""
","
","
","""event"",""trial"",""time""
""fullscreenenter"",""1"",""1484""
","
","","","-1","","","20","10836","305","t","elianto","#f73b6a7A","-1","-1","1","0","[]","0","2","","","10836","102","7","4","lose","no-go","0"
"pit-trial","230","1570243","0.0-107.0","battery-v0.2","","""event"",""trial"",""time""
""fullscreenenter"",""1"",""1484""
","
","
","""event"",""trial"",""time""
""fullscreenenter"",""1"",""1484""
","
","","","-1","","","20","10836","305","f","elianto","#3366ff99"," ","-1","0","0","[]","0","2","","","10836","103","8","1","win","go","0"
"pit-trial","231","1573874","0.0-108.0","battery-v0.2","","""event"",""trial"",""time""
""fullscreenenter"",""1"",""1484""
","
","
","""event"",""trial"",""time""
""fullscreenenter"",""1"",""1484""
","
","","","772.8999998569489","","","20","10836","305","n","elianto","#3366ff99"," "," ","1","0","[1623.2000000476837]","1","2","","","10836","104","9","1","win","go","1"
"pit-trial","232","1578735","0.0-109.0","battery-v0.2","","""event"",""trial"",""time""
""fullscreenenter"",""1"",""1484""
","
","
","""event"",""trial"",""time""
""fullscreenenter"",""1"",""1484""
","
","","","-1","","","20","10836","305","b","elianto","#f73b6a7A"," ","-1","0","0","[]","0","2","","","10836","105","6","3","lose","go","1"
"pit-trial","233","1583598","0.0-110.0","battery-v0.2","","""event"",""trial"",""time""
""fullscreenenter"",""1"",""1484""
","
","
","""event"",""trial"",""time""
""fullscreenenter"",""1"",""1484""
","
","","","-1","","","20","10836","305","f","elianto","#3366ff99"," ","-1","0","0","[]","0","2","","","10836","106","8","1","win","go","0"
"pit-trial","234","1587618","0.0-111.0","battery-v0.2","","""event"",""trial"",""time""
""fullscreenenter"",""1"",""1484""
","
","
","""event"",""trial"",""time""
""fullscreenenter"",""1"",""1484""
","
","","","1161.6000001430511","","","20","10836","305","n","elianto","#3366ff99"," "," ","1","0","[2013.8999998569489]","1","2","","","10836","107","9","1","win","go","1"
"pit-trial","235","1592477","0.0-112.0","battery-v0.2","","""event"",""trial"",""time""
""fullscreenenter"",""1"",""1484""
","
","
","""event"",""trial"",""time""
""fullscreenenter"",""1"",""1484""
","
","","","-1","","","20","10836","305","z","elianto","#3366ff99"," ","-1","0","0","[]","0","2","","","10836","108","4","1","win","go","0"
"pit-trial","236","1596483","0.0-113.0","battery-v0.2","","""event"",""trial"",""time""
""fullscreenenter"",""1"",""1484""
","
","
","""event"",""trial"",""time""
""fullscreenenter"",""1"",""1484""
","
","","","1145.7000000476837","","","20","10836","305","c","elianto","#3366ff99","-1"," ","0","0","[1996.8999998569489]","1","2","","","10836","109","5","2","win","no-go","0"
"pit-trial","237","1601339","0.0-114.0","battery-v0.2","","""event"",""trial"",""time""
""fullscreenenter"",""1"",""1484""
","
","
","""event"",""trial"",""time""
""fullscreenenter"",""1"",""1484""
","
","","","-1","","","20","10836","305","b","elianto","#f73b6a7A"," ","-1","0","0","[]","0","2","","","10836","110","6","3","lose","go","1"
"pit-trial","238","1605640","0.0-115.0","battery-v0.2","","""event"",""trial"",""time""
""fullscreenenter"",""1"",""1484""
","
","
","""event"",""trial"",""time""
""fullscreenenter"",""1"",""1484""
","
","","","1424.9000000953674","","","20","10836","305","n","elianto","#3366ff99"," "," ","1","+10","[2292.0999999046326]","1","2","","","10836","111","9","1","win","go","0"
"pit-trial","239","1609155","0.0-116.0","battery-v0.2","","""event"",""trial"",""time""
""fullscreenenter"",""1"",""1484""
","
","
","""event"",""trial"",""time""
""fullscreenenter"",""1"",""1484""
","
","","","655.8999998569489","","","20","10836","305","f","elianto","#3366ff99"," "," ","1","+10","[1506.5999999046326]","1","2","","","10836","112","8","1","win","go","0"
"pit-trial","240","1613604","0.0-117.0","battery-v0.2","","""event"",""trial"",""time""
""fullscreenenter"",""1"",""1484""
","
","
","""event"",""trial"",""time""
""fullscreenenter"",""1"",""1484""
","
","","","1588.5","","","20","10836","305","n","elianto","#3366ff99"," "," ","1","+10","[2443.399999856949]","1","2","","","10836","113","9","1","win","go","0"
"pit-trial","241","1617523","0.0-118.0","battery-v0.2","","""event"",""trial"",""time""
""fullscreenenter"",""1"",""1484""
","
","
","""event"",""trial"",""time""
""fullscreenenter"",""1"",""1484""
","
","","","1058.2000000476837","","","20","10836","305","f","elianto","#3366ff99"," "," ","1","+10","[1910.8000001907349]","1","2","","","10836","114","8","1","win","go","0"
"pit-trial","242","1622388","0.0-119.0","battery-v0.2","","""event"",""trial"",""time""
""fullscreenenter"",""1"",""1484""
","
","
","""event"",""trial"",""time""
""fullscreenenter"",""1"",""1484""
","
","","","-1","","","20","10836","305","c","elianto","#3366ff99","-1","-1","1","+10","[]","0","2","","","10836","115","5","2","win","no-go","0"
"pit-trial","243","1627248","0.0-120.0","battery-v0.2","","""event"",""trial"",""time""
""fullscreenenter"",""1"",""1484""
","
","
","""event"",""trial"",""time""
""fullscreenenter"",""1"",""1484""
","
","","","-1","","","20","10836","305","b","elianto","#f73b6a7A"," ","-1","0","-10","[]","0","2","","","10836","116","6","3","lose","go","0"
"pit-trial","244","1631644","0.0-121.0","battery-v0.2","","""event"",""trial"",""time""
""fullscreenenter"",""1"",""1484""
","
","
","""event"",""trial"",""time""
""fullscreenenter"",""1"",""1484""
","
","","","1540.3000001907349","","","20","10836","305","n","elianto","#3366ff99"," "," ","1","+10","[2392.5]","1","2","","","10836","117","9","1","win","go","0"
"pit-trial","245","1635575","0.0-122.0","battery-v0.2","","""event"",""trial"",""time""
""fullscreenenter"",""1"",""1484""
","
","
","""event"",""trial"",""time""
""fullscreenenter"",""1"",""1484""
","
","","","1073.8999998569489","","","20","10836","305","f","elianto","#3366ff99"," "," ","1","+10","[1925.7999999523163]","1","2","","","10836","118","8","1","win","go","0"
"pit-trial","246","1640440","0.0-123.0","battery-v0.2","","""event"",""trial"",""time""
""fullscreenenter"",""1"",""1484""
","
","
","""event"",""trial"",""time""
""fullscreenenter"",""1"",""1484""
","
","","","-1","","","20","10836","305","b","elianto","#f73b6a7A"," ","-1","0","-10","[]","0","2","","","10836","119","6","3","lose","go","0"
"pit-trial","247","1645298","0.0-124.0","battery-v0.2","","""event"",""trial"",""time""
""fullscreenenter"",""1"",""1484""
","
","
","""event"",""trial"",""time""
""fullscreenenter"",""1"",""1484""
","
","","","-1","","","20","10836","305","c","elianto","#3366ff99","-1","-1","1","+10","[]","0","2","","","10836","120","5","2","win","no-go","0"
"pit-trial","248","1650161","0.0-125.0","battery-v0.2","","""event"",""trial"",""time""
""fullscreenenter"",""1"",""1484""
","
","
","""event"",""trial"",""time""
""fullscreenenter"",""1"",""1484""
","
","","","-1","","","20","10836","305","t","elianto","#f73b6a7A","-1","-1","1","0","[]","0","2","","","10836","121","7","4","lose","no-go","0"
"pit-trial","249","1654388","0.0-126.0","battery-v0.2","","""event"",""trial"",""time""
""fullscreenenter"",""1"",""1484""
","
","
","""event"",""trial"",""time""
""fullscreenenter"",""1"",""1484""
","
","","","1366.7999999523163","","","20","10836","305","n","elianto","#3366ff99"," "," ","1","+10","[2218.600000143051]","1","2","","","10836","122","9","1","win","go","0"
"pit-trial","250","1659250","0.0-127.0","battery-v0.2","","""event"",""trial"",""time""
""fullscreenenter"",""1"",""1484""
","
","
","""event"",""trial"",""time""
""fullscreenenter"",""1"",""1484""
","
","","","-1","","","20","10836","305","b","elianto","#f73b6a7A"," ","-1","0","-10","[]","0","2","","","10836","123","6","3","lose","go","0"
"pit-trial","251","1662853","0.0-128.0","battery-v0.2","","""event"",""trial"",""time""
""fullscreenenter"",""1"",""1484""
","
","
","""event"",""trial"",""time""
""fullscreenenter"",""1"",""1484""
","
","","","742.7000000476837","","","20","10836","305","f","elianto","#3366ff99"," "," ","1","+10","[1595.3000001907349]","1","2","","","10836","124","8","1","win","go","0"
"pit-trial","252","1666970","0.0-129.0","battery-v0.2","","""event"",""trial"",""time""
""fullscreenenter"",""1"",""1484""
","
","
","""event"",""trial"",""time""
""fullscreenenter"",""1"",""1484""
","
","","","1257.5","","","20","10836","305","n","elianto","#3366ff99"," "," ","1","+10","[2108.7000000476837]","1","2","","","10836","125","9","1","win","go","0"
"pit-trial","253","1671834","0.0-130.0","battery-v0.2","","""event"",""trial"",""time""
""fullscreenenter"",""1"",""1484""
","
","
","""event"",""trial"",""time""
""fullscreenenter"",""1"",""1484""
","
","","","-1","","","20","10836","305","t","elianto","#f73b6a7A","-1","-1","1","0","[]","0","2","","","10836","126","7","4","lose","no-go","0"
"pit-trial","254","1675744","0.0-131.0","battery-v0.2","","""event"",""trial"",""time""
""fullscreenenter"",""1"",""1484""
","
","
","""event"",""trial"",""time""
""fullscreenenter"",""1"",""1484""
","
","","","1050","","","20","10836","305","b","elianto","#f73b6a7A"," "," ","1","0","[1900.8000001907349]","1","2","","","10836","127","6","3","lose","go","0"
"pit-trial","255","1679413","0.0-132.0","battery-v0.2","","""event"",""trial"",""time""
""fullscreenenter"",""1"",""1484""
","
","
","""event"",""trial"",""time""
""fullscreenenter"",""1"",""1484""
","
","","","810.1000001430511","","","20","10836","305","f","elianto","#3366ff99"," "," ","1","+10","[1661.1000001430511]","1","2","","","10836","128","8","1","win","go","0"
"pit-trial","256","1683663","0.0-133.0","battery-v0.2","","""event"",""trial"",""time""
""fullscreenenter"",""1"",""1484""
","
","
","""event"",""trial"",""time""
""fullscreenenter"",""1"",""1484""
","
","","","1392.2000000476837","","","20","10836","305","n","elianto","#3366ff99"," "," ","1","+10","[2244.5]","1","2","","","10836","129","9","1","win","go","0"
"pit-trial","257","1688527","0.0-134.0","battery-v0.2","","""event"",""trial"",""time""
""fullscreenenter"",""1"",""1484""
","
","
","""event"",""trial"",""time""
""fullscreenenter"",""1"",""1484""
","
","","","-1","","","20","10836","305","t","elianto","#f73b6a7A","-1","-1","1","-10","[]","0","2","","","10836","130","7","4","lose","no-go","1"
"pit-trial","258","1692496","0.0-135.0","battery-v0.2","","""event"",""trial"",""time""
""fullscreenenter"",""1"",""1484""
","
","
","""event"",""trial"",""time""
""fullscreenenter"",""1"",""1484""
","
","","","1113","","","20","10836","305","f","elianto","#3366ff99"," "," ","1","+10","[1964.1000001430511]","1","2","","","10836","131","8","1","win","go","0"
"pit-trial","259","1697357","0.0-136.0","battery-v0.2","","""event"",""trial"",""time""
""fullscreenenter"",""1"",""1484""
","
","
","""event"",""trial"",""time""
""fullscreenenter"",""1"",""1484""
","
","","","-1","","","20","10836","305","b","elianto","#f73b6a7A"," ","-1","0","0","[3045.9000000953674]","1","2","","","10836","132","6","3","lose","go","1"
"pit-trial","260","1701731","0.0-137.0","battery-v0.2","","""event"",""trial"",""time""
""fullscreenenter"",""1"",""1484""
","
","
","""event"",""trial"",""time""
""fullscreenenter"",""1"",""1484""
","
","","","1513.3999998569489","","","20","10836","305","b","elianto","#f73b6a7A"," "," ","1","0","[2364.2999999523163]","1","2","","","10836","133","6","3","lose","go","0"
"pit-trial","261","1705894","0.0-138.0","battery-v0.2","","""event"",""trial"",""time""
""fullscreenenter"",""1"",""1484""
","
","
","""event"",""trial"",""time""
""fullscreenenter"",""1"",""1484""
","
","","","1302.7999999523163","","","20","10836","305","f","elianto","#3366ff99"," "," ","1","+10","[2155.100000143051]","1","2","","","10836","134","8","1","win","go","0"
"pit-trial","262","1710086","0.0-139.0","battery-v0.2","","""event"",""trial"",""time""
""fullscreenenter"",""1"",""1484""
","
","
","""event"",""trial"",""time""
""fullscreenenter"",""1"",""1484""
","
","","","1332.5","","","20","10836","305","t","elianto","#f73b6a7A","-1"," ","0","-10","[2184.4000000953674]","1","2","","","10836","135","7","4","lose","no-go","0"
"pit-trial","263","1713750","0.0-140.0","battery-v0.2","","""event"",""trial"",""time""
""fullscreenenter"",""1"",""1484""
","
","
","""event"",""trial"",""time""
""fullscreenenter"",""1"",""1484""
","
","","","803.5","","","20","10836","305","n","elianto","#3366ff99"," "," ","1","+10","[1657.3000001907349]","1","2","","","10836","136","9","1","win","go","0"
"pit-trial","264","1718000","0.0-141.0","battery-v0.2","","""event"",""trial"",""time""
""fullscreenenter"",""1"",""1484""
","
","
","""event"",""trial"",""time""
""fullscreenenter"",""1"",""1484""
","
","","","1390.1999998092651","","","20","10836","305","f","elianto","#3366ff99"," "," ","1","+10","[2243.699999809265]","1","2","","","10836","137","8","1","win","go","0"
"pit-trial","265","1722456","0.0-142.0","battery-v0.2","","""event"",""trial"",""time""
""fullscreenenter"",""1"",""1484""
","
","
","""event"",""trial"",""time""
""fullscreenenter"",""1"",""1484""
","
","","","1596.2000000476837","","","20","10836","305","n","elianto","#3366ff99"," "," ","1","+10","[2449.5999999046326]","1","2","","","10836","138","9","1","win","go","0"
"pit-trial","266","1727315","0.0-143.0","battery-v0.2","","""event"",""trial"",""time""
""fullscreenenter"",""1"",""1484""
","
","
","""event"",""trial"",""time""
""fullscreenenter"",""1"",""1484""
","
","","","-1","","","20","10836","305","t","elianto","#f73b6a7A","-1","-1","1","0","[]","0","2","","","10836","139","7","4","lose","no-go","0"
"pit-trial","267","1732176","0.0-144.0","battery-v0.2","","""event"",""trial"",""time""
""fullscreenenter"",""1"",""1484""
","
","
","""event"",""trial"",""time""
