"trial_type","trial_index","time_elapsed","internal_node_id","task_version","subject_id","interactions","blur_events","focus_events","fullscreenenter_events","fullscreenexit_events","success","view_history","rt","responses","num_errors","age","subject","participantId","rune","rune_set","hex","correct","choice","accuracy","outcome","keys","total_keys","block","practice","value","sub","trial","stimulus","robot","valence","action","sham"
"pavlovia","0","14","0.0-0.0","battery-v0.2","","""event"",""trial"",""time""
""fullscreenenter"",""1"",""3280""
","
","
","""event"",""trial"",""time""
""fullscreenenter"",""1"",""3280""
","
","","","","","","","","","","","","","","","","","","","","","","","","","","",""
"fullscreen","1","4271","0.0-1.0","battery-v0.2","","""event"",""trial"",""time""
""fullscreenenter"",""1"",""3280""
","
","
","""event"",""trial"",""time""
""fullscreenenter"",""1"",""3280""
","
","true","","","","","","","","","","","","","","","","","","","","","","","","","",""
"pit-instructions","2","10430","0.0-2.0-0.0","battery-v0.2","","""event"",""trial"",""time""
""fullscreenenter"",""1"",""3280""
","
","
","""event"",""trial"",""time""
""fullscreenenter"",""1"",""3280""
","
","","[{""page_index"":0,""viewing_time"":6153.600000000093}]","6154.100000000093","","","","","","","","","","","","","","","","","","","","","","","",""
"pit-comprehension","3","13811","0.0-2.0-1.0-0.0","battery-v0.2","","""event"",""trial"",""time""
""fullscreenenter"",""1"",""3280""
","
","
","""event"",""trial"",""time""
""fullscreenenter"",""1"",""3280""
","
","","","3375.399999999907","[""shark""]","0","22","16221","6367","","","","","","","","","","","","","","","","","","",""
"pit-instructions","4","15043","0.0-2.0-1.0-1.0","battery-v0.2","","""event"",""trial"",""time""
""fullscreenenter"",""1"",""3280""
","
","
","""event"",""trial"",""time""
""fullscreenenter"",""1"",""3280""
","
","","[{""page_index"":0,""viewing_time"":1224}]","1224.3000000002794","","","","","","","","","","","","","","","","","","","","","","","",""
"pit-comprehension","5","17373","0.0-2.0-2.0-0.0","battery-v0.2","","""event"",""trial"",""time""
""fullscreenenter"",""1"",""3280""
","
","
","""event"",""trial"",""time""
""fullscreenenter"",""1"",""3280""
","
","","","2326.100000000093","[""tiger""]","0","22","16221","6367","","","","","","","","","","","","","","","","","","",""
"pit-instructions","6","18998","0.0-2.0-2.0-1.0","battery-v0.2","","""event"",""trial"",""time""
""fullscreenenter"",""1"",""3280""
","
","
","""event"",""trial"",""time""
""fullscreenenter"",""1"",""3280""
","
","","[{""page_index"":0,""viewing_time"":1620}]","1620.3000000002794","","","","","","","","","","","","","","","","","","","","","","","",""
"pit-instructions","7","111791","0.0-2.0-3.0","battery-v0.2","","""event"",""trial"",""time""
""fullscreenenter"",""1"",""3280""
","
","
","""event"",""trial"",""time""
""fullscreenenter"",""1"",""3280""
","
","","[{""page_index"":0,""viewing_time"":8136.700000000186},{""page_index"":1,""viewing_time"":5846.100000000093},{""page_index"":2,""viewing_time"":7666.199999999721},{""page_index"":3,""viewing_time"":5074},{""page_index"":4,""viewing_time"":5421.899999999907},{""page_index"":5,""viewing_time"":5591.4000000003725},{""page_index"":6,""viewing_time"":7076.199999999721},{""page_index"":7,""viewing_time"":6493.399999999907},{""page_index"":8,""viewing_time"":6109.5},{""page_index"":9,""viewing_time"":7726.100000000093},{""page_index"":10,""viewing_time"":8562.100000000093},{""page_index"":11,""viewing_time"":6908.899999999907},{""page_index"":12,""viewing_time"":7270.200000000186},{""page_index"":13,""viewing_time"":4909.699999999721}]","92793","","","","","","","","","","","","","","","","","","","","","","","",""
"pit-trial","8","115226","0.0-2.0-4.0-0.0","battery-v0.2","","""event"",""trial"",""time""
""fullscreenenter"",""1"",""3280""
","
","
","""event"",""trial"",""time""
""fullscreenenter"",""1"",""3280""
","
","","","580.0999999996275","","","22","16221","6367","&#9784;","elianto","#FFFFF080"," "," ","1","&#10004","[1430.5]","1","0","0","","","","","","","",""
"pit-trial","9","118632","0.0-2.0-4.1-0.1","battery-v0.2","","""event"",""trial"",""time""
""fullscreenenter"",""1"",""3280""
","
","
","""event"",""trial"",""time""
""fullscreenenter"",""1"",""3280""
","
","","","548.5","","","22","16221","6367","&#9784;","elianto","#FFFFF080"," "," ","1","&#10004","[1399.2999999998137]","1","0","0","","","","","","","",""
"pit-trial","10","122017","0.0-2.0-4.2-0.2","battery-v0.2","","""event"",""trial"",""time""
""fullscreenenter"",""1"",""3280""
","
","
","""event"",""trial"",""time""
""fullscreenenter"",""1"",""3280""
","
","","","525.2999999998137","","","22","16221","6367","&#9784;","elianto","#FFFFF080"," "," ","1","&#10004","[1377.0999999996275]","1","0","0","","","","","","","",""
"pit-trial","11","125313","0.0-2.0-4.3-0.3","battery-v0.2","","""event"",""trial"",""time""
""fullscreenenter"",""1"",""3280""
","
","
","""event"",""trial"",""time""
""fullscreenenter"",""1"",""3280""
","
","","","441.20000000018626","","","22","16221","6367","&#9784;","elianto","#FFFFF080"," "," ","1","&#10004","[1292]","1","0","0","","","","","","","",""
"pit-trial","12","128581","0.0-2.0-4.4-0.4","battery-v0.2","","""event"",""trial"",""time""
""fullscreenenter"",""1"",""3280""
","
","
","""event"",""trial"",""time""
""fullscreenenter"",""1"",""3280""
","
","","","412.5","","","22","16221","6367","&#9784;","elianto","#FFFFF080"," "," ","1","&#10004","[1263.1000000000931]","1","0","0","","","","","","","",""
"pit-instructions","13","151444","0.0-2.0-5.0","battery-v0.2","","""event"",""trial"",""time""
""fullscreenenter"",""1"",""3280""
","
","
","""event"",""trial"",""time""
""fullscreenenter"",""1"",""3280""
","
","","[{""page_index"":0,""viewing_time"":5015.899999999907},{""page_index"":1,""viewing_time"":6260.399999999907},{""page_index"":2,""viewing_time"":5209.399999999907},{""page_index"":3,""viewing_time"":6373.700000000186}]","22860.100000000093","","","","","","","","","","","","","","","","","","","","","","","",""
"pit-trial","14","156300","0.0-2.0-6.0-0.0","battery-v0.2","","""event"",""trial"",""time""
""fullscreenenter"",""1"",""3280""
","
","
","""event"",""trial"",""time""
""fullscreenenter"",""1"",""3280""
","
","","","-1","","","22","16221","6367","&#9854;","elianto","#FFFFF080","-1","-1","1","&#10004","[]","0","0","1","","","","","","","",""
"pit-trial","15","161157","0.0-2.0-6.1-0.1","battery-v0.2","","""event"",""trial"",""time""
""fullscreenenter"",""1"",""3280""
","
","
","""event"",""trial"",""time""
""fullscreenenter"",""1"",""3280""
","
","","","-1","","","22","16221","6367","&#9854;","elianto","#FFFFF080","-1","-1","1","&#10004","[]","0","0","1","","","","","","","",""
"pit-trial","16","166015","0.0-2.0-6.2-0.2","battery-v0.2","","""event"",""trial"",""time""
""fullscreenenter"",""1"",""3280""
","
","
","""event"",""trial"",""time""
""fullscreenenter"",""1"",""3280""
","
","","","-1","","","22","16221","6367","&#9854;","elianto","#FFFFF080","-1","-1","1","&#10004","[]","0","0","1","","","","","","","",""
"pit-trial","17","170873","0.0-2.0-6.3-0.3","battery-v0.2","","""event"",""trial"",""time""
""fullscreenenter"",""1"",""3280""
","
","
","""event"",""trial"",""time""
""fullscreenenter"",""1"",""3280""
","
","","","-1","","","22","16221","6367","&#9854;","elianto","#FFFFF080","-1","-1","1","&#10004","[]","0","0","1","","","","","","","",""
"pit-trial","18","175730","0.0-2.0-6.4-0.4","battery-v0.2","","""event"",""trial"",""time""
""fullscreenenter"",""1"",""3280""
","
","
","""event"",""trial"",""time""
""fullscreenenter"",""1"",""3280""
","
","","","-1","","","22","16221","6367","&#9854;","elianto","#FFFFF080","-1","-1","1","&#10004","[]","0","0","1","","","","","","","",""
"pit-instructions","19","304384","0.0-2.0-7.0","battery-v0.2","","""event"",""trial"",""time""
""fullscreenenter"",""1"",""3280""
","
","
","""event"",""trial"",""time""
""fullscreenenter"",""1"",""3280""
","
","","[{""page_index"":0,""viewing_time"":8297.80000000028},{""page_index"":1,""viewing_time"":6456.600000000093},{""page_index"":2,""viewing_time"":6322.0999999996275},{""page_index"":3,""viewing_time"":7354.5},{""page_index"":4,""viewing_time"":5905.200000000186},{""page_index"":5,""viewing_time"":5725.700000000186},{""page_index"":6,""viewing_time"":4814.199999999721},{""page_index"":7,""viewing_time"":8242.600000000093},{""page_index"":8,""viewing_time"":17752.899999999907},{""page_index"":9,""viewing_time"":5611},{""page_index"":10,""viewing_time"":6144.600000000093},{""page_index"":11,""viewing_time"":4879},{""page_index"":12,""viewing_time"":6791.899999999907},{""page_index"":13,""viewing_time"":6828.5},{""page_index"":14,""viewing_time"":6681.899999999907},{""page_index"":15,""viewing_time"":7232.800000000279},{""page_index"":16,""viewing_time"":6465.399999999907},{""page_index"":17,""viewing_time"":7146.600000000093}]","128653.70000000019","","","","","","","","","","","","","","","","","","","","","","","",""
"pit-trial","20","307910","0.0-2.0-8.0-0.0","battery-v0.2","","""event"",""trial"",""time""
""fullscreenenter"",""1"",""3280""
","
","
","""event"",""trial"",""time""
""fullscreenenter"",""1"",""3280""
","
","","","671.7999999998137","","","22","16221","6367","&#9776;","elianto","#3366ff99"," "," ","1","+10","[1523.2999999998137]","1","0","1","","","","","","","",""
"pit-trial","21","312767","0.0-2.0-8.0-1.0","battery-v0.2","","""event"",""trial"",""time""
""fullscreenenter"",""1"",""3280""
","
","
","""event"",""trial"",""time""
""fullscreenenter"",""1"",""3280""
","
","","","-1","","","22","16221","6367","&#9776;","elianto","#3366ff99"," ","-1","0","0","[]","0","0","1","","","","","","","",""
"pit-trial","22","316280","0.0-2.0-8.0-2.0","battery-v0.2","","""event"",""trial"",""time""
""fullscreenenter"",""1"",""3280""
","
","
","""event"",""trial"",""time""
""fullscreenenter"",""1"",""3280""
","
","","","658.3999999999069","","","22","16221","6367","&#9776;","elianto","#3366ff99"," "," ","1","+10","[1509.5999999996275]","1","0","1","","","","","","","",""
"pit-trial","23","319669","0.0-2.0-8.0-3.0","battery-v0.2","","""event"",""trial"",""time""
""fullscreenenter"",""1"",""3280""
","
","
","""event"",""trial"",""time""
""fullscreenenter"",""1"",""3280""
","
","","","533.1000000000931","","","22","16221","6367","&#9776;","elianto","#3366ff99"," "," ","1","0","[1383.7999999998137]","1","0","1","","","","","","","",""
"pit-trial","24","322902","0.0-2.0-8.0-4.0","battery-v0.2","","""event"",""trial"",""time""
""fullscreenenter"",""1"",""3280""
","
","
","""event"",""trial"",""time""
""fullscreenenter"",""1"",""3280""
","
","","","379.60000000009313","","","22","16221","6367","&#9776;","elianto","#3366ff99"," "," ","1","+10","[1230]","1","0","1","","","","","","","",""
"pit-trial","25","326201","0.0-2.0-8.1-0.1","battery-v0.2","","""event"",""trial"",""time""
""fullscreenenter"",""1"",""3280""
","
","
","""event"",""trial"",""time""
""fullscreenenter"",""1"",""3280""
","
","","","441.89999999990687","","","22","16221","6367","&#9776;","elianto","#3366ff99"," "," ","1","+10","[1293.1999999997206]","1","0","1","","","","","","","",""
"pit-trial","26","329507","0.0-2.0-8.1-1.1","battery-v0.2","","""event"",""trial"",""time""
""fullscreenenter"",""1"",""3280""
","
","
","""event"",""trial"",""time""
""fullscreenenter"",""1"",""3280""
","
","","","450.39999999990687","","","22","16221","6367","&#9776;","elianto","#3366ff99"," "," ","1","+10","[1302]","1","0","1","","","","","","","",""
"pit-trial","27","332749","0.0-2.0-8.1-2.1","battery-v0.2","","""event"",""trial"",""time""
""fullscreenenter"",""1"",""3280""
","
","
","""event"",""trial"",""time""
""fullscreenenter"",""1"",""3280""
","
","","","388","","","22","16221","6367","&#9776;","elianto","#3366ff99"," "," ","1","+10","[1239.1000000000931]","1","0","1","","","","","","","",""
"pit-trial","28","336121","0.0-2.0-8.1-3.1","battery-v0.2","","""event"",""trial"",""time""
""fullscreenenter"",""1"",""3280""
","
","
","""event"",""trial"",""time""
""fullscreenenter"",""1"",""3280""
","
","","","517.3999999999069","","","22","16221","6367","&#9776;","elianto","#3366ff99"," "," ","1","0","[1368]","1","0","1","","","","","","","",""
"pit-trial","29","339354","0.0-2.0-8.1-4.1","battery-v0.2","","""event"",""trial"",""time""
""fullscreenenter"",""1"",""3280""
","
","
","""event"",""trial"",""time""
""fullscreenenter"",""1"",""3280""
","
","","","379.5","","","22","16221","6367","&#9776;","elianto","#3366ff99"," "," ","1","+10","[1230]","1","0","1","","","","","","","",""
"pit-trial","30","342690","0.0-2.0-8.2-0.2","battery-v0.2","","""event"",""trial"",""time""
""fullscreenenter"",""1"",""3280""
","
","
","""event"",""trial"",""time""
""fullscreenenter"",""1"",""3280""
","
","","","480.10000000009313","","","22","16221","6367","&#9776;","elianto","#3366ff99"," "," ","1","+10","[1331.8000000002794]","1","0","1","","","","","","","",""
"pit-trial","31","346066","0.0-2.0-8.2-1.2","battery-v0.2","","""event"",""trial"",""time""
""fullscreenenter"",""1"",""3280""
","
","
","""event"",""trial"",""time""
""fullscreenenter"",""1"",""3280""
","
","","","520.5","","","22","16221","6367","&#9776;","elianto","#3366ff99"," "," ","1","+10","[1372.7000000001863]","1","0","1","","","","","","","",""
"pit-trial","32","349407","0.0-2.0-8.2-2.2","battery-v0.2","","""event"",""trial"",""time""
""fullscreenenter"",""1"",""3280""
","
","
","""event"",""trial"",""time""
""fullscreenenter"",""1"",""3280""
","
","","","485.79999999981374","","","22","16221","6367","&#9776;","elianto","#3366ff99"," "," ","1","+10","[1336.8999999999069]","1","0","1","","","","","","","",""
"pit-trial","33","352722","0.0-2.0-8.2-3.2","battery-v0.2","","""event"",""trial"",""time""
""fullscreenenter"",""1"",""3280""
","
","
","""event"",""trial"",""time""
""fullscreenenter"",""1"",""3280""
","
","","","460.5","","","22","16221","6367","&#9776;","elianto","#3366ff99"," "," ","1","0","[1310.8000000002794]","1","0","1","","","","","","","",""
"pit-trial","34","355888","0.0-2.0-8.2-4.2","battery-v0.2","","""event"",""trial"",""time""
""fullscreenenter"",""1"",""3280""
","
","
","""event"",""trial"",""time""
""fullscreenenter"",""1"",""3280""
","
","","","312.10000000009313","","","22","16221","6367","&#9776;","elianto","#3366ff99"," "," ","1","+10","[1162.7999999998137]","1","0","1","","","","","","","",""
"call-function","35","355891","0.0-2.0-9.0","battery-v0.2","","""event"",""trial"",""time""
""fullscreenenter"",""1"",""3280""
","
","
","""event"",""trial"",""time""
""fullscreenenter"",""1"",""3280""
","
","","","","","","","","","","","","","","","","","","","","","","","","","","",""
"pit-instructions","36","393455","0.0-2.0-10.0","battery-v0.2","","""event"",""trial"",""time""
""fullscreenenter"",""1"",""3280""
","
","
","""event"",""trial"",""time""
""fullscreenenter"",""1"",""3280""
","
","","[{""page_index"":0,""viewing_time"":5514.399999999907},{""page_index"":1,""viewing_time"":6858.700000000186},{""page_index"":2,""viewing_time"":9007.5},{""page_index"":3,""viewing_time"":9007},{""page_index"":4,""viewing_time"":7176}]","37564.10000000009","","","","","","","","","","","","","","","","","","","","","","","",""
"pit-trial","37","398310","0.0-2.0-11.0-0.0","battery-v0.2","","""event"",""trial"",""time""
""fullscreenenter"",""1"",""3280""
","
","
","""event"",""trial"",""time""
""fullscreenenter"",""1"",""3280""
","
","","","-1","","","22","16221","6367","&#9761;","elianto","#3366ff99","-1","-1","1","+10","[]","0","0","2","","","","","","","",""
"pit-trial","38","403168","0.0-2.0-11.0-1.0","battery-v0.2","","""event"",""trial"",""time""
""fullscreenenter"",""1"",""3280""
","
","
","""event"",""trial"",""time""
""fullscreenenter"",""1"",""3280""
","
","","","-1","","","22","16221","6367","&#9761;","elianto","#3366ff99","-1","-1","1","+10","[]","0","0","2","","","","","","","",""
"pit-trial","39","408023","0.0-2.0-11.0-2.0","battery-v0.2","","""event"",""trial"",""time""
""fullscreenenter"",""1"",""3280""
","
","
","""event"",""trial"",""time""
""fullscreenenter"",""1"",""3280""
","
","","","-1","","","22","16221","6367","&#9761;","elianto","#3366ff99","-1","-1","1","+10","[]","0","0","2","","","","","","","",""
"pit-trial","40","412880","0.0-2.0-11.0-3.0","battery-v0.2","","""event"",""trial"",""time""
""fullscreenenter"",""1"",""3280""
","
","
","""event"",""trial"",""time""
""fullscreenenter"",""1"",""3280""
","
","","","-1","","","22","16221","6367","&#9761;","elianto","#3366ff99","-1","-1","1","0","[]","0","0","2","","","","","","","",""
"pit-trial","41","417738","0.0-2.0-11.0-4.0","battery-v0.2","","""event"",""trial"",""time""
""fullscreenenter"",""1"",""3280""
","
","
","""event"",""trial"",""time""
""fullscreenenter"",""1"",""3280""
","
","","","-1","","","22","16221","6367","&#9761;","elianto","#3366ff99","-1","-1","1","+10","[]","0","0","2","","","","","","","",""
"pit-trial","42","422598","0.0-2.0-11.1-0.1","battery-v0.2","","""event"",""trial"",""time""
""fullscreenenter"",""1"",""3280""
","
","
","""event"",""trial"",""time""
""fullscreenenter"",""1"",""3280""
","
","","","-1","","","22","16221","6367","&#9761;","elianto","#3366ff99","-1","-1","1","+10","[]","0","0","2","","","","","","","",""
"pit-trial","43","427452","0.0-2.0-11.1-1.1","battery-v0.2","","""event"",""trial"",""time""
""fullscreenenter"",""1"",""3280""
","
","
","""event"",""trial"",""time""
""fullscreenenter"",""1"",""3280""
","
","","","-1","","","22","16221","6367","&#9761;","elianto","#3366ff99","-1","-1","1","+10","[]","0","0","2","","","","","","","",""
"pit-trial","44","432308","0.0-2.0-11.1-2.1","battery-v0.2","","""event"",""trial"",""time""
""fullscreenenter"",""1"",""3280""
","
","
","""event"",""trial"",""time""
""fullscreenenter"",""1"",""3280""
","
","","","-1","","","22","16221","6367","&#9761;","elianto","#3366ff99","-1","-1","1","+10","[]","0","0","2","","","","","","","",""
"pit-trial","45","437166","0.0-2.0-11.1-3.1","battery-v0.2","","""event"",""trial"",""time""
""fullscreenenter"",""1"",""3280""
","
","
","""event"",""trial"",""time""
""fullscreenenter"",""1"",""3280""
","
","","","-1","","","22","16221","6367","&#9761;","elianto","#3366ff99","-1","-1","1","0","[]","0","0","2","","","","","","","",""
"pit-trial","46","442020","0.0-2.0-11.1-4.1","battery-v0.2","","""event"",""trial"",""time""
""fullscreenenter"",""1"",""3280""
","
","
","""event"",""trial"",""time""
""fullscreenenter"",""1"",""3280""
","
","","","-1","","","22","16221","6367","&#9761;","elianto","#3366ff99","-1","-1","1","+10","[]","0","0","2","","","","","","","",""
"pit-trial","47","446876","0.0-2.0-11.2-0.2","battery-v0.2","","""event"",""trial"",""time""
""fullscreenenter"",""1"",""3280""
","
","
","""event"",""trial"",""time""
""fullscreenenter"",""1"",""3280""
","
","","","-1","","","22","16221","6367","&#9761;","elianto","#3366ff99","-1","-1","1","+10","[]","0","0","2","","","","","","","",""
"pit-trial","48","451732","0.0-2.0-11.2-1.2","battery-v0.2","","""event"",""trial"",""time""
""fullscreenenter"",""1"",""3280""
","
","
","""event"",""trial"",""time""
""fullscreenenter"",""1"",""3280""
","
","","","-1","","","22","16221","6367","&#9761;","elianto","#3366ff99","-1","-1","1","+10","[]","0","0","2","","","","","","","",""
"pit-trial","49","456587","0.0-2.0-11.2-2.2","battery-v0.2","","""event"",""trial"",""time""
""fullscreenenter"",""1"",""3280""
","
","
","""event"",""trial"",""time""
""fullscreenenter"",""1"",""3280""
","
","","","-1","","","22","16221","6367","&#9761;","elianto","#3366ff99","-1","-1","1","+10","[]","0","0","2","","","","","","","",""
"pit-trial","50","461442","0.0-2.0-11.2-3.2","battery-v0.2","","""event"",""trial"",""time""
""fullscreenenter"",""1"",""3280""
","
","
","""event"",""trial"",""time""
""fullscreenenter"",""1"",""3280""
","
","","","-1","","","22","16221","6367","&#9761;","elianto","#3366ff99","-1","-1","1","0","[]","0","0","2","","","","","","","",""
"pit-trial","51","466295","0.0-2.0-11.2-4.2","battery-v0.2","","""event"",""trial"",""time""
""fullscreenenter"",""1"",""3280""
","
","
","""event"",""trial"",""time""
""fullscreenenter"",""1"",""3280""
","
","","","-1","","","22","16221","6367","&#9761;","elianto","#3366ff99","-1","-1","1","+10","[]","0","0","2","","","","","","","",""
"pit-trial","52","471151","0.0-2.0-11.3-0.3","battery-v0.2","","""event"",""trial"",""time""
""fullscreenenter"",""1"",""3280""
","
","
","""event"",""trial"",""time""
""fullscreenenter"",""1"",""3280""
","
","","","-1","","","22","16221","6367","&#9761;","elianto","#3366ff99","-1","-1","1","+10","[]","0","0","2","","","","","","","",""
"pit-trial","53","476008","0.0-2.0-11.3-1.3","battery-v0.2","","""event"",""trial"",""time""
""fullscreenenter"",""1"",""3280""
","
","
","""event"",""trial"",""time""
""fullscreenenter"",""1"",""3280""
","
","","","-1","","","22","16221","6367","&#9761;","elianto","#3366ff99","-1","-1","1","+10","[]","0","0","2","","","","","","","",""
"pit-trial","54","480862","0.0-2.0-11.3-2.3","battery-v0.2","","""event"",""trial"",""time""
""fullscreenenter"",""1"",""3280""
","
","
","""event"",""trial"",""time""
""fullscreenenter"",""1"",""3280""
","
","","","-1","","","22","16221","6367","&#9761;","elianto","#3366ff99","-1","-1","1","+10","[]","0","0","2","","","","","","","",""
"pit-trial","55","485720","0.0-2.0-11.3-3.3","battery-v0.2","","""event"",""trial"",""time""
""fullscreenenter"",""1"",""3280""
","
","
","""event"",""trial"",""time""
""fullscreenenter"",""1"",""3280""
","
","","","-1","","","22","16221","6367","&#9761;","elianto","#3366ff99","-1","-1","1","0","[]","0","0","2","","","","","","","",""
"pit-trial","56","490574","0.0-2.0-11.3-4.3","battery-v0.2","","""event"",""trial"",""time""
""fullscreenenter"",""1"",""3280""
","
","
","""event"",""trial"",""time""
""fullscreenenter"",""1"",""3280""
","
","","","-1","","","22","16221","6367","&#9761;","elianto","#3366ff99","-1","-1","1","+10","[]","0","0","2","","","","","","","",""
"call-function","57","490576","0.0-2.0-12.0","battery-v0.2","","""event"",""trial"",""time""
""fullscreenenter"",""1"",""3280""
","
","
","""event"",""trial"",""time""
""fullscreenenter"",""1"",""3280""
","
","","","","","","","","","","","","","","","","","","","","","","","","","","",""
"pit-instructions","58","522357","0.0-2.0-13.0","battery-v0.2","","""event"",""trial"",""time""
""fullscreenenter"",""1"",""3280""
","
","
","""event"",""trial"",""time""
""fullscreenenter"",""1"",""3280""
","
","","[{""page_index"":0,""viewing_time"":4841.9000000003725},{""page_index"":1,""viewing_time"":6906.0999999996275},{""page_index"":2,""viewing_time"":4135},{""page_index"":3,""viewing_time"":11234.900000000373},{""page_index"":4,""viewing_time"":4662.5999999996275}]","31781","","","","","","","","","","","","","","","","","","","","","","","",""
"pit-trial","59","525700","0.0-2.0-14.0-0.0","battery-v0.2","","""event"",""trial"",""time""
""fullscreenenter"",""1"",""3280""
","
","
","""event"",""trial"",""time""
""fullscreenenter"",""1"",""3280""
","
","","","489","","","22","16221","6367","&#9826;","elianto","#f73b6a7A","-1"," ","0","-10","[1339.4000000003725]","1","0","3","","","","","","","",""
"pit-trial","60","530556","0.0-2.0-14.0-1.0","battery-v0.2","","""event"",""trial"",""time""
""fullscreenenter"",""1"",""3280""
","
","
","""event"",""trial"",""time""
""fullscreenenter"",""1"",""3280""
","
","","","-1","","","22","16221","6367","&#9826;","elianto","#f73b6a7A","-1","-1","1","0","[]","0","0","3","","","","","","","",""
"pit-trial","61","535412","0.0-2.0-14.0-2.0","battery-v0.2","","""event"",""trial"",""time""
""fullscreenenter"",""1"",""3280""
","
","
","""event"",""trial"",""time""
""fullscreenenter"",""1"",""3280""
","
","","","-1","","","22","16221","6367","&#9826;","elianto","#f73b6a7A","-1","-1","1","0","[]","0","0","3","","","","","","","",""
"pit-trial","62","540267","0.0-2.0-14.0-3.0","battery-v0.2","","""event"",""trial"",""time""
""fullscreenenter"",""1"",""3280""
","
","
","""event"",""trial"",""time""
""fullscreenenter"",""1"",""3280""
","
","","","-1","","","22","16221","6367","&#9826;","elianto","#f73b6a7A","-1","-1","1","-10","[]","0","0","3","","","","","","","",""
"pit-trial","63","545122","0.0-2.0-14.0-4.0","battery-v0.2","","""event"",""trial"",""time""
""fullscreenenter"",""1"",""3280""
","
","
","""event"",""trial"",""time""
""fullscreenenter"",""1"",""3280""
","
","","","-1","","","22","16221","6367","&#9826;","elianto","#f73b6a7A","-1","-1","1","0","[]","0","0","3","","","","","","","",""
"pit-trial","64","549980","0.0-2.0-14.1-0.1","battery-v0.2","","""event"",""trial"",""time""
""fullscreenenter"",""1"",""3280""
","
","
","""event"",""trial"",""time""
""fullscreenenter"",""1"",""3280""
","
","","","-1","","","22","16221","6367","&#9826;","elianto","#f73b6a7A","-1","-1","1","0","[]","0","0","3","","","","","","","",""
"pit-trial","65","554835","0.0-2.0-14.1-1.1","battery-v0.2","","""event"",""trial"",""time""
""fullscreenenter"",""1"",""3280""
","
","
","""event"",""trial"",""time""
""fullscreenenter"",""1"",""3280""
","
","","","-1","","","22","16221","6367","&#9826;","elianto","#f73b6a7A","-1","-1","1","0","[]","0","0","3","","","","","","","",""
"pit-trial","66","559690","0.0-2.0-14.1-2.1","battery-v0.2","","""event"",""trial"",""time""
""fullscreenenter"",""1"",""3280""
","
","
","""event"",""trial"",""time""
""fullscreenenter"",""1"",""3280""
","
","","","-1","","","22","16221","6367","&#9826;","elianto","#f73b6a7A","-1","-1","1","0","[]","0","0","3","","","","","","","",""
"pit-trial","67","564545","0.0-2.0-14.1-3.1","battery-v0.2","","""event"",""trial"",""time""
""fullscreenenter"",""1"",""3280""
","
","
","""event"",""trial"",""time""
""fullscreenenter"",""1"",""3280""
","
","","","-1","","","22","16221","6367","&#9826;","elianto","#f73b6a7A","-1","-1","1","-10","[]","0","0","3","","","","","","","",""
"pit-trial","68","569399","0.0-2.0-14.1-4.1","battery-v0.2","","""event"",""trial"",""time""
""fullscreenenter"",""1"",""3280""
","
","
","""event"",""trial"",""time""
""fullscreenenter"",""1"",""3280""
","
","","","-1","","","22","16221","6367","&#9826;","elianto","#f73b6a7A","-1","-1","1","0","[]","0","0","3","","","","","","","",""
"pit-trial","69","574256","0.0-2.0-14.2-0.2","battery-v0.2","","""event"",""trial"",""time""
""fullscreenenter"",""1"",""3280""
","
","
","""event"",""trial"",""time""
""fullscreenenter"",""1"",""3280""
","
","","","-1","","","22","16221","6367","&#9826;","elianto","#f73b6a7A","-1","-1","1","0","[]","0","0","3","","","","","","","",""
"pit-trial","70","579112","0.0-2.0-14.2-1.2","battery-v0.2","","""event"",""trial"",""time""
""fullscreenenter"",""1"",""3280""
","
","
","""event"",""trial"",""time""
""fullscreenenter"",""1"",""3280""
","
","","","-1","","","22","16221","6367","&#9826;","elianto","#f73b6a7A","-1","-1","1","0","[]","0","0","3","","","","","","","",""
"pit-trial","71","583966","0.0-2.0-14.2-2.2","battery-v0.2","","""event"",""trial"",""time""
""fullscreenenter"",""1"",""3280""
","
","
","""event"",""trial"",""time""
""fullscreenenter"",""1"",""3280""
","
","","","-1","","","22","16221","6367","&#9826;","elianto","#f73b6a7A","-1","-1","1","0","[]","0","0","3","","","","","","","",""
"pit-trial","72","588821","0.0-2.0-14.2-3.2","battery-v0.2","","""event"",""trial"",""time""
""fullscreenenter"",""1"",""3280""
","
","
","""event"",""trial"",""time""
""fullscreenenter"",""1"",""3280""
","
","","","-1","","","22","16221","6367","&#9826;","elianto","#f73b6a7A","-1","-1","1","-10","[]","0","0","3","","","","","","","",""
"pit-trial","73","593677","0.0-2.0-14.2-4.2","battery-v0.2","","""event"",""trial"",""time""
""fullscreenenter"",""1"",""3280""
","
","
","""event"",""trial"",""time""
""fullscreenenter"",""1"",""3280""
","
","","","-1","","","22","16221","6367","&#9826;","elianto","#f73b6a7A","-1","-1","1","0","[]","0","0","3","","","","","","","",""
"pit-trial","74","598531","0.0-2.0-14.3-0.3","battery-v0.2","","""event"",""trial"",""time""
""fullscreenenter"",""1"",""3280""
","
","
","""event"",""trial"",""time""
""fullscreenenter"",""1"",""3280""
","
","","","-1","","","22","16221","6367","&#9826;","elianto","#f73b6a7A","-1","-1","1","0","[]","0","0","3","","","","","","","",""
"pit-trial","75","603386","0.0-2.0-14.3-1.3","battery-v0.2","","""event"",""trial"",""time""
""fullscreenenter"",""1"",""3280""
","
","
","""event"",""trial"",""time""
""fullscreenenter"",""1"",""3280""
","
","","","-1","","","22","16221","6367","&#9826;","elianto","#f73b6a7A","-1","-1","1","0","[]","0","0","3","","","","","","","",""
"pit-trial","76","608242","0.0-2.0-14.3-2.3","battery-v0.2","","""event"",""trial"",""time""
""fullscreenenter"",""1"",""3280""
","
","
","""event"",""trial"",""time""
""fullscreenenter"",""1"",""3280""
","
","","","-1","","","22","16221","6367","&#9826;","elianto","#f73b6a7A","-1","-1","1","0","[]","0","0","3","","","","","","","",""
"pit-trial","77","613096","0.0-2.0-14.3-3.3","battery-v0.2","","""event"",""trial"",""time""
""fullscreenenter"",""1"",""3280""
","
","
","""event"",""trial"",""time""
""fullscreenenter"",""1"",""3280""
","
","","","-1","","","22","16221","6367","&#9826;","elianto","#f73b6a7A","-1","-1","1","-10","[]","0","0","3","","","","","","","",""
"pit-trial","78","617951","0.0-2.0-14.3-4.3","battery-v0.2","","""event"",""trial"",""time""
""fullscreenenter"",""1"",""3280""
","
","
","""event"",""trial"",""time""
""fullscreenenter"",""1"",""3280""
","
","","","-1","","","22","16221","6367","&#9826;","elianto","#f73b6a7A","-1","-1","1","0","[]","0","0","3","","","","","","","",""
"call-function","79","617953","0.0-2.0-15.0","battery-v0.2","","""event"",""trial"",""time""
""fullscreenenter"",""1"",""3280""
","
","
","""event"",""trial"",""time""
""fullscreenenter"",""1"",""3280""
","
","","","","","","","","","","","","","","","","","","","","","","","","","","",""
"pit-instructions","80","647418","0.0-2.0-16.0","battery-v0.2","","""event"",""trial"",""time""
""fullscreenenter"",""1"",""3280""
","
","
","""event"",""trial"",""time""
""fullscreenenter"",""1"",""3280""
","
","","[{""page_index"":0,""viewing_time"":10743.5},{""page_index"":1,""viewing_time"":8637.399999999907},{""page_index"":2,""viewing_time"":5340.9000000003725},{""page_index"":3,""viewing_time"":4742.399999999907}]","29464.5","","","","","","","","","","","","","","","","","","","","","","","",""
"pit-trial","81","650805","0.0-2.0-17.0-0.0","battery-v0.2","","""event"",""trial"",""time""
""fullscreenenter"",""1"",""3280""
","
","
","""event"",""trial"",""time""
""fullscreenenter"",""1"",""3280""
","
","","","533.6999999997206","","","22","16221","6367","&#9789;","elianto","#f73b6a7A"," "," ","1","0","[1383.8999999999069]","1","0","4","","","","","","","",""
"pit-trial","82","654025","0.0-2.0-17.0-1.0","battery-v0.2","","""event"",""trial"",""time""
""fullscreenenter"",""1"",""3280""
","
","
","""event"",""trial"",""time""
""fullscreenenter"",""1"",""3280""
","
","","","365.20000000018626","","","22","16221","6367","&#9789;","elianto","#f73b6a7A"," "," ","1","0","[1216.5]","1","0","4","","","","","","","",""
"pit-trial","83","657268","0.0-2.0-17.0-2.0","battery-v0.2","","""event"",""trial"",""time""
""fullscreenenter"",""1"",""3280""
","
","
","""event"",""trial"",""time""
""fullscreenenter"",""1"",""3280""
","
","","","387","","","22","16221","6367","&#9789;","elianto","#f73b6a7A"," "," ","1","0","[1238.6000000000931]","1","0","4","","","","","","","",""
"pit-trial","84","660446","0.0-2.0-17.0-3.0","battery-v0.2","","""event"",""trial"",""time""
""fullscreenenter"",""1"",""3280""
","
","
","""event"",""trial"",""time""
""fullscreenenter"",""1"",""3280""
","
","","","322.1999999997206","","","22","16221","6367","&#9789;","elianto","#f73b6a7A"," "," ","1","-10","[1173.1999999997206]","1","0","4","","","","","","","",""
"pit-trial","85","663836","0.0-2.0-17.0-4.0","battery-v0.2","","""event"",""trial"",""time""
""fullscreenenter"",""1"",""3280""
","
","
","""event"",""trial"",""time""
""fullscreenenter"",""1"",""3280""
","
","","","535.6000000000931","","","22","16221","6367","&#9789;","elianto","#f73b6a7A"," "," ","1","0","[1386.5]","1","0","4","","","","","","","",""
"pit-trial","86","667133","0.0-2.0-17.1-0.1","battery-v0.2","","""event"",""trial"",""time""
""fullscreenenter"",""1"",""3280""
","
","
","""event"",""trial"",""time""
""fullscreenenter"",""1"",""3280""
","
","","","438.79999999981374","","","22","16221","6367","&#9789;","elianto","#f73b6a7A"," "," ","1","0","[1291.1000000000931]","1","0","4","","","","","","","",""
"pit-trial","87","670347","0.0-2.0-17.1-1.1","battery-v0.2","","""event"",""trial"",""time""
""fullscreenenter"",""1"",""3280""
","
","
","""event"",""trial"",""time""
""fullscreenenter"",""1"",""3280""
","
","","","358.60000000009313","","","22","16221","6367","&#9789;","elianto","#f73b6a7A"," "," ","1","0","[1209.9000000003725]","1","0","4","","","","","","","",""
"pit-trial","88","673576","0.0-2.0-17.1-2.1","battery-v0.2","","""event"",""trial"",""time""
""fullscreenenter"",""1"",""3280""
","
","
","""event"",""trial"",""time""
""fullscreenenter"",""1"",""3280""
","
","","","374","","","22","16221","6367","&#9789;","elianto","#f73b6a7A"," "," ","1","0","[1225.1999999997206]","1","0","4","","","","","","","",""
"pit-trial","89","676680","0.0-2.0-17.1-3.1","battery-v0.2","","""event"",""trial"",""time""
""fullscreenenter"",""1"",""3280""
","
","
","""event"",""trial"",""time""
""fullscreenenter"",""1"",""3280""
","
","","","247.90000000037253","","","22","16221","6367","&#9789;","elianto","#f73b6a7A"," "," ","1","-10","[1099.6000000000931]","1","0","4","","","","","","","",""
"pit-trial","90","679835","0.0-2.0-17.1-4.1","battery-v0.2","","""event"",""trial"",""time""
""fullscreenenter"",""1"",""3280""
","
","
","""event"",""trial"",""time""
""fullscreenenter"",""1"",""3280""
","
","","","300.5","","","22","16221","6367","&#9789;","elianto","#f73b6a7A"," "," ","1","0","[1151.2000000001863]","1","0","4","","","","","","","",""
"pit-trial","91","683001","0.0-2.0-17.2-0.2","battery-v0.2","","""event"",""trial"",""time""
""fullscreenenter"",""1"",""3280""
","
","
","""event"",""trial"",""time""
""fullscreenenter"",""1"",""3280""
","
","","","311","","","22","16221","6367","&#9789;","elianto","#f73b6a7A"," "," ","1","0","[1162.5]","1","0","4","","","","","","","",""
"pit-trial","92","686126","0.0-2.0-17.2-1.2","battery-v0.2","","""event"",""trial"",""time""
""fullscreenenter"",""1"",""3280""
","
","
","""event"",""trial"",""time""
""fullscreenenter"",""1"",""3280""
","
","","","270","","","22","16221","6367","&#9789;","elianto","#f73b6a7A"," "," ","1","0","[1121.3000000002794]","1","0","4","","","","","","","",""
"pit-trial","93","689334","0.0-2.0-17.2-2.2","battery-v0.2","","""event"",""trial"",""time""
""fullscreenenter"",""1"",""3280""
","
","
","""event"",""trial"",""time""
""fullscreenenter"",""1"",""3280""
","
","","","352.39999999990687","","","22","16221","6367","&#9789;","elianto","#f73b6a7A"," "," ","1","0","[1203.2999999998137]","1","0","4","","","","","","","",""
"pit-trial","94","692585","0.0-2.0-17.2-3.2","battery-v0.2","","""event"",""trial"",""time""
""fullscreenenter"",""1"",""3280""
","
","
","""event"",""trial"",""time""
""fullscreenenter"",""1"",""3280""
","
","","","395.70000000018626","","","22","16221","6367","&#9789;","elianto","#f73b6a7A"," "," ","1","-10","[1247]","1","0","4","","","","","","","",""
"pit-trial","95","695807","0.0-2.0-17.2-4.2","battery-v0.2","","""event"",""trial"",""time""
""fullscreenenter"",""1"",""3280""
","
","
","""event"",""trial"",""time""
""fullscreenenter"",""1"",""3280""
","
","","","367.10000000009313","","","22","16221","6367","&#9789;","elianto","#f73b6a7A"," "," ","1","0","[1217.3999999999069]","1","0","4","","","","","","","",""
"pit-trial","96","698995","0.0-2.0-17.3-0.3","battery-v0.2","","""event"",""trial"",""time""
""fullscreenenter"",""1"",""3280""
","
","
","""event"",""trial"",""time""
""fullscreenenter"",""1"",""3280""
","
","","","330.3000000002794","","","22","16221","6367","&#9789;","elianto","#f73b6a7A"," "," ","1","0","[1182.3000000002794]","1","0","4","","","","","","","",""
"pit-trial","97","702240","0.0-2.0-17.3-1.3","battery-v0.2","","""event"",""trial"",""time""
""fullscreenenter"",""1"",""3280""
","
","
","""event"",""trial"",""time""
""fullscreenenter"",""1"",""3280""
","
","","","390.70000000018626","","","22","16221","6367","&#9789;","elianto","#f73b6a7A"," "," ","1","0","[1241.5]","1","0","4","","","","","","","",""
"pit-trial","98","705599","0.0-2.0-17.3-2.3","battery-v0.2","","""event"",""trial"",""time""
""fullscreenenter"",""1"",""3280""
","
","
","""event"",""trial"",""time""
""fullscreenenter"",""1"",""3280""
","
","","","503.5","","","22","16221","6367","&#9789;","elianto","#f73b6a7A"," "," ","1","0","[1354.6999999997206]","1","0","4","","","","","","","",""
"pit-trial","99","708845","0.0-2.0-17.3-3.3","battery-v0.2","","""event"",""trial"",""time""
""fullscreenenter"",""1"",""3280""
","
","
","""event"",""trial"",""time""
""fullscreenenter"",""1"",""3280""
","
","","","390.29999999981374","","","22","16221","6367","&#9789;","elianto","#f73b6a7A"," "," ","1","-10","[1242]","1","0","4","","","","","","","",""
"pit-trial","100","711925","0.0-2.0-17.3-4.3","battery-v0.2","","""event"",""trial"",""time""
""fullscreenenter"",""1"",""3280""
","
","
","""event"",""trial"",""time""
""fullscreenenter"",""1"",""3280""
","
","","","225.39999999990687","","","22","16221","6367","&#9789;","elianto","#f73b6a7A"," "," ","1","0","[1076.2999999998137]","1","0","4","","","","","","","",""
"call-function","101","711927","0.0-2.0-18.0","battery-v0.2","","""event"",""trial"",""time""
""fullscreenenter"",""1"",""3280""
","
","
","""event"",""trial"",""time""
""fullscreenenter"",""1"",""3280""
","
","","","","","","","","","","","","","","","","","","","","","","","","","","",""
"pit-instructions","102","785933","0.0-2.0-19.0","battery-v0.2","","""event"",""trial"",""time""
""fullscreenenter"",""1"",""3280""
","
","
","""event"",""trial"",""time""
""fullscreenenter"",""1"",""3280""
","
","","[{""page_index"":0,""viewing_time"":6561.399999999907},{""page_index"":1,""viewing_time"":5822.899999999907},{""page_index"":2,""viewing_time"":17705.100000000093},{""page_index"":3,""viewing_time"":7305.699999999721},{""page_index"":4,""viewing_time"":8186.600000000093},{""page_index"":5,""viewing_time"":9373.80000000028},{""page_index"":6,""viewing_time"":8405.099999999627},{""page_index"":7,""viewing_time"":6814.300000000279},{""page_index"":8,""viewing_time"":3832.6999999997206}]","74008.19999999972","","","","","","","","","","","","","","","","","","","","","","","",""
"pit-comprehension","103","791305","0.0-2.0-20.0-0.0","battery-v0.2","","""event"",""trial"",""time""
""fullscreenenter"",""1"",""3280""
","
","
","""event"",""trial"",""time""
""fullscreenenter"",""1"",""3280""
","
","","","5366.399999999907","[""SPACE""]","0","22","16221","6367","","","","","","","","","","","","","","","","","","",""
"pit-instructions","104","794050","0.0-2.0-20.0-1.0","battery-v0.2","","""event"",""trial"",""time""
""fullscreenenter"",""1"",""3280""
","
","
","""event"",""trial"",""time""
""fullscreenenter"",""1"",""3280""
","
","","[{""page_index"":0,""viewing_time"":2707.7999999998137}]","2708.399999999907","","","","","","","","","","","","","","","","","","","","","","","",""
"pit-comprehension","105","800809","0.0-2.0-21.0-0.0","battery-v0.2","","""event"",""trial"",""time""
""fullscreenenter"",""1"",""3280""
","
","
","""event"",""trial"",""time""
""fullscreenenter"",""1"",""3280""
","
","","","6755.200000000186","[""10""]","0","22","16221","6367","","","","","","","","","","","","","","","","","","",""
"pit-instructions","106","803399","0.0-2.0-21.0-1.0","battery-v0.2","","""event"",""trial"",""time""
""fullscreenenter"",""1"",""3280""
","
","
","""event"",""trial"",""time""
""fullscreenenter"",""1"",""3280""
","
","","[{""page_index"":0,""viewing_time"":2549}]","2549.399999999907","","","","","","","","","","","","","","","","","","","","","","","",""
"pit-comprehension","107","809951","0.0-2.0-22.0-0.0","battery-v0.2","","""event"",""trial"",""time""
""fullscreenenter"",""1"",""3280""
","
","
","""event"",""trial"",""time""
""fullscreenenter"",""1"",""3280""
","
","","","6547.199999999721","[""0""]","0","22","16221","6367","","","","","","","","","","","","","","","","","","",""
"pit-instructions","108","811794","0.0-2.0-22.0-1.0","battery-v0.2","","""event"",""trial"",""time""
""fullscreenenter"",""1"",""3280""
","
","
","""event"",""trial"",""time""
""fullscreenenter"",""1"",""3280""
","
","","[{""page_index"":0,""viewing_time"":1805.8999999999069}]","1806.2000000001863","","","","","","","","","","","","","","","","","","","","","","","",""
"pit-comprehension","109","821151","0.0-2.0-23.0-0.0","battery-v0.2","","""event"",""trial"",""time""
""fullscreenenter"",""1"",""3280""
","
","
","""event"",""trial"",""time""
""fullscreenenter"",""1"",""3280""
","
","","","9354.399999999907","[""True""]","0","22","16221","6367","","","","","","","","","","","","","","","","","","",""
"pit-instructions","110","822912","0.0-2.0-23.0-1.0","battery-v0.2","","""event"",""trial"",""time""
""fullscreenenter"",""1"",""3280""
","
","
","""event"",""trial"",""time""
""fullscreenenter"",""1"",""3280""
","
","","[{""page_index"":0,""viewing_time"":1719.5}]","1719.7999999998137","","","","","","","","","","","","","","","","","","","","","","","",""
"pit-comprehension","111","830362","0.0-2.0-24.0-0.0","battery-v0.2","","""event"",""trial"",""time""
""fullscreenenter"",""1"",""3280""
","
","
","""event"",""trial"",""time""
""fullscreenenter"",""1"",""3280""
","
","","","7446.5999999996275","[""True""]","0","22","16221","6367","","","","","","","","","","","","","","","","","","",""
"pit-instructions","112","832541","0.0-2.0-24.0-1.0","battery-v0.2","","""event"",""trial"",""time""
""fullscreenenter"",""1"",""3280""
","
","
","""event"",""trial"",""time""
""fullscreenenter"",""1"",""3280""
","
","","[{""page_index"":0,""viewing_time"":2140.899999999907}]","2141.399999999907","","","","","","","","","","","","","","","","","","","","","","","",""
"pit-comprehension","113","838965","0.0-2.0-25.0-0.0","battery-v0.2","","""event"",""trial"",""time""
""fullscreenenter"",""1"",""3280""
","
","
","""event"",""trial"",""time""
""fullscreenenter"",""1"",""3280""
","
","","","6421","[""True""]","0","22","16221","6367","","","","","","","","","","","","","","","","","","",""
"pit-instructions","114","842576","0.0-2.0-25.0-1.0","battery-v0.2","","""event"",""trial"",""time""
""fullscreenenter"",""1"",""3280""
","
","
","""event"",""trial"",""time""
""fullscreenenter"",""1"",""3280""
","
","","[{""page_index"":0,""viewing_time"":3569.7999999998137}]","3570.100000000093","","","","","","","","","","","","","","","","","","","","","","","",""
"pit-comprehension","115","847303","0.0-2.0-26.0-0.0","battery-v0.2","","""event"",""trial"",""time""
""fullscreenenter"",""1"",""3280""
","
","
","""event"",""trial"",""time""
""fullscreenenter"",""1"",""3280""
","
","","","4723.399999999907","[""False""]","0","22","16221","6367","","","","","","","","","","","","","","","","","","",""
"pit-instructions","116","849178","0.0-2.0-26.0-1.0","battery-v0.2","","""event"",""trial"",""time""
""fullscreenenter"",""1"",""3280""
","
","
","""event"",""trial"",""time""
""fullscreenenter"",""1"",""3280""
","
","","[{""page_index"":0,""viewing_time"":1836.1000000000931}]","1836.4000000003725","","","","","","","","","","","","","","","","","","","","","","","",""
"pit-instructions","117","866470","0.0-3.0","battery-v0.2","","""event"",""trial"",""time""
""fullscreenenter"",""1"",""3280""
","
","
","""event"",""trial"",""time""
""fullscreenenter"",""1"",""3280""
","
","","[{""page_index"":0,""viewing_time"":3992.9000000003725},{""page_index"":1,""viewing_time"":5955.399999999907},{""page_index"":2,""viewing_time"":7340.899999999907}]","17289.80000000028","","","","","","","","","","","","","","","","","","","","","","","",""
"pit-trial","118","870229","0.0-4.0","battery-v0.2","","""event"",""trial"",""time""
""fullscreenenter"",""1"",""3280""
","
","
","""event"",""trial"",""time""
""fullscreenenter"",""1"",""3280""
","
","","","899.1000000000931","","","22","16221","6367","&#9733;","elianto","#3366ff99","-1"," ","0","0","[1751]","1","1","","","16221","1","2","2","win","no-go","0"
"pit-trial","119","873878","0.0-5.0","battery-v0.2","","""event"",""trial"",""time""
""fullscreenenter"",""1"",""3280""
","
","
","""event"",""trial"",""time""
""fullscreenenter"",""1"",""3280""
","
","","","793.9000000003725","","","22","16221","6367","&#9730;","elianto","#3366ff99"," "," ","1","+10","[1644.2000000001863]","1","1","","","16221","2","1","1","win","go","0"
"pit-trial","120","877571","0.0-6.0","battery-v0.2","","""event"",""trial"",""time""
""fullscreenenter"",""1"",""3280""
","
","
","""event"",""trial"",""time""
""fullscreenenter"",""1"",""3280""
","
","","","838.5","","","22","16221","6367","&#9752;","elianto","#f73b6a7A"," "," ","1","-10","[1688.6000000000931]","1","1","","","16221","3","3","3","lose","go","1"
"pit-trial","121","881112","0.0-7.0","battery-v0.2","","""event"",""trial"",""time""
""fullscreenenter"",""1"",""3280""
","
","
","""event"",""trial"",""time""
""fullscreenenter"",""1"",""3280""
","
","","","685.5","","","22","16221","6367","&#9728;","elianto","#f73b6a7A","-1"," ","0","-10","[1536.6999999997206]","1","1","","","16221","4","0","4","lose","no-go","0"
"pit-trial","122","885968","0.0-8.0","battery-v0.2","","""event"",""trial"",""time""
""fullscreenenter"",""1"",""3280""
","
","
","""event"",""trial"",""time""
""fullscreenenter"",""1"",""3280""
","
","","","-1","","","22","16221","6367","&#9728;","elianto","#f73b6a7A","-1","-1","1","-10","[]","0","1","","","16221","5","0","4","lose","no-go","1"
"pit-trial","123","890824","0.0-9.0","battery-v0.2","","""event"",""trial"",""time""
""fullscreenenter"",""1"",""3280""
","
","
","""event"",""trial"",""time""
""fullscreenenter"",""1"",""3280""
","
","","","-1","","","22","16221","6367","&#9730;","elianto","#3366ff99"," ","-1","0","0","[]","0","1","","","16221","6","1","1","win","go","0"
"pit-trial","124","895679","0.0-10.0","battery-v0.2","","""event"",""trial"",""time""
""fullscreenenter"",""1"",""3280""
","
","
","""event"",""trial"",""time""
""fullscreenenter"",""1"",""3280""
","
","","","-1","","","22","16221","6367","&#9733;","elianto","#3366ff99","-1","-1","1","+10","[]","0","1","","","16221","7","2","2","win","no-go","0"
"pit-trial","125","900534","0.0-11.0","battery-v0.2","","""event"",""trial"",""time""
""fullscreenenter"",""1"",""3280""
","
","
","""event"",""trial"",""time""
""fullscreenenter"",""1"",""3280""
","
","","","-1","","","22","16221","6367","&#9752;","elianto","#f73b6a7A"," ","-1","0","-10","[]","0","1","","","16221","8","3","3","lose","go","0"
"pit-trial","126","904214","0.0-12.0","battery-v0.2","","""event"",""trial"",""time""
""fullscreenenter"",""1"",""3280""
","
","
","""event"",""trial"",""time""
""fullscreenenter"",""1"",""3280""
","
","","","823.5999999996275","","","22","16221","6367","&#9752;","elianto","#f73b6a7A"," "," ","1","0","[1675.5]","1","1","","","16221","9","3","3","lose","go","0"
"pit-trial","127","907829","0.0-13.0","battery-v0.2","","""event"",""trial"",""time""
""fullscreenenter"",""1"",""3280""
","
","
","""event"",""trial"",""time""
""fullscreenenter"",""1"",""3280""
","
","","","759.6000000000931","","","22","16221","6367","&#9730;","elianto","#3366ff99"," "," ","1","+10","[1611]","1","1","","","16221","10","1","1","win","go","0"
"pit-trial","128","912684","0.0-14.0","battery-v0.2","","""event"",""trial"",""time""
""fullscreenenter"",""1"",""3280""
","
","
","""event"",""trial"",""time""
""fullscreenenter"",""1"",""3280""
","
","","","-1","","","22","16221","6367","&#9733;","elianto","#3366ff99","-1","-1","1","+10","[]","0","1","","","16221","11","2","2","win","no-go","0"
"pit-trial","129","916821","0.0-15.0","battery-v0.2","","""event"",""trial"",""time""
""fullscreenenter"",""1"",""3280""
","
","
","""event"",""trial"",""time""
""fullscreenenter"",""1"",""3280""
","
","","","1282.6000000000931","","","22","16221","6367","&#9728;","elianto","#f73b6a7A","-1"," ","0","-10","[2132.7000000001863]","1","1","","","16221","12","0","4","lose","no-go","0"
"pit-trial","130","920815","0.0-16.0","battery-v0.2","","""event"",""trial"",""time""
""fullscreenenter"",""1"",""3280""
","
","
","""event"",""trial"",""time""
""fullscreenenter"",""1"",""3280""
","
","","","1140.9000000003725","","","22","16221","6367","&#9752;","elianto","#f73b6a7A"," "," ","1","-10","[1991.2000000001863]","1","1","","","16221","13","3","3","lose","go","1"
"pit-trial","131","924419","0.0-17.0","battery-v0.2","","""event"",""trial"",""time""
""fullscreenenter"",""1"",""3280""
","
","
","""event"",""trial"",""time""
""fullscreenenter"",""1"",""3280""
","
","","","747.7999999998137","","","22","16221","6367","&#9730;","elianto","#3366ff99"," "," ","1","+10","[1598.5]","1","1","","","16221","14","1","1","win","go","0"
"pit-trial","132","929277","0.0-18.0","battery-v0.2","","""event"",""trial"",""time""
""fullscreenenter"",""1"",""3280""
","
","
","""event"",""trial"",""time""
""fullscreenenter"",""1"",""3280""
","
","","","-1","","","22","16221","6367","&#9728;","elianto","#f73b6a7A","-1","-1","1","0","[]","0","1","","","16221","15","0","4","lose","no-go","0"
"pit-trial","133","934133","0.0-19.0","battery-v0.2","","""event"",""trial"",""time""
""fullscreenenter"",""1"",""3280""
","
","
","""event"",""trial"",""time""
""fullscreenenter"",""1"",""3280""
","
","","","-1","","","22","16221","6367","&#9733;","elianto","#3366ff99","-1","-1","1","+10","[]","0","1","","","16221","16","2","2","win","no-go","0"
"pit-trial","134","938989","0.0-20.0","battery-v0.2","","""event"",""trial"",""time""
""fullscreenenter"",""1"",""3280""
","
","
","""event"",""trial"",""time""
""fullscreenenter"",""1"",""3280""
","
","","","-1","","","22","16221","6367","&#9728;","elianto","#f73b6a7A","-1","-1","1","0","[]","0","1","","","16221","17","0","4","lose","no-go","0"
"pit-trial","135","942677","0.0-21.0","battery-v0.2","","""event"",""trial"",""time""
""fullscreenenter"",""1"",""3280""
","
","
","""event"",""trial"",""time""
""fullscreenenter"",""1"",""3280""
","
","","","833.5","","","22","16221","6367","&#9730;","elianto","#3366ff99"," "," ","1","+10","[1685.0999999996275]","1","1","","","16221","18","1","1","win","go","0"
"pit-trial","136","947533","0.0-22.0","battery-v0.2","","""event"",""trial"",""time""
""fullscreenenter"",""1"",""3280""
","
","
","""event"",""trial"",""time""
""fullscreenenter"",""1"",""3280""
","
","","","-1","","","22","16221","6367","&#9752;","elianto","#f73b6a7A"," ","-1","0","-10","[]","0","1","","","16221","19","3","3","lose","go","0"
"pit-trial","137","952388","0.0-23.0","battery-v0.2","","""event"",""trial"",""time""
""fullscreenenter"",""1"",""3280""
","
","
","""event"",""trial"",""time""
""fullscreenenter"",""1"",""3280""
","
","","","-1","","","22","16221","6367","&#9733;","elianto","#3366ff99","-1","-1","1","+10","[]","0","1","","","16221","20","2","2","win","no-go","0"
"pit-instructions","138","964497","0.0-24.0","battery-v0.2","","""event"",""trial"",""time""
""fullscreenenter"",""1"",""3280""
","
","
","""event"",""trial"",""time""
""fullscreenenter"",""1"",""3280""
","
","","[{""page_index"":0,""viewing_time"":5540.799999999814},{""page_index"":1,""viewing_time"":6565.899999999907}]","12107.19999999972","","","","","","","","","","","","","","","","","","","","","","","",""
"pit-trial","139","968145","0.0-25.0","battery-v0.2","","""event"",""trial"",""time""
""fullscreenenter"",""1"",""3280""
","
","
","""event"",""trial"",""time""
""fullscreenenter"",""1"",""3280""
","
","","","791.1000000000931","","","22","16221","6367","b","elianto","#f73b6a7A","-1"," ","0","-10","[1641.5999999996275]","1","2","","","16221","21","3","4","lose","no-go","0"
"pit-trial","140","971761","0.0-26.0","battery-v0.2","","""event"",""trial"",""time""
""fullscreenenter"",""1"",""3280""
","
","
","""event"",""trial"",""time""
""fullscreenenter"",""1"",""3280""
","
","","","760.7999999998137","","","22","16221","6367","t","elianto","#f73b6a7A"," "," ","1","0","[1611.2999999998137]","1","2","","","16221","22","2","3","lose","go","0"
"pit-trial","141","975308","0.0-27.0","battery-v0.2","","""event"",""trial"",""time""
""fullscreenenter"",""1"",""3280""
","
","
","""event"",""trial"",""time""
""fullscreenenter"",""1"",""3280""
","
","","","692.6000000000931","","","22","16221","6367","n","elianto","#f73b6a7A"," "," ","1","0","[1543.3999999999069]","1","2","","","16221","23","0","3","lose","go","0"
"pit-trial","142","978942","0.0-28.0","battery-v0.2","","""event"",""trial"",""time""
""fullscreenenter"",""1"",""3280""
","
","
","""event"",""trial"",""time""
""fullscreenenter"",""1"",""3280""
","
","","","779.3999999999069","","","22","16221","6367","f","elianto","#3366ff99","-1"," ","0","0","[1630]","1","2","","","16221","24","1","2","win","no-go","0"
"pit-trial","143","983797","0.0-29.0","battery-v0.2","","""event"",""trial"",""time""
""fullscreenenter"",""1"",""3280""
","
","
","""event"",""trial"",""time""
""fullscreenenter"",""1"",""3280""
","
","","","-1","","","22","16221","6367","b","elianto","#f73b6a7A","-1","-1","1","-10","[]","0","2","","","16221","25","3","4","lose","no-go","1"
"pit-trial","144","987776","0.0-30.0","battery-v0.2","","""event"",""trial"",""time""
""fullscreenenter"",""1"",""3280""
","
","
","""event"",""trial"",""time""
""fullscreenenter"",""1"",""3280""
","
","","","1124.7999999998137","","","22","16221","6367","n","elianto","#f73b6a7A"," "," ","1","0","[1975.7999999998137]","1","2","","","16221","26","0","3","lose","go","0"
"pit-trial","145","991743","0.0-31.0","battery-v0.2","","""event"",""trial"",""time""
""fullscreenenter"",""1"",""3280""
","
","
","""event"",""trial"",""time""
""fullscreenenter"",""1"",""3280""
","
","","","1110.6999999997206","","","22","16221","6367","t","elianto","#f73b6a7A"," "," ","1","0","[1962.7999999998137]","1","2","","","16221","27","2","3","lose","go","0"
"pit-trial","146","996598","0.0-32.0","battery-v0.2","","""event"",""trial"",""time""
""fullscreenenter"",""1"",""3280""
","
","
","""event"",""trial"",""time""
""fullscreenenter"",""1"",""3280""
","
","","","-1","","","22","16221","6367","f","elianto","#3366ff99","-1","-1","1","+10","[]","0","2","","","16221","28","1","2","win","no-go","0"
"pit-trial","147","1000117","0.0-33.0","battery-v0.2","","""event"",""trial"",""time""
""fullscreenenter"",""1"",""3280""
","
","
","""event"",""trial"",""time""
""fullscreenenter"",""1"",""3280""
","
","","","665.1999999997206","","","22","16221","6367","n","elianto","#f73b6a7A"," "," ","1","-10","[1516]","1","2","","","16221","29","0","3","lose","go","1"
"pit-trial","148","1004973","0.0-34.0","battery-v0.2","","""event"",""trial"",""time""
""fullscreenenter"",""1"",""3280""
","
","
","""event"",""trial"",""time""
""fullscreenenter"",""1"",""3280""
","
","","","-1","","","22","16221","6367","b","elianto","#f73b6a7A","-1","-1","1","0","[]","0","2","","","16221","30","3","4","lose","no-go","0"
"pit-trial","149","1008569","0.0-35.0","battery-v0.2","","""event"",""trial"",""time""
""fullscreenenter"",""1"",""3280""
","
","
","""event"",""trial"",""time""
""fullscreenenter"",""1"",""3280""
","
","","","741.7999999998137","","","22","16221","6367","t","elianto","#f73b6a7A"," "," ","1","0","[1593]","1","2","","","16221","31","2","3","lose","go","0"
"pit-trial","150","1013428","0.0-36.0","battery-v0.2","","""event"",""trial"",""time""
""fullscreenenter"",""1"",""3280""
","
","
","""event"",""trial"",""time""
""fullscreenenter"",""1"",""3280""
","
","","","-1","","","22","16221","6367","f","elianto","#3366ff99","-1","-1","1","+10","[]","0","2","","","16221","32","1","2","win","no-go","0"
"pit-trial","151","1018284","0.0-37.0","battery-v0.2","","""event"",""trial"",""time""
""fullscreenenter"",""1"",""3280""
","
","
","""event"",""trial"",""time""
""fullscreenenter"",""1"",""3280""
","
","","","-1","","","22","16221","6367","b","elianto","#f73b6a7A","-1","-1","1","0","[]","0","2","","","16221","33","3","4","lose","no-go","0"
"pit-trial","152","1021797","0.0-38.0","battery-v0.2","","""event"",""trial"",""time""
""fullscreenenter"",""1"",""3280""
","
","
","""event"",""trial"",""time""
""fullscreenenter"",""1"",""3280""
","
","","","658.2000000001863","","","22","16221","6367","t","elianto","#f73b6a7A"," "," ","1","0","[1509.2999999998137]","1","2","","","16221","34","2","3","lose","go","0"
"pit-trial","153","1025229","0.0-39.0","battery-v0.2","","""event"",""trial"",""time""
""fullscreenenter"",""1"",""3280""
","
","
","""event"",""trial"",""time""
""fullscreenenter"",""1"",""3280""
","
","","","578.2000000001863","","","22","16221","6367","n","elianto","#f73b6a7A"," "," ","1","0","[1429.2000000001863]","1","2","","","16221","35","0","3","lose","go","0"
"pit-trial","154","1030084","0.0-40.0","battery-v0.2","","""event"",""trial"",""time""
""fullscreenenter"",""1"",""3280""
","
","
","""event"",""trial"",""time""
""fullscreenenter"",""1"",""3280""
","
","","","-1","","","22","16221","6367","f","elianto","#3366ff99","-1","-1","1","0","[]","0","2","","","16221","36","1","2","win","no-go","1"
"pit-trial","155","1033687","0.0-41.0","battery-v0.2","","""event"",""trial"",""time""
""fullscreenenter"",""1"",""3280""
","
","
","""event"",""trial"",""time""
""fullscreenenter"",""1"",""3280""
","
","","","747.2000000001863","","","22","16221","6367","t","elianto","#f73b6a7A"," "," ","1","0","[1597.8999999994412]","1","2","","","16221","37","2","3","lose","go","0"
"pit-trial","156","1038542","0.0-42.0","battery-v0.2","","""event"",""trial"",""time""
""fullscreenenter"",""1"",""3280""
","
","
","""event"",""trial"",""time""
""fullscreenenter"",""1"",""3280""
","
","","","-1","","","22","16221","6367","f","elianto","#3366ff99","-1","-1","1","+10","[]","0","2","","","16221","38","1","2","win","no-go","0"
"pit-trial","157","1042249","0.0-43.0","battery-v0.2","","""event"",""trial"",""time""
""fullscreenenter"",""1"",""3280""
","
","
","""event"",""trial"",""time""
""fullscreenenter"",""1"",""3280""
","
","","","851.5999999996275","","","22","16221","6367","n","elianto","#f73b6a7A"," "," ","1","0","[1702.5999999996275]","1","2","","","16221","39","0","3","lose","go","0"
"pit-trial","158","1047105","0.0-44.0","battery-v0.2","","""event"",""trial"",""time""
""fullscreenenter"",""1"",""3280""
","
","
","""event"",""trial"",""time""
""fullscreenenter"",""1"",""3280""
","
","","","-1","","","22","16221","6367","b","elianto","#f73b6a7A","-1","-1","1","0","[]","0","2","","","16221","40","3","4","lose","no-go","0"
"pit-trial","159","1051960","0.0-45.0","battery-v0.2","","""event"",""trial"",""time""
""fullscreenenter"",""1"",""3280""
","
","
","""event"",""trial"",""time""
""fullscreenenter"",""1"",""3280""
","
","","","-1","","","22","16221","6367","b","elianto","#f73b6a7A","-1","-1","1","0","[]","0","2","","","16221","41","3","4","lose","no-go","0"
"pit-trial","160","1056819","0.0-46.0","battery-v0.2","","""event"",""trial"",""time""
""fullscreenenter"",""1"",""3280""
","
","
","""event"",""trial"",""time""
""fullscreenenter"",""1"",""3280""
","
","","","-1","","","22","16221","6367","f","elianto","#3366ff99","-1","-1","1","+10","[]","0","2","","","16221","42","1","2","win","no-go","0"
"pit-trial","161","1060228","0.0-47.0","battery-v0.2","","""event"",""trial"",""time""
""fullscreenenter"",""1"",""3280""
","
","
","""event"",""trial"",""time""
""fullscreenenter"",""1"",""3280""
","
","","","553.7999999998137","","","22","16221","6367","n","elianto","#f73b6a7A"," "," ","1","0","[1404.4000000003725]","1","2","","","16221","43","0","3","lose","go","0"
"pit-trial","162","1063700","0.0-48.0","battery-v0.2","","""event"",""trial"",""time""
""fullscreenenter"",""1"",""3280""
","
","
","""event"",""trial"",""time""
""fullscreenenter"",""1"",""3280""
","
","","","615.8000000007451","","","22","16221","6367","t","elianto","#f73b6a7A"," "," ","1","0","[1468]","1","2","","","16221","44","2","3","lose","go","0"
"pit-trial","163","1067218","0.0-49.0","battery-v0.2","","""event"",""trial"",""time""
""fullscreenenter"",""1"",""3280""
","
","
","""event"",""trial"",""time""
""fullscreenenter"",""1"",""3280""
","
","","","662.5999999996275","","","22","16221","6367","t","elianto","#f73b6a7A"," "," ","1","-10","[1514.1000000005588]","1","2","","","16221","45","2","3","lose","go","1"
"pit-trial","164","1070662","0.0-50.0","battery-v0.2","","""event"",""trial"",""time""
""fullscreenenter"",""1"",""3280""
","
","
","""event"",""trial"",""time""
""fullscreenenter"",""1"",""3280""
","
","","","587.6999999992549","","","22","16221","6367","n","elianto","#f73b6a7A"," "," ","1","-10","[1438.9000000003725]","1","2","","","16221","46","0","3","lose","go","1"
"pit-trial","165","1075517","0.0-51.0","battery-v0.2","","""event"",""trial"",""time""
""fullscreenenter"",""1"",""3280""
","
","
","""event"",""trial"",""time""
""fullscreenenter"",""1"",""3280""
","
","","","-1","","","22","16221","6367","b","elianto","#f73b6a7A","-1","-1","1","0","[]","0","2","","","16221","47","3","4","lose","no-go","0"
"pit-trial","166","1080373","0.0-52.0","battery-v0.2","","""event"",""trial"",""time""
""fullscreenenter"",""1"",""3280""
","
","
","""event"",""trial"",""time""
""fullscreenenter"",""1"",""3280""
","
","","","-1","","","22","16221","6367","f","elianto","#3366ff99","-1","-1","1","0","[]","0","2","","","16221","48","1","2","win","no-go","1"
"pit-trial","167","1083870","0.0-53.0","battery-v0.2","","""event"",""trial"",""time""
""fullscreenenter"",""1"",""3280""
","
","
","""event"",""trial"",""time""
""fullscreenenter"",""1"",""3280""
","
","","","642.2000000001863","","","22","16221","6367","n","elianto","#f73b6a7A"," "," ","1","0","[1493.3999999994412]","1","2","","","16221","49","0","3","lose","go","0"
"pit-trial","168","1088725","0.0-54.0","battery-v0.2","","""event"",""trial"",""time""
""fullscreenenter"",""1"",""3280""
","
","
","""event"",""trial"",""time""
""fullscreenenter"",""1"",""3280""
","
","","","-1","","","22","16221","6367","f","elianto","#3366ff99","-1","-1","1","+10","[]","0","2","","","16221","50","1","2","win","no-go","0"
"pit-trial","169","1093581","0.0-55.0","battery-v0.2","","""event"",""trial"",""time""
""fullscreenenter"",""1"",""3280""
","
","
","""event"",""trial"",""time""
""fullscreenenter"",""1"",""3280""
","
","","","-1","","","22","16221","6367","b","elianto","#f73b6a7A","-1","-1","1","0","[]","0","2","","","16221","51","3","4","lose","no-go","0"
"pit-trial","170","1097088","0.0-56.0","battery-v0.2","","""event"",""trial"",""time""
""fullscreenenter"",""1"",""3280""
","
","
","""event"",""trial"",""time""
""fullscreenenter"",""1"",""3280""
","
","","","651.1000000005588","","","22","16221","6367","t","elianto","#f73b6a7A"," "," ","1","0","[1502.7000000001863]","1","2","","","16221","52","2","3","lose","go","0"
"pit-trial","171","1101943","0.0-57.0","battery-v0.2","","""event"",""trial"",""time""
""fullscreenenter"",""1"",""3280""
","
","
","""event"",""trial"",""time""
""fullscreenenter"",""1"",""3280""
","
","","","-1","","","22","16221","6367","b","elianto","#f73b6a7A","-1","-1","1","-10","[]","0","2","","","16221","53","3","4","lose","no-go","1"
"pit-trial","172","1105604","0.0-58.0","battery-v0.2","","""event"",""trial"",""time""
""fullscreenenter"",""1"",""3280""
","
","
","""event"",""trial"",""time""
""fullscreenenter"",""1"",""3280""
","
","","","807.4000000003725","","","22","16221","6367","t","elianto","#f73b6a7A"," "," ","1","0","[1657.7000000001863]","1","2","","","16221","54","2","3","lose","go","0"
"pit-trial","173","1110460","0.0-59.0","battery-v0.2","","""event"",""trial"",""time""
""fullscreenenter"",""1"",""3280""
","
","
","""event"",""trial"",""time""
""fullscreenenter"",""1"",""3280""
","
","","","-1","","","22","16221","6367","f","elianto","#3366ff99","-1","-1","1","+10","[]","0","2","","","16221","55","1","2","win","no-go","0"
"pit-trial","174","1114052","0.0-60.0","battery-v0.2","","""event"",""trial"",""time""
""fullscreenenter"",""1"",""3280""
","
","
","""event"",""trial"",""time""
""fullscreenenter"",""1"",""3280""
","
","","","736.5999999996275","","","22","16221","6367","n","elianto","#f73b6a7A"," "," ","1","0","[1588.2999999998137]","1","2","","","16221","56","0","3","lose","go","0"
"pit-trial","175","1118908","0.0-61.0","battery-v0.2","","""event"",""trial"",""time""
""fullscreenenter"",""1"",""3280""
","
","
","""event"",""trial"",""time""
""fullscreenenter"",""1"",""3280""
","
","","","-1","","","22","16221","6367","b","elianto","#f73b6a7A","-1","-1","1","0","[]","0","2","","","16221","57","3","4","lose","no-go","0"
"pit-trial","176","1123052","0.0-62.0","battery-v0.2","","""event"",""trial"",""time""
""fullscreenenter"",""1"",""3280""
","
","
","""event"",""trial"",""time""
""fullscreenenter"",""1"",""3280""
","
","","","1287.7999999998137","","","22","16221","6367","c","elianto","#3366ff99"," "," ","1","+10","[2139.2000000001863]","1","2","","","16221","58","4","1","win","go","0"
"pit-trial","177","1126697","0.0-63.0","battery-v0.2","","""event"",""trial"",""time""
""fullscreenenter"",""1"",""3280""
","
","
","""event"",""trial"",""time""
""fullscreenenter"",""1"",""3280""
","
","","","787.6000000005588","","","22","16221","6367","t","elianto","#f73b6a7A"," "," ","1","0","[1640.300000000745]","1","2","","","16221","59","2","3","lose","go","0"
"pit-trial","178","1130256","0.0-64.0","battery-v0.2","","""event"",""trial"",""time""
""fullscreenenter"",""1"",""3280""
","
","
","""event"",""trial"",""time""
""fullscreenenter"",""1"",""3280""
","
","","","704.5","","","22","16221","6367","n","elianto","#f73b6a7A"," "," ","1","0","[1554.9000000003725]","1","2","","","16221","60","0","3","lose","go","0"
"pit-trial","179","1135112","0.0-65.0","battery-v0.2","","""event"",""trial"",""time""
""fullscreenenter"",""1"",""3280""
","
","
","""event"",""trial"",""time""
""fullscreenenter"",""1"",""3280""
","
","","","-1","","","22","16221","6367","f","elianto","#3366ff99","-1","-1","1","0","[]","0","2","","","16221","61","1","2","win","no-go","1"
"pit-trial","180","1138668","0.0-66.0","battery-v0.2","","""event"",""trial"",""time""
""fullscreenenter"",""1"",""3280""
","
","
","""event"",""trial"",""time""
""fullscreenenter"",""1"",""3280""
","
","","","700.6999999992549","","","22","16221","6367","c","elianto","#3366ff99"," "," ","1","0","[1551.7999999998137]","1","2","","","16221","62","4","1","win","go","1"
"pit-trial","181","1143523","0.0-67.0","battery-v0.2","","""event"",""trial"",""time""
""fullscreenenter"",""1"",""3280""
","
","
","""event"",""trial"",""time""
""fullscreenenter"",""1"",""3280""
","
","","","-1","","","22","16221","6367","b","elianto","#f73b6a7A","-1","-1","1","0","[]","0","2","","","16221","63","3","4","lose","no-go","0"
"pit-trial","182","1147037","0.0-68.0","battery-v0.2","","""event"",""trial"",""time""
""fullscreenenter"",""1"",""3280""
","
","
","""event"",""trial"",""time""
""fullscreenenter"",""1"",""3280""
","
","","","660.1999999992549","","","22","16221","6367","t","elianto","#f73b6a7A"," "," ","1","0","[1510.2000000001863]","1","2","","","16221","64","2","3","lose","go","0"
"pit-trial","183","1150798","0.0-69.0","battery-v0.2","","""event"",""trial"",""time""
""fullscreenenter"",""1"",""3280""
","
","
","""event"",""trial"",""time""
""fullscreenenter"",""1"",""3280""
","
","","","906.0999999996275","","","22","16221","6367","z","elianto","#3366ff99","-1"," ","0","0","[1756.0999999996275]","1","2","","","16221","65","5","2","win","no-go","0"
"pit-trial","184","1155654","0.0-70.0","battery-v0.2","","""event"",""trial"",""time""
""fullscreenenter"",""1"",""3280""
","
","
","""event"",""trial"",""time""
""fullscreenenter"",""1"",""3280""
","
","","","-1","","","22","16221","6367","b","elianto","#f73b6a7A","-1","-1","1","0","[]","0","2","","","16221","66","3","4","lose","no-go","0"
"pit-trial","185","1160507","0.0-71.0","battery-v0.2","","""event"",""trial"",""time""
""fullscreenenter"",""1"",""3280""
","
","
","""event"",""trial"",""time""
""fullscreenenter"",""1"",""3280""
","
","","","-1","","","22","16221","6367","f","elianto","#3366ff99","-1","-1","1","+10","[]","0","2","","","16221","67","1","2","win","no-go","0"
"pit-trial","186","1164232","0.0-72.0","battery-v0.2","","""event"",""trial"",""time""
""fullscreenenter"",""1"",""3280""
","
","
","""event"",""trial"",""time""
""fullscreenenter"",""1"",""3280""
","
","","","867.7000000001863","","","22","16221","6367","c","elianto","#3366ff99"," "," ","1","+10","[1718.5999999996275]","1","2","","","16221","68","4","1","win","go","0"
"pit-trial","187","1169088","0.0-73.0","battery-v0.2","","""event"",""trial"",""time""
""fullscreenenter"",""1"",""3280""
","
","
","""event"",""trial"",""time""
""fullscreenenter"",""1"",""3280""
","
","","","-1","","","22","16221","6367","f","elianto","#3366ff99","-1","-1","1","+10","[]","0","2","","","16221","69","1","2","win","no-go","0"
"pit-trial","188","1172868","0.0-74.0","battery-v0.2","","""event"",""trial"",""time""
""fullscreenenter"",""1"",""3280""
","
","
","""event"",""trial"",""time""
""fullscreenenter"",""1"",""3280""
","
","","","926","","","22","16221","6367","c","elianto","#3366ff99"," "," ","1","0","[1777]","1","2","","","16221","70","4","1","win","go","1"
"pit-trial","189","1177724","0.0-75.0","battery-v0.2","","""event"",""trial"",""time""
""fullscreenenter"",""1"",""3280""
","
","
","""event"",""trial"",""time""
""fullscreenenter"",""1"",""3280""
","
","","","-1","","","22","16221","6367","z","elianto","#3366ff99","-1","-1","1","+10","[]","0","2","","","16221","71","5","2","win","no-go","0"
"pit-trial","190","1181368","0.0-76.0","battery-v0.2","","""event"",""trial"",""time""
""fullscreenenter"",""1"",""3280""
","
","
","""event"",""trial"",""time""
""fullscreenenter"",""1"",""3280""
","
","","","787.7000000001863","","","22","16221","6367","t","elianto","#f73b6a7A"," "," ","1","0","[1639.2000000001863]","1","2","","","16221","72","2","3","lose","go","0"
"pit-trial","191","1186223","0.0-77.0","battery-v0.2","","""event"",""trial"",""time""
""fullscreenenter"",""1"",""3280""
","
","
","""event"",""trial"",""time""
""fullscreenenter"",""1"",""3280""
","
","","","-1","","","22","16221","6367","f","elianto","#3366ff99","-1","-1","1","+10","[]","0","2","","","16221","73","1","2","win","no-go","0"
"pit-trial","192","1191079","0.0-78.0","battery-v0.2","","""event"",""trial"",""time""
""fullscreenenter"",""1"",""3280""
","
","
","""event"",""trial"",""time""
""fullscreenenter"",""1"",""3280""
","
","","","-1","","","22","16221","6367","b","elianto","#f73b6a7A","-1","-1","1","-10","[]","0","2","","","16221","74","3","4","lose","no-go","1"
"pit-trial","193","1194706","0.0-79.0","battery-v0.2","","""event"",""trial"",""time""
""fullscreenenter"",""1"",""3280""
","
","
","""event"",""trial"",""time""
""fullscreenenter"",""1"",""3280""
","
","","","772.0999999996275","","","22","16221","6367","c","elianto","#3366ff99"," "," ","1","0","[1622.7000000001863]","1","2","","","16221","75","4","1","win","go","1"
"pit-trial","194","1199562","0.0-80.0","battery-v0.2","","""event"",""trial"",""time""
""fullscreenenter"",""1"",""3280""
","
","
","""event"",""trial"",""time""
""fullscreenenter"",""1"",""3280""
","
","","","-1","","","22","16221","6367","z","elianto","#3366ff99","-1","-1","1","0","[]","0","2","","","16221","76","5","2","win","no-go","1"
"pit-trial","195","1204416","0.0-81.0","battery-v0.2","","""event"",""trial"",""time""
""fullscreenenter"",""1"",""3280""
","
","
","""event"",""trial"",""time""
""fullscreenenter"",""1"",""3280""
","
","","","-1","","","22","16221","6367","b","elianto","#f73b6a7A","-1","-1","1","0","[]","0","2","","","16221","77","3","4","lose","no-go","0"
"pit-trial","196","1209270","0.0-82.0","battery-v0.2","","""event"",""trial"",""time""
""fullscreenenter"",""1"",""3280""
","
","
","""event"",""trial"",""time""
""fullscreenenter"",""1"",""3280""
","
","","","-1","","","22","16221","6367","c","elianto","#3366ff99"," ","-1","0","0","[]","0","2","","","16221","78","4","1","win","go","0"
"pit-trial","197","1214126","0.0-83.0","battery-v0.2","","""event"",""trial"",""time""
""fullscreenenter"",""1"",""3280""
","
","
","""event"",""trial"",""time""
""fullscreenenter"",""1"",""3280""
","
","","","-1","","","22","16221","6367","z","elianto","#3366ff99","-1","-1","1","+10","[]","0","2","","","16221","79","5","2","win","no-go","0"
"pit-trial","198","1217717","0.0-84.0","battery-v0.2","","""event"",""trial"",""time""
""fullscreenenter"",""1"",""3280""
","
","
","""event"",""trial"",""time""
""fullscreenenter"",""1"",""3280""
","
","","","734.7999999998137","","","22","16221","6367","c","elianto","#3366ff99"," "," ","1","0","[1585.9000000003725]","1","2","","","16221","80","4","1","win","go","1"
"pit-trial","199","1222572","0.0-85.0","battery-v0.2","","""event"",""trial"",""time""
""fullscreenenter"",""1"",""3280""
","
","
","""event"",""trial"",""time""
""fullscreenenter"",""1"",""3280""
","
","","","-1","","","22","16221","6367","z","elianto","#3366ff99","-1","-1","1","+10","[]","0","2","","","16221","81","5","2","win","no-go","0"
"pit-trial","200","1226105","0.0-86.0","battery-v0.2","","""event"",""trial"",""time""
""fullscreenenter"",""1"",""3280""
","
","
","""event"",""trial"",""time""
""fullscreenenter"",""1"",""3280""
","
","","","679.5","","","22","16221","6367","c","elianto","#3366ff99"," "," ","1","0","[1530.2000000001863]","1","2","","","16221","82","4","1","win","go","1"
"pit-trial","201","1230961","0.0-87.0","battery-v0.2","","""event"",""trial"",""time""
""fullscreenenter"",""1"",""3280""
","
","
","""event"",""trial"",""time""
""fullscreenenter"",""1"",""3280""
","
","","","-1","","","22","16221","6367","b","elianto","#f73b6a7A","-1","-1","1","0","[]","0","2","","","16221","83","3","4","lose","no-go","0"
"pit-trial","202","1234988","0.0-88.0","battery-v0.2","","""event"",""trial"",""time""
""fullscreenenter"",""1"",""3280""
","
","
","""event"",""trial"",""time""
""fullscreenenter"",""1"",""3280""
","
","","","1172.4000000003725","","","22","16221","6367","y","elianto","#f73b6a7A","-1"," ","0","-10","[2022.9000000003725]","1","2","","","16221","84","7","4","lose","no-go","0"
"pit-trial","203","1239844","0.0-89.0","battery-v0.2","","""event"",""trial"",""time""
""fullscreenenter"",""1"",""3280""
","
","
","""event"",""trial"",""time""
""fullscreenenter"",""1"",""3280""
","
","","","-1","","","22","16221","6367","z","elianto","#3366ff99","-1","-1","1","+10","[]","0","2","","","16221","85","5","2","win","no-go","0"
"pit-trial","204","1243852","0.0-90.0","battery-v0.2","","""event"",""trial"",""time""
""fullscreenenter"",""1"",""3280""
","
","
","""event"",""trial"",""time""
""fullscreenenter"",""1"",""3280""
","
","","","1153.7999999998137","","","22","16221","6367","h","elianto","#f73b6a7A"," "," ","1","0","[2004.7000000001863]","1","2","","","16221","86","6","3","lose","go","0"
"pit-trial","205","1248707","0.0-91.0","battery-v0.2","","""event"",""trial"",""time""
""fullscreenenter"",""1"",""3280""
","
","
","""event"",""trial"",""time""
""fullscreenenter"",""1"",""3280""
","
","","","-1","","","22","16221","6367","c","elianto","#3366ff99"," ","-1","0","0","[]","0","2","","","16221","87","4","1","win","go","0"
"pit-trial","206","1253563","0.0-92.0","battery-v0.2","","""event"",""trial"",""time""
""fullscreenenter"",""1"",""3280""
","
","
","""event"",""trial"",""time""
""fullscreenenter"",""1"",""3280""
","
","","","-1","","","22","16221","6367","y","elianto","#f73b6a7A","-1","-1","1","0","[]","0","2","","","16221","88","7","4","lose","no-go","0"
"pit-trial","207","1257341","0.0-93.0","battery-v0.2","","""event"",""trial"",""time""
""fullscreenenter"",""1"",""3280""
","
","
","""event"",""trial"",""time""
""fullscreenenter"",""1"",""3280""
","
","","","923.6999999992549","","","22","16221","6367","h","elianto","#f73b6a7A"," "," ","1","0","[1774]","1","2","","","16221","89","6","3","lose","go","0"
"pit-trial","208","1262197","0.0-94.0","battery-v0.2","","""event"",""trial"",""time""
""fullscreenenter"",""1"",""3280""
","
","
","""event"",""trial"",""time""
""fullscreenenter"",""1"",""3280""
","
","","","-1","","","22","16221","6367","c","elianto","#3366ff99"," ","-1","0","0","[]","0","2","","","16221","90","4","1","win","go","0"
"pit-trial","209","1267052","0.0-95.0","battery-v0.2","","""event"",""trial"",""time""
""fullscreenenter"",""1"",""3280""
","
","
","""event"",""trial"",""time""
""fullscreenenter"",""1"",""3280""
","
","","","-1","","","22","16221","6367","z","elianto","#3366ff99","-1","-1","1","+10","[]","0","2","","","16221","91","5","2","win","no-go","0"
"pit-trial","210","1271909","0.0-96.0","battery-v0.2","","""event"",""trial"",""time""
""fullscreenenter"",""1"",""3280""
","
","
","""event"",""trial"",""time""
""fullscreenenter"",""1"",""3280""
","
","","","-1","","","22","16221","6367","y","elianto","#f73b6a7A","-1","-1","1","0","[]","0","2","","","16221","92","7","4","lose","no-go","0"
"pit-trial","211","1275780","0.0-97.0","battery-v0.2","","""event"",""trial"",""time""
""fullscreenenter"",""1"",""3280""
","
","
","""event"",""trial"",""time""
""fullscreenenter"",""1"",""3280""
","
","","","1017.0999999996275","","","22","16221","6367","r","elianto","#3366ff99"," "," ","1","+10","[1867.5]","1","2","","","16221","93","8","1","win","go","0"
"pit-trial","212","1280635","0.0-98.0","battery-v0.2","","""event"",""trial"",""time""
""fullscreenenter"",""1"",""3280""
","
","
","""event"",""trial"",""time""
""fullscreenenter"",""1"",""3280""
","
","","","-1","","","22","16221","6367","y","elianto","#f73b6a7A","-1","-1","1","0","[]","0","2","","","16221","94","7","4","lose","no-go","0"
"pit-trial","213","1285490","0.0-99.0","battery-v0.2","","""event"",""trial"",""time""
""fullscreenenter"",""1"",""3280""
","
","
","""event"",""trial"",""time""
""fullscreenenter"",""1"",""3280""
","
","","","-1","","","22","16221","6367","z","elianto","#3366ff99","-1","-1","1","0","[]","0","2","","","16221","95","5","2","win","no-go","1"
"pit-trial","214","1289397","0.0-100.0","battery-v0.2","","""event"",""trial"",""time""
""fullscreenenter"",""1"",""3280""
","
","
","""event"",""trial"",""time""
""fullscreenenter"",""1"",""3280""
","
","","","1052.5999999996275","","","22","16221","6367","h","elianto","#f73b6a7A"," "," ","1","0","[1902.699999999255]","1","2","","","16221","96","6","3","lose","go","0"
"pit-trial","215","1293689","0.0-101.0","battery-v0.2","","""event"",""trial"",""time""
""fullscreenenter"",""1"",""3280""
","
","
","""event"",""trial"",""time""
""fullscreenenter"",""1"",""3280""
","
","","","1435.5","","","22","16221","6367","r","elianto","#3366ff99"," "," ","1","0","[2287.5]","1","2","","","16221","97","8","1","win","go","1"
"pit-trial","216","1298544","0.0-102.0","battery-v0.2","","""event"",""trial"",""time""
""fullscreenenter"",""1"",""3280""
","
","
","""event"",""trial"",""time""
""fullscreenenter"",""1"",""3280""
","
","","","-1","","","22","16221","6367","y","elianto","#f73b6a7A","-1","-1","1","0","[]","0","2","","","16221","98","7","4","lose","no-go","0"
"pit-trial","217","1303401","0.0-103.0","battery-v0.2","","""event"",""trial"",""time""
""fullscreenenter"",""1"",""3280""
","
","
","""event"",""trial"",""time""
""fullscreenenter"",""1"",""3280""
","
","","","-1","","","22","16221","6367","z","elianto","#3366ff99","-1","-1","1","0","[]","0","2","","","16221","99","5","2","win","no-go","1"
"pit-trial","218","1307303","0.0-104.0","battery-v0.2","","""event"",""trial"",""time""
""fullscreenenter"",""1"",""3280""
","
","
","""event"",""trial"",""time""
""fullscreenenter"",""1"",""3280""
","
","","","1047.699999999255","","","22","16221","6367","h","elianto","#f73b6a7A"," "," ","1","-10","[1898.5999999996275]","1","2","","","16221","100","6","3","lose","go","1"
"pit-trial","219","1311919","0.0-105.0","battery-v0.2","","""event"",""trial"",""time""
""fullscreenenter"",""1"",""3280""
","
","
","""event"",""trial"",""time""
""fullscreenenter"",""1"",""3280""
","
","","","1761.5","","","22","16221","6367","r","elianto","#3366ff99"," "," ","1","0","[2612.2999999998137]","1","2","","","16221","101","8","1","win","go","1"
"pit-trial","220","1315797","0.0-106.0","battery-v0.2","","""event"",""trial"",""time""
""fullscreenenter"",""1"",""3280""
","
","
","""event"",""trial"",""time""
""fullscreenenter"",""1"",""3280""
","
","","","1023.4000000003725","","","22","16221","6367","m","elianto","#3366ff99"," "," ","1","+10","[1874.0999999996275]","1","2","","","16221","102","9","1","win","go","0"
"pit-trial","221","1320654","0.0-107.0","battery-v0.2","","""event"",""trial"",""time""
""fullscreenenter"",""1"",""3280""
","
","
","""event"",""trial"",""time""
""fullscreenenter"",""1"",""3280""
","
","","","-1","","","22","16221","6367","z","elianto","#3366ff99","-1","-1","1","+10","[]","0","2","","","16221","103","5","2","win","no-go","0"
"pit-trial","222","1325509","0.0-108.0","battery-v0.2","","""event"",""trial"",""time""
""fullscreenenter"",""1"",""3280""
","
","
","""event"",""trial"",""time""
""fullscreenenter"",""1"",""3280""
","
","","","-1","","","22","16221","6367","y","elianto","#f73b6a7A","-1","-1","1","0","[]","0","2","","","16221","104","7","4","lose","no-go","0"
"pit-trial","223","1330367","0.0-109.0","battery-v0.2","","""event"",""trial"",""time""
""fullscreenenter"",""1"",""3280""
","
","
","""event"",""trial"",""time""
""fullscreenenter"",""1"",""3280""
","
","","","-1","","","22","16221","6367","r","elianto","#3366ff99"," ","-1","0","0","[]","0","2","","","16221","105","8","1","win","go","0"
"pit-trial","224","1333969","0.0-110.0","battery-v0.2","","""event"",""trial"",""time""
""fullscreenenter"",""1"",""3280""
","
","
","""event"",""trial"",""time""
""fullscreenenter"",""1"",""3280""
","
","","","747.7000000001863","","","22","16221","6367","m","elianto","#3366ff99"," "," ","1","+10","[1599.2999999998137]","1","2","","","16221","106","9","1","win","go","0"
"pit-trial","225","1337981","0.0-111.0","battery-v0.2","","""event"",""trial"",""time""
""fullscreenenter"",""1"",""3280""
","
","
","""event"",""trial"",""time""
""fullscreenenter"",""1"",""3280""
","
","","","1158.300000000745","","","22","16221","6367","h","elianto","#f73b6a7A"," "," ","1","0","[2009.2999999998137]","1","2","","","16221","107","6","3","lose","go","0"
"pit-trial","226","1342398","0.0-112.0","battery-v0.2","","""event"",""trial"",""time""
""fullscreenenter"",""1"",""3280""
","
","
","""event"",""trial"",""time""
""fullscreenenter"",""1"",""3280""
","
","","","1561.2999999998137","","","22","16221","6367","c","elianto","#3366ff99"," "," ","1","+10","[2412.7000000001863]","1","2","","","16221","108","4","1","win","go","0"
"pit-trial","227","1346261","0.0-113.0","battery-v0.2","","""event"",""trial"",""time""
""fullscreenenter"",""1"",""3280""
","
","
","""event"",""trial"",""time""
""fullscreenenter"",""1"",""3280""
","
","","","1005.7000000001863","","","22","16221","6367","r","elianto","#3366ff99"," "," ","1","+10","[1858]","1","2","","","16221","109","8","1","win","go","0"
"pit-trial","228","1349829","0.0-114.0","battery-v0.2","","""event"",""trial"",""time""
""fullscreenenter"",""1"",""3280""
","
","
","""event"",""trial"",""time""
""fullscreenenter"",""1"",""3280""
","
","","","713.1000000005588","","","22","16221","6367","h","elianto","#f73b6a7A"," "," ","1","0","[1564.3999999994412]","1","2","","","16221","110","6","3","lose","go","0"
"pit-trial","229","1353376","0.0-115.0","battery-v0.2","","""event"",""trial"",""time""
""fullscreenenter"",""1"",""3280""
","
","
","""event"",""trial"",""time""
""fullscreenenter"",""1"",""3280""
","
","","","693.2999999998137","","","22","16221","6367","m","elianto","#3366ff99"," "," ","1","0","[1543.7999999998137]","1","2","","","16221","111","9","1","win","go","1"
"pit-trial","230","1358233","0.0-116.0","battery-v0.2","","""event"",""trial"",""time""
""fullscreenenter"",""1"",""3280""
","
","
","""event"",""trial"",""time""
""fullscreenenter"",""1"",""3280""
","
","","","-1","","","22","16221","6367","z","elianto","#3366ff99","-1","-1","1","+10","[]","0","2","","","16221","112","5","2","win","no-go","0"
"pit-trial","231","1363088","0.0-117.0","battery-v0.2","","""event"",""trial"",""time""
""fullscreenenter"",""1"",""3280""
","
","
","""event"",""trial"",""time""
""fullscreenenter"",""1"",""3280""
","
","","","-1","","","22","16221","6367","z","elianto","#3366ff99","-1","-1","1","0","[]","0","2","","","16221","113","5","2","win","no-go","1"
"pit-trial","232","1366637","0.0-118.0","battery-v0.2","","""event"",""trial"",""time""
""fullscreenenter"",""1"",""3280""
","
","
","""event"",""trial"",""time""
""fullscreenenter"",""1"",""3280""
","
","","","694.6999999992549","","","22","16221","6367","m","elianto","#3366ff99"," "," ","1","+10","[1545.5]","1","2","","","16221","114","9","1","win","go","0"
"pit-trial","233","1370222","0.0-119.0","battery-v0.2","","""event"",""trial"",""time""
""fullscreenenter"",""1"",""3280""
","
","
","""event"",""trial"",""time""
""fullscreenenter"",""1"",""3280""
","
","","","730.3999999994412","","","22","16221","6367","h","elianto","#f73b6a7A"," "," ","1","0","[1581.199999999255]","1","2","","","16221","115","6","3","lose","go","0"
"pit-trial","234","1375079","0.0-120.0","battery-v0.2","","""event"",""trial"",""time""
""fullscreenenter"",""1"",""3280""
","
","
","""event"",""trial"",""time""
""fullscreenenter"",""1"",""3280""
","
","","","-1","","","22","16221","6367","r","elianto","#3366ff99"," ","-1","0","0","[]","0","2","","","16221","116","8","1","win","go","0"
"pit-trial","235","1378641","0.0-121.0","battery-v0.2","","""event"",""trial"",""time""
""fullscreenenter"",""1"",""3280""
","
","
","""event"",""trial"",""time""
""fullscreenenter"",""1"",""3280""
","
","","","707.7000000001863","","","22","16221","6367","h","elianto","#f73b6a7A"," "," ","1","0","[1557.7999999998137]","1","2","","","16221","117","6","3","lose","go","0"
"pit-trial","236","1383497","0.0-122.0","battery-v0.2","","""event"",""trial"",""time""
""fullscreenenter"",""1"",""3280""
","
","
","""event"",""trial"",""time""
""fullscreenenter"",""1"",""3280""
","
","","","-1","","","22","16221","6367","z","elianto","#3366ff99","-1","-1","1","+10","[]","0","2","","","16221","118","5","2","win","no-go","0"
"pit-trial","237","1387028","0.0-123.0","battery-v0.2","","""event"",""trial"",""time""
""fullscreenenter"",""1"",""3280""
","
","
","""event"",""trial"",""time""
""fullscreenenter"",""1"",""3280""
","
","","","677","","","22","16221","6367","r","elianto","#3366ff99"," "," ","1","+10","[1527.7999999998137]","1","2","","","16221","119","8","1","win","go","0"
"pit-trial","238","1390556","0.0-124.0","battery-v0.2","","""event"",""trial"",""time""
""fullscreenenter"",""1"",""3280""
","
","
","""event"",""trial"",""time""
""fullscreenenter"",""1"",""3280""
","
","","","673.3999999994412","","","22","16221","6367","m","elianto","#3366ff99"," "," ","1","+10","[1523.5999999996275]","1","2","","","16221","120","9","1","win","go","0"
"pit-trial","239","1394198","0.0-125.0","battery-v0.2","","""event"",""trial"",""time""
""fullscreenenter"",""1"",""3280""
","
","
","""event"",""trial"",""time""
""fullscreenenter"",""1"",""3280""
","
","","","785","","","22","16221","6367","r","elianto","#3366ff99"," "," ","1","+10","[1635.9000000003725]","1","2","","","16221","121","8","1","win","go","0"
"pit-trial","240","1397710","0.0-126.0","battery-v0.2","","""event"",""trial"",""time""
""fullscreenenter"",""1"",""3280""
","
","
","""event"",""trial"",""time""
""fullscreenenter"",""1"",""3280""
","
","","","657.2999999998137","","","22","16221","6367","m","elianto","#3366ff99"," "," ","1","+10","[1508.2000000001863]","1","2","","","16221","122","9","1","win","go","0"
"pit-trial","241","1402566","0.0-127.0","battery-v0.2","","""event"",""trial"",""time""
""fullscreenenter"",""1"",""3280""
","
","
","""event"",""trial"",""time""
""fullscreenenter"",""1"",""3280""
","
","","","-1","","","22","16221","6367","y","elianto","#f73b6a7A","-1","-1","1","0","[]","0","2","","","16221","123","7","4","lose","no-go","0"
"pit-trial","242","1406169","0.0-128.0","battery-v0.2","","""event"",""trial"",""time""
""fullscreenenter"",""1"",""3280""
","
","
","""event"",""trial"",""time""
""fullscreenenter"",""1"",""3280""
","
","","","747.6999999992549","","","22","16221","6367","h","elianto","#f73b6a7A"," "," ","1","0","[1598.5999999996275]","1","2","","","16221","124","6","3","lose","go","0"
"pit-trial","243","1411024","0.0-129.0","battery-v0.2","","""event"",""trial"",""time""
""fullscreenenter"",""1"",""3280""
","
","
","""event"",""trial"",""time""
""fullscreenenter"",""1"",""3280""
","
","","","-1","","","22","16221","6367","y","elianto","#f73b6a7A","-1","-1","1","0","[]","0","2","","","16221","125","7","4","lose","no-go","0"
"pit-trial","244","1414606","0.0-130.0","battery-v0.2","","""event"",""trial"",""time""
""fullscreenenter"",""1"",""3280""
","
","
","""event"",""trial"",""time""
""fullscreenenter"",""1"",""3280""
","
","","","728","","","22","16221","6367","h","elianto","#f73b6a7A"," "," ","1","0","[1578.5999999996275]","1","2","","","16221","126","6","3","lose","go","0"
"pit-trial","245","1418214","0.0-131.0","battery-v0.2","","""event"",""trial"",""time""
""fullscreenenter"",""1"",""3280""
","
","
","""event"",""trial"",""time""
""fullscreenenter"",""1"",""3280""
","
","","","751","","","22","16221","6367","r","elianto","#3366ff99"," "," ","1","0","[1602.5]","1","2","","","16221","127","8","1","win","go","1"
"pit-trial","246","1421726","0.0-132.0","battery-v0.2","","""event"",""trial"",""time""
""fullscreenenter"",""1"",""3280""
","
","
","""event"",""trial"",""time""
""fullscreenenter"",""1"",""3280""
","
","","","656.9000000003725","","","22","16221","6367","m","elianto","#3366ff99"," "," ","1","0","[1508.7999999998137]","1","2","","","16221","128","9","1","win","go","1"
"pit-trial","247","1425264","0.0-133.0","battery-v0.2","","""event"",""trial"",""time""
""fullscreenenter"",""1"",""3280""
","
","
","""event"",""trial"",""time""
""fullscreenenter"",""1"",""3280""
","
","","","683.8999999994412","","","22","16221","6367","r","elianto","#3366ff99"," "," ","1","0","[1535.199999999255]","1","2","","","16221","129","8","1","win","go","1"
"pit-trial","248","1428706","0.0-134.0","battery-v0.2","","""event"",""trial"",""time""
""fullscreenenter"",""1"",""3280""
","
","
","""event"",""trial"",""time""
""fullscreenenter"",""1"",""3280""
","
","","","586.1000000005588","","","22","16221","6367","m","elianto","#3366ff99"," "," ","1","+10","[1437.2000000001863]","1","2","","","16221","130","9","1","win","go","0"
"pit-trial","249","1432308","0.0-135.0","battery-v0.2","","""event"",""trial"",""time""
""fullscreenenter"",""1"",""3280""
","
","
","""event"",""trial"",""time""
""fullscreenenter"",""1"",""3280""
","
","","","747.8000000007451","","","22","16221","6367","h","elianto","#f73b6a7A"," "," ","1","0","[1598.2000000001863]","1","2","","","16221","131","6","3","lose","go","0"
"pit-trial","250","1437164","0.0-136.0","battery-v0.2","","""event"",""trial"",""time""
""fullscreenenter"",""1"",""3280""
","
","
","""event"",""trial"",""time""
""fullscreenenter"",""1"",""3280""
","
","","","-1","","","22","16221","6367","y","elianto","#f73b6a7A","-1","-1","1","0","[]","0","2","","","16221","132","7","4","lose","no-go","0"
"pit-trial","251","1442020","0.0-137.0","battery-v0.2","","""event"",""trial"",""time""
""fullscreenenter"",""1"",""3280""
","
","
","""event"",""trial"",""time""
""fullscreenenter"",""1"",""3280""
","
","","","-1","","","22","16221","6367","y","elianto","#f73b6a7A","-1","-1","1","0","[]","0","2","","","16221","133","7","4","lose","no-go","0"
"pit-trial","252","1445520","0.0-138.0","battery-v0.2","","""event"",""trial"",""time""
""fullscreenenter"",""1"",""3280""
","
","
","""event"",""trial"",""time""
""fullscreenenter"",""1"",""3280""
","
","","","644","","","22","16221","6367","m","elianto","#3366ff99"," "," ","1","+10","[1494.9000000003725]","1","2","","","16221","134","9","1","win","go","0"
"pit-trial","253","1449030","0.0-139.0","battery-v0.2","","""event"",""trial"",""time""
""fullscreenenter"",""1"",""3280""
","
","
","""event"",""trial"",""time""
""fullscreenenter"",""1"",""3280""
","
","","","655.5","","","22","16221","6367","h","elianto","#f73b6a7A"," "," ","1","0","[1506.5]","1","2","","","16221","135","6","3","lose","go","0"
"pit-trial","254","1452581","0.0-140.0","battery-v0.2","","""event"",""trial"",""time""
""fullscreenenter"",""1"",""3280""
","
","
","""event"",""trial"",""time""
""fullscreenenter"",""1"",""3280""
","
","","","695.6000000005588","","","22","16221","6367","r","elianto","#3366ff99"," "," ","1","0","[1546.5]","1","2","","","16221","136","8","1","win","go","1"
"pit-trial","255","1456049","0.0-141.0","battery-v0.2","","""event"",""trial"",""time""
""fullscreenenter"",""1"",""3280""
","
","
","""event"",""trial"",""time""
""fullscreenenter"",""1"",""3280""
","
","","","613.2000000001863","","","22","16221","6367","r","elianto","#3366ff99"," "," ","1","0","[1464.5]","1","2","","","16221","137","8","1","win","go","1"
"pit-trial","256","1459551","0.0-142.0","battery-v0.2","","""event"",""trial"",""time""
""fullscreenenter"",""1"",""3280""
","
","
","""event"",""trial"",""time""
""fullscreenenter"",""1"",""3280""
","
","","","645","","","22","16221","6367","m","elianto","#3366ff99"," "," ","1","+10","[1496.4000000003725]","1","2","","","16221","138","9","1","win","go","0"
"pit-trial","257","1463109","0.0-143.0","battery-v0.2","","""event"",""trial"",""time""
""fullscreenenter"",""1"",""3280""
","
","
","""event"",""trial"",""time""
""fullscreenenter"",""1"",""3280""
","
","","","703","","","22","16221","6367","h","elianto","#f73b6a7A"," "," ","1","0","[1554.7000000001863]","1","2","","","16221","139","6","3","lose","go","0"
"pit-trial","258","1467965","0.0-144.0","battery-v0.2","","""event"",""trial"",""time""
""fullscreenenter"",""1"",""3280""
","
","
","""event"",""trial"",""time""
""fullscreenenter"",""1"",""3280""
","
","","","-1","","","22","16221","6367","y","elianto","#f73b6a7A","-1","-1","1","-10","[]","0","2","","","16221","140","7","4","lose","no-go","1"
"pit-instructions","259","1482986","0.0-145.0","battery-v0.2","","""event"",""trial"",""time""
""fullscreenenter"",""1"",""3280""
","
","
","""event"",""trial"",""time""
""fullscreenenter"",""1"",""3280""
","
","","[{""page_index"":0,""viewing_time"":6272.5},{""page_index"":1,""viewing_time"":8747.200000000186}]","15020.100000000559","","","","","","","","","","","","","","","","","","","","","","","",""
"pit-trial","260","1487023","0.0-146.0","battery-v0.2","","""event"",""trial"",""time""
""fullscreenenter"",""1"",""3280""
","
","
","""event"",""trial"",""time""
""fullscreenenter"",""1"",""3280""
","
","","","1178.5999999996275","","","22","16221","6367","g","elianto","#f73b6a7A"," "," ","1","0","[2028.7000000001863]","1","3","","","16221","141","3","3","lose","go","0"
"pit-trial","261","1490732","0.0-147.0","battery-v0.2","","""event"",""trial"",""time""
""fullscreenenter"",""1"",""3280""
","
","
","""event"",""trial"",""time""
""fullscreenenter"",""1"",""3280""
","
","","","853.8999999994412","","","22","16221","6367","a","elianto","#f73b6a7A","-1"," ","0","-10","[1704.7999999998137]","1","3","","","16221","142","2","4","lose","no-go","0"
"pit-trial","262","1494429","0.0-148.0","battery-v0.2","","""event"",""trial"",""time""
""fullscreenenter"",""1"",""3280""
","
","
","""event"",""trial"",""time""
""fullscreenenter"",""1"",""3280""
","
","","","842.1999999992549","","","22","16221","6367","l","elianto","#3366ff99"," "," ","1","0","[1692.8999999994412]","1","3","","","16221","143","1","1","win","go","1"
"pit-trial","263","1498093","0.0-149.0","battery-v0.2","","""event"",""trial"",""time""
""fullscreenenter"",""1"",""3280""
","
","
","""event"",""trial"",""time""
""fullscreenenter"",""1"",""3280""
","
","","","810.2999999998137","","","22","16221","6367","u","elianto","#f73b6a7A","-1"," ","0","0","[1660.2999999998137]","1","3","","","16221","144","0","4","lose","no-go","1"
"pit-trial","264","1501705","0.0-150.0","battery-v0.2","","""event"",""trial"",""time""
""fullscreenenter"",""1"",""3280""
","
","
","""event"",""trial"",""time""
""fullscreenenter"",""1"",""3280""
","
","","","756.2999999998137","","","22","16221","6367","g","elianto","#f73b6a7A"," "," ","1","0","[1607]","1","3","","","16221","145","3","3","lose","go","0"
"pit-trial","265","1506559","0.0-151.0","battery-v0.2","","""event"",""trial"",""time""
""fullscreenenter"",""1"",""3280""
","
","
","""event"",""trial"",""time""
""fullscreenenter"",""1"",""3280""
","
","","","-1","","","22","16221","6367","l","elianto","#3366ff99"," ","-1","0","0","[]","0","3","","","16221","146","1","1","win","go","0"
"pit-trial","266","1510817","0.0-152.0","battery-v0.2","","""event"",""trial"",""time""
""fullscreenenter"",""1"",""3280""
","
","
","""event"",""trial"",""time""
""fullscreenenter"",""1"",""3280""
","
","","","1403.2000000001863","","","22","16221","6367","u","elianto","#f73b6a7A","-1"," ","0","-10","[2254]","1","3","","","16221","147","0","4","lose","no-go","0"
"pit-trial","267","1515673","0.0-153.0","battery-v0.2","","""event"",""trial"",""time""
""fullscreenenter"",""1"",""3280""
","
","
","""event"",""trial"",""time""
""fullscreenenter"",""1"",""3280""
","
