"trial_type","trial_index","time_elapsed","internal_node_id","task_version","subject_id","interactions","blur_events","focus_events","fullscreenenter_events","fullscreenexit_events","success","view_history","rt","responses","num_errors","age","subject","participantId","rune","rune_set","hex","correct","choice","accuracy","outcome","keys","total_keys","block","practice","value","sub","trial","stimulus","robot","valence","action","sham"
"pavlovia","0","5","0.0-0.0","battery-v0.2","","""event"",""trial"",""time""
""fullscreenenter"",""1"",""2125""
","
","
","""event"",""trial"",""time""
""fullscreenenter"",""1"",""2125""
","
","","","","","","","","","","","","","","","","","","","","","","","","","","",""
"fullscreen","1","3061","0.0-1.0","battery-v0.2","","""event"",""trial"",""time""
""fullscreenenter"",""1"",""2125""
","
","
","""event"",""trial"",""time""
""fullscreenenter"",""1"",""2125""
","
","true","","","","","","","","","","","","","","","","","","","","","","","","","",""
"pit-instructions","2","8922","0.0-2.0-0.0","battery-v0.2","","""event"",""trial"",""time""
""fullscreenenter"",""1"",""2125""
","
","
","""event"",""trial"",""time""
""fullscreenenter"",""1"",""2125""
","
","","[{""page_index"":0,""viewing_time"":5858.800000011921}]","5859.100000008941","","","","","","","","","","","","","","","","","","","","","","","",""
"pit-comprehension","3","13755","0.0-2.0-1.0-0.0","battery-v0.2","","""event"",""trial"",""time""
""fullscreenenter"",""1"",""2125""
","
","
","""event"",""trial"",""time""
""fullscreenenter"",""1"",""2125""
","
","","","4830.5999999940395","[""shark""]","0","12","20704","7927","","","","","","","","","","","","","","","","","","",""
"pit-instructions","4","15393","0.0-2.0-1.0-1.0","battery-v0.2","","""event"",""trial"",""time""
""fullscreenenter"",""1"",""2125""
","
","
","""event"",""trial"",""time""
""fullscreenenter"",""1"",""2125""
","
","","[{""page_index"":0,""viewing_time"":1629.1000000089407}]","1629.4000000059605","","","","","","","","","","","","","","","","","","","","","","","",""
"pit-comprehension","5","19582","0.0-2.0-2.0-0.0","battery-v0.2","","""event"",""trial"",""time""
""fullscreenenter"",""1"",""2125""
","
","
","""event"",""trial"",""time""
""fullscreenenter"",""1"",""2125""
","
","","","4184.5","[""shark""]","1","12","20704","7927","","","","","","","","","","","","","","","","","","",""
"pit-instructions","6","23892","0.0-2.0-2.0-1.0","battery-v0.2","","""event"",""trial"",""time""
""fullscreenenter"",""1"",""2125""
","
","
","""event"",""trial"",""time""
""fullscreenenter"",""1"",""2125""
","
","","[{""page_index"":0,""viewing_time"":4308.5999999940395}]","4308.79999999702","","","","","","","","","","","","","","","","","","","","","","","",""
"pit-instructions","7","29125","0.0-2.0-2.0-2.0-0.0","battery-v0.2","","""event"",""trial"",""time""
""fullscreenenter"",""1"",""2125""
","
","
","""event"",""trial"",""time""
""fullscreenenter"",""1"",""2125""
","
","","[{""page_index"":0,""viewing_time"":5232}]","5232.0999999940395","","","","","","","","","","","","","","","","","","","","","","","",""
"pit-comprehension","8","33599","0.0-2.0-2.1-0.1","battery-v0.2","","""event"",""trial"",""time""
""fullscreenenter"",""1"",""2125""
","
","
","""event"",""trial"",""time""
""fullscreenenter"",""1"",""2125""
","
","","","4472.20000000298","[""shark""]","1","12","20704","7927","","","","","","","","","","","","","","","","","","",""
"pit-instructions","9","34543","0.0-2.0-2.1-1.1","battery-v0.2","","""event"",""trial"",""time""
""fullscreenenter"",""1"",""2125""
","
","
","""event"",""trial"",""time""
""fullscreenenter"",""1"",""2125""
","
","","[{""page_index"":0,""viewing_time"":941.8000000119209}]","942","","","","","","","","","","","","","","","","","","","","","","","",""
"pit-instructions","10","36571","0.0-2.0-2.1-2.1-0.1","battery-v0.2","","""event"",""trial"",""time""
""fullscreenenter"",""1"",""2125""
","
","
","""event"",""trial"",""time""
""fullscreenenter"",""1"",""2125""
","
","","[{""page_index"":0,""viewing_time"":2027}]","2027.2000000029802","","","","","","","","","","","","","","","","","","","","","","","",""
"pit-comprehension","11","38329","0.0-2.0-2.2-0.2","battery-v0.2","","""event"",""trial"",""time""
""fullscreenenter"",""1"",""2125""
","
","
","""event"",""trial"",""time""
""fullscreenenter"",""1"",""2125""
","
","","","1756.4000000059605","[""shark""]","1","12","20704","7927","","","","","","","","","","","","","","","","","","",""
"pit-instructions","12","39142","0.0-2.0-2.2-1.2","battery-v0.2","","""event"",""trial"",""time""
""fullscreenenter"",""1"",""2125""
","
","
","""event"",""trial"",""time""
""fullscreenenter"",""1"",""2125""
","
","","[{""page_index"":0,""viewing_time"":807.8000000119209}]","807.9000000059605","","","","","","","","","","","","","","","","","","","","","","","",""
"pit-instructions","13","40187","0.0-2.0-2.2-2.2-0.2","battery-v0.2","","""event"",""trial"",""time""
""fullscreenenter"",""1"",""2125""
","
","
","""event"",""trial"",""time""
""fullscreenenter"",""1"",""2125""
","
","","[{""page_index"":0,""viewing_time"":1043.6000000089407}]","1043.7999999970198","","","","","","","","","","","","","","","","","","","","","","","",""
"pit-comprehension","14","42377","0.0-2.0-2.3-0.3","battery-v0.2","","""event"",""trial"",""time""
""fullscreenenter"",""1"",""2125""
","
","
","""event"",""trial"",""time""
""fullscreenenter"",""1"",""2125""
","
","","","2188.199999988079","[""shark""]","1","12","20704","7927","","","","","","","","","","","","","","","","","","",""
"pit-instructions","15","43275","0.0-2.0-2.3-1.3","battery-v0.2","","""event"",""trial"",""time""
""fullscreenenter"",""1"",""2125""
","
","
","""event"",""trial"",""time""
""fullscreenenter"",""1"",""2125""
","
","","[{""page_index"":0,""viewing_time"":895.2999999970198}]","895.7000000029802","","","","","","","","","","","","","","","","","","","","","","","",""
"pit-instructions","16","44388","0.0-2.0-2.3-2.3-0.3","battery-v0.2","","""event"",""trial"",""time""
""fullscreenenter"",""1"",""2125""
","
","
","""event"",""trial"",""time""
""fullscreenenter"",""1"",""2125""
","
","","[{""page_index"":0,""viewing_time"":1110.9000000059605}]","1111.2000000029802","","","","","","","","","","","","","","","","","","","","","","","",""
"pit-comprehension","17","47707","0.0-2.0-2.4-0.4","battery-v0.2","","""event"",""trial"",""time""
""fullscreenenter"",""1"",""2125""
","
","
","""event"",""trial"",""time""
""fullscreenenter"",""1"",""2125""
","
","","","3317.800000011921","[""shark""]","1","12","20704","7927","","","","","","","","","","","","","","","","","","",""
"pit-instructions","18","48568","0.0-2.0-2.4-1.4","battery-v0.2","","""event"",""trial"",""time""
""fullscreenenter"",""1"",""2125""
","
","
","""event"",""trial"",""time""
""fullscreenenter"",""1"",""2125""
","
","","[{""page_index"":0,""viewing_time"":857.2999999970198}]","857.5","","","","","","","","","","","","","","","","","","","","","","","",""
"pit-instructions","19","49642","0.0-2.0-2.4-2.4-0.4","battery-v0.2","","""event"",""trial"",""time""
""fullscreenenter"",""1"",""2125""
","
","
","""event"",""trial"",""time""
""fullscreenenter"",""1"",""2125""
","
","","[{""page_index"":0,""viewing_time"":1072.5}]","1072.7000000029802","","","","","","","","","","","","","","","","","","","","","","","",""
"pit-comprehension","20","54316","0.0-2.0-2.5-0.5","battery-v0.2","","""event"",""trial"",""time""
""fullscreenenter"",""1"",""2125""
","
","
","""event"",""trial"",""time""
""fullscreenenter"",""1"",""2125""
","
","","","4672.29999999702","[""shark""]","1","12","20704","7927","","","","","","","","","","","","","","","","","","",""
"pit-instructions","21","55179","0.0-2.0-2.5-1.5","battery-v0.2","","""event"",""trial"",""time""
""fullscreenenter"",""1"",""2125""
""fullscreenexit"",""22"",""57364""
","
","
","""event"",""trial"",""time""
""fullscreenenter"",""1"",""2125""
","""event"",""trial"",""time""
""fullscreenexit"",""22"",""57364""
","","[{""page_index"":0,""viewing_time"":857.8999999910593}]","858.0999999940395","","","","","","","","","","","","","","","","","","","","","","","",""
"pit-instructions","22","62714","0.0-2.0-2.5-2.5-0.5","battery-v0.2","","""event"",""trial"",""time""
""fullscreenenter"",""1"",""2125""
""fullscreenexit"",""22"",""57364""
","
","
","""event"",""trial"",""time""
""fullscreenenter"",""1"",""2125""
","""event"",""trial"",""time""
""fullscreenexit"",""22"",""57364""
","","[{""page_index"":0,""viewing_time"":7456.300000011921}]","7456.5","","","","","","","","","","","","","","","","","","","","","","","",""
"pit-comprehension","23","64617","0.0-2.0-2.6-0.6","battery-v0.2","","""event"",""trial"",""time""
""fullscreenenter"",""1"",""2125""
""fullscreenexit"",""22"",""57364""
""blur"",""24"",""65925""
""focus"",""24"",""108705""
","""event"",""trial"",""time""
""blur"",""24"",""65925""
","""event"",""trial"",""time""
""focus"",""24"",""108705""
","""event"",""trial"",""time""
""fullscreenenter"",""1"",""2125""
","""event"",""trial"",""time""
""fullscreenexit"",""22"",""57364""
","","","1900.7999999970198","[""shark""]","1","12","20704","7927","","","","","","","","","","","","","","","","","","",""
"pit-instructions","24","109554","0.0-2.0-2.6-1.6","battery-v0.2","","""event"",""trial"",""time""
""fullscreenenter"",""1"",""2125""
""fullscreenexit"",""22"",""57364""
""blur"",""24"",""65925""
""focus"",""24"",""108705""
","""event"",""trial"",""time""
""blur"",""24"",""65925""
","""event"",""trial"",""time""
""focus"",""24"",""108705""
","""event"",""trial"",""time""
""fullscreenenter"",""1"",""2125""
","""event"",""trial"",""time""
""fullscreenexit"",""22"",""57364""
","","[{""page_index"":0,""viewing_time"":44931.09999999404}]","44931.29999999702","","","","","","","","","","","","","","","","","","","","","","","",""
"pit-instructions","25","112369","0.0-2.0-2.6-2.6-0.6","battery-v0.2","","""event"",""trial"",""time""
""fullscreenenter"",""1"",""2125""
""fullscreenexit"",""22"",""57364""
""blur"",""24"",""65925""
""focus"",""24"",""108705""
","""event"",""trial"",""time""
""blur"",""24"",""65925""
","""event"",""trial"",""time""
""focus"",""24"",""108705""
","""event"",""trial"",""time""
""fullscreenenter"",""1"",""2125""
","""event"",""trial"",""time""
""fullscreenexit"",""22"",""57364""
","","[{""page_index"":0,""viewing_time"":2813.4000000059605}]","2813.5","","","","","","","","","","","","","","","","","","","","","","","",""
"pit-comprehension","26","115747","0.0-2.0-2.7-0.7","battery-v0.2","","""event"",""trial"",""time""
""fullscreenenter"",""1"",""2125""
""fullscreenexit"",""22"",""57364""
""blur"",""24"",""65925""
""focus"",""24"",""108705""
","""event"",""trial"",""time""
""blur"",""24"",""65925""
","""event"",""trial"",""time""
""focus"",""24"",""108705""
","""event"",""trial"",""time""
""fullscreenenter"",""1"",""2125""
","""event"",""trial"",""time""
""fullscreenexit"",""22"",""57364""
","","","3377","[""shark""]","1","12","20704","7927","","","","","","","","","","","","","","","","","","",""
"pit-instructions","27","116959","0.0-2.0-2.7-1.7","battery-v0.2","","""event"",""trial"",""time""
""fullscreenenter"",""1"",""2125""
""fullscreenexit"",""22"",""57364""
""blur"",""24"",""65925""
""focus"",""24"",""108705""
","""event"",""trial"",""time""
""blur"",""24"",""65925""
","""event"",""trial"",""time""
""focus"",""24"",""108705""
","""event"",""trial"",""time""
""fullscreenenter"",""1"",""2125""
","""event"",""trial"",""time""
""fullscreenexit"",""22"",""57364""
","","[{""page_index"":0,""viewing_time"":1205.2000000029802}]","1205.4000000059605","","","","","","","","","","","","","","","","","","","","","","","",""
"pit-instructions","28","118700","0.0-2.0-2.7-2.7-0.7","battery-v0.2","","""event"",""trial"",""time""
""fullscreenenter"",""1"",""2125""
""fullscreenexit"",""22"",""57364""
""blur"",""24"",""65925""
""focus"",""24"",""108705""
","""event"",""trial"",""time""
""blur"",""24"",""65925""
","""event"",""trial"",""time""
""focus"",""24"",""108705""
","""event"",""trial"",""time""
""fullscreenenter"",""1"",""2125""
","""event"",""trial"",""time""
""fullscreenexit"",""22"",""57364""
","","[{""page_index"":0,""viewing_time"":1739.699999988079}]","1740","","","","","","","","","","","","","","","","","","","","","","","",""
"pit-comprehension","29","120278","0.0-2.0-2.8-0.8","battery-v0.2","","""event"",""trial"",""time""
""fullscreenenter"",""1"",""2125""
""fullscreenexit"",""22"",""57364""
""blur"",""24"",""65925""
""focus"",""24"",""108705""
","""event"",""trial"",""time""
""blur"",""24"",""65925""
","""event"",""trial"",""time""
""focus"",""24"",""108705""
","""event"",""trial"",""time""
""fullscreenenter"",""1"",""2125""
","""event"",""trial"",""time""
""fullscreenexit"",""22"",""57364""
","","","1498.7000000029802","[""turtle""]","1","12","20704","7927","","","","","","","","","","","","","","","","","","",""
"pit-instructions","30","121077","0.0-2.0-2.8-1.8","battery-v0.2","","""event"",""trial"",""time""
""fullscreenenter"",""1"",""2125""
""fullscreenexit"",""22"",""57364""
""blur"",""24"",""65925""
""focus"",""24"",""108705""
","""event"",""trial"",""time""
""blur"",""24"",""65925""
","""event"",""trial"",""time""
""focus"",""24"",""108705""
","""event"",""trial"",""time""
""fullscreenenter"",""1"",""2125""
","""event"",""trial"",""time""
""fullscreenexit"",""22"",""57364""
","","[{""page_index"":0,""viewing_time"":793.5}]","793.8000000119209","","","","","","","","","","","","","","","","","","","","","","","",""
"pit-instructions","31","121974","0.0-2.0-2.8-2.8-0.8","battery-v0.2","","""event"",""trial"",""time""
""fullscreenenter"",""1"",""2125""
""fullscreenexit"",""22"",""57364""
""blur"",""24"",""65925""
""focus"",""24"",""108705""
","""event"",""trial"",""time""
""blur"",""24"",""65925""
","""event"",""trial"",""time""
""focus"",""24"",""108705""
","""event"",""trial"",""time""
""fullscreenenter"",""1"",""2125""
","""event"",""trial"",""time""
""fullscreenexit"",""22"",""57364""
","","[{""page_index"":0,""viewing_time"":896}]","896.0999999940395","","","","","","","","","","","","","","","","","","","","","","","",""
"pit-comprehension","32","123518","0.0-2.0-2.9-0.9","battery-v0.2","","""event"",""trial"",""time""
""fullscreenenter"",""1"",""2125""
""fullscreenexit"",""22"",""57364""
""blur"",""24"",""65925""
""focus"",""24"",""108705""
","""event"",""trial"",""time""
""blur"",""24"",""65925""
","""event"",""trial"",""time""
""focus"",""24"",""108705""
","""event"",""trial"",""time""
""fullscreenenter"",""1"",""2125""
","""event"",""trial"",""time""
""fullscreenexit"",""22"",""57364""
","","","1543","[""tiger""]","0","12","20704","7927","","","","","","","","","","","","","","","","","","",""
"pit-instructions","33","124531","0.0-2.0-2.9-1.9","battery-v0.2","","""event"",""trial"",""time""
""fullscreenenter"",""1"",""2125""
""fullscreenexit"",""22"",""57364""
""blur"",""24"",""65925""
""focus"",""24"",""108705""
","""event"",""trial"",""time""
""blur"",""24"",""65925""
","""event"",""trial"",""time""
""focus"",""24"",""108705""
","""event"",""trial"",""time""
""fullscreenenter"",""1"",""2125""
","""event"",""trial"",""time""
""fullscreenexit"",""22"",""57364""
","","[{""page_index"":0,""viewing_time"":1006.7999999970198}]","1006.9000000059605","","","","","","","","","","","","","","","","","","","","","","","",""
"pit-instructions","34","240100","0.0-2.0-3.0","battery-v0.2","","""event"",""trial"",""time""
""fullscreenenter"",""1"",""2125""
""fullscreenexit"",""22"",""57364""
""blur"",""24"",""65925""
""focus"",""24"",""108705""
","""event"",""trial"",""time""
""blur"",""24"",""65925""
","""event"",""trial"",""time""
""focus"",""24"",""108705""
","""event"",""trial"",""time""
""fullscreenenter"",""1"",""2125""
","""event"",""trial"",""time""
""fullscreenexit"",""22"",""57364""
","","[{""page_index"":0,""viewing_time"":7768.5999999940395},{""page_index"":1,""viewing_time"":7046.70000000298},{""page_index"":2,""viewing_time"":7613.29999999702},{""page_index"":3,""viewing_time"":16337.800000011921},{""page_index"":4,""viewing_time"":7463.5},{""page_index"":5,""viewing_time"":5251.29999999702},{""page_index"":6,""viewing_time"":5972.5},{""page_index"":7,""viewing_time"":7847.5},{""page_index"":8,""viewing_time"":7979.0999999940395},{""page_index"":9,""viewing_time"":10111.79999999702},{""page_index"":10,""viewing_time"":9084.40000000596},{""page_index"":11,""viewing_time"":8602.40000000596},{""page_index"":12,""viewing_time"":6666.699999988079},{""page_index"":13,""viewing_time"":7763}]","115509.09999999404","","","","","","","","","","","","","","","","","","","","","","","",""
"pit-trial","35","244968","0.0-2.0-4.0-0.0","battery-v0.2","","""event"",""trial"",""time""
""fullscreenenter"",""1"",""2125""
""fullscreenexit"",""22"",""57364""
""blur"",""24"",""65925""
""focus"",""24"",""108705""
","""event"",""trial"",""time""
""blur"",""24"",""65925""
","""event"",""trial"",""time""
""focus"",""24"",""108705""
","""event"",""trial"",""time""
""fullscreenenter"",""1"",""2125""
","""event"",""trial"",""time""
""fullscreenexit"",""22"",""57364""
","","","-1","","","12","20704","7927","&#9784;","elianto","#FFFFF080"," ","-1","0","&#10060","[3096.5999999940395]","1","0","0","","","","","","","",""
"pit-trial","36","248694","0.0-2.0-4.1-0.1","battery-v0.2","","""event"",""trial"",""time""
""fullscreenenter"",""1"",""2125""
""fullscreenexit"",""22"",""57364""
""blur"",""24"",""65925""
""focus"",""24"",""108705""
","""event"",""trial"",""time""
""blur"",""24"",""65925""
","""event"",""trial"",""time""
""focus"",""24"",""108705""
","""event"",""trial"",""time""
""fullscreenenter"",""1"",""2125""
","""event"",""trial"",""time""
""fullscreenexit"",""22"",""57364""
","","","865","","","12","20704","7927","&#9784;","elianto","#FFFFF080"," "," ","1","&#10004","[1716.1000000089407]","1","0","0","","","","","","","",""
"pit-trial","37","252012","0.0-2.0-4.2-0.2","battery-v0.2","","""event"",""trial"",""time""
""fullscreenenter"",""1"",""2125""
""fullscreenexit"",""22"",""57364""
""blur"",""24"",""65925""
""focus"",""24"",""108705""
","""event"",""trial"",""time""
""blur"",""24"",""65925""
","""event"",""trial"",""time""
""focus"",""24"",""108705""
","""event"",""trial"",""time""
""fullscreenenter"",""1"",""2125""
","""event"",""trial"",""time""
""fullscreenexit"",""22"",""57364""
","","","455.5","","","12","20704","7927","&#9784;","elianto","#FFFFF080"," "," ","1","&#10004","[1310.5999999940395]","1","0","0","","","","","","","",""
"pit-trial","38","255368","0.0-2.0-4.3-0.3","battery-v0.2","","""event"",""trial"",""time""
""fullscreenenter"",""1"",""2125""
""fullscreenexit"",""22"",""57364""
""blur"",""24"",""65925""
""focus"",""24"",""108705""
","""event"",""trial"",""time""
""blur"",""24"",""65925""
","""event"",""trial"",""time""
""focus"",""24"",""108705""
","""event"",""trial"",""time""
""fullscreenenter"",""1"",""2125""
","""event"",""trial"",""time""
""fullscreenexit"",""22"",""57364""
","","","488.90000000596046","","","12","20704","7927","&#9784;","elianto","#FFFFF080"," "," ","1","&#10004","[1340.2999999970198]","1","0","0","","","","","","","",""
"pit-trial","39","258909","0.0-2.0-4.4-0.4","battery-v0.2","","""event"",""trial"",""time""
""fullscreenenter"",""1"",""2125""
""fullscreenexit"",""22"",""57364""
""blur"",""24"",""65925""
""focus"",""24"",""108705""
","""event"",""trial"",""time""
""blur"",""24"",""65925""
","""event"",""trial"",""time""
""focus"",""24"",""108705""
","""event"",""trial"",""time""
""fullscreenenter"",""1"",""2125""
","""event"",""trial"",""time""
""fullscreenexit"",""22"",""57364""
","","","682.3000000119209","","","12","20704","7927","&#9784;","elianto","#FFFFF080"," "," ","1","&#10004","[1539.1000000089407]","1","0","0","","","","","","","",""
"pit-instructions","40","292630","0.0-2.0-5.0","battery-v0.2","","""event"",""trial"",""time""
""fullscreenenter"",""1"",""2125""
""fullscreenexit"",""22"",""57364""
""blur"",""24"",""65925""
""focus"",""24"",""108705""
","""event"",""trial"",""time""
""blur"",""24"",""65925""
","""event"",""trial"",""time""
""focus"",""24"",""108705""
","""event"",""trial"",""time""
""fullscreenenter"",""1"",""2125""
","""event"",""trial"",""time""
""fullscreenexit"",""22"",""57364""
","","[{""page_index"":0,""viewing_time"":10145.29999999702},{""page_index"":1,""viewing_time"":10595.5},{""page_index"":2,""viewing_time"":7163.70000000298},{""page_index"":3,""viewing_time"":5813.0999999940395}]","33718.09999999404","","","","","","","","","","","","","","","","","","","","","","","",""
"pit-trial","41","297496","0.0-2.0-6.0-0.0","battery-v0.2","","""event"",""trial"",""time""
""fullscreenenter"",""1"",""2125""
""fullscreenexit"",""22"",""57364""
""blur"",""24"",""65925""
""focus"",""24"",""108705""
","""event"",""trial"",""time""
""blur"",""24"",""65925""
","""event"",""trial"",""time""
""focus"",""24"",""108705""
","""event"",""trial"",""time""
""fullscreenenter"",""1"",""2125""
","""event"",""trial"",""time""
""fullscreenexit"",""22"",""57364""
","","","-1","","","12","20704","7927","&#9854;","elianto","#FFFFF080","-1","-1","1","&#10004","[]","0","0","1","","","","","","","",""
"pit-trial","42","302366","0.0-2.0-6.1-0.1","battery-v0.2","","""event"",""trial"",""time""
""fullscreenenter"",""1"",""2125""
""fullscreenexit"",""22"",""57364""
""blur"",""24"",""65925""
""focus"",""24"",""108705""
","""event"",""trial"",""time""
""blur"",""24"",""65925""
","""event"",""trial"",""time""
""focus"",""24"",""108705""
","""event"",""trial"",""time""
""fullscreenenter"",""1"",""2125""
","""event"",""trial"",""time""
""fullscreenexit"",""22"",""57364""
","","","-1","","","12","20704","7927","&#9854;","elianto","#FFFFF080","-1","-1","1","&#10004","[]","0","0","1","","","","","","","",""
"pit-trial","43","307239","0.0-2.0-6.2-0.2","battery-v0.2","","""event"",""trial"",""time""
""fullscreenenter"",""1"",""2125""
""fullscreenexit"",""22"",""57364""
""blur"",""24"",""65925""
""focus"",""24"",""108705""
","""event"",""trial"",""time""
""blur"",""24"",""65925""
","""event"",""trial"",""time""
""focus"",""24"",""108705""
","""event"",""trial"",""time""
""fullscreenenter"",""1"",""2125""
","""event"",""trial"",""time""
""fullscreenexit"",""22"",""57364""
","","","-1","","","12","20704","7927","&#9854;","elianto","#FFFFF080","-1","-1","1","&#10004","[]","0","0","1","","","","","","","",""
"pit-trial","44","312114","0.0-2.0-6.3-0.3","battery-v0.2","","""event"",""trial"",""time""
""fullscreenenter"",""1"",""2125""
""fullscreenexit"",""22"",""57364""
""blur"",""24"",""65925""
""focus"",""24"",""108705""
","""event"",""trial"",""time""
""blur"",""24"",""65925""
","""event"",""trial"",""time""
""focus"",""24"",""108705""
","""event"",""trial"",""time""
""fullscreenenter"",""1"",""2125""
","""event"",""trial"",""time""
""fullscreenexit"",""22"",""57364""
","","","-1","","","12","20704","7927","&#9854;","elianto","#FFFFF080","-1","-1","1","&#10004","[]","0","0","1","","","","","","","",""
"pit-trial","45","316985","0.0-2.0-6.4-0.4","battery-v0.2","","""event"",""trial"",""time""
""fullscreenenter"",""1"",""2125""
""fullscreenexit"",""22"",""57364""
""blur"",""24"",""65925""
""focus"",""24"",""108705""
","""event"",""trial"",""time""
""blur"",""24"",""65925""
","""event"",""trial"",""time""
""focus"",""24"",""108705""
","""event"",""trial"",""time""
""fullscreenenter"",""1"",""2125""
","""event"",""trial"",""time""
""fullscreenexit"",""22"",""57364""
","","","-1","","","12","20704","7927","&#9854;","elianto","#FFFFF080","-1","-1","1","&#10004","[]","0","0","1","","","","","","","",""
"pit-instructions","46","500088","0.0-2.0-7.0","battery-v0.2","","""event"",""trial"",""time""
""fullscreenenter"",""1"",""2125""
""fullscreenexit"",""22"",""57364""
""blur"",""24"",""65925""
""focus"",""24"",""108705""
","""event"",""trial"",""time""
""blur"",""24"",""65925""
","""event"",""trial"",""time""
""focus"",""24"",""108705""
","""event"",""trial"",""time""
""fullscreenenter"",""1"",""2125""
","""event"",""trial"",""time""
""fullscreenexit"",""22"",""57364""
","","[{""page_index"":0,""viewing_time"":10848.09999999404},{""page_index"":1,""viewing_time"":14533.79999999702},{""page_index"":2,""viewing_time"":9655.70000000298},{""page_index"":3,""viewing_time"":10032.70000000298},{""page_index"":4,""viewing_time"":8528.5},{""page_index"":5,""viewing_time"":6580.79999999702},{""page_index"":6,""viewing_time"":8015.0999999940395},{""page_index"":7,""viewing_time"":12302.300000011921},{""page_index"":8,""viewing_time"":10142.89999999106},{""page_index"":9,""viewing_time"":8563.40000000596},{""page_index"":10,""viewing_time"":9102.70000000298},{""page_index"":11,""viewing_time"":7223.5999999940395},{""page_index"":12,""viewing_time"":13626.20000000298},{""page_index"":13,""viewing_time"":10945.09999999404},{""page_index"":14,""viewing_time"":14528.10000000894},{""page_index"":15,""viewing_time"":9736.89999999106},{""page_index"":16,""viewing_time"":11585.90000000596},{""page_index"":17,""viewing_time"":7147.899999991059}]","183100.59999999404","","","","","","","","","","","","","","","","","","","","","","","",""
"pit-trial","47","503884","0.0-2.0-8.0-0.0","battery-v0.2","","""event"",""trial"",""time""
""fullscreenenter"",""1"",""2125""
""fullscreenexit"",""22"",""57364""
""blur"",""24"",""65925""
""focus"",""24"",""108705""
","""event"",""trial"",""time""
""blur"",""24"",""65925""
","""event"",""trial"",""time""
""focus"",""24"",""108705""
","""event"",""trial"",""time""
""fullscreenenter"",""1"",""2125""
","""event"",""trial"",""time""
""fullscreenexit"",""22"",""57364""
","","","932","","","12","20704","7927","&#9776;","elianto","#3366ff99"," "," ","1","+10","[243.40000000596046,1782.5]","2","0","1","","","","","","","",""
"pit-trial","48","507507","0.0-2.0-8.0-1.0","battery-v0.2","","""event"",""trial"",""time""
""fullscreenenter"",""1"",""2125""
""fullscreenexit"",""22"",""57364""
""blur"",""24"",""65925""
""focus"",""24"",""108705""
","""event"",""trial"",""time""
""blur"",""24"",""65925""
","""event"",""trial"",""time""
""focus"",""24"",""108705""
","""event"",""trial"",""time""
""fullscreenenter"",""1"",""2125""
","""event"",""trial"",""time""
""fullscreenexit"",""22"",""57364""
","","","765.4000000059605","","","12","20704","7927","&#9776;","elianto","#3366ff99"," "," ","1","+10","[1616.7000000029802]","1","0","1","","","","","","","",""
"pit-trial","49","511473","0.0-2.0-8.0-2.0","battery-v0.2","","""event"",""trial"",""time""
""fullscreenenter"",""1"",""2125""
""fullscreenexit"",""22"",""57364""
""blur"",""24"",""65925""
""focus"",""24"",""108705""
","""event"",""trial"",""time""
""blur"",""24"",""65925""
","""event"",""trial"",""time""
""focus"",""24"",""108705""
","""event"",""trial"",""time""
""fullscreenenter"",""1"",""2125""
","""event"",""trial"",""time""
""fullscreenexit"",""22"",""57364""
","","","1100.5999999940395","","","12","20704","7927","&#9776;","elianto","#3366ff99"," "," ","1","+10","[1961.5]","1","0","1","","","","","","","",""
"pit-trial","50","514935","0.0-2.0-8.0-3.0","battery-v0.2","","""event"",""trial"",""time""
""fullscreenenter"",""1"",""2125""
""fullscreenexit"",""22"",""57364""
""blur"",""24"",""65925""
""focus"",""24"",""108705""
","""event"",""trial"",""time""
""blur"",""24"",""65925""
","""event"",""trial"",""time""
""focus"",""24"",""108705""
","""event"",""trial"",""time""
""fullscreenenter"",""1"",""2125""
","""event"",""trial"",""time""
""fullscreenexit"",""22"",""57364""
","","","600.8999999910593","","","12","20704","7927","&#9776;","elianto","#3366ff99"," "," ","1","0","[1458.7000000029802]","1","0","1","","","","","","","",""
"pit-trial","51","518311","0.0-2.0-8.0-4.0","battery-v0.2","","""event"",""trial"",""time""
""fullscreenenter"",""1"",""2125""
""fullscreenexit"",""22"",""57364""
""blur"",""24"",""65925""
""focus"",""24"",""108705""
","""event"",""trial"",""time""
""blur"",""24"",""65925""
","""event"",""trial"",""time""
""focus"",""24"",""108705""
","""event"",""trial"",""time""
""fullscreenenter"",""1"",""2125""
","""event"",""trial"",""time""
""fullscreenexit"",""22"",""57364""
","","","512.6000000089407","","","12","20704","7927","&#9776;","elianto","#3366ff99"," "," ","1","+10","[1365.3999999910593]","1","0","1","","","","","","","",""
"pit-trial","52","521841","0.0-2.0-8.1-0.1","battery-v0.2","","""event"",""trial"",""time""
""fullscreenenter"",""1"",""2125""
""fullscreenexit"",""22"",""57364""
""blur"",""24"",""65925""
""focus"",""24"",""108705""
","""event"",""trial"",""time""
""blur"",""24"",""65925""
","""event"",""trial"",""time""
""focus"",""24"",""108705""
","""event"",""trial"",""time""
""fullscreenenter"",""1"",""2125""
","""event"",""trial"",""time""
""fullscreenexit"",""22"",""57364""
","","","671.2999999970198","","","12","20704","7927","&#9776;","elianto","#3366ff99"," "," ","1","+10","[1522.7999999970198]","1","0","1","","","","","","","",""
"pit-trial","53","525184","0.0-2.0-8.1-1.1","battery-v0.2","","""event"",""trial"",""time""
""fullscreenenter"",""1"",""2125""
""fullscreenexit"",""22"",""57364""
""blur"",""24"",""65925""
""focus"",""24"",""108705""
","""event"",""trial"",""time""
""blur"",""24"",""65925""
","""event"",""trial"",""time""
""focus"",""24"",""108705""
","""event"",""trial"",""time""
""fullscreenenter"",""1"",""2125""
","""event"",""trial"",""time""
""fullscreenexit"",""22"",""57364""
","","","485","","","12","20704","7927","&#9776;","elianto","#3366ff99"," "," ","1","+10","[1336]","1","0","1","","","","","","","",""
"pit-trial","54","528784","0.0-2.0-8.1-2.1","battery-v0.2","","""event"",""trial"",""time""
""fullscreenenter"",""1"",""2125""
""fullscreenexit"",""22"",""57364""
""blur"",""24"",""65925""
""focus"",""24"",""108705""
","""event"",""trial"",""time""
""blur"",""24"",""65925""
","""event"",""trial"",""time""
""focus"",""24"",""108705""
","""event"",""trial"",""time""
""fullscreenenter"",""1"",""2125""
","""event"",""trial"",""time""
""fullscreenexit"",""22"",""57364""
","","","719.7000000029802","","","12","20704","7927","&#9776;","elianto","#3366ff99"," "," ","1","+10","[1582.5]","1","0","1","","","","","","","",""
"pit-trial","55","532305","0.0-2.0-8.1-3.1","battery-v0.2","","""event"",""trial"",""time""
""fullscreenenter"",""1"",""2125""
""fullscreenexit"",""22"",""57364""
""blur"",""24"",""65925""
""focus"",""24"",""108705""
","""event"",""trial"",""time""
""blur"",""24"",""65925""
","""event"",""trial"",""time""
""focus"",""24"",""108705""
","""event"",""trial"",""time""
""fullscreenenter"",""1"",""2125""
","""event"",""trial"",""time""
""fullscreenexit"",""22"",""57364""
","","","651.2999999970198","","","12","20704","7927","&#9776;","elianto","#3366ff99"," "," ","1","0","[1512.2000000029802]","1","0","1","","","","","","","",""
"pit-trial","56","535797","0.0-2.0-8.1-4.1","battery-v0.2","","""event"",""trial"",""time""
""fullscreenenter"",""1"",""2125""
""fullscreenexit"",""22"",""57364""
""blur"",""24"",""65925""
""focus"",""24"",""108705""
","""event"",""trial"",""time""
""blur"",""24"",""65925""
","""event"",""trial"",""time""
""focus"",""24"",""108705""
","""event"",""trial"",""time""
""fullscreenenter"",""1"",""2125""
","""event"",""trial"",""time""
""fullscreenexit"",""22"",""57364""
","","","627.4000000059605","","","12","20704","7927","&#9776;","elianto","#3366ff99"," "," ","1","+10","[1477.7000000029802]","1","0","1","","","","","","","",""
"pit-trial","57","539177","0.0-2.0-8.2-0.2","battery-v0.2","","""event"",""trial"",""time""
""fullscreenenter"",""1"",""2125""
""fullscreenexit"",""22"",""57364""
""blur"",""24"",""65925""
""focus"",""24"",""108705""
","""event"",""trial"",""time""
""blur"",""24"",""65925""
","""event"",""trial"",""time""
""focus"",""24"",""108705""
","""event"",""trial"",""time""
""fullscreenenter"",""1"",""2125""
","""event"",""trial"",""time""
""fullscreenexit"",""22"",""57364""
","","","504.79999999701977","","","12","20704","7927","&#9776;","elianto","#3366ff99"," "," ","1","+10","[1367.0999999940395]","1","0","1","","","","","","","",""
"pit-trial","58","542402","0.0-2.0-8.2-1.2","battery-v0.2","","""event"",""trial"",""time""
""fullscreenenter"",""1"",""2125""
""fullscreenexit"",""22"",""57364""
""blur"",""24"",""65925""
""focus"",""24"",""108705""
","""event"",""trial"",""time""
""blur"",""24"",""65925""
","""event"",""trial"",""time""
""focus"",""24"",""108705""
","""event"",""trial"",""time""
""fullscreenenter"",""1"",""2125""
","""event"",""trial"",""time""
""fullscreenexit"",""22"",""57364""
","","","357","","","12","20704","7927","&#9776;","elianto","#3366ff99"," "," ","1","+10","[1211.5999999940395]","1","0","1","","","","","","","",""
"pit-trial","59","545886","0.0-2.0-8.2-2.2","battery-v0.2","","""event"",""trial"",""time""
""fullscreenenter"",""1"",""2125""
""fullscreenexit"",""22"",""57364""
""blur"",""24"",""65925""
""focus"",""24"",""108705""
","""event"",""trial"",""time""
""blur"",""24"",""65925""
","""event"",""trial"",""time""
""focus"",""24"",""108705""
","""event"",""trial"",""time""
""fullscreenenter"",""1"",""2125""
","""event"",""trial"",""time""
""fullscreenexit"",""22"",""57364""
","","","625.4000000059605","","","12","20704","7927","&#9776;","elianto","#3366ff99"," "," ","1","+10","[1481.2999999970198]","1","0","1","","","","","","","",""
"pit-trial","60","549945","0.0-2.0-8.2-3.2","battery-v0.2","","""event"",""trial"",""time""
""fullscreenenter"",""1"",""2125""
""fullscreenexit"",""22"",""57364""
""blur"",""24"",""65925""
""focus"",""24"",""108705""
","""event"",""trial"",""time""
""blur"",""24"",""65925""
","""event"",""trial"",""time""
""focus"",""24"",""108705""
","""event"",""trial"",""time""
""fullscreenenter"",""1"",""2125""
","""event"",""trial"",""time""
""fullscreenexit"",""22"",""57364""
","","","1199.2000000029802","","","12","20704","7927","&#9776;","elianto","#3366ff99"," "," ","1","0","[2053.3999999910593]","1","0","1","","","","","","","",""
"pit-trial","61","553356","0.0-2.0-8.2-4.2","battery-v0.2","","""event"",""trial"",""time""
""fullscreenenter"",""1"",""2125""
""fullscreenexit"",""22"",""57364""
""blur"",""24"",""65925""
""focus"",""24"",""108705""
","""event"",""trial"",""time""
""blur"",""24"",""65925""
","""event"",""trial"",""time""
""focus"",""24"",""108705""
","""event"",""trial"",""time""
""fullscreenenter"",""1"",""2125""
","""event"",""trial"",""time""
""fullscreenexit"",""22"",""57364""
","","","539","","","12","20704","7927","&#9776;","elianto","#3366ff99"," "," ","1","+10","[1402.5999999940395]","1","0","1","","","","","","","",""
"call-function","62","553357","0.0-2.0-9.0","battery-v0.2","","""event"",""trial"",""time""
""fullscreenenter"",""1"",""2125""
""fullscreenexit"",""22"",""57364""
""blur"",""24"",""65925""
""focus"",""24"",""108705""
","""event"",""trial"",""time""
""blur"",""24"",""65925""
","""event"",""trial"",""time""
""focus"",""24"",""108705""
","""event"",""trial"",""time""
""fullscreenenter"",""1"",""2125""
","""event"",""trial"",""time""
""fullscreenexit"",""22"",""57364""
","","","","","","","","","","","","","","","","","","","","","","","","","","",""
"pit-instructions","63","648592","0.0-2.0-10.0","battery-v0.2","","""event"",""trial"",""time""
""fullscreenenter"",""1"",""2125""
""fullscreenexit"",""22"",""57364""
""blur"",""24"",""65925""
""focus"",""24"",""108705""
","""event"",""trial"",""time""
""blur"",""24"",""65925""
","""event"",""trial"",""time""
""focus"",""24"",""108705""
","""event"",""trial"",""time""
""fullscreenenter"",""1"",""2125""
","""event"",""trial"",""time""
""fullscreenexit"",""22"",""57364""
","","[{""page_index"":0,""viewing_time"":17105.79999999702},{""page_index"":1,""viewing_time"":12373.59999999404},{""page_index"":2,""viewing_time"":16913.29999999702},{""page_index"":3,""viewing_time"":22572.5},{""page_index"":4,""viewing_time"":26267.10000000894}]","95232.89999999106","","","","","","","","","","","","","","","","","","","","","","","",""
"pit-trial","64","653461","0.0-2.0-11.0-0.0","battery-v0.2","","""event"",""trial"",""time""
""fullscreenenter"",""1"",""2125""
""fullscreenexit"",""22"",""57364""
""blur"",""24"",""65925""
""focus"",""24"",""108705""
","""event"",""trial"",""time""
""blur"",""24"",""65925""
","""event"",""trial"",""time""
""focus"",""24"",""108705""
","""event"",""trial"",""time""
""fullscreenenter"",""1"",""2125""
","""event"",""trial"",""time""
""fullscreenexit"",""22"",""57364""
","","","-1","","","12","20704","7927","&#9761;","elianto","#3366ff99","-1","-1","1","+10","[]","0","0","2","","","","","","","",""
"pit-trial","65","658326","0.0-2.0-11.0-1.0","battery-v0.2","","""event"",""trial"",""time""
""fullscreenenter"",""1"",""2125""
""fullscreenexit"",""22"",""57364""
""blur"",""24"",""65925""
""focus"",""24"",""108705""
","""event"",""trial"",""time""
""blur"",""24"",""65925""
","""event"",""trial"",""time""
""focus"",""24"",""108705""
","""event"",""trial"",""time""
""fullscreenenter"",""1"",""2125""
","""event"",""trial"",""time""
""fullscreenexit"",""22"",""57364""
","","","-1","","","12","20704","7927","&#9761;","elianto","#3366ff99","-1","-1","1","+10","[]","0","0","2","","","","","","","",""
"pit-trial","66","663196","0.0-2.0-11.0-2.0","battery-v0.2","","""event"",""trial"",""time""
""fullscreenenter"",""1"",""2125""
""fullscreenexit"",""22"",""57364""
""blur"",""24"",""65925""
""focus"",""24"",""108705""
","""event"",""trial"",""time""
""blur"",""24"",""65925""
","""event"",""trial"",""time""
""focus"",""24"",""108705""
","""event"",""trial"",""time""
""fullscreenenter"",""1"",""2125""
","""event"",""trial"",""time""
""fullscreenexit"",""22"",""57364""
","","","-1","","","12","20704","7927","&#9761;","elianto","#3366ff99","-1","-1","1","+10","[]","0","0","2","","","","","","","",""
"pit-trial","67","668063","0.0-2.0-11.0-3.0","battery-v0.2","","""event"",""trial"",""time""
""fullscreenenter"",""1"",""2125""
""fullscreenexit"",""22"",""57364""
""blur"",""24"",""65925""
""focus"",""24"",""108705""
","""event"",""trial"",""time""
""blur"",""24"",""65925""
","""event"",""trial"",""time""
""focus"",""24"",""108705""
","""event"",""trial"",""time""
""fullscreenenter"",""1"",""2125""
","""event"",""trial"",""time""
""fullscreenexit"",""22"",""57364""
","","","-1","","","12","20704","7927","&#9761;","elianto","#3366ff99","-1","-1","1","0","[]","0","0","2","","","","","","","",""
"pit-trial","68","672931","0.0-2.0-11.0-4.0","battery-v0.2","","""event"",""trial"",""time""
""fullscreenenter"",""1"",""2125""
""fullscreenexit"",""22"",""57364""
""blur"",""24"",""65925""
""focus"",""24"",""108705""
","""event"",""trial"",""time""
""blur"",""24"",""65925""
","""event"",""trial"",""time""
""focus"",""24"",""108705""
","""event"",""trial"",""time""
""fullscreenenter"",""1"",""2125""
","""event"",""trial"",""time""
""fullscreenexit"",""22"",""57364""
","","","-1","","","12","20704","7927","&#9761;","elianto","#3366ff99","-1","-1","1","+10","[]","0","0","2","","","","","","","",""
"pit-trial","69","677805","0.0-2.0-11.1-0.1","battery-v0.2","","""event"",""trial"",""time""
""fullscreenenter"",""1"",""2125""
""fullscreenexit"",""22"",""57364""
""blur"",""24"",""65925""
""focus"",""24"",""108705""
","""event"",""trial"",""time""
""blur"",""24"",""65925""
","""event"",""trial"",""time""
""focus"",""24"",""108705""
","""event"",""trial"",""time""
""fullscreenenter"",""1"",""2125""
","""event"",""trial"",""time""
""fullscreenexit"",""22"",""57364""
","","","-1","","","12","20704","7927","&#9761;","elianto","#3366ff99","-1","-1","1","+10","[]","0","0","2","","","","","","","",""
"pit-trial","70","682677","0.0-2.0-11.1-1.1","battery-v0.2","","""event"",""trial"",""time""
""fullscreenenter"",""1"",""2125""
""fullscreenexit"",""22"",""57364""
""blur"",""24"",""65925""
""focus"",""24"",""108705""
","""event"",""trial"",""time""
""blur"",""24"",""65925""
","""event"",""trial"",""time""
""focus"",""24"",""108705""
","""event"",""trial"",""time""
""fullscreenenter"",""1"",""2125""
","""event"",""trial"",""time""
""fullscreenexit"",""22"",""57364""
","","","-1","","","12","20704","7927","&#9761;","elianto","#3366ff99","-1","-1","1","+10","[]","0","0","2","","","","","","","",""
"pit-trial","71","687549","0.0-2.0-11.1-2.1","battery-v0.2","","""event"",""trial"",""time""
""fullscreenenter"",""1"",""2125""
""fullscreenexit"",""22"",""57364""
""blur"",""24"",""65925""
""focus"",""24"",""108705""
","""event"",""trial"",""time""
""blur"",""24"",""65925""
","""event"",""trial"",""time""
""focus"",""24"",""108705""
","""event"",""trial"",""time""
""fullscreenenter"",""1"",""2125""
","""event"",""trial"",""time""
""fullscreenexit"",""22"",""57364""
","","","-1","","","12","20704","7927","&#9761;","elianto","#3366ff99","-1","-1","1","+10","[]","0","0","2","","","","","","","",""
"pit-trial","72","692419","0.0-2.0-11.1-3.1","battery-v0.2","","""event"",""trial"",""time""
""fullscreenenter"",""1"",""2125""
""fullscreenexit"",""22"",""57364""
""blur"",""24"",""65925""
""focus"",""24"",""108705""
","""event"",""trial"",""time""
""blur"",""24"",""65925""
","""event"",""trial"",""time""
""focus"",""24"",""108705""
","""event"",""trial"",""time""
""fullscreenenter"",""1"",""2125""
","""event"",""trial"",""time""
""fullscreenexit"",""22"",""57364""
","","","-1","","","12","20704","7927","&#9761;","elianto","#3366ff99","-1","-1","1","0","[]","0","0","2","","","","","","","",""
"pit-trial","73","697281","0.0-2.0-11.1-4.1","battery-v0.2","","""event"",""trial"",""time""
""fullscreenenter"",""1"",""2125""
""fullscreenexit"",""22"",""57364""
""blur"",""24"",""65925""
""focus"",""24"",""108705""
","""event"",""trial"",""time""
""blur"",""24"",""65925""
","""event"",""trial"",""time""
""focus"",""24"",""108705""
","""event"",""trial"",""time""
""fullscreenenter"",""1"",""2125""
","""event"",""trial"",""time""
""fullscreenexit"",""22"",""57364""
","","","-1","","","12","20704","7927","&#9761;","elianto","#3366ff99","-1","-1","1","+10","[]","0","0","2","","","","","","","",""
"pit-trial","74","702149","0.0-2.0-11.2-0.2","battery-v0.2","","""event"",""trial"",""time""
""fullscreenenter"",""1"",""2125""
""fullscreenexit"",""22"",""57364""
""blur"",""24"",""65925""
""focus"",""24"",""108705""
","""event"",""trial"",""time""
""blur"",""24"",""65925""
","""event"",""trial"",""time""
""focus"",""24"",""108705""
","""event"",""trial"",""time""
""fullscreenenter"",""1"",""2125""
","""event"",""trial"",""time""
""fullscreenexit"",""22"",""57364""
","","","-1","","","12","20704","7927","&#9761;","elianto","#3366ff99","-1","-1","1","+10","[]","0","0","2","","","","","","","",""
"pit-trial","75","707008","0.0-2.0-11.2-1.2","battery-v0.2","","""event"",""trial"",""time""
""fullscreenenter"",""1"",""2125""
""fullscreenexit"",""22"",""57364""
""blur"",""24"",""65925""
""focus"",""24"",""108705""
","""event"",""trial"",""time""
""blur"",""24"",""65925""
","""event"",""trial"",""time""
""focus"",""24"",""108705""
","""event"",""trial"",""time""
""fullscreenenter"",""1"",""2125""
","""event"",""trial"",""time""
""fullscreenexit"",""22"",""57364""
","","","-1","","","12","20704","7927","&#9761;","elianto","#3366ff99","-1","-1","1","+10","[]","0","0","2","","","","","","","",""
"pit-trial","76","711882","0.0-2.0-11.2-2.2","battery-v0.2","","""event"",""trial"",""time""
""fullscreenenter"",""1"",""2125""
""fullscreenexit"",""22"",""57364""
""blur"",""24"",""65925""
""focus"",""24"",""108705""
","""event"",""trial"",""time""
""blur"",""24"",""65925""
","""event"",""trial"",""time""
""focus"",""24"",""108705""
","""event"",""trial"",""time""
""fullscreenenter"",""1"",""2125""
","""event"",""trial"",""time""
""fullscreenexit"",""22"",""57364""
","","","-1","","","12","20704","7927","&#9761;","elianto","#3366ff99","-1","-1","1","+10","[]","0","0","2","","","","","","","",""
"pit-trial","77","716752","0.0-2.0-11.2-3.2","battery-v0.2","","""event"",""trial"",""time""
""fullscreenenter"",""1"",""2125""
""fullscreenexit"",""22"",""57364""
""blur"",""24"",""65925""
""focus"",""24"",""108705""
","""event"",""trial"",""time""
""blur"",""24"",""65925""
","""event"",""trial"",""time""
""focus"",""24"",""108705""
","""event"",""trial"",""time""
""fullscreenenter"",""1"",""2125""
","""event"",""trial"",""time""
""fullscreenexit"",""22"",""57364""
","","","-1","","","12","20704","7927","&#9761;","elianto","#3366ff99","-1","-1","1","0","[]","0","0","2","","","","","","","",""
"pit-trial","78","721622","0.0-2.0-11.2-4.2","battery-v0.2","","""event"",""trial"",""time""
""fullscreenenter"",""1"",""2125""
""fullscreenexit"",""22"",""57364""
""blur"",""24"",""65925""
""focus"",""24"",""108705""
","""event"",""trial"",""time""
""blur"",""24"",""65925""
","""event"",""trial"",""time""
""focus"",""24"",""108705""
","""event"",""trial"",""time""
""fullscreenenter"",""1"",""2125""
","""event"",""trial"",""time""
""fullscreenexit"",""22"",""57364""
","","","-1","","","12","20704","7927","&#9761;","elianto","#3366ff99","-1","-1","1","+10","[]","0","0","2","","","","","","","",""
"pit-trial","79","726482","0.0-2.0-11.3-0.3","battery-v0.2","","""event"",""trial"",""time""
""fullscreenenter"",""1"",""2125""
""fullscreenexit"",""22"",""57364""
""blur"",""24"",""65925""
""focus"",""24"",""108705""
","""event"",""trial"",""time""
""blur"",""24"",""65925""
","""event"",""trial"",""time""
""focus"",""24"",""108705""
","""event"",""trial"",""time""
""fullscreenenter"",""1"",""2125""
","""event"",""trial"",""time""
""fullscreenexit"",""22"",""57364""
","","","-1","","","12","20704","7927","&#9761;","elianto","#3366ff99","-1","-1","1","+10","[]","0","0","2","","","","","","","",""
"pit-trial","80","731357","0.0-2.0-11.3-1.3","battery-v0.2","","""event"",""trial"",""time""
""fullscreenenter"",""1"",""2125""
""fullscreenexit"",""22"",""57364""
""blur"",""24"",""65925""
""focus"",""24"",""108705""
","""event"",""trial"",""time""
""blur"",""24"",""65925""
","""event"",""trial"",""time""
""focus"",""24"",""108705""
","""event"",""trial"",""time""
""fullscreenenter"",""1"",""2125""
","""event"",""trial"",""time""
""fullscreenexit"",""22"",""57364""
","","","-1","","","12","20704","7927","&#9761;","elianto","#3366ff99","-1","-1","1","+10","[]","0","0","2","","","","","","","",""
"pit-trial","81","736221","0.0-2.0-11.3-2.3","battery-v0.2","","""event"",""trial"",""time""
""fullscreenenter"",""1"",""2125""
""fullscreenexit"",""22"",""57364""
""blur"",""24"",""65925""
""focus"",""24"",""108705""
","""event"",""trial"",""time""
""blur"",""24"",""65925""
","""event"",""trial"",""time""
""focus"",""24"",""108705""
","""event"",""trial"",""time""
""fullscreenenter"",""1"",""2125""
","""event"",""trial"",""time""
""fullscreenexit"",""22"",""57364""
","","","-1","","","12","20704","7927","&#9761;","elianto","#3366ff99","-1","-1","1","+10","[]","0","0","2","","","","","","","",""
"pit-trial","82","741076","0.0-2.0-11.3-3.3","battery-v0.2","","""event"",""trial"",""time""
""fullscreenenter"",""1"",""2125""
""fullscreenexit"",""22"",""57364""
""blur"",""24"",""65925""
""focus"",""24"",""108705""
","""event"",""trial"",""time""
""blur"",""24"",""65925""
","""event"",""trial"",""time""
""focus"",""24"",""108705""
","""event"",""trial"",""time""
""fullscreenenter"",""1"",""2125""
","""event"",""trial"",""time""
""fullscreenexit"",""22"",""57364""
","","","-1","","","12","20704","7927","&#9761;","elianto","#3366ff99","-1","-1","1","0","[]","0","0","2","","","","","","","",""
"pit-trial","83","745951","0.0-2.0-11.3-4.3","battery-v0.2","","""event"",""trial"",""time""
""fullscreenenter"",""1"",""2125""
""fullscreenexit"",""22"",""57364""
""blur"",""24"",""65925""
""focus"",""24"",""108705""
","""event"",""trial"",""time""
""blur"",""24"",""65925""
","""event"",""trial"",""time""
""focus"",""24"",""108705""
","""event"",""trial"",""time""
""fullscreenenter"",""1"",""2125""
","""event"",""trial"",""time""
""fullscreenexit"",""22"",""57364""
","","","-1","","","12","20704","7927","&#9761;","elianto","#3366ff99","-1","-1","1","+10","[]","0","0","2","","","","","","","",""
"call-function","84","745953","0.0-2.0-12.0","battery-v0.2","","""event"",""trial"",""time""
""fullscreenenter"",""1"",""2125""
""fullscreenexit"",""22"",""57364""
""blur"",""24"",""65925""
""focus"",""24"",""108705""
","""event"",""trial"",""time""
""blur"",""24"",""65925""
","""event"",""trial"",""time""
""focus"",""24"",""108705""
","""event"",""trial"",""time""
""fullscreenenter"",""1"",""2125""
","""event"",""trial"",""time""
""fullscreenexit"",""22"",""57364""
","","","","","","","","","","","","","","","","","","","","","","","","","","",""
"pit-instructions","85","837833","0.0-2.0-13.0","battery-v0.2","","""event"",""trial"",""time""
""fullscreenenter"",""1"",""2125""
""fullscreenexit"",""22"",""57364""
""blur"",""24"",""65925""
""focus"",""24"",""108705""
","""event"",""trial"",""time""
""blur"",""24"",""65925""
","""event"",""trial"",""time""
""focus"",""24"",""108705""
","""event"",""trial"",""time""
""fullscreenenter"",""1"",""2125""
","""event"",""trial"",""time""
""fullscreenexit"",""22"",""57364""
","","[{""page_index"":0,""viewing_time"":13905.90000000596},{""page_index"":1,""viewing_time"":25119.79999999702},{""page_index"":2,""viewing_time"":9294.40000000596},{""page_index"":3,""viewing_time"":25210},{""page_index"":4,""viewing_time"":18343.70000000298}]","91875","","","","","","","","","","","","","","","","","","","","","","","",""
"pit-trial","86","841607","0.0-2.0-14.0-0.0","battery-v0.2","","""event"",""trial"",""time""
""fullscreenenter"",""1"",""2125""
""fullscreenexit"",""22"",""57364""
""blur"",""24"",""65925""
""focus"",""24"",""108705""
","""event"",""trial"",""time""
""blur"",""24"",""65925""
","""event"",""trial"",""time""
""focus"",""24"",""108705""
","""event"",""trial"",""time""
""fullscreenenter"",""1"",""2125""
","""event"",""trial"",""time""
""fullscreenexit"",""22"",""57364""
","","","904.4000000059605","","","12","20704","7927","&#9826;","elianto","#f73b6a7A","-1"," ","0","-10","[1762.9000000059605]","1","0","3","","","","","","","",""
"pit-trial","87","846477","0.0-2.0-14.0-1.0","battery-v0.2","","""event"",""trial"",""time""
""fullscreenenter"",""1"",""2125""
""fullscreenexit"",""22"",""57364""
""blur"",""24"",""65925""
""focus"",""24"",""108705""
","""event"",""trial"",""time""
""blur"",""24"",""65925""
","""event"",""trial"",""time""
""focus"",""24"",""108705""
","""event"",""trial"",""time""
""fullscreenenter"",""1"",""2125""
","""event"",""trial"",""time""
""fullscreenexit"",""22"",""57364""
","","","-1","","","12","20704","7927","&#9826;","elianto","#f73b6a7A","-1","-1","1","0","[]","0","0","3","","","","","","","",""
"pit-trial","88","851345","0.0-2.0-14.0-2.0","battery-v0.2","","""event"",""trial"",""time""
""fullscreenenter"",""1"",""2125""
""fullscreenexit"",""22"",""57364""
""blur"",""24"",""65925""
""focus"",""24"",""108705""
","""event"",""trial"",""time""
""blur"",""24"",""65925""
","""event"",""trial"",""time""
""focus"",""24"",""108705""
","""event"",""trial"",""time""
""fullscreenenter"",""1"",""2125""
","""event"",""trial"",""time""
""fullscreenexit"",""22"",""57364""
","","","-1","","","12","20704","7927","&#9826;","elianto","#f73b6a7A","-1","-1","1","0","[]","0","0","3","","","","","","","",""
"pit-trial","89","856210","0.0-2.0-14.0-3.0","battery-v0.2","","""event"",""trial"",""time""
""fullscreenenter"",""1"",""2125""
""fullscreenexit"",""22"",""57364""
""blur"",""24"",""65925""
""focus"",""24"",""108705""
","""event"",""trial"",""time""
""blur"",""24"",""65925""
","""event"",""trial"",""time""
""focus"",""24"",""108705""
","""event"",""trial"",""time""
""fullscreenenter"",""1"",""2125""
","""event"",""trial"",""time""
""fullscreenexit"",""22"",""57364""
","","","-1","","","12","20704","7927","&#9826;","elianto","#f73b6a7A","-1","-1","1","-10","[]","0","0","3","","","","","","","",""
"pit-trial","90","861072","0.0-2.0-14.0-4.0","battery-v0.2","","""event"",""trial"",""time""
""fullscreenenter"",""1"",""2125""
""fullscreenexit"",""22"",""57364""
""blur"",""24"",""65925""
""focus"",""24"",""108705""
","""event"",""trial"",""time""
""blur"",""24"",""65925""
","""event"",""trial"",""time""
""focus"",""24"",""108705""
","""event"",""trial"",""time""
""fullscreenenter"",""1"",""2125""
","""event"",""trial"",""time""
""fullscreenexit"",""22"",""57364""
","","","-1","","","12","20704","7927","&#9826;","elianto","#f73b6a7A","-1","-1","1","0","[]","0","0","3","","","","","","","",""
"pit-trial","91","865936","0.0-2.0-14.1-0.1","battery-v0.2","","""event"",""trial"",""time""
""fullscreenenter"",""1"",""2125""
""fullscreenexit"",""22"",""57364""
""blur"",""24"",""65925""
""focus"",""24"",""108705""
","""event"",""trial"",""time""
""blur"",""24"",""65925""
","""event"",""trial"",""time""
""focus"",""24"",""108705""
","""event"",""trial"",""time""
""fullscreenenter"",""1"",""2125""
","""event"",""trial"",""time""
""fullscreenexit"",""22"",""57364""
","","","-1","","","12","20704","7927","&#9826;","elianto","#f73b6a7A","-1","-1","1","0","[]","0","0","3","","","","","","","",""
"pit-trial","92","870814","0.0-2.0-14.1-1.1","battery-v0.2","","""event"",""trial"",""time""
""fullscreenenter"",""1"",""2125""
""fullscreenexit"",""22"",""57364""
""blur"",""24"",""65925""
""focus"",""24"",""108705""
","""event"",""trial"",""time""
""blur"",""24"",""65925""
","""event"",""trial"",""time""
""focus"",""24"",""108705""
","""event"",""trial"",""time""
""fullscreenenter"",""1"",""2125""
","""event"",""trial"",""time""
""fullscreenexit"",""22"",""57364""
","","","-1","","","12","20704","7927","&#9826;","elianto","#f73b6a7A","-1","-1","1","0","[]","0","0","3","","","","","","","",""
"pit-trial","93","875674","0.0-2.0-14.1-2.1","battery-v0.2","","""event"",""trial"",""time""
""fullscreenenter"",""1"",""2125""
""fullscreenexit"",""22"",""57364""
""blur"",""24"",""65925""
""focus"",""24"",""108705""
","""event"",""trial"",""time""
""blur"",""24"",""65925""
","""event"",""trial"",""time""
""focus"",""24"",""108705""
","""event"",""trial"",""time""
""fullscreenenter"",""1"",""2125""
","""event"",""trial"",""time""
""fullscreenexit"",""22"",""57364""
","","","-1","","","12","20704","7927","&#9826;","elianto","#f73b6a7A","-1","-1","1","0","[]","0","0","3","","","","","","","",""
"pit-trial","94","880545","0.0-2.0-14.1-3.1","battery-v0.2","","""event"",""trial"",""time""
""fullscreenenter"",""1"",""2125""
""fullscreenexit"",""22"",""57364""
""blur"",""24"",""65925""
""focus"",""24"",""108705""
","""event"",""trial"",""time""
""blur"",""24"",""65925""
","""event"",""trial"",""time""
""focus"",""24"",""108705""
","""event"",""trial"",""time""
""fullscreenenter"",""1"",""2125""
","""event"",""trial"",""time""
""fullscreenexit"",""22"",""57364""
","","","-1","","","12","20704","7927","&#9826;","elianto","#f73b6a7A","-1","-1","1","-10","[]","0","0","3","","","","","","","",""
"pit-trial","95","885422","0.0-2.0-14.1-4.1","battery-v0.2","","""event"",""trial"",""time""
""fullscreenenter"",""1"",""2125""
""fullscreenexit"",""22"",""57364""
""blur"",""24"",""65925""
""focus"",""24"",""108705""
","""event"",""trial"",""time""
""blur"",""24"",""65925""
","""event"",""trial"",""time""
""focus"",""24"",""108705""
","""event"",""trial"",""time""
""fullscreenenter"",""1"",""2125""
","""event"",""trial"",""time""
""fullscreenexit"",""22"",""57364""
","","","-1","","","12","20704","7927","&#9826;","elianto","#f73b6a7A","-1","-1","1","0","[]","0","0","3","","","","","","","",""
"pit-trial","96","890288","0.0-2.0-14.2-0.2","battery-v0.2","","""event"",""trial"",""time""
""fullscreenenter"",""1"",""2125""
""fullscreenexit"",""22"",""57364""
""blur"",""24"",""65925""
""focus"",""24"",""108705""
","""event"",""trial"",""time""
""blur"",""24"",""65925""
","""event"",""trial"",""time""
""focus"",""24"",""108705""
","""event"",""trial"",""time""
""fullscreenenter"",""1"",""2125""
","""event"",""trial"",""time""
""fullscreenexit"",""22"",""57364""
","","","-1","","","12","20704","7927","&#9826;","elianto","#f73b6a7A","-1","-1","1","0","[]","0","0","3","","","","","","","",""
"pit-trial","97","895162","0.0-2.0-14.2-1.2","battery-v0.2","","""event"",""trial"",""time""
""fullscreenenter"",""1"",""2125""
""fullscreenexit"",""22"",""57364""
""blur"",""24"",""65925""
""focus"",""24"",""108705""
","""event"",""trial"",""time""
""blur"",""24"",""65925""
","""event"",""trial"",""time""
""focus"",""24"",""108705""
","""event"",""trial"",""time""
""fullscreenenter"",""1"",""2125""
","""event"",""trial"",""time""
""fullscreenexit"",""22"",""57364""
","","","-1","","","12","20704","7927","&#9826;","elianto","#f73b6a7A","-1","-1","1","0","[]","0","0","3","","","","","","","",""
"pit-trial","98","900033","0.0-2.0-14.2-2.2","battery-v0.2","","""event"",""trial"",""time""
""fullscreenenter"",""1"",""2125""
""fullscreenexit"",""22"",""57364""
""blur"",""24"",""65925""
""focus"",""24"",""108705""
","""event"",""trial"",""time""
""blur"",""24"",""65925""
","""event"",""trial"",""time""
""focus"",""24"",""108705""
","""event"",""trial"",""time""
""fullscreenenter"",""1"",""2125""
","""event"",""trial"",""time""
""fullscreenexit"",""22"",""57364""
","","","-1","","","12","20704","7927","&#9826;","elianto","#f73b6a7A","-1","-1","1","0","[]","0","0","3","","","","","","","",""
"pit-trial","99","904911","0.0-2.0-14.2-3.2","battery-v0.2","","""event"",""trial"",""time""
""fullscreenenter"",""1"",""2125""
""fullscreenexit"",""22"",""57364""
""blur"",""24"",""65925""
""focus"",""24"",""108705""
","""event"",""trial"",""time""
""blur"",""24"",""65925""
","""event"",""trial"",""time""
""focus"",""24"",""108705""
","""event"",""trial"",""time""
""fullscreenenter"",""1"",""2125""
","""event"",""trial"",""time""
""fullscreenexit"",""22"",""57364""
","","","-1","","","12","20704","7927","&#9826;","elianto","#f73b6a7A","-1","-1","1","-10","[]","0","0","3","","","","","","","",""
"pit-trial","100","909778","0.0-2.0-14.2-4.2","battery-v0.2","","""event"",""trial"",""time""
""fullscreenenter"",""1"",""2125""
""fullscreenexit"",""22"",""57364""
""blur"",""24"",""65925""
""focus"",""24"",""108705""
","""event"",""trial"",""time""
""blur"",""24"",""65925""
","""event"",""trial"",""time""
""focus"",""24"",""108705""
","""event"",""trial"",""time""
""fullscreenenter"",""1"",""2125""
","""event"",""trial"",""time""
""fullscreenexit"",""22"",""57364""
","","","-1","","","12","20704","7927","&#9826;","elianto","#f73b6a7A","-1","-1","1","0","[]","0","0","3","","","","","","","",""
"pit-trial","101","914655","0.0-2.0-14.3-0.3","battery-v0.2","","""event"",""trial"",""time""
""fullscreenenter"",""1"",""2125""
""fullscreenexit"",""22"",""57364""
""blur"",""24"",""65925""
""focus"",""24"",""108705""
","""event"",""trial"",""time""
""blur"",""24"",""65925""
","""event"",""trial"",""time""
""focus"",""24"",""108705""
","""event"",""trial"",""time""
""fullscreenenter"",""1"",""2125""
","""event"",""trial"",""time""
""fullscreenexit"",""22"",""57364""
","","","-1","","","12","20704","7927","&#9826;","elianto","#f73b6a7A","-1","-1","1","0","[]","0","0","3","","","","","","","",""
"pit-trial","102","919530","0.0-2.0-14.3-1.3","battery-v0.2","","""event"",""trial"",""time""
""fullscreenenter"",""1"",""2125""
""fullscreenexit"",""22"",""57364""
""blur"",""24"",""65925""
""focus"",""24"",""108705""
","""event"",""trial"",""time""
""blur"",""24"",""65925""
","""event"",""trial"",""time""
""focus"",""24"",""108705""
","""event"",""trial"",""time""
""fullscreenenter"",""1"",""2125""
","""event"",""trial"",""time""
""fullscreenexit"",""22"",""57364""
","","","-1","","","12","20704","7927","&#9826;","elianto","#f73b6a7A","-1","-1","1","0","[]","0","0","3","","","","","","","",""
"pit-trial","103","924405","0.0-2.0-14.3-2.3","battery-v0.2","","""event"",""trial"",""time""
""fullscreenenter"",""1"",""2125""
""fullscreenexit"",""22"",""57364""
""blur"",""24"",""65925""
""focus"",""24"",""108705""
","""event"",""trial"",""time""
""blur"",""24"",""65925""
","""event"",""trial"",""time""
""focus"",""24"",""108705""
","""event"",""trial"",""time""
""fullscreenenter"",""1"",""2125""
","""event"",""trial"",""time""
""fullscreenexit"",""22"",""57364""
","","","-1","","","12","20704","7927","&#9826;","elianto","#f73b6a7A","-1","-1","1","0","[]","0","0","3","","","","","","","",""
"pit-trial","104","929275","0.0-2.0-14.3-3.3","battery-v0.2","","""event"",""trial"",""time""
""fullscreenenter"",""1"",""2125""
""fullscreenexit"",""22"",""57364""
""blur"",""24"",""65925""
""focus"",""24"",""108705""
","""event"",""trial"",""time""
""blur"",""24"",""65925""
","""event"",""trial"",""time""
""focus"",""24"",""108705""
","""event"",""trial"",""time""
""fullscreenenter"",""1"",""2125""
","""event"",""trial"",""time""
""fullscreenexit"",""22"",""57364""
","","","-1","","","12","20704","7927","&#9826;","elianto","#f73b6a7A","-1","-1","1","-10","[]","0","0","3","","","","","","","",""
"pit-trial","105","934148","0.0-2.0-14.3-4.3","battery-v0.2","","""event"",""trial"",""time""
""fullscreenenter"",""1"",""2125""
""fullscreenexit"",""22"",""57364""
""blur"",""24"",""65925""
""focus"",""24"",""108705""
","""event"",""trial"",""time""
""blur"",""24"",""65925""
","""event"",""trial"",""time""
""focus"",""24"",""108705""
","""event"",""trial"",""time""
""fullscreenenter"",""1"",""2125""
","""event"",""trial"",""time""
""fullscreenexit"",""22"",""57364""
","","","-1","","","12","20704","7927","&#9826;","elianto","#f73b6a7A","-1","-1","1","0","[]","0","0","3","","","","","","","",""
"call-function","106","934150","0.0-2.0-15.0","battery-v0.2","","""event"",""trial"",""time""
""fullscreenenter"",""1"",""2125""
""fullscreenexit"",""22"",""57364""
""blur"",""24"",""65925""
""focus"",""24"",""108705""
","""event"",""trial"",""time""
""blur"",""24"",""65925""
","""event"",""trial"",""time""
""focus"",""24"",""108705""
","""event"",""trial"",""time""
""fullscreenenter"",""1"",""2125""
","""event"",""trial"",""time""
""fullscreenexit"",""22"",""57364""
","","","","","","","","","","","","","","","","","","","","","","","","","","",""
"pit-instructions","107","997330","0.0-2.0-16.0","battery-v0.2","","""event"",""trial"",""time""
""fullscreenenter"",""1"",""2125""
""fullscreenexit"",""22"",""57364""
""blur"",""24"",""65925""
""focus"",""24"",""108705""
","""event"",""trial"",""time""
""blur"",""24"",""65925""
","""event"",""trial"",""time""
""focus"",""24"",""108705""
","""event"",""trial"",""time""
""fullscreenenter"",""1"",""2125""
","""event"",""trial"",""time""
""fullscreenexit"",""22"",""57364""
","","[{""page_index"":0,""viewing_time"":15757.89999999106},{""page_index"":1,""viewing_time"":29974.40000000596},{""page_index"":2,""viewing_time"":9278},{""page_index"":3,""viewing_time"":8169.399999991059}]","63180.29999999702","","","","","","","","","","","","","","","","","","","","","","","",""
"pit-trial","108","1002194","0.0-2.0-17.0-0.0","battery-v0.2","","""event"",""trial"",""time""
""fullscreenenter"",""1"",""2125""
""fullscreenexit"",""22"",""57364""
""blur"",""24"",""65925""
""focus"",""24"",""108705""
","""event"",""trial"",""time""
""blur"",""24"",""65925""
","""event"",""trial"",""time""
""focus"",""24"",""108705""
","""event"",""trial"",""time""
""fullscreenenter"",""1"",""2125""
","""event"",""trial"",""time""
""fullscreenexit"",""22"",""57364""
","","","-1","","","12","20704","7927","&#9789;","elianto","#f73b6a7A"," ","-1","0","-10","[4399.4000000059605]","1","0","4","","","","","","","",""
"pit-trial","109","1007052","0.0-2.0-17.0-1.0","battery-v0.2","","""event"",""trial"",""time""
""fullscreenenter"",""1"",""2125""
""fullscreenexit"",""22"",""57364""
""blur"",""24"",""65925""
""focus"",""24"",""108705""
","""event"",""trial"",""time""
""blur"",""24"",""65925""
","""event"",""trial"",""time""
""focus"",""24"",""108705""
","""event"",""trial"",""time""
""fullscreenenter"",""1"",""2125""
","""event"",""trial"",""time""
""fullscreenexit"",""22"",""57364""
","","","-1","","","12","20704","7927","&#9789;","elianto","#f73b6a7A"," ","-1","0","-10","[]","0","0","4","","","","","","","",""
"pit-trial","110","1010657","0.0-2.0-17.0-2.0","battery-v0.2","","""event"",""trial"",""time""
""fullscreenenter"",""1"",""2125""
""fullscreenexit"",""22"",""57364""
""blur"",""24"",""65925""
""focus"",""24"",""108705""
","""event"",""trial"",""time""
""blur"",""24"",""65925""
","""event"",""trial"",""time""
""focus"",""24"",""108705""
","""event"",""trial"",""time""
""fullscreenenter"",""1"",""2125""
","""event"",""trial"",""time""
""fullscreenexit"",""22"",""57364""
","","","743.4000000059605","","","12","20704","7927","&#9789;","elianto","#f73b6a7A"," "," ","1","0","[1602.1000000089407]","1","0","4","","","","","","","",""
"pit-trial","111","1013964","0.0-2.0-17.0-3.0","battery-v0.2","","""event"",""trial"",""time""
""fullscreenenter"",""1"",""2125""
""fullscreenexit"",""22"",""57364""
""blur"",""24"",""65925""
""focus"",""24"",""108705""
","""event"",""trial"",""time""
""blur"",""24"",""65925""
","""event"",""trial"",""time""
""focus"",""24"",""108705""
","""event"",""trial"",""time""
""fullscreenenter"",""1"",""2125""
","""event"",""trial"",""time""
""fullscreenexit"",""22"",""57364""
","","","441.1000000089407","","","12","20704","7927","&#9789;","elianto","#f73b6a7A"," "," ","1","-10","[1293.5999999940395]","1","0","4","","","","","","","",""
"pit-trial","112","1017313","0.0-2.0-17.0-4.0","battery-v0.2","","""event"",""trial"",""time""
""fullscreenenter"",""1"",""2125""
""fullscreenexit"",""22"",""57364""
""blur"",""24"",""65925""
""focus"",""24"",""108705""
","""event"",""trial"",""time""
""blur"",""24"",""65925""
","""event"",""trial"",""time""
""focus"",""24"",""108705""
","""event"",""trial"",""time""
""fullscreenenter"",""1"",""2125""
","""event"",""trial"",""time""
""fullscreenexit"",""22"",""57364""
","","","484.6000000089407","","","12","20704","7927","&#9789;","elianto","#f73b6a7A"," "," ","1","0","[1336.2000000029802]","1","0","4","","","","","","","",""
"pit-trial","113","1020709","0.0-2.0-17.1-0.1","battery-v0.2","","""event"",""trial"",""time""
""fullscreenenter"",""1"",""2125""
""fullscreenexit"",""22"",""57364""
""blur"",""24"",""65925""
""focus"",""24"",""108705""
","""event"",""trial"",""time""
""blur"",""24"",""65925""
","""event"",""trial"",""time""
""focus"",""24"",""108705""
","""event"",""trial"",""time""
""fullscreenenter"",""1"",""2125""
","""event"",""trial"",""time""
""fullscreenexit"",""22"",""57364""
","","","541.7000000029802","","","12","20704","7927","&#9789;","elianto","#f73b6a7A"," "," ","1","0","[1392.4000000059605]","1","0","4","","","","","","","",""
"pit-trial","114","1024048","0.0-2.0-17.1-1.1","battery-v0.2","","""event"",""trial"",""time""
""fullscreenenter"",""1"",""2125""
""fullscreenexit"",""22"",""57364""
""blur"",""24"",""65925""
""focus"",""24"",""108705""
","""event"",""trial"",""time""
""blur"",""24"",""65925""
","""event"",""trial"",""time""
""focus"",""24"",""108705""
","""event"",""trial"",""time""
""fullscreenenter"",""1"",""2125""
","""event"",""trial"",""time""
""fullscreenexit"",""22"",""57364""
","","","477.5","","","12","20704","7927","&#9789;","elianto","#f73b6a7A"," "," ","1","0","[1328.7999999970198]","1","0","4","","","","","","","",""
"pit-trial","115","1027441","0.0-2.0-17.1-2.1","battery-v0.2","","""event"",""trial"",""time""
""fullscreenenter"",""1"",""2125""
""fullscreenexit"",""22"",""57364""
""blur"",""24"",""65925""
""focus"",""24"",""108705""
","""event"",""trial"",""time""
""blur"",""24"",""65925""
","""event"",""trial"",""time""
""focus"",""24"",""108705""
","""event"",""trial"",""time""
""fullscreenenter"",""1"",""2125""
","""event"",""trial"",""time""
""fullscreenexit"",""22"",""57364""
","","","525.7000000029802","","","12","20704","7927","&#9789;","elianto","#f73b6a7A"," "," ","1","0","[1385.4000000059605]","1","0","4","","","","","","","",""
"pit-trial","116","1031118","0.0-2.0-17.1-3.1","battery-v0.2","","""event"",""trial"",""time""
""fullscreenenter"",""1"",""2125""
""fullscreenexit"",""22"",""57364""
""blur"",""24"",""65925""
""focus"",""24"",""108705""
","""event"",""trial"",""time""
""blur"",""24"",""65925""
","""event"",""trial"",""time""
""focus"",""24"",""108705""
","""event"",""trial"",""time""
""fullscreenenter"",""1"",""2125""
","""event"",""trial"",""time""
""fullscreenexit"",""22"",""57364""
","","","808","","","12","20704","7927","&#9789;","elianto","#f73b6a7A"," "," ","1","-10","[1659.5]","1","0","4","","","","","","","",""
"pit-trial","117","1034341","0.0-2.0-17.1-4.1","battery-v0.2","","""event"",""trial"",""time""
""fullscreenenter"",""1"",""2125""
""fullscreenexit"",""22"",""57364""
""blur"",""24"",""65925""
""focus"",""24"",""108705""
","""event"",""trial"",""time""
""blur"",""24"",""65925""
","""event"",""trial"",""time""
""focus"",""24"",""108705""
","""event"",""trial"",""time""
""fullscreenenter"",""1"",""2125""
","""event"",""trial"",""time""
""fullscreenexit"",""22"",""57364""
","","","361.5","","","12","20704","7927","&#9789;","elianto","#f73b6a7A"," "," ","1","0","[1219]","1","0","4","","","","","","","",""
"pit-trial","118","1037486","0.0-2.0-17.2-0.2","battery-v0.2","","""event"",""trial"",""time""
""fullscreenenter"",""1"",""2125""
""fullscreenexit"",""22"",""57364""
""blur"",""24"",""65925""
""focus"",""24"",""108705""
","""event"",""trial"",""time""
""blur"",""24"",""65925""
","""event"",""trial"",""time""
""focus"",""24"",""108705""
","""event"",""trial"",""time""
""fullscreenenter"",""1"",""2125""
","""event"",""trial"",""time""
""fullscreenexit"",""22"",""57364""
","","","277.70000000298023","","","12","20704","7927","&#9789;","elianto","#f73b6a7A"," "," ","1","0","[1128.2000000029802]","1","0","4","","","","","","","",""
"pit-trial","119","1040646","0.0-2.0-17.2-1.2","battery-v0.2","","""event"",""trial"",""time""
""fullscreenenter"",""1"",""2125""
""fullscreenexit"",""22"",""57364""
""blur"",""24"",""65925""
""focus"",""24"",""108705""
","""event"",""trial"",""time""
""blur"",""24"",""65925""
","""event"",""trial"",""time""
""focus"",""24"",""108705""
","""event"",""trial"",""time""
""fullscreenenter"",""1"",""2125""
","""event"",""trial"",""time""
""fullscreenexit"",""22"",""57364""
","","","295.29999999701977","","","12","20704","7927","&#9789;","elianto","#f73b6a7A"," "," ","1","0","[1146.2999999970198]","1","0","4","","","","","","","",""
"pit-trial","120","1043811","0.0-2.0-17.2-2.2","battery-v0.2","","""event"",""trial"",""time""
""fullscreenenter"",""1"",""2125""
""fullscreenexit"",""22"",""57364""
""blur"",""24"",""65925""
""focus"",""24"",""108705""
","""event"",""trial"",""time""
""blur"",""24"",""65925""
","""event"",""trial"",""time""
""focus"",""24"",""108705""
","""event"",""trial"",""time""
""fullscreenenter"",""1"",""2125""
","""event"",""trial"",""time""
""fullscreenexit"",""22"",""57364""
","","","297.70000000298023","","","12","20704","7927","&#9789;","elianto","#f73b6a7A"," "," ","1","0","[1155.7999999970198]","1","0","4","","","","","","","",""
"pit-trial","121","1047096","0.0-2.0-17.2-3.2","battery-v0.2","","""event"",""trial"",""time""
""fullscreenenter"",""1"",""2125""
""fullscreenexit"",""22"",""57364""
""blur"",""24"",""65925""
""focus"",""24"",""108705""
","""event"",""trial"",""time""
""blur"",""24"",""65925""
","""event"",""trial"",""time""
""focus"",""24"",""108705""
","""event"",""trial"",""time""
""fullscreenenter"",""1"",""2125""
","""event"",""trial"",""time""
""fullscreenexit"",""22"",""57364""
","","","410.79999999701977","","","12","20704","7927","&#9789;","elianto","#f73b6a7A"," "," ","1","-10","[1268.7999999970198]","1","0","4","","","","","","","",""
"pit-trial","122","1050547","0.0-2.0-17.2-4.2","battery-v0.2","","""event"",""trial"",""time""
""fullscreenenter"",""1"",""2125""
""fullscreenexit"",""22"",""57364""
""blur"",""24"",""65925""
""focus"",""24"",""108705""
","""event"",""trial"",""time""
""blur"",""24"",""65925""
","""event"",""trial"",""time""
""focus"",""24"",""108705""
","""event"",""trial"",""time""
""fullscreenenter"",""1"",""2125""
","""event"",""trial"",""time""
""fullscreenexit"",""22"",""57364""
","","","584.5999999940395","","","12","20704","7927","&#9789;","elianto","#f73b6a7A"," "," ","1","0","[1439.9000000059605]","1","0","4","","","","","","","",""
"pit-trial","123","1053800","0.0-2.0-17.3-0.3","battery-v0.2","","""event"",""trial"",""time""
""fullscreenenter"",""1"",""2125""
""fullscreenexit"",""22"",""57364""
""blur"",""24"",""65925""
""focus"",""24"",""108705""
","""event"",""trial"",""time""
""blur"",""24"",""65925""
","""event"",""trial"",""time""
""focus"",""24"",""108705""
","""event"",""trial"",""time""
""fullscreenenter"",""1"",""2125""
","""event"",""trial"",""time""
""fullscreenexit"",""22"",""57364""
","","","390","","","12","20704","7927","&#9789;","elianto","#f73b6a7A"," "," ","1","0","[1242.3999999910593]","1","0","4","","","","","","","",""
"pit-trial","124","1057365","0.0-2.0-17.3-1.3","battery-v0.2","","""event"",""trial"",""time""
""fullscreenenter"",""1"",""2125""
""fullscreenexit"",""22"",""57364""
""blur"",""24"",""65925""
""focus"",""24"",""108705""
","""event"",""trial"",""time""
""blur"",""24"",""65925""
","""event"",""trial"",""time""
""focus"",""24"",""108705""
","""event"",""trial"",""time""
""fullscreenenter"",""1"",""2125""
","""event"",""trial"",""time""
""fullscreenexit"",""22"",""57364""
","","","695.5999999940395","","","12","20704","7927","&#9789;","elianto","#f73b6a7A"," "," ","1","0","[1546.8999999910593]","1","0","4","","","","","","","",""
"pit-trial","125","1060481","0.0-2.0-17.3-2.3","battery-v0.2","","""event"",""trial"",""time""
""fullscreenenter"",""1"",""2125""
""fullscreenexit"",""22"",""57364""
""blur"",""24"",""65925""
""focus"",""24"",""108705""
","""event"",""trial"",""time""
""blur"",""24"",""65925""
","""event"",""trial"",""time""
""focus"",""24"",""108705""
","""event"",""trial"",""time""
""fullscreenenter"",""1"",""2125""
","""event"",""trial"",""time""
""fullscreenexit"",""22"",""57364""
","","","253.79999999701977","","","12","20704","7927","&#9789;","elianto","#f73b6a7A"," "," ","1","0","[1105.800000011921]","1","0","4","","","","","","","",""
"pit-trial","126","1065345","0.0-2.0-17.3-3.3","battery-v0.2","","""event"",""trial"",""time""
""fullscreenenter"",""1"",""2125""
""fullscreenexit"",""22"",""57364""
""blur"",""24"",""65925""
""focus"",""24"",""108705""
","""event"",""trial"",""time""
""blur"",""24"",""65925""
","""event"",""trial"",""time""
""focus"",""24"",""108705""
","""event"",""trial"",""time""
""fullscreenenter"",""1"",""2125""
","""event"",""trial"",""time""
""fullscreenexit"",""22"",""57364""
","","","-1","","","12","20704","7927","&#9789;","elianto","#f73b6a7A"," ","-1","0","0","[]","0","0","4","","","","","","","",""
"pit-trial","127","1068777","0.0-2.0-17.3-4.3","battery-v0.2","","""event"",""trial"",""time""
""fullscreenenter"",""1"",""2125""
""fullscreenexit"",""22"",""57364""
""blur"",""24"",""65925""
""focus"",""24"",""108705""
","""event"",""trial"",""time""
""blur"",""24"",""65925""
","""event"",""trial"",""time""
""focus"",""24"",""108705""
","""event"",""trial"",""time""
""fullscreenenter"",""1"",""2125""
","""event"",""trial"",""time""
""fullscreenexit"",""22"",""57364""
","","","571.9000000059605","","","12","20704","7927","&#9789;","elianto","#f73b6a7A"," "," ","1","0","[1427]","1","0","4","","","","","","","",""
"call-function","128","1068778","0.0-2.0-18.0","battery-v0.2","","""event"",""trial"",""time""
""fullscreenenter"",""1"",""2125""
""fullscreenexit"",""22"",""57364""
""blur"",""24"",""65925""
""focus"",""24"",""108705""
","""event"",""trial"",""time""
""blur"",""24"",""65925""
","""event"",""trial"",""time""
""focus"",""24"",""108705""
","""event"",""trial"",""time""
""fullscreenenter"",""1"",""2125""
","""event"",""trial"",""time""
""fullscreenexit"",""22"",""57364""
","","","","","","","","","","","","","","","","","","","","","","","","","","",""
"pit-instructions","129","1223325","0.0-2.0-19.0","battery-v0.2","","""event"",""trial"",""time""
""fullscreenenter"",""1"",""2125""
""fullscreenexit"",""22"",""57364""
""blur"",""24"",""65925""
""focus"",""24"",""108705""
","""event"",""trial"",""time""
""blur"",""24"",""65925""
","""event"",""trial"",""time""
""focus"",""24"",""108705""
","""event"",""trial"",""time""
""fullscreenenter"",""1"",""2125""
","""event"",""trial"",""time""
""fullscreenexit"",""22"",""57364""
","","[{""page_index"":0,""viewing_time"":11364.59999999404},{""page_index"":1,""viewing_time"":10937.60000000894},{""page_index"":2,""viewing_time"":15326.5},{""page_index"":3,""viewing_time"":33089.09999999404},{""page_index"":4,""viewing_time"":17651.59999999404},{""page_index"":5,""viewing_time"":17008.70000000298},{""page_index"":6,""viewing_time"":15208.20000000298},{""page_index"":7,""viewing_time"":30932.90000000596},{""page_index"":8,""viewing_time"":3027.5}]","154546.89999999106","","","","","","","","","","","","","","","","","","","","","","","",""
"pit-comprehension","130","1255620","0.0-2.0-20.0-0.0","battery-v0.2","","""event"",""trial"",""time""
""fullscreenenter"",""1"",""2125""
""fullscreenexit"",""22"",""57364""
""blur"",""24"",""65925""
""focus"",""24"",""108705""
","""event"",""trial"",""time""
""blur"",""24"",""65925""
","""event"",""trial"",""time""
""focus"",""24"",""108705""
","""event"",""trial"",""time""
""fullscreenenter"",""1"",""2125""
","""event"",""trial"",""time""
""fullscreenexit"",""22"",""57364""
","","","32292.70000000298","[""SPACE""]","0","12","20704","7927","","","","","","","","","","","","","","","","","","",""
"pit-instructions","131","1266471","0.0-2.0-20.0-1.0","battery-v0.2","","""event"",""trial"",""time""
""fullscreenenter"",""1"",""2125""
""fullscreenexit"",""22"",""57364""
""blur"",""24"",""65925""
""focus"",""24"",""108705""
","""event"",""trial"",""time""
""blur"",""24"",""65925""
","""event"",""trial"",""time""
""focus"",""24"",""108705""
","""event"",""trial"",""time""
""fullscreenenter"",""1"",""2125""
","""event"",""trial"",""time""
""fullscreenexit"",""22"",""57364""
","","[{""page_index"":0,""viewing_time"":10798.09999999404}]","10798.5","","","","","","","","","","","","","","","","","","","","","","","",""
"pit-comprehension","132","1293313","0.0-2.0-21.0-0.0","battery-v0.2","","""event"",""trial"",""time""
""fullscreenenter"",""1"",""2125""
""fullscreenexit"",""22"",""57364""
""blur"",""24"",""65925""
""focus"",""24"",""108705""
","""event"",""trial"",""time""
""blur"",""24"",""65925""
","""event"",""trial"",""time""
""focus"",""24"",""108705""
","""event"",""trial"",""time""
""fullscreenenter"",""1"",""2125""
","""event"",""trial"",""time""
""fullscreenexit"",""22"",""57364""
","","","26839.10000000894","[""10""]","0","12","20704","7927","","","","","","","","","","","","","","","","","","",""
"pit-instructions","133","1296613","0.0-2.0-21.0-1.0","battery-v0.2","","""event"",""trial"",""time""
""fullscreenenter"",""1"",""2125""
""fullscreenexit"",""22"",""57364""
""blur"",""24"",""65925""
""focus"",""24"",""108705""
","""event"",""trial"",""time""
""blur"",""24"",""65925""
","""event"",""trial"",""time""
""focus"",""24"",""108705""
","""event"",""trial"",""time""
""fullscreenenter"",""1"",""2125""
","""event"",""trial"",""time""
""fullscreenexit"",""22"",""57364""
","","[{""page_index"":0,""viewing_time"":3271.9000000059605}]","3272.5","","","","","","","","","","","","","","","","","","","","","","","",""
"pit-comprehension","134","1320596","0.0-2.0-22.0-0.0","battery-v0.2","","""event"",""trial"",""time""
""fullscreenenter"",""1"",""2125""
""fullscreenexit"",""22"",""57364""
""blur"",""24"",""65925""
""focus"",""24"",""108705""
","""event"",""trial"",""time""
""blur"",""24"",""65925""
","""event"",""trial"",""time""
""focus"",""24"",""108705""
","""event"",""trial"",""time""
""fullscreenenter"",""1"",""2125""
","""event"",""trial"",""time""
""fullscreenexit"",""22"",""57364""
","","","23978","[""0""]","0","12","20704","7927","","","","","","","","","","","","","","","","","","",""
"pit-instructions","135","1323152","0.0-2.0-22.0-1.0","battery-v0.2","","""event"",""trial"",""time""
""fullscreenenter"",""1"",""2125""
""fullscreenexit"",""22"",""57364""
""blur"",""24"",""65925""
""focus"",""24"",""108705""
","""event"",""trial"",""time""
""blur"",""24"",""65925""
","""event"",""trial"",""time""
""focus"",""24"",""108705""
","""event"",""trial"",""time""
""fullscreenenter"",""1"",""2125""
","""event"",""trial"",""time""
""fullscreenexit"",""22"",""57364""
","","[{""page_index"":0,""viewing_time"":2529.2999999970198}]","2529.8999999910593","","","","","","","","","","","","","","","","","","","","","","","",""
"pit-comprehension","136","1345071","0.0-2.0-23.0-0.0","battery-v0.2","","""event"",""trial"",""time""
""fullscreenenter"",""1"",""2125""
""fullscreenexit"",""22"",""57364""
""blur"",""24"",""65925""
""focus"",""24"",""108705""
","""event"",""trial"",""time""
""blur"",""24"",""65925""
","""event"",""trial"",""time""
""focus"",""24"",""108705""
","""event"",""trial"",""time""
""fullscreenenter"",""1"",""2125""
","""event"",""trial"",""time""
""fullscreenexit"",""22"",""57364""
","","","21914.60000000894","[""True""]","0","12","20704","7927","","","","","","","","","","","","","","","","","","",""
"pit-instructions","137","1349069","0.0-2.0-23.0-1.0","battery-v0.2","","""event"",""trial"",""time""
""fullscreenenter"",""1"",""2125""
""fullscreenexit"",""22"",""57364""
""blur"",""24"",""65925""
""focus"",""24"",""108705""
","""event"",""trial"",""time""
""blur"",""24"",""65925""
","""event"",""trial"",""time""
""focus"",""24"",""108705""
","""event"",""trial"",""time""
""fullscreenenter"",""1"",""2125""
","""event"",""trial"",""time""
""fullscreenexit"",""22"",""57364""
","","[{""page_index"":0,""viewing_time"":3962.2999999970198}]","3962.8999999910593","","","","","","","","","","","","","","","","","","","","","","","",""
"pit-comprehension","138","1379530","0.0-2.0-24.0-0.0","battery-v0.2","","""event"",""trial"",""time""
""fullscreenenter"",""1"",""2125""
""fullscreenexit"",""22"",""57364""
""blur"",""24"",""65925""
""focus"",""24"",""108705""
","""event"",""trial"",""time""
""blur"",""24"",""65925""
","""event"",""trial"",""time""
""focus"",""24"",""108705""
","""event"",""trial"",""time""
""fullscreenenter"",""1"",""2125""
","""event"",""trial"",""time""
""fullscreenexit"",""22"",""57364""
","","","30457.20000000298","[""True""]","0","12","20704","7927","","","","","","","","","","","","","","","","","","",""
"pit-instructions","139","1382641","0.0-2.0-24.0-1.0","battery-v0.2","","""event"",""trial"",""time""
""fullscreenenter"",""1"",""2125""
""fullscreenexit"",""22"",""57364""
""blur"",""24"",""65925""
""focus"",""24"",""108705""
","""event"",""trial"",""time""
""blur"",""24"",""65925""
","""event"",""trial"",""time""
""focus"",""24"",""108705""
","""event"",""trial"",""time""
""fullscreenenter"",""1"",""2125""
","""event"",""trial"",""time""
""fullscreenexit"",""22"",""57364""
","","[{""page_index"":0,""viewing_time"":3068.7999999970198}]","3069.2999999970198","","","","","","","","","","","","","","","","","","","","","","","",""
"pit-comprehension","140","1404325","0.0-2.0-25.0-0.0","battery-v0.2","","""event"",""trial"",""time""
""fullscreenenter"",""1"",""2125""
""fullscreenexit"",""22"",""57364""
""blur"",""24"",""65925""
""focus"",""24"",""108705""
","""event"",""trial"",""time""
""blur"",""24"",""65925""
","""event"",""trial"",""time""
""focus"",""24"",""108705""
","""event"",""trial"",""time""
""fullscreenenter"",""1"",""2125""
","""event"",""trial"",""time""
""fullscreenexit"",""22"",""57364""
","","","21679.80000001192","[""True""]","0","12","20704","7927","","","","","","","","","","","","","","","","","","",""
"pit-instructions","141","1407061","0.0-2.0-25.0-1.0","battery-v0.2","","""event"",""trial"",""time""
""fullscreenenter"",""1"",""2125""
""fullscreenexit"",""22"",""57364""
""blur"",""24"",""65925""
""focus"",""24"",""108705""
","""event"",""trial"",""time""
""blur"",""24"",""65925""
","""event"",""trial"",""time""
""focus"",""24"",""108705""
","""event"",""trial"",""time""
""fullscreenenter"",""1"",""2125""
","""event"",""trial"",""time""
""fullscreenexit"",""22"",""57364""
","","[{""page_index"":0,""viewing_time"":2697.2999999970198}]","2697.5999999940395","","","","","","","","","","","","","","","","","","","","","","","",""
"pit-comprehension","142","1423264","0.0-2.0-26.0-0.0","battery-v0.2","","""event"",""trial"",""time""
""fullscreenenter"",""1"",""2125""
""fullscreenexit"",""22"",""57364""
""blur"",""24"",""65925""
""focus"",""24"",""108705""
","""event"",""trial"",""time""
""blur"",""24"",""65925""
","""event"",""trial"",""time""
""focus"",""24"",""108705""
","""event"",""trial"",""time""
""fullscreenenter"",""1"",""2125""
","""event"",""trial"",""time""
""fullscreenexit"",""22"",""57364""
","","","16200","[""False""]","0","12","20704","7927","","","","","","","","","","","","","","","","","","",""
"pit-instructions","143","1425805","0.0-2.0-26.0-1.0","battery-v0.2","","""event"",""trial"",""time""
""fullscreenenter"",""1"",""2125""
""fullscreenexit"",""22"",""57364""
""blur"",""24"",""65925""
""focus"",""24"",""108705""
","""event"",""trial"",""time""
""blur"",""24"",""65925""
","""event"",""trial"",""time""
""focus"",""24"",""108705""
","""event"",""trial"",""time""
""fullscreenenter"",""1"",""2125""
","""event"",""trial"",""time""
""fullscreenexit"",""22"",""57364""
","","[{""page_index"":0,""viewing_time"":2505}]","2505.2999999970198","","","","","","","","","","","","","","","","","","","","","","","",""
"pit-instructions","144","1449579","0.0-3.0","battery-v0.2","","""event"",""trial"",""time""
""fullscreenenter"",""1"",""2125""
""fullscreenexit"",""22"",""57364""
""blur"",""24"",""65925""
""focus"",""24"",""108705""
","""event"",""trial"",""time""
""blur"",""24"",""65925""
","""event"",""trial"",""time""
""focus"",""24"",""108705""
","""event"",""trial"",""time""
""fullscreenenter"",""1"",""2125""
","""event"",""trial"",""time""
""fullscreenexit"",""22"",""57364""
","","[{""page_index"":0,""viewing_time"":4733.20000000298},{""page_index"":1,""viewing_time"":6101},{""page_index"":2,""viewing_time"":12935.79999999702}]","23770.20000000298","","","","","","","","","","","","","","","","","","","","","","","",""
"pit-trial","145","1454450","0.0-4.0","battery-v0.2","","""event"",""trial"",""time""
""fullscreenenter"",""1"",""2125""
""fullscreenexit"",""22"",""57364""
""blur"",""24"",""65925""
""focus"",""24"",""108705""
","""event"",""trial"",""time""
""blur"",""24"",""65925""
","""event"",""trial"",""time""
""focus"",""24"",""108705""
","""event"",""trial"",""time""
""fullscreenenter"",""1"",""2125""
","""event"",""trial"",""time""
""fullscreenexit"",""22"",""57364""
","","","-1","","","12","20704","7927","&#9728;","elianto","#f73b6a7A","-1","-1","1","0","[3803.4000000059605]","1","1","","","20704","1","0","4","lose","no-go","0"
"pit-trial","146","1459038","0.0-5.0","battery-v0.2","","""event"",""trial"",""time""
""fullscreenenter"",""1"",""2125""
""fullscreenexit"",""22"",""57364""
""blur"",""24"",""65925""
""focus"",""24"",""108705""
","""event"",""trial"",""time""
""blur"",""24"",""65925""
","""event"",""trial"",""time""
""focus"",""24"",""108705""
","""event"",""trial"",""time""
""fullscreenenter"",""1"",""2125""
","""event"",""trial"",""time""
""fullscreenexit"",""22"",""57364""
","","","1730.7999999970198","","","12","20704","7927","&#9733;","elianto","#3366ff99","-1"," ","0","0","[2582.3999999910593]","1","1","","","20704","2","2","2","win","no-go","0"
"pit-trial","147","1463277","0.0-6.0","battery-v0.2","","""event"",""trial"",""time""
""fullscreenenter"",""1"",""2125""
""fullscreenexit"",""22"",""57364""
""blur"",""24"",""65925""
""focus"",""24"",""108705""
","""event"",""trial"",""time""
""blur"",""24"",""65925""
","""event"",""trial"",""time""
""focus"",""24"",""108705""
","""event"",""trial"",""time""
""fullscreenenter"",""1"",""2125""
","""event"",""trial"",""time""
""fullscreenexit"",""22"",""57364""
","","","1373.0999999940395","","","12","20704","7927","&#9730;","elianto","#3366ff99"," "," ","1","+10","[2231.9000000059605]","1","1","","","20704","3","1","1","win","go","0"
"pit-trial","148","1468140","0.0-7.0","battery-v0.2","","""event"",""trial"",""time""
""fullscreenenter"",""1"",""2125""
""fullscreenexit"",""22"",""57364""
""blur"",""24"",""65925""
""focus"",""24"",""108705""
","""event"",""trial"",""time""
""blur"",""24"",""65925""
","""event"",""trial"",""time""
""focus"",""24"",""108705""
","""event"",""trial"",""time""
""fullscreenenter"",""1"",""2125""
","""event"",""trial"",""time""
""fullscreenexit"",""22"",""57364""
","","","-1","","","12","20704","7927","&#9752;","elianto","#f73b6a7A"," ","-1","0","0","[]","0","1","","","20704","4","3","3","lose","go","1"
"pit-trial","149","1473022","0.0-8.0","battery-v0.2","","""event"",""trial"",""time""
""fullscreenenter"",""1"",""2125""
""fullscreenexit"",""22"",""57364""
""blur"",""24"",""65925""
""focus"",""24"",""108705""
","""event"",""trial"",""time""
""blur"",""24"",""65925""
","""event"",""trial"",""time""
""focus"",""24"",""108705""
","""event"",""trial"",""time""
""fullscreenenter"",""1"",""2125""
","""event"",""trial"",""time""
""fullscreenexit"",""22"",""57364""
","","","-1","","","12","20704","7927","&#9752;","elianto","#f73b6a7A"," ","-1","0","-10","[]","0","1","","","20704","5","3","3","lose","go","0"
"pit-trial","150","1477889","0.0-9.0","battery-v0.2","","""event"",""trial"",""time""
""fullscreenenter"",""1"",""2125""
""fullscreenexit"",""22"",""57364""
""blur"",""24"",""65925""
""focus"",""24"",""108705""
","""event"",""trial"",""time""
""blur"",""24"",""65925""
","""event"",""trial"",""time""
""focus"",""24"",""108705""
","""event"",""trial"",""time""
""fullscreenenter"",""1"",""2125""
","""event"",""trial"",""time""
""fullscreenexit"",""22"",""57364""
","","","-1","","","12","20704","7927","&#9733;","elianto","#3366ff99","-1","-1","1","+10","[2869.0999999940395]","1","1","","","20704","6","2","2","win","no-go","0"
"pit-trial","151","1482759","0.0-10.0","battery-v0.2","","""event"",""trial"",""time""
""fullscreenenter"",""1"",""2125""
""fullscreenexit"",""22"",""57364""
""blur"",""24"",""65925""
""focus"",""24"",""108705""
","""event"",""trial"",""time""
""blur"",""24"",""65925""
","""event"",""trial"",""time""
""focus"",""24"",""108705""
","""event"",""trial"",""time""
""fullscreenenter"",""1"",""2125""
","""event"",""trial"",""time""
""fullscreenexit"",""22"",""57364""
","","","-1","","","12","20704","7927","&#9730;","elianto","#3366ff99"," ","-1","0","0","[]","0","1","","","20704","7","1","1","win","go","0"
"pit-trial","152","1487614","0.0-11.0","battery-v0.2","","""event"",""trial"",""time""
""fullscreenenter"",""1"",""2125""
""fullscreenexit"",""22"",""57364""
""blur"",""24"",""65925""
""focus"",""24"",""108705""
","""event"",""trial"",""time""
""blur"",""24"",""65925""
","""event"",""trial"",""time""
""focus"",""24"",""108705""
","""event"",""trial"",""time""
""fullscreenenter"",""1"",""2125""
","""event"",""trial"",""time""
""fullscreenexit"",""22"",""57364""
","","","-1","","","12","20704","7927","&#9728;","elianto","#f73b6a7A","-1","-1","1","0","[]","0","1","","","20704","8","0","4","lose","no-go","0"
"pit-trial","153","1491621","0.0-12.0","battery-v0.2","","""event"",""trial"",""time""
""fullscreenenter"",""1"",""2125""
""fullscreenexit"",""22"",""57364""
""blur"",""24"",""65925""
""focus"",""24"",""108705""
","""event"",""trial"",""time""
""blur"",""24"",""65925""
","""event"",""trial"",""time""
""focus"",""24"",""108705""
","""event"",""trial"",""time""
""fullscreenenter"",""1"",""2125""
","""event"",""trial"",""time""
""fullscreenexit"",""22"",""57364""
","","","1139.1000000089407","","","12","20704","7927","&#9733;","elianto","#3366ff99","-1"," ","0","0","[1993]","1","1","","","20704","9","2","2","win","no-go","0"
"pit-trial","154","1496491","0.0-13.0","battery-v0.2","","""event"",""trial"",""time""
""fullscreenenter"",""1"",""2125""
""fullscreenexit"",""22"",""57364""
""blur"",""24"",""65925""
""focus"",""24"",""108705""
","""event"",""trial"",""time""
""blur"",""24"",""65925""
","""event"",""trial"",""time""
""focus"",""24"",""108705""
","""event"",""trial"",""time""
""fullscreenenter"",""1"",""2125""
","""event"",""trial"",""time""
""fullscreenexit"",""22"",""57364""
","","","-1","","","12","20704","7927","&#9728;","elianto","#f73b6a7A","-1","-1","1","0","[]","0","1","","","20704","10","0","4","lose","no-go","0"
"pit-trial","155","1501357","0.0-14.0","battery-v0.2","","""event"",""trial"",""time""
""fullscreenenter"",""1"",""2125""
""fullscreenexit"",""22"",""57364""
""blur"",""24"",""65925""
""focus"",""24"",""108705""
","""event"",""trial"",""time""
""blur"",""24"",""65925""
","""event"",""trial"",""time""
""focus"",""24"",""108705""
","""event"",""trial"",""time""
""fullscreenenter"",""1"",""2125""
","""event"",""trial"",""time""
""fullscreenexit"",""22"",""57364""
","","","-1","","","12","20704","7927","&#9752;","elianto","#f73b6a7A"," ","-1","0","-10","[]","0","1","","","20704","11","3","3","lose","go","0"
"pit-trial","156","1506227","0.0-15.0","battery-v0.2","","""event"",""trial"",""time""
""fullscreenenter"",""1"",""2125""
""fullscreenexit"",""22"",""57364""
""blur"",""24"",""65925""
""focus"",""24"",""108705""
","""event"",""trial"",""time""
""blur"",""24"",""65925""
","""event"",""trial"",""time""
""focus"",""24"",""108705""
","""event"",""trial"",""time""
""fullscreenenter"",""1"",""2125""
","""event"",""trial"",""time""
""fullscreenexit"",""22"",""57364""
","","","-1","","","12","20704","7927","&#9730;","elianto","#3366ff99"," ","-1","0","0","[]","0","1","","","20704","12","1","1","win","go","0"
"pit-trial","157","1511098","0.0-16.0","battery-v0.2","","""event"",""trial"",""time""
""fullscreenenter"",""1"",""2125""
""fullscreenexit"",""22"",""57364""
""blur"",""24"",""65925""
""focus"",""24"",""108705""
","""event"",""trial"",""time""
""blur"",""24"",""65925""
","""event"",""trial"",""time""
""focus"",""24"",""108705""
","""event"",""trial"",""time""
""fullscreenenter"",""1"",""2125""
","""event"",""trial"",""time""
""fullscreenexit"",""22"",""57364""
","","","-1","","","12","20704","7927","&#9752;","elianto","#f73b6a7A"," ","-1","0","-10","[]","0","1","","","20704","13","3","3","lose","go","0"
"pit-trial","158","1515523","0.0-17.0","battery-v0.2","","""event"",""trial"",""time""
""fullscreenenter"",""1"",""2125""
""fullscreenexit"",""22"",""57364""
""blur"",""24"",""65925""
""focus"",""24"",""108705""
","""event"",""trial"",""time""
""blur"",""24"",""65925""
","""event"",""trial"",""time""
""focus"",""24"",""108705""
","""event"",""trial"",""time""
""fullscreenenter"",""1"",""2125""
","""event"",""trial"",""time""
""fullscreenexit"",""22"",""57364""
","","","1556.300000011921","","","12","20704","7927","&#9730;","elianto","#3366ff99"," "," ","1","+10","[2408.800000011921]","1","1","","","20704","14","1","1","win","go","0"
"pit-trial","159","1520390","0.0-18.0","battery-v0.2","","""event"",""trial"",""time""
""fullscreenenter"",""1"",""2125""
""fullscreenexit"",""22"",""57364""
""blur"",""24"",""65925""
""focus"",""24"",""108705""
","""event"",""trial"",""time""
""blur"",""24"",""65925""
","""event"",""trial"",""time""
""focus"",""24"",""108705""
","""event"",""trial"",""time""
""fullscreenenter"",""1"",""2125""
","""event"",""trial"",""time""
""fullscreenexit"",""22"",""57364""
","","","-1","","","12","20704","7927","&#9728;","elianto","#f73b6a7A","-1","-1","1","0","[]","0","1","","","20704","15","0","4","lose","no-go","0"
"pit-trial","160","1524725","0.0-19.0","battery-v0.2","","""event"",""trial"",""time""
""fullscreenenter"",""1"",""2125""
""fullscreenexit"",""22"",""57364""
""blur"",""24"",""65925""
""focus"",""24"",""108705""
","""event"",""trial"",""time""
""blur"",""24"",""65925""
","""event"",""trial"",""time""
""focus"",""24"",""108705""
","""event"",""trial"",""time""
""fullscreenenter"",""1"",""2125""
","""event"",""trial"",""time""
""fullscreenexit"",""22"",""57364""
","","","1467.7000000029802","","","12","20704","7927","&#9733;","elianto","#3366ff99","-1"," ","0","0","[2319.0999999940395]","1","1","","","20704","16","2","2","win","no-go","0"
"pit-trial","161","1529390","0.0-20.0","battery-v0.2","","""event"",""trial"",""time""
""fullscreenenter"",""1"",""2125""
""fullscreenexit"",""22"",""57364""
""blur"",""24"",""65925""
""focus"",""24"",""108705""
","""event"",""trial"",""time""
""blur"",""24"",""65925""
","""event"",""trial"",""time""
""focus"",""24"",""108705""
","""event"",""trial"",""time""
""fullscreenenter"",""1"",""2125""
","""event"",""trial"",""time""
""fullscreenexit"",""22"",""57364""
","","","1806.7000000029802","","","12","20704","7927","&#9730;","elianto","#3366ff99"," "," ","1","0","[2662.2000000029802]","1","1","","","20704","17","1","1","win","go","1"
"pit-trial","162","1533356","0.0-21.0","battery-v0.2","","""event"",""trial"",""time""
""fullscreenenter"",""1"",""2125""
""fullscreenexit"",""22"",""57364""
""blur"",""24"",""65925""
""focus"",""24"",""108705""
","""event"",""trial"",""time""
""blur"",""24"",""65925""
","""event"",""trial"",""time""
""focus"",""24"",""108705""
","""event"",""trial"",""time""
""fullscreenenter"",""1"",""2125""
","""event"",""trial"",""time""
""fullscreenexit"",""22"",""57364""
","","","1101.2999999970198","","","12","20704","7927","&#9733;","elianto","#3366ff99","-1"," ","0","+10","[1951.7000000029802]","1","1","","","20704","18","2","2","win","no-go","1"
"pit-trial","163","1538217","0.0-22.0","battery-v0.2","","""event"",""trial"",""time""
""fullscreenenter"",""1"",""2125""
""fullscreenexit"",""22"",""57364""
""blur"",""24"",""65925""
""focus"",""24"",""108705""
","""event"",""trial"",""time""
""blur"",""24"",""65925""
","""event"",""trial"",""time""
""focus"",""24"",""108705""
