"trial_type","trial_index","time_elapsed","internal_node_id","task_version","subject_id","interactions","blur_events","focus_events","fullscreenenter_events","fullscreenexit_events","success","view_history","rt","responses","num_errors","age","subject","participantId","rune","rune_set","hex","correct","choice","accuracy","outcome","keys","total_keys","block","practice","value","sub","trial","stimulus","robot","valence","action","sham"
"pavlovia","0","11","0.0-0.0","battery-v0.2","","""event"",""trial"",""time""
""fullscreenenter"",""1"",""2250""
","
","
","""event"",""trial"",""time""
""fullscreenenter"",""1"",""2250""
","
","","","","","","","","","","","","","","","","","","","","","","","","","","",""
"fullscreen","1","3224","0.0-1.0","battery-v0.2","","""event"",""trial"",""time""
""fullscreenenter"",""1"",""2250""
","
","
","""event"",""trial"",""time""
""fullscreenenter"",""1"",""2250""
","
","true","","","","","","","","","","","","","","","","","","","","","","","","","",""
"pit-instructions","2","9606","0.0-2.0-0.0","battery-v0.2","","""event"",""trial"",""time""
""fullscreenenter"",""1"",""2250""
","
","
","""event"",""trial"",""time""
""fullscreenenter"",""1"",""2250""
","
","","[{""page_index"":0,""viewing_time"":6377.399999856949}]","6378","","","","","","","","","","","","","","","","","","","","","","","",""
"pit-comprehension","3","16755","0.0-2.0-1.0-0.0","battery-v0.2","","""event"",""trial"",""time""
""fullscreenenter"",""1"",""2250""
","
","
","""event"",""trial"",""time""
""fullscreenenter"",""1"",""2250""
","
","","","7144.099999904633","[""shark""]","0","23","16231","6325","","","","","","","","","","","","","","","","","","",""
"pit-instructions","4","20938","0.0-2.0-1.0-1.0","battery-v0.2","","""event"",""trial"",""time""
""fullscreenenter"",""1"",""2250""
","
","
","""event"",""trial"",""time""
""fullscreenenter"",""1"",""2250""
","
","","[{""page_index"":0,""viewing_time"":4168.100000143051}]","4168.600000143051","","","","","","","","","","","","","","","","","","","","","","","",""
"pit-comprehension","5","24985","0.0-2.0-2.0-0.0","battery-v0.2","","""event"",""trial"",""time""
""fullscreenenter"",""1"",""2250""
","
","
","""event"",""trial"",""time""
""fullscreenenter"",""1"",""2250""
","
","","","4044.2999999523163","[""tiger""]","0","23","16231","6325","","","","","","","","","","","","","","","","","","",""
"pit-instructions","6","26199","0.0-2.0-2.0-1.0","battery-v0.2","","""event"",""trial"",""time""
""fullscreenenter"",""1"",""2250""
","
","
","""event"",""trial"",""time""
""fullscreenenter"",""1"",""2250""
","
","","[{""page_index"":0,""viewing_time"":1209.5999999046326}]","1210","","","","","","","","","","","","","","","","","","","","","","","",""
"pit-instructions","7","131443","0.0-2.0-3.0","battery-v0.2","","""event"",""trial"",""time""
""fullscreenenter"",""1"",""2250""
","
","
","""event"",""trial"",""time""
""fullscreenenter"",""1"",""2250""
","
","","[{""page_index"":0,""viewing_time"":10802.5},{""page_index"":1,""viewing_time"":6301.099999904633},{""page_index"":2,""viewing_time"":6845.400000095367},{""page_index"":3,""viewing_time"":5895.700000047684},{""page_index"":4,""viewing_time"":8442.799999952316},{""page_index"":5,""viewing_time"":6573.599999904633},{""page_index"":6,""viewing_time"":7043.100000143051},{""page_index"":7,""viewing_time"":6686.399999856949},{""page_index"":8,""viewing_time"":7053.299999952316},{""page_index"":9,""viewing_time"":9047},{""page_index"":10,""viewing_time"":7110},{""page_index"":11,""viewing_time"":8519.600000143051},{""page_index"":12,""viewing_time"":7714.399999856949},{""page_index"":13,""viewing_time"":7205.700000047684}]","105241.20000004768","","","","","","","","","","","","","","","","","","","","","","","",""
"pit-trial","8","134872","0.0-2.0-4.0-0.0","battery-v0.2","","""event"",""trial"",""time""
""fullscreenenter"",""1"",""2250""
","
","
","""event"",""trial"",""time""
""fullscreenenter"",""1"",""2250""
","
","","","554.8000001907349","","","23","16231","6325","&#9784;","elianto","#FFFFF080"," "," ","1","&#10004","[1408.7000000476837]","1","0","0","","","","","","","",""
"pit-trial","9","138390","0.0-2.0-4.1-0.1","battery-v0.2","","""event"",""trial"",""time""
""fullscreenenter"",""1"",""2250""
","
","
","""event"",""trial"",""time""
""fullscreenenter"",""1"",""2250""
","
","","","653.3999998569489","","","23","16231","6325","&#9784;","elianto","#FFFFF080"," "," ","1","&#10004","[1506.7000000476837]","1","0","0","","","","","","","",""
"pit-trial","10","141959","0.0-2.0-4.2-0.2","battery-v0.2","","""event"",""trial"",""time""
""fullscreenenter"",""1"",""2250""
","
","
","""event"",""trial"",""time""
""fullscreenenter"",""1"",""2250""
","
","","","701.8999998569489","","","23","16231","6325","&#9784;","elianto","#FFFFF080"," "," ","1","&#10004","[1556.5]","1","0","0","","","","","","","",""
"pit-trial","11","145487","0.0-2.0-4.3-0.3","battery-v0.2","","""event"",""trial"",""time""
""fullscreenenter"",""1"",""2250""
","
","
","""event"",""trial"",""time""
""fullscreenenter"",""1"",""2250""
","
","","","672.9000000953674","","","23","16231","6325","&#9784;","elianto","#FFFFF080"," "," ","1","&#10004","[1525.1000001430511]","1","0","0","","","","","","","",""
"pit-trial","12","149057","0.0-2.0-4.4-0.4","battery-v0.2","","""event"",""trial"",""time""
""fullscreenenter"",""1"",""2250""
","
","
","""event"",""trial"",""time""
""fullscreenenter"",""1"",""2250""
","
","","","715.7000000476837","","","23","16231","6325","&#9784;","elianto","#FFFFF080"," "," ","1","&#10004","[1566]","1","0","0","","","","","","","",""
"pit-instructions","13","172974","0.0-2.0-5.0","battery-v0.2","","""event"",""trial"",""time""
""fullscreenenter"",""1"",""2250""
","
","
","""event"",""trial"",""time""
""fullscreenenter"",""1"",""2250""
","
","","[{""page_index"":0,""viewing_time"":6647.599999904633},{""page_index"":1,""viewing_time"":5728.799999952316},{""page_index"":2,""viewing_time"":5635.900000095367},{""page_index"":3,""viewing_time"":5900.700000047684}]","23913.5","","","","","","","","","","","","","","","","","","","","","","","",""
"pit-trial","14","177854","0.0-2.0-6.0-0.0","battery-v0.2","","""event"",""trial"",""time""
""fullscreenenter"",""1"",""2250""
","
","
","""event"",""trial"",""time""
""fullscreenenter"",""1"",""2250""
","
","","","-1","","","23","16231","6325","&#9854;","elianto","#FFFFF080","-1","-1","1","&#10004","[]","0","0","1","","","","","","","",""
"pit-trial","15","182721","0.0-2.0-6.1-0.1","battery-v0.2","","""event"",""trial"",""time""
""fullscreenenter"",""1"",""2250""
","
","
","""event"",""trial"",""time""
""fullscreenenter"",""1"",""2250""
","
","","","-1","","","23","16231","6325","&#9854;","elianto","#FFFFF080","-1","-1","1","&#10004","[]","0","0","1","","","","","","","",""
"pit-trial","16","187591","0.0-2.0-6.2-0.2","battery-v0.2","","""event"",""trial"",""time""
""fullscreenenter"",""1"",""2250""
","
","
","""event"",""trial"",""time""
""fullscreenenter"",""1"",""2250""
","
","","","-1","","","23","16231","6325","&#9854;","elianto","#FFFFF080","-1","-1","1","&#10004","[]","0","0","1","","","","","","","",""
"pit-trial","17","192465","0.0-2.0-6.3-0.3","battery-v0.2","","""event"",""trial"",""time""
""fullscreenenter"",""1"",""2250""
","
","
","""event"",""trial"",""time""
""fullscreenenter"",""1"",""2250""
","
","","","-1","","","23","16231","6325","&#9854;","elianto","#FFFFF080","-1","-1","1","&#10004","[]","0","0","1","","","","","","","",""
"pit-trial","18","197335","0.0-2.0-6.4-0.4","battery-v0.2","","""event"",""trial"",""time""
""fullscreenenter"",""1"",""2250""
""blur"",""19"",""218228""
""focus"",""19"",""219577""
","""event"",""trial"",""time""
""blur"",""19"",""218228""
","""event"",""trial"",""time""
""focus"",""19"",""219577""
","""event"",""trial"",""time""
""fullscreenenter"",""1"",""2250""
","
","","","-1","","","23","16231","6325","&#9854;","elianto","#FFFFF080","-1","-1","1","&#10004","[]","0","0","1","","","","","","","",""
"pit-instructions","19","333097","0.0-2.0-7.0","battery-v0.2","","""event"",""trial"",""time""
""fullscreenenter"",""1"",""2250""
""blur"",""19"",""218228""
""focus"",""19"",""219577""
","""event"",""trial"",""time""
""blur"",""19"",""218228""
","""event"",""trial"",""time""
""focus"",""19"",""219577""
","""event"",""trial"",""time""
""fullscreenenter"",""1"",""2250""
","
","","[{""page_index"":0,""viewing_time"":7451.5},{""page_index"":1,""viewing_time"":6652.799999952316},{""page_index"":2,""viewing_time"":9145.400000095367},{""page_index"":3,""viewing_time"":7060},{""page_index"":4,""viewing_time"":6900.399999856949},{""page_index"":5,""viewing_time"":6393.299999952316},{""page_index"":6,""viewing_time"":5693.200000047684},{""page_index"":7,""viewing_time"":8746},{""page_index"":8,""viewing_time"":7339.100000143051},{""page_index"":9,""viewing_time"":6516.099999904633},{""page_index"":10,""viewing_time"":6426.799999952316},{""page_index"":11,""viewing_time"":6678.299999952316},{""page_index"":12,""viewing_time"":7910.800000190735},{""page_index"":13,""viewing_time"":8155},{""page_index"":14,""viewing_time"":8352.299999952316},{""page_index"":15,""viewing_time"":6958},{""page_index"":16,""viewing_time"":8208.700000047684},{""page_index"":17,""viewing_time"":11170.599999904633}]","135758.70000004768","","","","","","","","","","","","","","","","","","","","","","","",""
"pit-trial","20","336700","0.0-2.0-8.0-0.0","battery-v0.2","","""event"",""trial"",""time""
""fullscreenenter"",""1"",""2250""
""blur"",""19"",""218228""
""focus"",""19"",""219577""
","""event"",""trial"",""time""
""blur"",""19"",""218228""
","""event"",""trial"",""time""
""focus"",""19"",""219577""
","""event"",""trial"",""time""
""fullscreenenter"",""1"",""2250""
","
","","","740.1000001430511","","","23","16231","6325","&#9776;","elianto","#3366ff99"," "," ","1","+10","[1590.4000000953674]","1","0","1","","","","","","","",""
"pit-trial","21","340301","0.0-2.0-8.0-1.0","battery-v0.2","","""event"",""trial"",""time""
""fullscreenenter"",""1"",""2250""
""blur"",""19"",""218228""
""focus"",""19"",""219577""
","""event"",""trial"",""time""
""blur"",""19"",""218228""
","""event"",""trial"",""time""
""focus"",""19"",""219577""
","""event"",""trial"",""time""
""fullscreenenter"",""1"",""2250""
","
","","","733.7999999523163","","","23","16231","6325","&#9776;","elianto","#3366ff99"," "," ","1","+10","[1587.5]","1","0","1","","","","","","","",""
"pit-trial","22","343775","0.0-2.0-8.0-2.0","battery-v0.2","","""event"",""trial"",""time""
""fullscreenenter"",""1"",""2250""
""blur"",""19"",""218228""
""focus"",""19"",""219577""
","""event"",""trial"",""time""
""blur"",""19"",""218228""
","""event"",""trial"",""time""
""focus"",""19"",""219577""
","""event"",""trial"",""time""
""fullscreenenter"",""1"",""2250""
","
","","","617.5999999046326","","","23","16231","6325","&#9776;","elianto","#3366ff99"," "," ","1","+10","[1470.7999999523163]","1","0","1","","","","","","","",""
"pit-trial","23","347163","0.0-2.0-8.0-3.0","battery-v0.2","","""event"",""trial"",""time""
""fullscreenenter"",""1"",""2250""
""blur"",""19"",""218228""
""focus"",""19"",""219577""
","""event"",""trial"",""time""
""blur"",""19"",""218228""
","""event"",""trial"",""time""
""focus"",""19"",""219577""
","""event"",""trial"",""time""
""fullscreenenter"",""1"",""2250""
","
","","","530.9000000953674","","","23","16231","6325","&#9776;","elianto","#3366ff99"," "," ","1","0","[1381.6000001430511]","1","0","1","","","","","","","",""
"pit-trial","24","350492","0.0-2.0-8.0-4.0","battery-v0.2","","""event"",""trial"",""time""
""fullscreenenter"",""1"",""2250""
""blur"",""19"",""218228""
""focus"",""19"",""219577""
","""event"",""trial"",""time""
""blur"",""19"",""218228""
","""event"",""trial"",""time""
""focus"",""19"",""219577""
","""event"",""trial"",""time""
""fullscreenenter"",""1"",""2250""
","
","","","470.89999985694885","","","23","16231","6325","&#9776;","elianto","#3366ff99"," "," ","1","+10","[1321.5999999046326]","1","0","1","","","","","","","",""
"pit-trial","25","354246","0.0-2.0-8.1-0.1","battery-v0.2","","""event"",""trial"",""time""
""fullscreenenter"",""1"",""2250""
""blur"",""19"",""218228""
""focus"",""19"",""219577""
","""event"",""trial"",""time""
""blur"",""19"",""218228""
","""event"",""trial"",""time""
""focus"",""19"",""219577""
","""event"",""trial"",""time""
""fullscreenenter"",""1"",""2250""
","
","","","884.7999999523163","","","23","16231","6325","&#9776;","elianto","#3366ff99"," "," ","1","+10","[1736.5999999046326]","1","0","1","","","","","","","",""
"pit-trial","26","358112","0.0-2.0-8.1-1.1","battery-v0.2","","""event"",""trial"",""time""
""fullscreenenter"",""1"",""2250""
""blur"",""19"",""218228""
""focus"",""19"",""219577""
","""event"",""trial"",""time""
""blur"",""19"",""218228""
","""event"",""trial"",""time""
""focus"",""19"",""219577""
","""event"",""trial"",""time""
""fullscreenenter"",""1"",""2250""
","
","","","1008.8999998569489","","","23","16231","6325","&#9776;","elianto","#3366ff99"," "," ","1","+10","[1859]","1","0","1","","","","","","","",""
"pit-trial","27","361741","0.0-2.0-8.1-2.1","battery-v0.2","","""event"",""trial"",""time""
""fullscreenenter"",""1"",""2250""
""blur"",""19"",""218228""
""focus"",""19"",""219577""
","""event"",""trial"",""time""
""blur"",""19"",""218228""
","""event"",""trial"",""time""
""focus"",""19"",""219577""
","""event"",""trial"",""time""
""fullscreenenter"",""1"",""2250""
","
","","","775.9000000953674","","","23","16231","6325","&#9776;","elianto","#3366ff99"," "," ","1","+10","[1626.5999999046326]","1","0","1","","","","","","","",""
"pit-trial","28","365189","0.0-2.0-8.1-3.1","battery-v0.2","","""event"",""trial"",""time""
""fullscreenenter"",""1"",""2250""
""blur"",""19"",""218228""
""focus"",""19"",""219577""
","""event"",""trial"",""time""
""blur"",""19"",""218228""
","""event"",""trial"",""time""
""focus"",""19"",""219577""
","""event"",""trial"",""time""
""fullscreenenter"",""1"",""2250""
","
","","","594.1000001430511","","","23","16231","6325","&#9776;","elianto","#3366ff99"," "," ","1","0","[1445.1000001430511]","1","0","1","","","","","","","",""
"pit-trial","29","368498","0.0-2.0-8.1-4.1","battery-v0.2","","""event"",""trial"",""time""
""fullscreenenter"",""1"",""2250""
""blur"",""19"",""218228""
""focus"",""19"",""219577""
","""event"",""trial"",""time""
""blur"",""19"",""218228""
","""event"",""trial"",""time""
""focus"",""19"",""219577""
","""event"",""trial"",""time""
""fullscreenenter"",""1"",""2250""
","
","","","455.69999980926514","","","23","16231","6325","&#9776;","elianto","#3366ff99"," "," ","1","+10","[1307.0999999046326]","1","0","1","","","","","","","",""
"pit-trial","30","371767","0.0-2.0-8.2-0.2","battery-v0.2","","""event"",""trial"",""time""
""fullscreenenter"",""1"",""2250""
""blur"",""19"",""218228""
""focus"",""19"",""219577""
","""event"",""trial"",""time""
""blur"",""19"",""218228""
","""event"",""trial"",""time""
""focus"",""19"",""219577""
","""event"",""trial"",""time""
""fullscreenenter"",""1"",""2250""
","
","","","414.5","","","23","16231","6325","&#9776;","elianto","#3366ff99"," "," ","1","+10","[1265.2999999523163]","1","0","1","","","","","","","",""
"pit-trial","31","375148","0.0-2.0-8.2-1.2","battery-v0.2","","""event"",""trial"",""time""
""fullscreenenter"",""1"",""2250""
""blur"",""19"",""218228""
""focus"",""19"",""219577""
","""event"",""trial"",""time""
""blur"",""19"",""218228""
","""event"",""trial"",""time""
""focus"",""19"",""219577""
","""event"",""trial"",""time""
""fullscreenenter"",""1"",""2250""
","
","","","527.5999999046326","","","23","16231","6325","&#9776;","elianto","#3366ff99"," "," ","1","+10","[1379.0999999046326]","1","0","1","","","","","","","",""
"pit-trial","32","378712","0.0-2.0-8.2-2.2","battery-v0.2","","""event"",""trial"",""time""
""fullscreenenter"",""1"",""2250""
""blur"",""19"",""218228""
""focus"",""19"",""219577""
","""event"",""trial"",""time""
""blur"",""19"",""218228""
","""event"",""trial"",""time""
""focus"",""19"",""219577""
","""event"",""trial"",""time""
""fullscreenenter"",""1"",""2250""
","
","","","711.2000000476837","","","23","16231","6325","&#9776;","elianto","#3366ff99"," "," ","1","+10","[1561.2000000476837]","1","0","1","","","","","","","",""
"pit-trial","33","382014","0.0-2.0-8.2-3.2","battery-v0.2","","""event"",""trial"",""time""
""fullscreenenter"",""1"",""2250""
""blur"",""19"",""218228""
""focus"",""19"",""219577""
","""event"",""trial"",""time""
""blur"",""19"",""218228""
","""event"",""trial"",""time""
""focus"",""19"",""219577""
","""event"",""trial"",""time""
""fullscreenenter"",""1"",""2250""
","
","","","447.5","","","23","16231","6325","&#9776;","elianto","#3366ff99"," "," ","1","0","[1298.8999998569489]","1","0","1","","","","","","","",""
"pit-trial","34","385311","0.0-2.0-8.2-4.2","battery-v0.2","","""event"",""trial"",""time""
""fullscreenenter"",""1"",""2250""
""blur"",""19"",""218228""
""focus"",""19"",""219577""
","""event"",""trial"",""time""
""blur"",""19"",""218228""
","""event"",""trial"",""time""
""focus"",""19"",""219577""
","""event"",""trial"",""time""
""fullscreenenter"",""1"",""2250""
","
","","","443.2000000476837","","","23","16231","6325","&#9776;","elianto","#3366ff99"," "," ","1","+10","[1294.4000000953674]","1","0","1","","","","","","","",""
"call-function","35","385313","0.0-2.0-9.0","battery-v0.2","","""event"",""trial"",""time""
""fullscreenenter"",""1"",""2250""
""blur"",""19"",""218228""
""focus"",""19"",""219577""
","""event"",""trial"",""time""
""blur"",""19"",""218228""
","""event"",""trial"",""time""
""focus"",""19"",""219577""
","""event"",""trial"",""time""
""fullscreenenter"",""1"",""2250""
","
","","","","","","","","","","","","","","","","","","","","","","","","","","",""
"pit-instructions","36","425906","0.0-2.0-10.0","battery-v0.2","","""event"",""trial"",""time""
""fullscreenenter"",""1"",""2250""
""blur"",""19"",""218228""
""focus"",""19"",""219577""
","""event"",""trial"",""time""
""blur"",""19"",""218228""
","""event"",""trial"",""time""
""focus"",""19"",""219577""
","""event"",""trial"",""time""
""fullscreenenter"",""1"",""2250""
","
","","[{""page_index"":0,""viewing_time"":6257.5},{""page_index"":1,""viewing_time"":7216.900000095367},{""page_index"":2,""viewing_time"":9348.899999856949},{""page_index"":3,""viewing_time"":10258.300000190735},{""page_index"":4,""viewing_time"":7511.399999856949}]","40593.5","","","","","","","","","","","","","","","","","","","","","","","",""
"pit-trial","37","429304","0.0-2.0-11.0-0.0","battery-v0.2","","""event"",""trial"",""time""
""fullscreenenter"",""1"",""2250""
""blur"",""19"",""218228""
""focus"",""19"",""219577""
","""event"",""trial"",""time""
""blur"",""19"",""218228""
","""event"",""trial"",""time""
""focus"",""19"",""219577""
","""event"",""trial"",""time""
""fullscreenenter"",""1"",""2250""
","
","","","542.7000000476837","","","23","16231","6325","&#9761;","elianto","#3366ff99","-1"," ","0","0","[1393.7999999523163]","1","0","2","","","","","","","",""
"pit-trial","38","432616","0.0-2.0-11.0-1.0","battery-v0.2","","""event"",""trial"",""time""
""fullscreenenter"",""1"",""2250""
""blur"",""19"",""218228""
""focus"",""19"",""219577""
","""event"",""trial"",""time""
""blur"",""19"",""218228""
","""event"",""trial"",""time""
""focus"",""19"",""219577""
","""event"",""trial"",""time""
""fullscreenenter"",""1"",""2250""
","
","","","447.10000014305115","","","23","16231","6325","&#9761;","elianto","#3366ff99","-1"," ","0","0","[1299.8999998569489]","1","0","2","","","","","","","",""
"pit-trial","39","435895","0.0-2.0-11.0-2.0","battery-v0.2","","""event"",""trial"",""time""
""fullscreenenter"",""1"",""2250""
""blur"",""19"",""218228""
""focus"",""19"",""219577""
","""event"",""trial"",""time""
""blur"",""19"",""218228""
","""event"",""trial"",""time""
""focus"",""19"",""219577""
","""event"",""trial"",""time""
""fullscreenenter"",""1"",""2250""
","
","","","403.7999999523163","","","23","16231","6325","&#9761;","elianto","#3366ff99","-1"," ","0","0","[1261.9000000953674]","1","0","2","","","","","","","",""
"pit-trial","40","440756","0.0-2.0-11.0-3.0","battery-v0.2","","""event"",""trial"",""time""
""fullscreenenter"",""1"",""2250""
""blur"",""19"",""218228""
""focus"",""19"",""219577""
","""event"",""trial"",""time""
""blur"",""19"",""218228""
","""event"",""trial"",""time""
""focus"",""19"",""219577""
","""event"",""trial"",""time""
""fullscreenenter"",""1"",""2250""
","
","","","-1","","","23","16231","6325","&#9761;","elianto","#3366ff99","-1","-1","1","0","[]","0","0","2","","","","","","","",""
"pit-trial","41","445631","0.0-2.0-11.0-4.0","battery-v0.2","","""event"",""trial"",""time""
""fullscreenenter"",""1"",""2250""
""blur"",""19"",""218228""
""focus"",""19"",""219577""
","""event"",""trial"",""time""
""blur"",""19"",""218228""
","""event"",""trial"",""time""
""focus"",""19"",""219577""
","""event"",""trial"",""time""
""fullscreenenter"",""1"",""2250""
","
","","","-1","","","23","16231","6325","&#9761;","elianto","#3366ff99","-1","-1","1","+10","[]","0","0","2","","","","","","","",""
"pit-trial","42","450489","0.0-2.0-11.1-0.1","battery-v0.2","","""event"",""trial"",""time""
""fullscreenenter"",""1"",""2250""
""blur"",""19"",""218228""
""focus"",""19"",""219577""
","""event"",""trial"",""time""
""blur"",""19"",""218228""
","""event"",""trial"",""time""
""focus"",""19"",""219577""
","""event"",""trial"",""time""
""fullscreenenter"",""1"",""2250""
","
","","","-1","","","23","16231","6325","&#9761;","elianto","#3366ff99","-1","-1","1","+10","[]","0","0","2","","","","","","","",""
"pit-trial","43","455359","0.0-2.0-11.1-1.1","battery-v0.2","","""event"",""trial"",""time""
""fullscreenenter"",""1"",""2250""
""blur"",""19"",""218228""
""focus"",""19"",""219577""
","""event"",""trial"",""time""
""blur"",""19"",""218228""
","""event"",""trial"",""time""
""focus"",""19"",""219577""
","""event"",""trial"",""time""
""fullscreenenter"",""1"",""2250""
","
","","","-1","","","23","16231","6325","&#9761;","elianto","#3366ff99","-1","-1","1","+10","[]","0","0","2","","","","","","","",""
"pit-trial","44","460213","0.0-2.0-11.1-2.1","battery-v0.2","","""event"",""trial"",""time""
""fullscreenenter"",""1"",""2250""
""blur"",""19"",""218228""
""focus"",""19"",""219577""
","""event"",""trial"",""time""
""blur"",""19"",""218228""
","""event"",""trial"",""time""
""focus"",""19"",""219577""
","""event"",""trial"",""time""
""fullscreenenter"",""1"",""2250""
","
","","","-1","","","23","16231","6325","&#9761;","elianto","#3366ff99","-1","-1","1","+10","[]","0","0","2","","","","","","","",""
"pit-trial","45","465067","0.0-2.0-11.1-3.1","battery-v0.2","","""event"",""trial"",""time""
""fullscreenenter"",""1"",""2250""
""blur"",""19"",""218228""
""focus"",""19"",""219577""
","""event"",""trial"",""time""
""blur"",""19"",""218228""
","""event"",""trial"",""time""
""focus"",""19"",""219577""
","""event"",""trial"",""time""
""fullscreenenter"",""1"",""2250""
","
","","","-1","","","23","16231","6325","&#9761;","elianto","#3366ff99","-1","-1","1","0","[]","0","0","2","","","","","","","",""
"pit-trial","46","469922","0.0-2.0-11.1-4.1","battery-v0.2","","""event"",""trial"",""time""
""fullscreenenter"",""1"",""2250""
""blur"",""19"",""218228""
""focus"",""19"",""219577""
","""event"",""trial"",""time""
""blur"",""19"",""218228""
","""event"",""trial"",""time""
""focus"",""19"",""219577""
","""event"",""trial"",""time""
""fullscreenenter"",""1"",""2250""
","
","","","-1","","","23","16231","6325","&#9761;","elianto","#3366ff99","-1","-1","1","+10","[]","0","0","2","","","","","","","",""
"pit-trial","47","474777","0.0-2.0-11.2-0.2","battery-v0.2","","""event"",""trial"",""time""
""fullscreenenter"",""1"",""2250""
""blur"",""19"",""218228""
""focus"",""19"",""219577""
","""event"",""trial"",""time""
""blur"",""19"",""218228""
","""event"",""trial"",""time""
""focus"",""19"",""219577""
","""event"",""trial"",""time""
""fullscreenenter"",""1"",""2250""
","
","","","-1","","","23","16231","6325","&#9761;","elianto","#3366ff99","-1","-1","1","+10","[]","0","0","2","","","","","","","",""
"pit-trial","48","478330","0.0-2.0-11.2-1.2","battery-v0.2","","""event"",""trial"",""time""
""fullscreenenter"",""1"",""2250""
""blur"",""19"",""218228""
""focus"",""19"",""219577""
","""event"",""trial"",""time""
""blur"",""19"",""218228""
","""event"",""trial"",""time""
""focus"",""19"",""219577""
","""event"",""trial"",""time""
""fullscreenenter"",""1"",""2250""
","
","","","698.5999999046326","","","23","16231","6325","&#9761;","elianto","#3366ff99","-1"," ","0","0","[1550.0999999046326]","1","0","2","","","","","","","",""
"pit-trial","49","483183","0.0-2.0-11.2-2.2","battery-v0.2","","""event"",""trial"",""time""
""fullscreenenter"",""1"",""2250""
""blur"",""19"",""218228""
""focus"",""19"",""219577""
","""event"",""trial"",""time""
""blur"",""19"",""218228""
","""event"",""trial"",""time""
""focus"",""19"",""219577""
","""event"",""trial"",""time""
""fullscreenenter"",""1"",""2250""
","
","","","-1","","","23","16231","6325","&#9761;","elianto","#3366ff99","-1","-1","1","+10","[]","0","0","2","","","","","","","",""
"pit-trial","50","488037","0.0-2.0-11.2-3.2","battery-v0.2","","""event"",""trial"",""time""
""fullscreenenter"",""1"",""2250""
""blur"",""19"",""218228""
""focus"",""19"",""219577""
","""event"",""trial"",""time""
""blur"",""19"",""218228""
","""event"",""trial"",""time""
""focus"",""19"",""219577""
","""event"",""trial"",""time""
""fullscreenenter"",""1"",""2250""
","
","","","-1","","","23","16231","6325","&#9761;","elianto","#3366ff99","-1","-1","1","0","[]","0","0","2","","","","","","","",""
"pit-trial","51","492891","0.0-2.0-11.2-4.2","battery-v0.2","","""event"",""trial"",""time""
""fullscreenenter"",""1"",""2250""
""blur"",""19"",""218228""
""focus"",""19"",""219577""
","""event"",""trial"",""time""
""blur"",""19"",""218228""
","""event"",""trial"",""time""
""focus"",""19"",""219577""
","""event"",""trial"",""time""
""fullscreenenter"",""1"",""2250""
","
","","","-1","","","23","16231","6325","&#9761;","elianto","#3366ff99","-1","-1","1","+10","[]","0","0","2","","","","","","","",""
"pit-trial","52","497749","0.0-2.0-11.3-0.3","battery-v0.2","","""event"",""trial"",""time""
""fullscreenenter"",""1"",""2250""
""blur"",""19"",""218228""
""focus"",""19"",""219577""
","""event"",""trial"",""time""
""blur"",""19"",""218228""
","""event"",""trial"",""time""
""focus"",""19"",""219577""
","""event"",""trial"",""time""
""fullscreenenter"",""1"",""2250""
","
","","","-1","","","23","16231","6325","&#9761;","elianto","#3366ff99","-1","-1","1","+10","[]","0","0","2","","","","","","","",""
"pit-trial","53","502603","0.0-2.0-11.3-1.3","battery-v0.2","","""event"",""trial"",""time""
""fullscreenenter"",""1"",""2250""
""blur"",""19"",""218228""
""focus"",""19"",""219577""
","""event"",""trial"",""time""
""blur"",""19"",""218228""
","""event"",""trial"",""time""
""focus"",""19"",""219577""
","""event"",""trial"",""time""
""fullscreenenter"",""1"",""2250""
","
","","","-1","","","23","16231","6325","&#9761;","elianto","#3366ff99","-1","-1","1","+10","[]","0","0","2","","","","","","","",""
"pit-trial","54","507457","0.0-2.0-11.3-2.3","battery-v0.2","","""event"",""trial"",""time""
""fullscreenenter"",""1"",""2250""
""blur"",""19"",""218228""
""focus"",""19"",""219577""
","""event"",""trial"",""time""
""blur"",""19"",""218228""
","""event"",""trial"",""time""
""focus"",""19"",""219577""
","""event"",""trial"",""time""
""fullscreenenter"",""1"",""2250""
","
","","","-1","","","23","16231","6325","&#9761;","elianto","#3366ff99","-1","-1","1","+10","[]","0","0","2","","","","","","","",""
"pit-trial","55","512311","0.0-2.0-11.3-3.3","battery-v0.2","","""event"",""trial"",""time""
""fullscreenenter"",""1"",""2250""
""blur"",""19"",""218228""
""focus"",""19"",""219577""
","""event"",""trial"",""time""
""blur"",""19"",""218228""
","""event"",""trial"",""time""
""focus"",""19"",""219577""
","""event"",""trial"",""time""
""fullscreenenter"",""1"",""2250""
","
","","","-1","","","23","16231","6325","&#9761;","elianto","#3366ff99","-1","-1","1","0","[]","0","0","2","","","","","","","",""
"pit-trial","56","517164","0.0-2.0-11.3-4.3","battery-v0.2","","""event"",""trial"",""time""
""fullscreenenter"",""1"",""2250""
""blur"",""19"",""218228""
""focus"",""19"",""219577""
","""event"",""trial"",""time""
""blur"",""19"",""218228""
","""event"",""trial"",""time""
""focus"",""19"",""219577""
","""event"",""trial"",""time""
""fullscreenenter"",""1"",""2250""
","
","","","-1","","","23","16231","6325","&#9761;","elianto","#3366ff99","-1","-1","1","+10","[]","0","0","2","","","","","","","",""
"call-function","57","517166","0.0-2.0-12.0","battery-v0.2","","""event"",""trial"",""time""
""fullscreenenter"",""1"",""2250""
""blur"",""19"",""218228""
""focus"",""19"",""219577""
","""event"",""trial"",""time""
""blur"",""19"",""218228""
","""event"",""trial"",""time""
""focus"",""19"",""219577""
","""event"",""trial"",""time""
""fullscreenenter"",""1"",""2250""
","
","","","","","","","","","","","","","","","","","","","","","","","","","","",""
"pit-instructions","58","555648","0.0-2.0-13.0","battery-v0.2","","""event"",""trial"",""time""
""fullscreenenter"",""1"",""2250""
""blur"",""19"",""218228""
""focus"",""19"",""219577""
","""event"",""trial"",""time""
""blur"",""19"",""218228""
","""event"",""trial"",""time""
""focus"",""19"",""219577""
","""event"",""trial"",""time""
""fullscreenenter"",""1"",""2250""
","
","","[{""page_index"":0,""viewing_time"":5062.100000143051},{""page_index"":1,""viewing_time"":7717.099999904633},{""page_index"":2,""viewing_time"":5633.200000047684},{""page_index"":3,""viewing_time"":12159.099999904633},{""page_index"":4,""viewing_time"":7910.600000143051}]","38482.700000047684","","","","","","","","","","","","","","","","","","","","","","","",""
"pit-trial","59","559077","0.0-2.0-14.0-0.0","battery-v0.2","","""event"",""trial"",""time""
""fullscreenenter"",""1"",""2250""
""blur"",""19"",""218228""
""focus"",""19"",""219577""
","""event"",""trial"",""time""
""blur"",""19"",""218228""
","""event"",""trial"",""time""
""focus"",""19"",""219577""
","""event"",""trial"",""time""
""fullscreenenter"",""1"",""2250""
","
","","","559.7000000476837","","","23","16231","6325","&#9826;","elianto","#f73b6a7A","-1"," ","0","-10","[1412.2999999523163]","1","0","3","","","","","","","",""
"pit-trial","60","562386","0.0-2.0-14.0-1.0","battery-v0.2","","""event"",""trial"",""time""
""fullscreenenter"",""1"",""2250""
""blur"",""19"",""218228""
""focus"",""19"",""219577""
","""event"",""trial"",""time""
""blur"",""19"",""218228""
","""event"",""trial"",""time""
""focus"",""19"",""219577""
","""event"",""trial"",""time""
""fullscreenenter"",""1"",""2250""
","
","","","448.5","","","23","16231","6325","&#9826;","elianto","#f73b6a7A","-1"," ","0","-10","[1304.2000000476837]","1","0","3","","","","","","","",""
"pit-trial","61","567246","0.0-2.0-14.0-2.0","battery-v0.2","","""event"",""trial"",""time""
""fullscreenenter"",""1"",""2250""
""blur"",""19"",""218228""
""focus"",""19"",""219577""
","""event"",""trial"",""time""
""blur"",""19"",""218228""
","""event"",""trial"",""time""
""focus"",""19"",""219577""
","""event"",""trial"",""time""
""fullscreenenter"",""1"",""2250""
","
","","","-1","","","23","16231","6325","&#9826;","elianto","#f73b6a7A","-1","-1","1","0","[]","0","0","3","","","","","","","",""
"pit-trial","62","572101","0.0-2.0-14.0-3.0","battery-v0.2","","""event"",""trial"",""time""
""fullscreenenter"",""1"",""2250""
""blur"",""19"",""218228""
""focus"",""19"",""219577""
","""event"",""trial"",""time""
""blur"",""19"",""218228""
","""event"",""trial"",""time""
""focus"",""19"",""219577""
","""event"",""trial"",""time""
""fullscreenenter"",""1"",""2250""
","
","","","-1","","","23","16231","6325","&#9826;","elianto","#f73b6a7A","-1","-1","1","-10","[]","0","0","3","","","","","","","",""
"pit-trial","63","576963","0.0-2.0-14.0-4.0","battery-v0.2","","""event"",""trial"",""time""
""fullscreenenter"",""1"",""2250""
""blur"",""19"",""218228""
""focus"",""19"",""219577""
","""event"",""trial"",""time""
""blur"",""19"",""218228""
","""event"",""trial"",""time""
""focus"",""19"",""219577""
","""event"",""trial"",""time""
""fullscreenenter"",""1"",""2250""
","
","","","-1","","","23","16231","6325","&#9826;","elianto","#f73b6a7A","-1","-1","1","0","[]","0","0","3","","","","","","","",""
"pit-trial","64","581836","0.0-2.0-14.1-0.1","battery-v0.2","","""event"",""trial"",""time""
""fullscreenenter"",""1"",""2250""
""blur"",""19"",""218228""
""focus"",""19"",""219577""
","""event"",""trial"",""time""
""blur"",""19"",""218228""
","""event"",""trial"",""time""
""focus"",""19"",""219577""
","""event"",""trial"",""time""
""fullscreenenter"",""1"",""2250""
","
","","","-1","","","23","16231","6325","&#9826;","elianto","#f73b6a7A","-1","-1","1","0","[]","0","0","3","","","","","","","",""
"pit-trial","65","586697","0.0-2.0-14.1-1.1","battery-v0.2","","""event"",""trial"",""time""
""fullscreenenter"",""1"",""2250""
""blur"",""19"",""218228""
""focus"",""19"",""219577""
","""event"",""trial"",""time""
""blur"",""19"",""218228""
","""event"",""trial"",""time""
""focus"",""19"",""219577""
","""event"",""trial"",""time""
""fullscreenenter"",""1"",""2250""
","
","","","-1","","","23","16231","6325","&#9826;","elianto","#f73b6a7A","-1","-1","1","0","[]","0","0","3","","","","","","","",""
"pit-trial","66","591550","0.0-2.0-14.1-2.1","battery-v0.2","","""event"",""trial"",""time""
""fullscreenenter"",""1"",""2250""
""blur"",""19"",""218228""
""focus"",""19"",""219577""
","""event"",""trial"",""time""
""blur"",""19"",""218228""
","""event"",""trial"",""time""
""focus"",""19"",""219577""
","""event"",""trial"",""time""
""fullscreenenter"",""1"",""2250""
","
","","","-1","","","23","16231","6325","&#9826;","elianto","#f73b6a7A","-1","-1","1","0","[]","0","0","3","","","","","","","",""
"pit-trial","67","596403","0.0-2.0-14.1-3.1","battery-v0.2","","""event"",""trial"",""time""
""fullscreenenter"",""1"",""2250""
""blur"",""19"",""218228""
""focus"",""19"",""219577""
","""event"",""trial"",""time""
""blur"",""19"",""218228""
","""event"",""trial"",""time""
""focus"",""19"",""219577""
","""event"",""trial"",""time""
""fullscreenenter"",""1"",""2250""
","
","","","-1","","","23","16231","6325","&#9826;","elianto","#f73b6a7A","-1","-1","1","-10","[]","0","0","3","","","","","","","",""
"pit-trial","68","601257","0.0-2.0-14.1-4.1","battery-v0.2","","""event"",""trial"",""time""
""fullscreenenter"",""1"",""2250""
""blur"",""19"",""218228""
""focus"",""19"",""219577""
","""event"",""trial"",""time""
""blur"",""19"",""218228""
","""event"",""trial"",""time""
""focus"",""19"",""219577""
","""event"",""trial"",""time""
""fullscreenenter"",""1"",""2250""
","
","","","-1","","","23","16231","6325","&#9826;","elianto","#f73b6a7A","-1","-1","1","0","[]","0","0","3","","","","","","","",""
"pit-trial","69","606110","0.0-2.0-14.2-0.2","battery-v0.2","","""event"",""trial"",""time""
""fullscreenenter"",""1"",""2250""
""blur"",""19"",""218228""
""focus"",""19"",""219577""
","""event"",""trial"",""time""
""blur"",""19"",""218228""
","""event"",""trial"",""time""
""focus"",""19"",""219577""
","""event"",""trial"",""time""
""fullscreenenter"",""1"",""2250""
","
","","","-1","","","23","16231","6325","&#9826;","elianto","#f73b6a7A","-1","-1","1","0","[]","0","0","3","","","","","","","",""
"pit-trial","70","610963","0.0-2.0-14.2-1.2","battery-v0.2","","""event"",""trial"",""time""
""fullscreenenter"",""1"",""2250""
""blur"",""19"",""218228""
""focus"",""19"",""219577""
","""event"",""trial"",""time""
""blur"",""19"",""218228""
","""event"",""trial"",""time""
""focus"",""19"",""219577""
","""event"",""trial"",""time""
""fullscreenenter"",""1"",""2250""
","
","","","-1","","","23","16231","6325","&#9826;","elianto","#f73b6a7A","-1","-1","1","0","[]","0","0","3","","","","","","","",""
"pit-trial","71","615817","0.0-2.0-14.2-2.2","battery-v0.2","","""event"",""trial"",""time""
""fullscreenenter"",""1"",""2250""
""blur"",""19"",""218228""
""focus"",""19"",""219577""
","""event"",""trial"",""time""
""blur"",""19"",""218228""
","""event"",""trial"",""time""
""focus"",""19"",""219577""
","""event"",""trial"",""time""
""fullscreenenter"",""1"",""2250""
","
","","","-1","","","23","16231","6325","&#9826;","elianto","#f73b6a7A","-1","-1","1","0","[]","0","0","3","","","","","","","",""
"pit-trial","72","620671","0.0-2.0-14.2-3.2","battery-v0.2","","""event"",""trial"",""time""
""fullscreenenter"",""1"",""2250""
""blur"",""19"",""218228""
""focus"",""19"",""219577""
","""event"",""trial"",""time""
""blur"",""19"",""218228""
","""event"",""trial"",""time""
""focus"",""19"",""219577""
","""event"",""trial"",""time""
""fullscreenenter"",""1"",""2250""
","
","","","-1","","","23","16231","6325","&#9826;","elianto","#f73b6a7A","-1","-1","1","-10","[]","0","0","3","","","","","","","",""
"pit-trial","73","625525","0.0-2.0-14.2-4.2","battery-v0.2","","""event"",""trial"",""time""
""fullscreenenter"",""1"",""2250""
""blur"",""19"",""218228""
""focus"",""19"",""219577""
","""event"",""trial"",""time""
""blur"",""19"",""218228""
","""event"",""trial"",""time""
""focus"",""19"",""219577""
","""event"",""trial"",""time""
""fullscreenenter"",""1"",""2250""
","
","","","-1","","","23","16231","6325","&#9826;","elianto","#f73b6a7A","-1","-1","1","0","[]","0","0","3","","","","","","","",""
"pit-trial","74","630379","0.0-2.0-14.3-0.3","battery-v0.2","","""event"",""trial"",""time""
""fullscreenenter"",""1"",""2250""
""blur"",""19"",""218228""
""focus"",""19"",""219577""
","""event"",""trial"",""time""
""blur"",""19"",""218228""
","""event"",""trial"",""time""
""focus"",""19"",""219577""
","""event"",""trial"",""time""
""fullscreenenter"",""1"",""2250""
","
","","","-1","","","23","16231","6325","&#9826;","elianto","#f73b6a7A","-1","-1","1","0","[]","0","0","3","","","","","","","",""
"pit-trial","75","635233","0.0-2.0-14.3-1.3","battery-v0.2","","""event"",""trial"",""time""
""fullscreenenter"",""1"",""2250""
""blur"",""19"",""218228""
""focus"",""19"",""219577""
","""event"",""trial"",""time""
""blur"",""19"",""218228""
","""event"",""trial"",""time""
""focus"",""19"",""219577""
","""event"",""trial"",""time""
""fullscreenenter"",""1"",""2250""
","
","","","-1","","","23","16231","6325","&#9826;","elianto","#f73b6a7A","-1","-1","1","0","[]","0","0","3","","","","","","","",""
"pit-trial","76","640086","0.0-2.0-14.3-2.3","battery-v0.2","","""event"",""trial"",""time""
""fullscreenenter"",""1"",""2250""
""blur"",""19"",""218228""
""focus"",""19"",""219577""
","""event"",""trial"",""time""
""blur"",""19"",""218228""
","""event"",""trial"",""time""
""focus"",""19"",""219577""
","""event"",""trial"",""time""
""fullscreenenter"",""1"",""2250""
","
","","","-1","","","23","16231","6325","&#9826;","elianto","#f73b6a7A","-1","-1","1","0","[]","0","0","3","","","","","","","",""
"pit-trial","77","644940","0.0-2.0-14.3-3.3","battery-v0.2","","""event"",""trial"",""time""
""fullscreenenter"",""1"",""2250""
""blur"",""19"",""218228""
""focus"",""19"",""219577""
","""event"",""trial"",""time""
""blur"",""19"",""218228""
","""event"",""trial"",""time""
""focus"",""19"",""219577""
","""event"",""trial"",""time""
""fullscreenenter"",""1"",""2250""
","
","","","-1","","","23","16231","6325","&#9826;","elianto","#f73b6a7A","-1","-1","1","-10","[]","0","0","3","","","","","","","",""
"pit-trial","78","649795","0.0-2.0-14.3-4.3","battery-v0.2","","""event"",""trial"",""time""
""fullscreenenter"",""1"",""2250""
""blur"",""19"",""218228""
""focus"",""19"",""219577""
","""event"",""trial"",""time""
""blur"",""19"",""218228""
","""event"",""trial"",""time""
""focus"",""19"",""219577""
","""event"",""trial"",""time""
""fullscreenenter"",""1"",""2250""
","
","","","-1","","","23","16231","6325","&#9826;","elianto","#f73b6a7A","-1","-1","1","0","[]","0","0","3","","","","","","","",""
"call-function","79","649798","0.0-2.0-15.0","battery-v0.2","","""event"",""trial"",""time""
""fullscreenenter"",""1"",""2250""
""blur"",""19"",""218228""
""focus"",""19"",""219577""
","""event"",""trial"",""time""
""blur"",""19"",""218228""
","""event"",""trial"",""time""
""focus"",""19"",""219577""
","""event"",""trial"",""time""
""fullscreenenter"",""1"",""2250""
","
","","","","","","","","","","","","","","","","","","","","","","","","","","",""
"pit-instructions","80","675715","0.0-2.0-16.0","battery-v0.2","","""event"",""trial"",""time""
""fullscreenenter"",""1"",""2250""
""blur"",""19"",""218228""
""focus"",""19"",""219577""
","""event"",""trial"",""time""
""blur"",""19"",""218228""
","""event"",""trial"",""time""
""focus"",""19"",""219577""
","""event"",""trial"",""time""
""fullscreenenter"",""1"",""2250""
","
","","[{""page_index"":0,""viewing_time"":7105.299999952316},{""page_index"":1,""viewing_time"":8463},{""page_index"":2,""viewing_time"":4814.200000047684},{""page_index"":3,""viewing_time"":5533.599999904633}]","25916.599999904633","","","","","","","","","","","","","","","","","","","","","","","",""
"pit-trial","81","679276","0.0-2.0-17.0-0.0","battery-v0.2","","""event"",""trial"",""time""
""fullscreenenter"",""1"",""2250""
""blur"",""19"",""218228""
""focus"",""19"",""219577""
","""event"",""trial"",""time""
""blur"",""19"",""218228""
","""event"",""trial"",""time""
""focus"",""19"",""219577""
","""event"",""trial"",""time""
""fullscreenenter"",""1"",""2250""
","
","","","696.7000000476837","","","23","16231","6325","&#9789;","elianto","#f73b6a7A"," "," ","1","0","[1548]","1","0","4","","","","","","","",""
"pit-trial","82","682477","0.0-2.0-17.0-1.0","battery-v0.2","","""event"",""trial"",""time""
""fullscreenenter"",""1"",""2250""
""blur"",""19"",""218228""
""focus"",""19"",""219577""
","""event"",""trial"",""time""
""blur"",""19"",""218228""
","""event"",""trial"",""time""
""focus"",""19"",""219577""
","""event"",""trial"",""time""
""fullscreenenter"",""1"",""2250""
","
","","","338.2000000476837","","","23","16231","6325","&#9789;","elianto","#f73b6a7A"," "," ","1","0","[1189.5]","1","0","4","","","","","","","",""
"pit-trial","83","685740","0.0-2.0-17.0-2.0","battery-v0.2","","""event"",""trial"",""time""
""fullscreenenter"",""1"",""2250""
""blur"",""19"",""218228""
""focus"",""19"",""219577""
","""event"",""trial"",""time""
""blur"",""19"",""218228""
","""event"",""trial"",""time""
""focus"",""19"",""219577""
","""event"",""trial"",""time""
""fullscreenenter"",""1"",""2250""
","
","","","404.7000000476837","","","23","16231","6325","&#9789;","elianto","#f73b6a7A"," "," ","1","0","[1255.7000000476837]","1","0","4","","","","","","","",""
"pit-trial","84","689052","0.0-2.0-17.0-3.0","battery-v0.2","","""event"",""trial"",""time""
""fullscreenenter"",""1"",""2250""
""blur"",""19"",""218228""
""focus"",""19"",""219577""
","""event"",""trial"",""time""
""blur"",""19"",""218228""
","""event"",""trial"",""time""
""focus"",""19"",""219577""
","""event"",""trial"",""time""
""fullscreenenter"",""1"",""2250""
","
","","","450.7999999523163","","","23","16231","6325","&#9789;","elianto","#f73b6a7A"," "," ","1","-10","[1302.0999999046326]","1","0","4","","","","","","","",""
"pit-trial","85","692314","0.0-2.0-17.0-4.0","battery-v0.2","","""event"",""trial"",""time""
""fullscreenenter"",""1"",""2250""
""blur"",""19"",""218228""
""focus"",""19"",""219577""
","""event"",""trial"",""time""
""blur"",""19"",""218228""
","""event"",""trial"",""time""
""focus"",""19"",""219577""
","""event"",""trial"",""time""
""fullscreenenter"",""1"",""2250""
","
","","","400.30000019073486","","","23","16231","6325","&#9789;","elianto","#f73b6a7A"," "," ","1","0","[1252.4000000953674]","1","0","4","","","","","","","",""
"pit-trial","86","695592","0.0-2.0-17.1-0.1","battery-v0.2","","""event"",""trial"",""time""
""fullscreenenter"",""1"",""2250""
""blur"",""19"",""218228""
""focus"",""19"",""219577""
","""event"",""trial"",""time""
""blur"",""19"",""218228""
","""event"",""trial"",""time""
""focus"",""19"",""219577""
","""event"",""trial"",""time""
""fullscreenenter"",""1"",""2250""
","
","","","422.7999999523163","","","23","16231","6325","&#9789;","elianto","#f73b6a7A"," "," ","1","0","[1273.2999999523163]","1","0","4","","","","","","","",""
"pit-trial","87","698858","0.0-2.0-17.1-1.1","battery-v0.2","","""event"",""trial"",""time""
""fullscreenenter"",""1"",""2250""
""blur"",""19"",""218228""
""focus"",""19"",""219577""
","""event"",""trial"",""time""
""blur"",""19"",""218228""
","""event"",""trial"",""time""
""focus"",""19"",""219577""
","""event"",""trial"",""time""
""fullscreenenter"",""1"",""2250""
","
","","","400.7000000476837","","","23","16231","6325","&#9789;","elianto","#f73b6a7A"," "," ","1","0","[1255.2999999523163]","1","0","4","","","","","","","",""
"pit-trial","88","702220","0.0-2.0-17.1-2.1","battery-v0.2","","""event"",""trial"",""time""
""fullscreenenter"",""1"",""2250""
""blur"",""19"",""218228""
""focus"",""19"",""219577""
","""event"",""trial"",""time""
""blur"",""19"",""218228""
","""event"",""trial"",""time""
""focus"",""19"",""219577""
","""event"",""trial"",""time""
""fullscreenenter"",""1"",""2250""
","
","","","503.59999990463257","","","23","16231","6325","&#9789;","elianto","#f73b6a7A"," "," ","1","0","[1356.7000000476837]","1","0","4","","","","","","","",""
"pit-trial","89","705562","0.0-2.0-17.1-3.1","battery-v0.2","","""event"",""trial"",""time""
""fullscreenenter"",""1"",""2250""
""blur"",""19"",""218228""
""focus"",""19"",""219577""
","""event"",""trial"",""time""
""blur"",""19"",""218228""
","""event"",""trial"",""time""
""focus"",""19"",""219577""
","""event"",""trial"",""time""
""fullscreenenter"",""1"",""2250""
","
","","","488.7000000476837","","","23","16231","6325","&#9789;","elianto","#f73b6a7A"," "," ","1","-10","[1339.7999999523163]","1","0","4","","","","","","","",""
"pit-trial","90","708817","0.0-2.0-17.1-4.1","battery-v0.2","","""event"",""trial"",""time""
""fullscreenenter"",""1"",""2250""
""blur"",""19"",""218228""
""focus"",""19"",""219577""
","""event"",""trial"",""time""
""blur"",""19"",""218228""
","""event"",""trial"",""time""
""focus"",""19"",""219577""
","""event"",""trial"",""time""
""fullscreenenter"",""1"",""2250""
","
","","","401.40000009536743","","","23","16231","6325","&#9789;","elianto","#f73b6a7A"," "," ","1","0","[1252.8000001907349]","1","0","4","","","","","","","",""
"pit-trial","91","712163","0.0-2.0-17.2-0.2","battery-v0.2","","""event"",""trial"",""time""
""fullscreenenter"",""1"",""2250""
""blur"",""19"",""218228""
""focus"",""19"",""219577""
","""event"",""trial"",""time""
""blur"",""19"",""218228""
","""event"",""trial"",""time""
""focus"",""19"",""219577""
","""event"",""trial"",""time""
""fullscreenenter"",""1"",""2250""
","
","","","492.7999999523163","","","23","16231","6325","&#9789;","elianto","#f73b6a7A"," "," ","1","0","[1343.5]","1","0","4","","","","","","","",""
"pit-trial","92","715758","0.0-2.0-17.2-1.2","battery-v0.2","","""event"",""trial"",""time""
""fullscreenenter"",""1"",""2250""
""blur"",""19"",""218228""
""focus"",""19"",""219577""
","""event"",""trial"",""time""
""blur"",""19"",""218228""
","""event"",""trial"",""time""
""focus"",""19"",""219577""
","""event"",""trial"",""time""
""fullscreenenter"",""1"",""2250""
","
","","","741.3999998569489","","","23","16231","6325","&#9789;","elianto","#f73b6a7A"," "," ","1","0","[1592.4000000953674]","1","0","4","","","","","","","",""
"pit-trial","93","719247","0.0-2.0-17.2-2.2","battery-v0.2","","""event"",""trial"",""time""
""fullscreenenter"",""1"",""2250""
""blur"",""19"",""218228""
""focus"",""19"",""219577""
","""event"",""trial"",""time""
""blur"",""19"",""218228""
","""event"",""trial"",""time""
""focus"",""19"",""219577""
","""event"",""trial"",""time""
""fullscreenenter"",""1"",""2250""
","
","","","635.0999999046326","","","23","16231","6325","&#9789;","elianto","#f73b6a7A"," "," ","1","0","[1486.2999999523163]","1","0","4","","","","","","","",""
"pit-trial","94","722521","0.0-2.0-17.2-3.2","battery-v0.2","","""event"",""trial"",""time""
""fullscreenenter"",""1"",""2250""
""blur"",""19"",""218228""
""focus"",""19"",""219577""
","""event"",""trial"",""time""
""blur"",""19"",""218228""
","""event"",""trial"",""time""
""focus"",""19"",""219577""
","""event"",""trial"",""time""
""fullscreenenter"",""1"",""2250""
","
","","","420.39999985694885","","","23","16231","6325","&#9789;","elianto","#f73b6a7A"," "," ","1","-10","[1272]","1","0","4","","","","","","","",""
"pit-trial","95","725975","0.0-2.0-17.2-4.2","battery-v0.2","","""event"",""trial"",""time""
""fullscreenenter"",""1"",""2250""
""blur"",""19"",""218228""
""focus"",""19"",""219577""
","""event"",""trial"",""time""
""blur"",""19"",""218228""
","""event"",""trial"",""time""
""focus"",""19"",""219577""
","""event"",""trial"",""time""
""fullscreenenter"",""1"",""2250""
","
","","","601.6000001430511","","","23","16231","6325","&#9789;","elianto","#f73b6a7A"," "," ","1","0","[1451.8000001907349]","1","0","4","","","","","","","",""
"pit-trial","96","729444","0.0-2.0-17.3-0.3","battery-v0.2","","""event"",""trial"",""time""
""fullscreenenter"",""1"",""2250""
""blur"",""19"",""218228""
""focus"",""19"",""219577""
","""event"",""trial"",""time""
""blur"",""19"",""218228""
","""event"",""trial"",""time""
""focus"",""19"",""219577""
","""event"",""trial"",""time""
""fullscreenenter"",""1"",""2250""
","
","","","616.4000000953674","","","23","16231","6325","&#9789;","elianto","#f73b6a7A"," "," ","1","0","[1466.4000000953674]","1","0","4","","","","","","","",""
"pit-trial","97","732947","0.0-2.0-17.3-1.3","battery-v0.2","","""event"",""trial"",""time""
""fullscreenenter"",""1"",""2250""
""blur"",""19"",""218228""
""focus"",""19"",""219577""
","""event"",""trial"",""time""
""blur"",""19"",""218228""
","""event"",""trial"",""time""
""focus"",""19"",""219577""
","""event"",""trial"",""time""
""fullscreenenter"",""1"",""2250""
","
","","","648.7000000476837","","","23","16231","6325","&#9789;","elianto","#f73b6a7A"," "," ","1","0","[1500.7999999523163]","1","0","4","","","","","","","",""
"pit-trial","98","736339","0.0-2.0-17.3-2.3","battery-v0.2","","""event"",""trial"",""time""
""fullscreenenter"",""1"",""2250""
""blur"",""19"",""218228""
""focus"",""19"",""219577""
","""event"",""trial"",""time""
""blur"",""19"",""218228""
","""event"",""trial"",""time""
""focus"",""19"",""219577""
","""event"",""trial"",""time""
""fullscreenenter"",""1"",""2250""
","
","","","539.4000000953674","","","23","16231","6325","&#9789;","elianto","#f73b6a7A"," "," ","1","0","[1389.9000000953674]","1","0","4","","","","","","","",""
"pit-trial","99","739759","0.0-2.0-17.3-3.3","battery-v0.2","","""event"",""trial"",""time""
""fullscreenenter"",""1"",""2250""
""blur"",""19"",""218228""
""focus"",""19"",""219577""
","""event"",""trial"",""time""
""blur"",""19"",""218228""
","""event"",""trial"",""time""
""focus"",""19"",""219577""
","""event"",""trial"",""time""
""fullscreenenter"",""1"",""2250""
","
","","","566.2000000476837","","","23","16231","6325","&#9789;","elianto","#f73b6a7A"," "," ","1","-10","[1417.2000000476837]","1","0","4","","","","","","","",""
"pit-trial","100","743013","0.0-2.0-17.3-4.3","battery-v0.2","","""event"",""trial"",""time""
""fullscreenenter"",""1"",""2250""
""blur"",""19"",""218228""
""focus"",""19"",""219577""
","""event"",""trial"",""time""
""blur"",""19"",""218228""
","""event"",""trial"",""time""
""focus"",""19"",""219577""
","""event"",""trial"",""time""
""fullscreenenter"",""1"",""2250""
","
","","","400.7999999523163","","","23","16231","6325","&#9789;","elianto","#f73b6a7A"," "," ","1","0","[1252.2000000476837]","1","0","4","","","","","","","",""
"call-function","101","743015","0.0-2.0-18.0","battery-v0.2","","""event"",""trial"",""time""
""fullscreenenter"",""1"",""2250""
""blur"",""19"",""218228""
""focus"",""19"",""219577""
","""event"",""trial"",""time""
""blur"",""19"",""218228""
","""event"",""trial"",""time""
""focus"",""19"",""219577""
","""event"",""trial"",""time""
""fullscreenenter"",""1"",""2250""
","
","","","","","","","","","","","","","","","","","","","","","","","","","","",""
"pit-instructions","102","818242","0.0-2.0-19.0","battery-v0.2","","""event"",""trial"",""time""
""fullscreenenter"",""1"",""2250""
""blur"",""19"",""218228""
""focus"",""19"",""219577""
","""event"",""trial"",""time""
""blur"",""19"",""218228""
","""event"",""trial"",""time""
""focus"",""19"",""219577""
","""event"",""trial"",""time""
""fullscreenenter"",""1"",""2250""
","
","","[{""page_index"":0,""viewing_time"":7484.099999904633},{""page_index"":1,""viewing_time"":7205.799999952316},{""page_index"":2,""viewing_time"":14091.800000190735},{""page_index"":3,""viewing_time"":7121.099999904633},{""page_index"":4,""viewing_time"":10632.200000047684},{""page_index"":5,""viewing_time"":8102.700000047684},{""page_index"":6,""viewing_time"":8465.199999809265},{""page_index"":7,""viewing_time"":6144.600000143051},{""page_index"":8,""viewing_time"":5977.899999856949}]","75225.79999995232","","","","","","","","","","","","","","","","","","","","","","","",""
"pit-comprehension","103","824199","0.0-2.0-20.0-0.0","battery-v0.2","","""event"",""trial"",""time""
""fullscreenenter"",""1"",""2250""
""blur"",""19"",""218228""
""focus"",""19"",""219577""
","""event"",""trial"",""time""
""blur"",""19"",""218228""
","""event"",""trial"",""time""
""focus"",""19"",""219577""
","""event"",""trial"",""time""
""fullscreenenter"",""1"",""2250""
","
","","","5951.799999952316","[""SPACE""]","0","23","16231","6325","","","","","","","","","","","","","","","","","","",""
"pit-instructions","104","828314","0.0-2.0-20.0-1.0","battery-v0.2","","""event"",""trial"",""time""
""fullscreenenter"",""1"",""2250""
""blur"",""19"",""218228""
""focus"",""19"",""219577""
","""event"",""trial"",""time""
""blur"",""19"",""218228""
","""event"",""trial"",""time""
""focus"",""19"",""219577""
","""event"",""trial"",""time""
""fullscreenenter"",""1"",""2250""
","
","","[{""page_index"":0,""viewing_time"":4075.5999999046326}]","4076","","","","","","","","","","","","","","","","","","","","","","","",""
"pit-comprehension","105","835301","0.0-2.0-21.0-0.0","battery-v0.2","","""event"",""trial"",""time""
""fullscreenenter"",""1"",""2250""
""blur"",""19"",""218228""
""focus"",""19"",""219577""
","""event"",""trial"",""time""
""blur"",""19"",""218228""
","""event"",""trial"",""time""
""focus"",""19"",""219577""
","""event"",""trial"",""time""
""fullscreenenter"",""1"",""2250""
","
","","","6983.5","[""10""]","0","23","16231","6325","","","","","","","","","","","","","","","","","","",""
"pit-instructions","106","837813","0.0-2.0-21.0-1.0","battery-v0.2","","""event"",""trial"",""time""
""fullscreenenter"",""1"",""2250""
""blur"",""19"",""218228""
""focus"",""19"",""219577""
","""event"",""trial"",""time""
""blur"",""19"",""218228""
","""event"",""trial"",""time""
""focus"",""19"",""219577""
","""event"",""trial"",""time""
""fullscreenenter"",""1"",""2250""
","
","","[{""page_index"":0,""viewing_time"":2483.899999856949}]","2484.2999999523163","","","","","","","","","","","","","","","","","","","","","","","",""
"pit-comprehension","107","845365","0.0-2.0-22.0-0.0","battery-v0.2","","""event"",""trial"",""time""
""fullscreenenter"",""1"",""2250""
""blur"",""19"",""218228""
""focus"",""19"",""219577""
","""event"",""trial"",""time""
""blur"",""19"",""218228""
","""event"",""trial"",""time""
""focus"",""19"",""219577""
","""event"",""trial"",""time""
""fullscreenenter"",""1"",""2250""
","
","","","7547.900000095367","[""0""]","0","23","16231","6325","","","","","","","","","","","","","","","","","","",""
"pit-instructions","108","847407","0.0-2.0-22.0-1.0","battery-v0.2","","""event"",""trial"",""time""
""fullscreenenter"",""1"",""2250""
""blur"",""19"",""218228""
""focus"",""19"",""219577""
","""event"",""trial"",""time""
""blur"",""19"",""218228""
","""event"",""trial"",""time""
""focus"",""19"",""219577""
","""event"",""trial"",""time""
""fullscreenenter"",""1"",""2250""
","
","","[{""page_index"":0,""viewing_time"":2008.0999999046326}]","2008.3999998569489","","","","","","","","","","","","","","","","","","","","","","","",""
"pit-comprehension","109","856129","0.0-2.0-23.0-0.0","battery-v0.2","","""event"",""trial"",""time""
""fullscreenenter"",""1"",""2250""
""blur"",""19"",""218228""
""focus"",""19"",""219577""
","""event"",""trial"",""time""
""blur"",""19"",""218228""
","""event"",""trial"",""time""
""focus"",""19"",""219577""
","""event"",""trial"",""time""
""fullscreenenter"",""1"",""2250""
","
","","","8718.5","[""True""]","0","23","16231","6325","","","","","","","","","","","","","","","","","","",""
"pit-instructions","110","858117","0.0-2.0-23.0-1.0","battery-v0.2","","""event"",""trial"",""time""
""fullscreenenter"",""1"",""2250""
""blur"",""19"",""218228""
""focus"",""19"",""219577""
","""event"",""trial"",""time""
""blur"",""19"",""218228""
","""event"",""trial"",""time""
""focus"",""19"",""219577""
","""event"",""trial"",""time""
""fullscreenenter"",""1"",""2250""
","
","","[{""page_index"":0,""viewing_time"":1959.2999999523163}]","1959.7000000476837","","","","","","","","","","","","","","","","","","","","","","","",""
"pit-comprehension","111","866814","0.0-2.0-24.0-0.0","battery-v0.2","","""event"",""trial"",""time""
""fullscreenenter"",""1"",""2250""
""blur"",""19"",""218228""
""focus"",""19"",""219577""
","""event"",""trial"",""time""
""blur"",""19"",""218228""
","""event"",""trial"",""time""
""focus"",""19"",""219577""
","""event"",""trial"",""time""
""fullscreenenter"",""1"",""2250""
","
","","","8694.5","[""True""]","0","23","16231","6325","","","","","","","","","","","","","","","","","","",""
"pit-instructions","112","869810","0.0-2.0-24.0-1.0","battery-v0.2","","""event"",""trial"",""time""
""fullscreenenter"",""1"",""2250""
""blur"",""19"",""218228""
""focus"",""19"",""219577""
","""event"",""trial"",""time""
""blur"",""19"",""218228""
","""event"",""trial"",""time""
""focus"",""19"",""219577""
","""event"",""trial"",""time""
""fullscreenenter"",""1"",""2250""
","
","","[{""page_index"":0,""viewing_time"":2958.800000190735}]","2959.100000143051","","","","","","","","","","","","","","","","","","","","","","","",""
"pit-comprehension","113","877778","0.0-2.0-25.0-0.0","battery-v0.2","","""event"",""trial"",""time""
""fullscreenenter"",""1"",""2250""
""blur"",""19"",""218228""
""focus"",""19"",""219577""
","""event"",""trial"",""time""
""blur"",""19"",""218228""
","""event"",""trial"",""time""
""focus"",""19"",""219577""
","""event"",""trial"",""time""
""fullscreenenter"",""1"",""2250""
","
","","","7964.099999904633","[""True""]","0","23","16231","6325","","","","","","","","","","","","","","","","","","",""
"pit-instructions","114","884463","0.0-2.0-25.0-1.0","battery-v0.2","","""event"",""trial"",""time""
""fullscreenenter"",""1"",""2250""
""blur"",""19"",""218228""
""focus"",""19"",""219577""
","""event"",""trial"",""time""
""blur"",""19"",""218228""
","""event"",""trial"",""time""
""focus"",""19"",""219577""
","""event"",""trial"",""time""
""fullscreenenter"",""1"",""2250""
","
","","[{""page_index"":0,""viewing_time"":6657.299999952316}]","6657.799999952316","","","","","","","","","","","","","","","","","","","","","","","",""
"pit-comprehension","115","891063","0.0-2.0-26.0-0.0","battery-v0.2","","""event"",""trial"",""time""
""fullscreenenter"",""1"",""2250""
""blur"",""19"",""218228""
""focus"",""19"",""219577""
","""event"",""trial"",""time""
""blur"",""19"",""218228""
","""event"",""trial"",""time""
""focus"",""19"",""219577""
","""event"",""trial"",""time""
""fullscreenenter"",""1"",""2250""
","
","","","6595.800000190735","[""False""]","0","23","16231","6325","","","","","","","","","","","","","","","","","","",""
"pit-instructions","116","894052","0.0-2.0-26.0-1.0","battery-v0.2","","""event"",""trial"",""time""
""fullscreenenter"",""1"",""2250""
""blur"",""19"",""218228""
""focus"",""19"",""219577""
","""event"",""trial"",""time""
""blur"",""19"",""218228""
","""event"",""trial"",""time""
""focus"",""19"",""219577""
","""event"",""trial"",""time""
""fullscreenenter"",""1"",""2250""
","
","","[{""page_index"":0,""viewing_time"":2953.2000000476837}]","2953.600000143051","","","","","","","","","","","","","","","","","","","","","","","",""
"pit-instructions","117","911558","0.0-3.0","battery-v0.2","","""event"",""trial"",""time""
""fullscreenenter"",""1"",""2250""
""blur"",""19"",""218228""
""focus"",""19"",""219577""
","""event"",""trial"",""time""
""blur"",""19"",""218228""
","""event"",""trial"",""time""
""focus"",""19"",""219577""
","""event"",""trial"",""time""
""fullscreenenter"",""1"",""2250""
","
","","[{""page_index"":0,""viewing_time"":4065.7999999523163},{""page_index"":1,""viewing_time"":5605.200000047684},{""page_index"":2,""viewing_time"":7831.599999904633}]","17503","","","","","","","","","","","","","","","","","","","","","","","",""
"pit-trial","118","915081","0.0-4.0","battery-v0.2","","""event"",""trial"",""time""
""fullscreenenter"",""1"",""2250""
""blur"",""19"",""218228""
""focus"",""19"",""219577""
","""event"",""trial"",""time""
""blur"",""19"",""218228""
","""event"",""trial"",""time""
""focus"",""19"",""219577""
","""event"",""trial"",""time""
""fullscreenenter"",""1"",""2250""
","
","","","659","","","23","16231","6325","&#9752;","elianto","#f73b6a7A"," "," ","1","0","[1509.2000000476837]","1","1","","","16231","1","3","3","lose","go","0"
"pit-trial","119","918343","0.0-5.0","battery-v0.2","","""event"",""trial"",""time""
""fullscreenenter"",""1"",""2250""
""blur"",""19"",""218228""
""focus"",""19"",""219577""
","""event"",""trial"",""time""
""blur"",""19"",""218228""
","""event"",""trial"",""time""
""focus"",""19"",""219577""
","""event"",""trial"",""time""
""fullscreenenter"",""1"",""2250""
","
","","","393.7000000476837","","","23","16231","6325","&#9733;","elianto","#3366ff99","-1"," ","0","0","[1251.5999999046326]","1","1","","","16231","2","2","2","win","no-go","0"
"pit-trial","120","921950","0.0-6.0","battery-v0.2","","""event"",""trial"",""time""
""fullscreenenter"",""1"",""2250""
""blur"",""19"",""218228""
""focus"",""19"",""219577""
","""event"",""trial"",""time""
""blur"",""19"",""218228""
","""event"",""trial"",""time""
""focus"",""19"",""219577""
","""event"",""trial"",""time""
""fullscreenenter"",""1"",""2250""
","
","","","738.7999999523163","","","23","16231","6325","&#9728;","elianto","#f73b6a7A","-1"," ","0","-10","[1595.2999999523163]","1","1","","","16231","3","0","4","lose","no-go","0"
"pit-trial","121","925519","0.0-7.0","battery-v0.2","","""event"",""trial"",""time""
""fullscreenenter"",""1"",""2250""
""blur"",""19"",""218228""
""focus"",""19"",""219577""
","""event"",""trial"",""time""
""blur"",""19"",""218228""
","""event"",""trial"",""time""
""focus"",""19"",""219577""
","""event"",""trial"",""time""
""fullscreenenter"",""1"",""2250""
","
","","","702.7000000476837","","","23","16231","6325","&#9730;","elianto","#3366ff99"," "," ","1","+10","[1553.0999999046326]","1","1","","","16231","4","1","1","win","go","0"
"pit-trial","122","929076","0.0-8.0","battery-v0.2","","""event"",""trial"",""time""
""fullscreenenter"",""1"",""2250""
""blur"",""19"",""218228""
""focus"",""19"",""219577""
","""event"",""trial"",""time""
""blur"",""19"",""218228""
","""event"",""trial"",""time""
""focus"",""19"",""219577""
","""event"",""trial"",""time""
""fullscreenenter"",""1"",""2250""
","
","","","701.9000000953674","","","23","16231","6325","&#9752;","elianto","#f73b6a7A"," "," ","1","0","[1552.7999999523163]","1","1","","","16231","5","3","3","lose","go","0"
"pit-trial","123","932724","0.0-9.0","battery-v0.2","","""event"",""trial"",""time""
""fullscreenenter"",""1"",""2250""
""blur"",""19"",""218228""
""focus"",""19"",""219577""
","""event"",""trial"",""time""
""blur"",""19"",""218228""
","""event"",""trial"",""time""
""focus"",""19"",""219577""
","""event"",""trial"",""time""
""fullscreenenter"",""1"",""2250""
","
","","","793.9000000953674","","","23","16231","6325","&#9730;","elianto","#3366ff99"," "," ","1","0","[1644.7000000476837]","1","1","","","16231","6","1","1","win","go","1"
"pit-trial","124","937603","0.0-10.0","battery-v0.2","","""event"",""trial"",""time""
""fullscreenenter"",""1"",""2250""
""blur"",""19"",""218228""
""focus"",""19"",""219577""
","""event"",""trial"",""time""
""blur"",""19"",""218228""
","""event"",""trial"",""time""
""focus"",""19"",""219577""
","""event"",""trial"",""time""
""fullscreenenter"",""1"",""2250""
","
","","","-1","","","23","16231","6325","&#9733;","elianto","#3366ff99","-1","-1","1","+10","[]","0","1","","","16231","7","2","2","win","no-go","0"
"pit-trial","125","942469","0.0-11.0","battery-v0.2","","""event"",""trial"",""time""
""fullscreenenter"",""1"",""2250""
""blur"",""19"",""218228""
""focus"",""19"",""219577""
","""event"",""trial"",""time""
""blur"",""19"",""218228""
","""event"",""trial"",""time""
""focus"",""19"",""219577""
","""event"",""trial"",""time""
""fullscreenenter"",""1"",""2250""
","
","","","-1","","","23","16231","6325","&#9728;","elianto","#f73b6a7A","-1","-1","1","0","[]","0","1","","","16231","8","0","4","lose","no-go","0"
"pit-trial","126","947322","0.0-12.0","battery-v0.2","","""event"",""trial"",""time""
""fullscreenenter"",""1"",""2250""
""blur"",""19"",""218228""
""focus"",""19"",""219577""
","""event"",""trial"",""time""
""blur"",""19"",""218228""
","""event"",""trial"",""time""
""focus"",""19"",""219577""
","""event"",""trial"",""time""
""fullscreenenter"",""1"",""2250""
","
","","","-1","","","23","16231","6325","&#9728;","elianto","#f73b6a7A","-1","-1","1","0","[]","0","1","","","16231","9","0","4","lose","no-go","0"
"pit-trial","127","952175","0.0-13.0","battery-v0.2","","""event"",""trial"",""time""
""fullscreenenter"",""1"",""2250""
""blur"",""19"",""218228""
""focus"",""19"",""219577""
","""event"",""trial"",""time""
""blur"",""19"",""218228""
","""event"",""trial"",""time""
""focus"",""19"",""219577""
","""event"",""trial"",""time""
""fullscreenenter"",""1"",""2250""
","
","","","-1","","","23","16231","6325","&#9733;","elianto","#3366ff99","-1","-1","1","+10","[]","0","1","","","16231","10","2","2","win","no-go","0"
"pit-trial","128","957029","0.0-14.0","battery-v0.2","","""event"",""trial"",""time""
""fullscreenenter"",""1"",""2250""
""blur"",""19"",""218228""
""focus"",""19"",""219577""
","""event"",""trial"",""time""
""blur"",""19"",""218228""
","""event"",""trial"",""time""
""focus"",""19"",""219577""
","""event"",""trial"",""time""
""fullscreenenter"",""1"",""2250""
","
","","","-1","","","23","16231","6325","&#9730;","elianto","#3366ff99"," ","-1","0","+10","[]","0","1","","","16231","11","1","1","win","go","1"
"pit-trial","129","960474","0.0-15.0","battery-v0.2","","""event"",""trial"",""time""
""fullscreenenter"",""1"",""2250""
""blur"",""19"",""218228""
""focus"",""19"",""219577""
","""event"",""trial"",""time""
""blur"",""19"",""218228""
","""event"",""trial"",""time""
""focus"",""19"",""219577""
","""event"",""trial"",""time""
""fullscreenenter"",""1"",""2250""
","
","","","590.2999999523163","","","23","16231","6325","&#9752;","elianto","#f73b6a7A"," "," ","1","-10","[1441.5]","1","1","","","16231","12","3","3","lose","go","1"
"pit-trial","130","965327","0.0-16.0","battery-v0.2","","""event"",""trial"",""time""
""fullscreenenter"",""1"",""2250""
""blur"",""19"",""218228""
""focus"",""19"",""219577""
","""event"",""trial"",""time""
""blur"",""19"",""218228""
","""event"",""trial"",""time""
""focus"",""19"",""219577""
","""event"",""trial"",""time""
""fullscreenenter"",""1"",""2250""
","
","","","-1","","","23","16231","6325","&#9730;","elianto","#3366ff99"," ","-1","0","0","[]","0","1","","","16231","13","1","1","win","go","0"
"pit-trial","131","970182","0.0-17.0","battery-v0.2","","""event"",""trial"",""time""
""fullscreenenter"",""1"",""2250""
""blur"",""19"",""218228""
""focus"",""19"",""219577""
","""event"",""trial"",""time""
""blur"",""19"",""218228""
","""event"",""trial"",""time""
""focus"",""19"",""219577""
","""event"",""trial"",""time""
""fullscreenenter"",""1"",""2250""
","
","","","-1","","","23","16231","6325","&#9733;","elianto","#3366ff99","-1","-1","1","+10","[]","0","1","","","16231","14","2","2","win","no-go","0"
"pit-trial","132","973626","0.0-18.0","battery-v0.2","","""event"",""trial"",""time""
""fullscreenenter"",""1"",""2250""
""blur"",""19"",""218228""
""focus"",""19"",""219577""
","""event"",""trial"",""time""
""blur"",""19"",""218228""
","""event"",""trial"",""time""
""focus"",""19"",""219577""
","""event"",""trial"",""time""
""fullscreenenter"",""1"",""2250""
","
","","","591.1000001430511","","","23","16231","6325","&#9752;","elianto","#f73b6a7A"," "," ","1","0","[1441.7000000476837]","1","1","","","16231","15","3","3","lose","go","0"
"pit-trial","133","978480","0.0-19.0","battery-v0.2","","""event"",""trial"",""time""
""fullscreenenter"",""1"",""2250""
""blur"",""19"",""218228""
""focus"",""19"",""219577""
","""event"",""trial"",""time""
""blur"",""19"",""218228""
","""event"",""trial"",""time""
""focus"",""19"",""219577""
","""event"",""trial"",""time""
""fullscreenenter"",""1"",""2250""
","
","","","-1","","","23","16231","6325","&#9728;","elianto","#f73b6a7A","-1","-1","1","0","[]","0","1","","","16231","16","0","4","lose","no-go","0"
"pit-trial","134","983333","0.0-20.0","battery-v0.2","","""event"",""trial"",""time""
""fullscreenenter"",""1"",""2250""
""blur"",""19"",""218228""
""focus"",""19"",""219577""
","""event"",""trial"",""time""
""blur"",""19"",""218228""
","""event"",""trial"",""time""
""focus"",""19"",""219577""
","""event"",""trial"",""time""
""fullscreenenter"",""1"",""2250""
","
","","","-1","","","23","16231","6325","&#9730;","elianto","#3366ff99"," ","-1","0","+10","[]","0","1","","","16231","17","1","1","win","go","1"
"pit-trial","135","988188","0.0-21.0","battery-v0.2","","""event"",""trial"",""time""
""fullscreenenter"",""1"",""2250""
""blur"",""19"",""218228""
""focus"",""19"",""219577""
","""event"",""trial"",""time""
""blur"",""19"",""218228""
","""event"",""trial"",""time""
""focus"",""19"",""219577""
","""event"",""trial"",""time""
""fullscreenenter"",""1"",""2250""
","
","","","-1","","","23","16231","6325","&#9728;","elianto","#f73b6a7A","-1","-1","1","-10","[]","0","1","","","16231","18","0","4","lose","no-go","1"
"pit-trial","136","993041","0.0-22.0","battery-v0.2","","""event"",""trial"",""time""
""fullscreenenter"",""1"",""2250""
""blur"",""19"",""218228""
""focus"",""19"",""219577""
","""event"",""trial"",""time""
""blur"",""19"",""218228""
","""event"",""trial"",""time""
""focus"",""19"",""219577""
","""event"",""trial"",""time""
""fullscreenenter"",""1"",""2250""
","
","","","-1","","","23","16231","6325","&#9733;","elianto","#3366ff99","-1","-1","1","+10","[]","0","1","","","16231","19","2","2","win","no-go","0"
"pit-trial","137","996588","0.0-23.0","battery-v0.2","","""event"",""trial"",""time""
""fullscreenenter"",""1"",""2250""
""blur"",""19"",""218228""
""focus"",""19"",""219577""
","""event"",""trial"",""time""
""blur"",""19"",""218228""
","""event"",""trial"",""time""
""focus"",""19"",""219577""
","""event"",""trial"",""time""
""fullscreenenter"",""1"",""2250""
","
","","","694.5999999046326","","","23","16231","6325","&#9752;","elianto","#f73b6a7A"," "," ","1","0","[1544.9000000953674]","1","1","","","16231","20","3","3","lose","go","0"
"pit-instructions","138","1039144","0.0-24.0","battery-v0.2","","""event"",""trial"",""time""
""fullscreenenter"",""1"",""2250""
""blur"",""19"",""218228""
""focus"",""19"",""219577""
","""event"",""trial"",""time""
""blur"",""19"",""218228""
","""event"",""trial"",""time""
""focus"",""19"",""219577""
","""event"",""trial"",""time""
""fullscreenenter"",""1"",""2250""
","
","","[{""page_index"":0,""viewing_time"":35435.40000009537},{""page_index"":1,""viewing_time"":7118.099999904633}]","42553.799999952316","","","","","","","","","","","","","","","","","","","","","","","",""
"pit-trial","139","1042352","0.0-25.0","battery-v0.2","","""event"",""trial"",""time""
""fullscreenenter"",""1"",""2250""
""blur"",""19"",""218228""
""focus"",""19"",""219577""
","""event"",""trial"",""time""
""blur"",""19"",""218228""
","""event"",""trial"",""time""
""focus"",""19"",""219577""
","""event"",""trial"",""time""
""fullscreenenter"",""1"",""2250""
","
","","","347.7000000476837","","","23","16231","6325","d","elianto","#3366ff99"," "," ","1","+10","[1202.7999999523163]","1","2","","","16231","21","1","1","win","go","0"
"pit-trial","140","1045604","0.0-26.0","battery-v0.2","","""event"",""trial"",""time""
""fullscreenenter"",""1"",""2250""
""blur"",""19"",""218228""
""focus"",""19"",""219577""
","""event"",""trial"",""time""
""blur"",""19"",""218228""
","""event"",""trial"",""time""
""focus"",""19"",""219577""
","""event"",""trial"",""time""
""fullscreenenter"",""1"",""2250""
","
","","","383.59999990463257","","","23","16231","6325","j","elianto","#f73b6a7A","-1"," ","0","-10","[1241.8999998569489]","1","2","","","16231","22","0","4","lose","no-go","0"
"pit-trial","141","1049117","0.0-27.0","battery-v0.2","","""event"",""trial"",""time""
""fullscreenenter"",""1"",""2250""
""blur"",""19"",""218228""
""focus"",""19"",""219577""
","""event"",""trial"",""time""
""blur"",""19"",""218228""
","""event"",""trial"",""time""
""focus"",""19"",""219577""
","""event"",""trial"",""time""
""fullscreenenter"",""1"",""2250""
","
","","","656.4000000953674","","","23","16231","6325","w","elianto","#f73b6a7A"," "," ","1","0","[1507.9000000953674]","1","2","","","16231","23","3","3","lose","go","0"
"pit-trial","142","1052724","0.0-28.0","battery-v0.2","","""event"",""trial"",""time""
""fullscreenenter"",""1"",""2250""
""blur"",""19"",""218228""
""focus"",""19"",""219577""
","""event"",""trial"",""time""
""blur"",""19"",""218228""
","""event"",""trial"",""time""
""focus"",""19"",""219577""
","""event"",""trial"",""time""
""fullscreenenter"",""1"",""2250""
","
","","","748.5","","","23","16231","6325","e","elianto","#f73b6a7A","-1"," ","0","-10","[1600.5999999046326]","1","2","","","16231","24","2","4","lose","no-go","0"
"pit-trial","143","1056336","0.0-29.0","battery-v0.2","","""event"",""trial"",""time""
""fullscreenenter"",""1"",""2250""
""blur"",""19"",""218228""
""focus"",""19"",""219577""
","""event"",""trial"",""time""
""blur"",""19"",""218228""
","""event"",""trial"",""time""
""focus"",""19"",""219577""
","""event"",""trial"",""time""
""fullscreenenter"",""1"",""2250""
","
","","","743.8000001907349","","","23","16231","6325","j","elianto","#f73b6a7A","-1"," ","0","-10","[1595.3000001907349]","1","2","","","16231","25","0","4","lose","no-go","0"
"pit-trial","144","1060405","0.0-30.0","battery-v0.2","","""event"",""trial"",""time""
""fullscreenenter"",""1"",""2250""
""blur"",""19"",""218228""
""focus"",""19"",""219577""
","""event"",""trial"",""time""
""blur"",""19"",""218228""
","""event"",""trial"",""time""
""focus"",""19"",""219577""
","""event"",""trial"",""time""
""fullscreenenter"",""1"",""2250""
","
","","","1207.2999999523163","","","23","16231","6325","w","elianto","#f73b6a7A"," "," ","1","0","[2064.7999999523163]","1","2","","","16231","26","3","3","lose","go","0"
"pit-trial","145","1064571","0.0-31.0","battery-v0.2","","""event"",""trial"",""time""
""fullscreenenter"",""1"",""2250""
""blur"",""19"",""218228""
""focus"",""19"",""219577""
","""event"",""trial"",""time""
""blur"",""19"",""218228""
","""event"",""trial"",""time""
""focus"",""19"",""219577""
","""event"",""trial"",""time""
""fullscreenenter"",""1"",""2250""
","
","","","1298.7999999523163","","","23","16231","6325","e","elianto","#f73b6a7A","-1"," ","0","0","[2150.4000000953674]","1","2","","","16231","27","2","4","lose","no-go","1"
"pit-trial","146","1068268","0.0-32.0","battery-v0.2","","""event"",""trial"",""time""
""fullscreenenter"",""1"",""2250""
""blur"",""19"",""218228""
""focus"",""19"",""219577""
","""event"",""trial"",""time""
""blur"",""19"",""218228""
","""event"",""trial"",""time""
""focus"",""19"",""219577""
","""event"",""trial"",""time""
""fullscreenenter"",""1"",""2250""
","
","","","823.3999998569489","","","23","16231","6325","d","elianto","#3366ff99"," "," ","1","+10","[1680]","1","2","","","16231","28","1","1","win","go","0"
"pit-trial","147","1073122","0.0-33.0","battery-v0.2","","""event"",""trial"",""time""
""fullscreenenter"",""1"",""2250""
""blur"",""19"",""218228""
""focus"",""19"",""219577""
","""event"",""trial"",""time""
""blur"",""19"",""218228""
","""event"",""trial"",""time""
""focus"",""19"",""219577""
","""event"",""trial"",""time""
""fullscreenenter"",""1"",""2250""
","
","","","-1","","","23","16231","6325","j","elianto","#f73b6a7A","-1","-1","1","0","[]","0","2","","","16231","29","0","4","lose","no-go","0"
"pit-trial","148","1077194","0.0-34.0","battery-v0.2","","""event"",""trial"",""time""
""fullscreenenter"",""1"",""2250""
""blur"",""19"",""218228""
""focus"",""19"",""219577""
","""event"",""trial"",""time""
""blur"",""19"",""218228""
","""event"",""trial"",""time""
""focus"",""19"",""219577""
","""event"",""trial"",""time""
""fullscreenenter"",""1"",""2250""
","
","","","1219","","","23","16231","6325","e","elianto","#f73b6a7A","-1"," ","0","-10","[2069.2999999523163]","1","2","","","16231","30","2","4","lose","no-go","0"
"pit-trial","149","1080653","0.0-35.0","battery-v0.2","","""event"",""trial"",""time""
""fullscreenenter"",""1"",""2250""
""blur"",""19"",""218228""
""focus"",""19"",""219577""
","""event"",""trial"",""time""
""blur"",""19"",""218228""
","""event"",""trial"",""time""
""focus"",""19"",""219577""
","""event"",""trial"",""time""
""fullscreenenter"",""1"",""2250""
","
","","","605.7000000476837","","","23","16231","6325","d","elianto","#3366ff99"," "," ","1","0","[1456.6000001430511]","1","2","","","16231","31","1","1","win","go","1"
"pit-trial","150","1084145","0.0-36.0","battery-v0.2","","""event"",""trial"",""time""
""fullscreenenter"",""1"",""2250""
""blur"",""19"",""218228""
""focus"",""19"",""219577""
","""event"",""trial"",""time""
""blur"",""19"",""218228""
","""event"",""trial"",""time""
""focus"",""19"",""219577""
","""event"",""trial"",""time""
""fullscreenenter"",""1"",""2250""
","
","","","638.7000000476837","","","23","16231","6325","w","elianto","#f73b6a7A"," "," ","1","0","[1488.8000001907349]","1","2","","","16231","32","3","3","lose","go","0"
"pit-trial","151","1087998","0.0-37.0","battery-v0.2","","""event"",""trial"",""time""
""fullscreenenter"",""1"",""2250""
""blur"",""19"",""218228""
""focus"",""19"",""219577""
","""event"",""trial"",""time""
""blur"",""19"",""218228""
","""event"",""trial"",""time""
""focus"",""19"",""219577""
","""event"",""trial"",""time""
""fullscreenenter"",""1"",""2250""
","
","","","1000","","","23","16231","6325","e","elianto","#f73b6a7A","-1"," ","0","-10","[1850.2999999523163]","1","2","","","16231","33","2","4","lose","no-go","0"
"pit-trial","152","1091426","0.0-38.0","battery-v0.2","","""event"",""trial"",""time""
""fullscreenenter"",""1"",""2250""
""blur"",""19"",""218228""
""focus"",""19"",""219577""
","""event"",""trial"",""time""
""blur"",""19"",""218228""
","""event"",""trial"",""time""
""focus"",""19"",""219577""
","""event"",""trial"",""time""
""fullscreenenter"",""1"",""2250""
","
","","","574.1999998092651","","","23","16231","6325","w","elianto","#f73b6a7A"," "," ","1","0","[1425.1999998092651]","1","2","","","16231","34","3","3","lose","go","0"
"pit-trial","153","1096279","0.0-39.0","battery-v0.2","","""event"",""trial"",""time""
""fullscreenenter"",""1"",""2250""
""blur"",""19"",""218228""
""focus"",""19"",""219577""
","""event"",""trial"",""time""
""blur"",""19"",""218228""
","""event"",""trial"",""time""
""focus"",""19"",""219577""
","""event"",""trial"",""time""
""fullscreenenter"",""1"",""2250""
","
","","","-1","","","23","16231","6325","j","elianto","#f73b6a7A","-1","-1","1","0","[]","0","2","","","16231","35","0","4","lose","no-go","0"
"pit-trial","154","1099649","0.0-40.0","battery-v0.2","","""event"",""trial"",""time""
""fullscreenenter"",""1"",""2250""
""blur"",""19"",""218228""
""focus"",""19"",""219577""
","""event"",""trial"",""time""
""blur"",""19"",""218228""
","""event"",""trial"",""time""
""focus"",""19"",""219577""
","""event"",""trial"",""time""
""fullscreenenter"",""1"",""2250""
","
","","","516.2000000476837","","","23","16231","6325","d","elianto","#3366ff99"," "," ","1","+10","[1367.2000000476837]","1","2","","","16231","36","1","1","win","go","0"
"pit-trial","155","1104503","0.0-41.0","battery-v0.2","","""event"",""trial"",""time""
""fullscreenenter"",""1"",""2250""
""blur"",""19"",""218228""
""focus"",""19"",""219577""
","""event"",""trial"",""time""
""blur"",""19"",""218228""
","""event"",""trial"",""time""
""focus"",""19"",""219577""
","""event"",""trial"",""time""
""fullscreenenter"",""1"",""2250""
","
","","","-1","","","23","16231","6325","e","elianto","#f73b6a7A","-1","-1","1","-10","[]","0","2","","","16231","37","2","4","lose","no-go","1"
"pit-trial","156","1109355","0.0-42.0","battery-v0.2","","""event"",""trial"",""time""
""fullscreenenter"",""1"",""2250""
""blur"",""19"",""218228""
""focus"",""19"",""219577""
","""event"",""trial"",""time""
""blur"",""19"",""218228""
","""event"",""trial"",""time""
""focus"",""19"",""219577""
","""event"",""trial"",""time""
""fullscreenenter"",""1"",""2250""
","
","","","-1","","","23","16231","6325","j","elianto","#f73b6a7A","-1","-1","1","0","[]","0","2","","","16231","38","0","4","lose","no-go","0"
"pit-trial","157","1112657","0.0-43.0","battery-v0.2","","""event"",""trial"",""time""
""fullscreenenter"",""1"",""2250""
""blur"",""19"",""218228""
""focus"",""19"",""219577""
","""event"",""trial"",""time""
""blur"",""19"",""218228""
","""event"",""trial"",""time""
""focus"",""19"",""219577""
","""event"",""trial"",""time""
""fullscreenenter"",""1"",""2250""
","
","","","446.7000000476837","","","23","16231","6325","d","elianto","#3366ff99"," "," ","1","+10","[1298.3999998569489]","1","2","","","16231","39","1","1","win","go","0"
"pit-trial","158","1116100","0.0-44.0","battery-v0.2","","""event"",""trial"",""time""
""fullscreenenter"",""1"",""2250""
""blur"",""19"",""218228""
""focus"",""19"",""219577""
","""event"",""trial"",""time""
""blur"",""19"",""218228""
","""event"",""trial"",""time""
""focus"",""19"",""219577""
","""event"",""trial"",""time""
""fullscreenenter"",""1"",""2250""
","
","","","589.8000001907349","","","23","16231","6325","w","elianto","#f73b6a7A"," "," ","1","0","[1440.4000000953674]","1","2","","","16231","40","3","3","lose","go","0"
"pit-trial","159","1119610","0.0-45.0","battery-v0.2","","""event"",""trial"",""time""
""fullscreenenter"",""1"",""2250""
""blur"",""19"",""218228""
""focus"",""19"",""219577""
","""event"",""trial"",""time""
""blur"",""19"",""218228""
","""event"",""trial"",""time""
""focus"",""19"",""219577""
","""event"",""trial"",""time""
""fullscreenenter"",""1"",""2250""
","
","","","657.0999999046326","","","23","16231","6325","w","elianto","#f73b6a7A"," "," ","1","-10","[1507.3999998569489]","1","2","","","16231","41","3","3","lose","go","1"
"pit-trial","160","1122947","0.0-46.0","battery-v0.2","","""event"",""trial"",""time""
""fullscreenenter"",""1"",""2250""
""blur"",""19"",""218228""
""focus"",""19"",""219577""
","""event"",""trial"",""time""
""blur"",""19"",""218228""
","""event"",""trial"",""time""
""focus"",""19"",""219577""
","""event"",""trial"",""time""
""fullscreenenter"",""1"",""2250""
","
","","","484","","","23","16231","6325","d","elianto","#3366ff99"," "," ","1","0","[1334.8999998569489]","1","2","","","16231","42","1","1","win","go","1"
"pit-trial","161","1127800","0.0-47.0","battery-v0.2","","""event"",""trial"",""time""
""fullscreenenter"",""1"",""2250""
""blur"",""19"",""218228""
""focus"",""19"",""219577""
","""event"",""trial"",""time""
""blur"",""19"",""218228""
","""event"",""trial"",""time""
""focus"",""19"",""219577""
","""event"",""trial"",""time""
""fullscreenenter"",""1"",""2250""
","
","","","-1","","","23","16231","6325","j","elianto","#f73b6a7A","-1","-1","1","0","[]","0","2","","","16231","43","0","4","lose","no-go","0"
"pit-trial","162","1132654","0.0-48.0","battery-v0.2","","""event"",""trial"",""time""
""fullscreenenter"",""1"",""2250""
""blur"",""19"",""218228""
""focus"",""19"",""219577""
","""event"",""trial"",""time""
""blur"",""19"",""218228""
","""event"",""trial"",""time""
""focus"",""19"",""219577""
","""event"",""trial"",""time""
""fullscreenenter"",""1"",""2250""
","
","","","-1","","","23","16231","6325","e","elianto","#f73b6a7A","-1","-1","1","0","[]","0","2","","","16231","44","2","4","lose","no-go","0"
"pit-trial","163","1136446","0.0-49.0","battery-v0.2","","""event"",""trial"",""time""
""fullscreenenter"",""1"",""2250""
""blur"",""19"",""218228""
""focus"",""19"",""219577""
","""event"",""trial"",""time""
""blur"",""19"",""218228""
","""event"",""trial"",""time""
""focus"",""19"",""219577""
","""event"",""trial"",""time""
""fullscreenenter"",""1"",""2250""
","
","","","940","","","23","16231","6325","s","elianto","#3366ff99","-1"," ","0","0","[1790.0999999046326]","1","2","","","16231","45","4","2","win","no-go","0"
"pit-trial","164","1141300","0.0-50.0","battery-v0.2","","""event"",""trial"",""time""
""fullscreenenter"",""1"",""2250""
""blur"",""19"",""218228""
""focus"",""19"",""219577""
","""event"",""trial"",""time""
""blur"",""19"",""218228""
","""event"",""trial"",""time""
""focus"",""19"",""219577""
","""event"",""trial"",""time""
""fullscreenenter"",""1"",""2250""
","
","","","-1","","","23","16231","6325","j","elianto","#f73b6a7A","-1","-1","1","0","[]","0","2","","","16231","46","0","4","lose","no-go","0"
"pit-trial","165","1146163","0.0-51.0","battery-v0.2","","""event"",""trial"",""time""
""fullscreenenter"",""1"",""2250""
""blur"",""19"",""218228""
""focus"",""19"",""219577""
","""event"",""trial"",""time""
""blur"",""19"",""218228""
","""event"",""trial"",""time""
""focus"",""19"",""219577""
","""event"",""trial"",""time""
""fullscreenenter"",""1"",""2250""
","
","","","-1","","","23","16231","6325","e","elianto","#f73b6a7A","-1","-1","1","-10","[]","0","2","","","16231","47","2","4","lose","no-go","1"
"pit-trial","166","1149992","0.0-52.0","battery-v0.2","","""event"",""trial"",""time""
""fullscreenenter"",""1"",""2250""
""blur"",""19"",""218228""
""focus"",""19"",""219577""
","""event"",""trial"",""time""
""blur"",""19"",""218228""
","""event"",""trial"",""time""
""focus"",""19"",""219577""
","""event"",""trial"",""time""
""fullscreenenter"",""1"",""2250""
","
","","","975.4000000953674","","","23","16231","6325","w","elianto","#f73b6a7A"," "," ","1","0","[1826.6000001430511]","1","2","","","16231","48","3","3","lose","go","0"
"pit-trial","167","1153841","0.0-53.0","battery-v0.2","","""event"",""trial"",""time""
""fullscreenenter"",""1"",""2250""
""blur"",""19"",""218228""
""focus"",""19"",""219577""
","""event"",""trial"",""time""
""blur"",""19"",""218228""
","""event"",""trial"",""time""
""focus"",""19"",""219577""
","""event"",""trial"",""time""
""fullscreenenter"",""1"",""2250""
","
","","","994.2000000476837","","","23","16231","6325","w","elianto","#f73b6a7A"," "," ","1","0","[1845.5]","1","2","","","16231","49","3","3","lose","go","0"
"pit-trial","168","1158694","0.0-54.0","battery-v0.2","","""event"",""trial"",""time""
""fullscreenenter"",""1"",""2250""
""blur"",""19"",""218228""
""focus"",""19"",""219577""
","""event"",""trial"",""time""
""blur"",""19"",""218228""
","""event"",""trial"",""time""
""focus"",""19"",""219577""
","""event"",""trial"",""time""
""fullscreenenter"",""1"",""2250""
","
","","","-1","","","23","16231","6325","j","elianto","#f73b6a7A","-1","-1","1","0","[]","0","2","","","16231","50","0","4","lose","no-go","0"
"pit-trial","169","1162108","0.0-55.0","battery-v0.2","","""event"",""trial"",""time""
""fullscreenenter"",""1"",""2250""
""blur"",""19"",""218228""
""focus"",""19"",""219577""
","""event"",""trial"",""time""
""blur"",""19"",""218228""
","""event"",""trial"",""time""
""focus"",""19"",""219577""
","""event"",""trial"",""time""
""fullscreenenter"",""1"",""2250""
","
","","","559.7999999523163","","","23","16231","6325","d","elianto","#3366ff99"," "," ","1","0","[1411.3999998569489]","1","2","","","16231","51","1","1","win","go","1"
"pit-trial","170","1165487","0.0-56.0","battery-v0.2","","""event"",""trial"",""time""
""fullscreenenter"",""1"",""2250""
""blur"",""19"",""218228""
""focus"",""19"",""219577""
","""event"",""trial"",""time""
""blur"",""19"",""218228""
","""event"",""trial"",""time""
""focus"",""19"",""219577""
","""event"",""trial"",""time""
""fullscreenenter"",""1"",""2250""
","
","","","525","","","23","16231","6325","s","elianto","#3366ff99","-1"," ","0","0","[1375.7999999523163]","1","2","","","16231","52","4","2","win","no-go","0"
"pit-trial","171","1170341","0.0-57.0","battery-v0.2","","""event"",""trial"",""time""
""fullscreenenter"",""1"",""2250""
""blur"",""19"",""218228""
""focus"",""19"",""219577""
","""event"",""trial"",""time""
""blur"",""19"",""218228""
","""event"",""trial"",""time""
""focus"",""19"",""219577""
","""event"",""trial"",""time""
""fullscreenenter"",""1"",""2250""
","
","","","-1","","","23","16231","6325","e","elianto","#f73b6a7A","-1","-1","1","0","[]","0","2","","","16231","53","2","4","lose","no-go","0"
"pit-trial","172","1175194","0.0-58.0","battery-v0.2","","""event"",""trial"",""time""
""fullscreenenter"",""1"",""2250""
""blur"",""19"",""218228""
""focus"",""19"",""219577""
","""event"",""trial"",""time""
""blur"",""19"",""218228""
","""event"",""trial"",""time""
""focus"",""19"",""219577""
","""event"",""trial"",""time""
""fullscreenenter"",""1"",""2250""
","
","","","-1","","","23","16231","6325","j","elianto","#f73b6a7A","-1","-1","1","0","[]","0","2","","","16231","54","0","4","lose","no-go","0"
"pit-trial","173","1180049","0.0-59.0","battery-v0.2","","""event"",""trial"",""time""
""fullscreenenter"",""1"",""2250""
""blur"",""19"",""218228""
""focus"",""19"",""219577""
","""event"",""trial"",""time""
""blur"",""19"",""218228""
","""event"",""trial"",""time""
""focus"",""19"",""219577""
","""event"",""trial"",""time""
""fullscreenenter"",""1"",""2250""
","
","","","-1","","","23","16231","6325","s","elianto","#3366ff99","-1","-1","1","+10","[]","0","2","","","16231","55","4","2","win","no-go","0"
"pit-trial","174","1183457","0.0-60.0","battery-v0.2","","""event"",""trial"",""time""
""fullscreenenter"",""1"",""2250""
""blur"",""19"",""218228""
""focus"",""19"",""219577""
","""event"",""trial"",""time""
""blur"",""19"",""218228""
","""event"",""trial"",""time""
""focus"",""19"",""219577""
","""event"",""trial"",""time""
""fullscreenenter"",""1"",""2250""
","
","","","554.7000000476837","","","23","16231","6325","d","elianto","#3366ff99"," "," ","1","+10","[1405.5999999046326]","1","2","","","16231","56","1","1","win","go","0"
"pit-trial","175","1188311","0.0-61.0","battery-v0.2","","""event"",""trial"",""time""
""fullscreenenter"",""1"",""2250""
""blur"",""19"",""218228""
""focus"",""19"",""219577""
","""event"",""trial"",""time""
""blur"",""19"",""218228""
","""event"",""trial"",""time""
""focus"",""19"",""219577""
","""event"",""trial"",""time""
""fullscreenenter"",""1"",""2250""
","
","","","-1","","","23","16231","6325","s","elianto","#3366ff99","-1","-1","1","0","[]","0","2","","","16231","57","4","2","win","no-go","1"
"pit-trial","176","1193164","0.0-62.0","battery-v0.2","","""event"",""trial"",""time""
""fullscreenenter"",""1"",""2250""
""blur"",""19"",""218228""
""focus"",""19"",""219577""
","""event"",""trial"",""time""
""blur"",""19"",""218228""
","""event"",""trial"",""time""
""focus"",""19"",""219577""
","""event"",""trial"",""time""
""fullscreenenter"",""1"",""2250""
","
","","","-1","","","23","16231","6325","j","elianto","#f73b6a7A","-1","-1","1","0","[]","0","2","","","16231","58","0","4","lose","no-go","0"
"pit-trial","177","1197046","0.0-63.0","battery-v0.2","","""event"",""trial"",""time""
""fullscreenenter"",""1"",""2250""
""blur"",""19"",""218228""
""focus"",""19"",""219577""
","""event"",""trial"",""time""
""blur"",""19"",""218228""
","""event"",""trial"",""time""
""focus"",""19"",""219577""
","""event"",""trial"",""time""
""fullscreenenter"",""1"",""2250""
","
","","","1027.7999999523163","","","23","16231","6325","w","elianto","#f73b6a7A"," "," ","1","0","[1878.2000000476837]","1","2","","","16231","59","3","3","lose","go","0"
"pit-trial","178","1200577","0.0-64.0","battery-v0.2","","""event"",""trial"",""time""
""fullscreenenter"",""1"",""2250""
""blur"",""19"",""218228""
""focus"",""19"",""219577""
","""event"",""trial"",""time""
""blur"",""19"",""218228""
","""event"",""trial"",""time""
""focus"",""19"",""219577""
","""event"",""trial"",""time""
""fullscreenenter"",""1"",""2250""
","
","","","677","","","23","16231","6325","d","elianto","#3366ff99"," "," ","1","+10","[1528.3999998569489]","1","2","","","16231","60","1","1","win","go","0"
"pit-trial","179","1204040","0.0-65.0","battery-v0.2","","""event"",""trial"",""time""
""fullscreenenter"",""1"",""2250""
""blur"",""19"",""218228""
""focus"",""19"",""219577""
","""event"",""trial"",""time""
""blur"",""19"",""218228""
","""event"",""trial"",""time""
""focus"",""19"",""219577""
","""event"",""trial"",""time""
""fullscreenenter"",""1"",""2250""
","
","","","609.2000000476837","","","23","16231","6325","d","elianto","#3366ff99"," "," ","1","+10","[1459.5]","1","2","","","16231","61","1","1","win","go","0"
"pit-trial","180","1208897","0.0-66.0","battery-v0.2","","""event"",""trial"",""time""
""fullscreenenter"",""1"",""2250""
""blur"",""19"",""218228""
""focus"",""19"",""219577""
","""event"",""trial"",""time""
""blur"",""19"",""218228""
","""event"",""trial"",""time""
""focus"",""19"",""219577""
","""event"",""trial"",""time""
""fullscreenenter"",""1"",""2250""
","
","","","-1","","","23","16231","6325","e","elianto","#f73b6a7A","-1","-1","1","0","[]","0","2","","","16231","62","2","4","lose","no-go","0"
"pit-trial","181","1212787","0.0-67.0","battery-v0.2","","""event"",""trial"",""time""
""fullscreenenter"",""1"",""2250""
""blur"",""19"",""218228""
""focus"",""19"",""219577""
","""event"",""trial"",""time""
""blur"",""19"",""218228""
","""event"",""trial"",""time""
""focus"",""19"",""219577""
","""event"",""trial"",""time""
""fullscreenenter"",""1"",""2250""
","
","","","1036.0999999046326","","","23","16231","6325","w","elianto","#f73b6a7A"," "," ","1","0","[1887]","1","2","","","16231","63","3","3","lose","go","0"
"pit-trial","182","1217641","0.0-68.0","battery-v0.2","","""event"",""trial"",""time""
""fullscreenenter"",""1"",""2250""
""blur"",""19"",""218228""
""focus"",""19"",""219577""
","""event"",""trial"",""time""
""blur"",""19"",""218228""
","""event"",""trial"",""time""
""focus"",""19"",""219577""
","""event"",""trial"",""time""
""fullscreenenter"",""1"",""2250""
","
","","","-1","","","23","16231","6325","s","elianto","#3366ff99","-1","-1","1","+10","[]","0","2","","","16231","64","4","2","win","no-go","0"
"pit-trial","183","1221187","0.0-69.0","battery-v0.2","","""event"",""trial"",""time""
""fullscreenenter"",""1"",""2250""
""blur"",""19"",""218228""
""focus"",""19"",""219577""
","""event"",""trial"",""time""
""blur"",""19"",""218228""
","""event"",""trial"",""time""
""focus"",""19"",""219577""
","""event"",""trial"",""time""
""fullscreenenter"",""1"",""2250""
","
","","","693","","","23","16231","6325","d","elianto","#3366ff99"," "," ","1","+10","[1543.5999999046326]","1","2","","","16231","65","1","1","win","go","0"
"pit-trial","184","1224900","0.0-70.0","battery-v0.2","","""event"",""trial"",""time""
""fullscreenenter"",""1"",""2250""
""blur"",""19"",""218228""
""focus"",""19"",""219577""
","""event"",""trial"",""time""
""blur"",""19"",""218228""
","""event"",""trial"",""time""
""focus"",""19"",""219577""
","""event"",""trial"",""time""
""fullscreenenter"",""1"",""2250""
","
","","","859.3999998569489","","","23","16231","6325","w","elianto","#f73b6a7A"," "," ","1","0","[1710]","1","2","","","16231","66","3","3","lose","go","0"
"pit-trial","185","1229753","0.0-71.0","battery-v0.2","","""event"",""trial"",""time""
""fullscreenenter"",""1"",""2250""
""blur"",""19"",""218228""
""focus"",""19"",""219577""
","""event"",""trial"",""time""
""blur"",""19"",""218228""
","""event"",""trial"",""time""
""focus"",""19"",""219577""
","""event"",""trial"",""time""
""fullscreenenter"",""1"",""2250""
","
","","","-1","","","23","16231","6325","s","elianto","#3366ff99","-1","-1","1","+10","[]","0","2","","","16231","67","4","2","win","no-go","0"
"pit-trial","186","1234606","0.0-72.0","battery-v0.2","","""event"",""trial"",""time""
""fullscreenenter"",""1"",""2250""
""blur"",""19"",""218228""
""focus"",""19"",""219577""
","""event"",""trial"",""time""
""blur"",""19"",""218228""
","""event"",""trial"",""time""
""focus"",""19"",""219577""
","""event"",""trial"",""time""
""fullscreenenter"",""1"",""2250""
","
","","","-1","","","23","16231","6325","e","elianto","#f73b6a7A","-1","-1","1","0","[]","0","2","","","16231","68","2","4","lose","no-go","0"
"pit-trial","187","1238220","0.0-73.0","battery-v0.2","","""event"",""trial"",""time""
""fullscreenenter"",""1"",""2250""
""blur"",""19"",""218228""
""focus"",""19"",""219577""
","""event"",""trial"",""time""
""blur"",""19"",""218228""
","""event"",""trial"",""time""
""focus"",""19"",""219577""
","""event"",""trial"",""time""
""fullscreenenter"",""1"",""2250""
","
