"trial_type","trial_index","time_elapsed","internal_node_id","task_version","subject_id","interactions","blur_events","focus_events","fullscreenenter_events","fullscreenexit_events","success","view_history","rt","responses","num_errors","age","subject","participantId","rune","rune_set","hex","correct","choice","accuracy","outcome","keys","total_keys","block","practice","value","sub","trial","stimulus","robot","valence","action","sham"
"pavlovia","0","10","0.0-0.0","battery-v0.2","","""event"",""trial"",""time""
""fullscreenenter"",""1"",""2213""
","
","
","""event"",""trial"",""time""
""fullscreenenter"",""1"",""2213""
","
","","","","","","","","","","","","","","","","","","","","","","","","","","",""
"fullscreen","1","3195","0.0-1.0","battery-v0.2","","""event"",""trial"",""time""
""fullscreenenter"",""1"",""2213""
","
","
","""event"",""trial"",""time""
""fullscreenenter"",""1"",""2213""
","
","true","","","","","","","","","","","","","","","","","","","","","","","","","",""
"pit-instructions","2","6948","0.0-2.0-0.0","battery-v0.2","","""event"",""trial"",""time""
""fullscreenenter"",""1"",""2213""
","
","
","""event"",""trial"",""time""
""fullscreenenter"",""1"",""2213""
","
","","[{""page_index"":0,""viewing_time"":3748.800000011921}]","3749.300000011921","","","","","","","","","","","","","","","","","","","","","","","",""
"pit-comprehension","3","11710","0.0-2.0-1.0-0.0","battery-v0.2","","""event"",""trial"",""time""
""fullscreenenter"",""1"",""2213""
","
","
","""event"",""trial"",""time""
""fullscreenenter"",""1"",""2213""
","
","","","4756.800000011921","[""shark""]","0","19","10552","5055","","","","","","","","","","","","","","","","","","",""
"pit-instructions","4","14948","0.0-2.0-1.0-1.0","battery-v0.2","","""event"",""trial"",""time""
""fullscreenenter"",""1"",""2213""
","
","
","""event"",""trial"",""time""
""fullscreenenter"",""1"",""2213""
","
","","[{""page_index"":0,""viewing_time"":3224.7000000178814}]","3225.0999999940395","","","","","","","","","","","","","","","","","","","","","","","",""
"pit-comprehension","5","17285","0.0-2.0-2.0-0.0","battery-v0.2","","""event"",""trial"",""time""
""fullscreenenter"",""1"",""2213""
","
","
","""event"",""trial"",""time""
""fullscreenenter"",""1"",""2213""
","
","","","2333","[""tiger""]","0","19","10552","5055","","","","","","","","","","","","","","","","","","",""
"pit-instructions","6","18113","0.0-2.0-2.0-1.0","battery-v0.2","","""event"",""trial"",""time""
""fullscreenenter"",""1"",""2213""
","
","
","""event"",""trial"",""time""
""fullscreenenter"",""1"",""2213""
","
","","[{""page_index"":0,""viewing_time"":826}]","826.0999999940395","","","","","","","","","","","","","","","","","","","","","","","",""
"pit-instructions","7","115648","0.0-2.0-3.0","battery-v0.2","","""event"",""trial"",""time""
""fullscreenenter"",""1"",""2213""
","
","
","""event"",""trial"",""time""
""fullscreenenter"",""1"",""2213""
","
","","[{""page_index"":0,""viewing_time"":8031.200000017881},{""page_index"":1,""viewing_time"":6793.199999988079},{""page_index"":2,""viewing_time"":7537.5},{""page_index"":3,""viewing_time"":5596},{""page_index"":4,""viewing_time"":5692.5},{""page_index"":5,""viewing_time"":5780.800000011921},{""page_index"":6,""viewing_time"":6781.399999976158},{""page_index"":7,""viewing_time"":6198.300000011921},{""page_index"":8,""viewing_time"":6650.5999999940395},{""page_index"":9,""viewing_time"":8449.300000011921},{""page_index"":10,""viewing_time"":7241.5999999940395},{""page_index"":11,""viewing_time"":7390},{""page_index"":12,""viewing_time"":6018.5999999940395},{""page_index"":13,""viewing_time"":9370.300000011921}]","97531.80000001192","","","","","","","","","","","","","","","","","","","","","","","",""
"pit-trial","8","120205","0.0-2.0-4.0-0.0","battery-v0.2","","""event"",""trial"",""time""
""fullscreenenter"",""1"",""2213""
","
","
","""event"",""trial"",""time""
""fullscreenenter"",""1"",""2213""
","
","","","1668.699999988079","","","19","10552","5055","&#9784;","elianto","#FFFFF080"," "," ","1","&#10004","[819,2532.300000011921]","2","0","0","","","","","","","",""
"pit-trial","9","123536","0.0-2.0-4.1-0.1","battery-v0.2","","""event"",""trial"",""time""
""fullscreenenter"",""1"",""2213""
","
","
","""event"",""trial"",""time""
""fullscreenenter"",""1"",""2213""
","
","","","470.5","","","19","10552","5055","&#9784;","elianto","#FFFFF080"," "," ","1","&#10004","[1326.199999988079]","1","0","0","","","","","","","",""
"pit-trial","10","126875","0.0-2.0-4.2-0.2","battery-v0.2","","""event"",""trial"",""time""
""fullscreenenter"",""1"",""2213""
","
","
","""event"",""trial"",""time""
""fullscreenenter"",""1"",""2213""
","
","","","469.09999999403954","","","19","10552","5055","&#9784;","elianto","#FFFFF080"," "," ","1","&#10004","[1326.5]","1","0","0","","","","","","","",""
"pit-trial","11","130042","0.0-2.0-4.3-0.3","battery-v0.2","","""event"",""trial"",""time""
""fullscreenenter"",""1"",""2213""
","
","
","""event"",""trial"",""time""
""fullscreenenter"",""1"",""2213""
","
","","","301.5","","","19","10552","5055","&#9784;","elianto","#FFFFF080"," "," ","1","&#10004","[1156.300000011921]","1","0","0","","","","","","","",""
"pit-trial","12","133320","0.0-2.0-4.4-0.4","battery-v0.2","","""event"",""trial"",""time""
""fullscreenenter"",""1"",""2213""
","
","
","""event"",""trial"",""time""
""fullscreenenter"",""1"",""2213""
","
","","","411.19999998807907","","","19","10552","5055","&#9784;","elianto","#FFFFF080"," "," ","1","&#10004","[1262.300000011921]","1","0","0","","","","","","","",""
"pit-instructions","13","154018","0.0-2.0-5.0","battery-v0.2","","""event"",""trial"",""time""
""fullscreenenter"",""1"",""2213""
","
","
","""event"",""trial"",""time""
""fullscreenenter"",""1"",""2213""
","
","","[{""page_index"":0,""viewing_time"":4804.200000017881},{""page_index"":1,""viewing_time"":5699.199999988079},{""page_index"":2,""viewing_time"":4320.199999988079},{""page_index"":3,""viewing_time"":5870.100000023842}]","20694.20000001788","","","","","","","","","","","","","","","","","","","","","","","",""
"pit-trial","14","158886","0.0-2.0-6.0-0.0","battery-v0.2","","""event"",""trial"",""time""
""fullscreenenter"",""1"",""2213""
","
","
","""event"",""trial"",""time""
""fullscreenenter"",""1"",""2213""
","
","","","-1","","","19","10552","5055","&#9854;","elianto","#FFFFF080","-1","-1","1","&#10004","[]","0","0","1","","","","","","","",""
"pit-trial","15","163756","0.0-2.0-6.1-0.1","battery-v0.2","","""event"",""trial"",""time""
""fullscreenenter"",""1"",""2213""
","
","
","""event"",""trial"",""time""
""fullscreenenter"",""1"",""2213""
","
","","","-1","","","19","10552","5055","&#9854;","elianto","#FFFFF080","-1","-1","1","&#10004","[]","0","0","1","","","","","","","",""
"pit-trial","16","168645","0.0-2.0-6.2-0.2","battery-v0.2","","""event"",""trial"",""time""
""fullscreenenter"",""1"",""2213""
","
","
","""event"",""trial"",""time""
""fullscreenenter"",""1"",""2213""
","
","","","-1","","","19","10552","5055","&#9854;","elianto","#FFFFF080","-1","-1","1","&#10004","[]","0","0","1","","","","","","","",""
"pit-trial","17","173515","0.0-2.0-6.3-0.3","battery-v0.2","","""event"",""trial"",""time""
""fullscreenenter"",""1"",""2213""
","
","
","""event"",""trial"",""time""
""fullscreenenter"",""1"",""2213""
","
","","","-1","","","19","10552","5055","&#9854;","elianto","#FFFFF080","-1","-1","1","&#10004","[]","0","0","1","","","","","","","",""
"pit-trial","18","178375","0.0-2.0-6.4-0.4","battery-v0.2","","""event"",""trial"",""time""
""fullscreenenter"",""1"",""2213""
","
","
","""event"",""trial"",""time""
""fullscreenenter"",""1"",""2213""
","
","","","-1","","","19","10552","5055","&#9854;","elianto","#FFFFF080","-1","-1","1","&#10004","[]","0","0","1","","","","","","","",""
"pit-instructions","19","290748","0.0-2.0-7.0","battery-v0.2","","""event"",""trial"",""time""
""fullscreenenter"",""1"",""2213""
","
","
","""event"",""trial"",""time""
""fullscreenenter"",""1"",""2213""
","
","","[{""page_index"":0,""viewing_time"":5687.4000000059605},{""page_index"":1,""viewing_time"":6337.699999988079},{""page_index"":2,""viewing_time"":6073.4000000059605},{""page_index"":3,""viewing_time"":6250},{""page_index"":4,""viewing_time"":5270.4000000059605},{""page_index"":5,""viewing_time"":5249.199999988079},{""page_index"":6,""viewing_time"":4330.200000017881},{""page_index"":7,""viewing_time"":7820.5999999940395},{""page_index"":8,""viewing_time"":6400.5999999940395},{""page_index"":9,""viewing_time"":5778.800000011921},{""page_index"":10,""viewing_time"":6021},{""page_index"":11,""viewing_time"":4620.5},{""page_index"":12,""viewing_time"":6779},{""page_index"":13,""viewing_time"":6970.299999982119},{""page_index"":14,""viewing_time"":6909.4000000059605},{""page_index"":15,""viewing_time"":6919.5999999940395},{""page_index"":16,""viewing_time"":6950.800000011921},{""page_index"":17,""viewing_time"":8000.199999988079}]","112369.5","","","","","","","","","","","","","","","","","","","","","","","",""
"pit-trial","20","294175","0.0-2.0-8.0-0.0","battery-v0.2","","""event"",""trial"",""time""
""fullscreenenter"",""1"",""2213""
","
","
","""event"",""trial"",""time""
""fullscreenenter"",""1"",""2213""
","
","","","552.5999999940395","","","19","10552","5055","&#9776;","elianto","#3366ff99"," "," ","1","+10","[1415.0999999940395]","1","0","1","","","","","","","",""
"pit-trial","21","297555","0.0-2.0-8.0-1.0","battery-v0.2","","""event"",""trial"",""time""
""fullscreenenter"",""1"",""2213""
","
","
","""event"",""trial"",""time""
""fullscreenenter"",""1"",""2213""
","
","","","519.7000000178814","","","19","10552","5055","&#9776;","elianto","#3366ff99"," "," ","1","+10","[1371.5999999940395]","1","0","1","","","","","","","",""
"pit-trial","22","300906","0.0-2.0-8.0-2.0","battery-v0.2","","""event"",""trial"",""time""
""fullscreenenter"",""1"",""2213""
","
","
","""event"",""trial"",""time""
""fullscreenenter"",""1"",""2213""
","
","","","479.30000001192093","","","19","10552","5055","&#9776;","elianto","#3366ff99"," "," ","1","+10","[1335.7000000178814]","1","0","1","","","","","","","",""
"pit-trial","23","304286","0.0-2.0-8.0-3.0","battery-v0.2","","""event"",""trial"",""time""
""fullscreenenter"",""1"",""2213""
","
","
","""event"",""trial"",""time""
""fullscreenenter"",""1"",""2213""
","
","","","522.1999999880791","","","19","10552","5055","&#9776;","elianto","#3366ff99"," "," ","1","0","[1376.199999988079]","1","0","1","","","","","","","",""
"pit-trial","24","307615","0.0-2.0-8.0-4.0","battery-v0.2","","""event"",""trial"",""time""
""fullscreenenter"",""1"",""2213""
","
","
","""event"",""trial"",""time""
""fullscreenenter"",""1"",""2213""
","
","","","466.80000001192093","","","19","10552","5055","&#9776;","elianto","#3366ff99"," "," ","1","+10","[1326.1000000238419]","1","0","1","","","","","","","",""
"pit-trial","25","310896","0.0-2.0-8.1-0.1","battery-v0.2","","""event"",""trial"",""time""
""fullscreenenter"",""1"",""2213""
","
","
","""event"",""trial"",""time""
""fullscreenenter"",""1"",""2213""
","
","","","405","","","19","10552","5055","&#9776;","elianto","#3366ff99"," "," ","1","+10","[1268.0999999940395]","1","0","1","","","","","","","",""
"pit-trial","26","314195","0.0-2.0-8.1-1.1","battery-v0.2","","""event"",""trial"",""time""
""fullscreenenter"",""1"",""2213""
","
","
","""event"",""trial"",""time""
""fullscreenenter"",""1"",""2213""
","
","","","429","","","19","10552","5055","&#9776;","elianto","#3366ff99"," "," ","1","+10","[1280.300000011921]","1","0","1","","","","","","","",""
"pit-trial","27","317535","0.0-2.0-8.1-2.1","battery-v0.2","","""event"",""trial"",""time""
""fullscreenenter"",""1"",""2213""
","
","
","""event"",""trial"",""time""
""fullscreenenter"",""1"",""2213""
","
","","","474.7000000178814","","","19","10552","5055","&#9776;","elianto","#3366ff99"," "," ","1","+10","[1325.2999999821186]","1","0","1","","","","","","","",""
"pit-trial","28","320836","0.0-2.0-8.1-3.1","battery-v0.2","","""event"",""trial"",""time""
""fullscreenenter"",""1"",""2213""
","
","
","""event"",""trial"",""time""
""fullscreenenter"",""1"",""2213""
","
","","","438.69999998807907","","","19","10552","5055","&#9776;","elianto","#3366ff99"," "," ","1","0","[1296.9000000059605]","1","0","1","","","","","","","",""
"pit-trial","29","324075","0.0-2.0-8.1-4.1","battery-v0.2","","""event"",""trial"",""time""
""fullscreenenter"",""1"",""2213""
","
","
","""event"",""trial"",""time""
""fullscreenenter"",""1"",""2213""
","
","","","385.80000001192093","","","19","10552","5055","&#9776;","elianto","#3366ff99"," "," ","1","+10","[1236.0999999940395]","1","0","1","","","","","","","",""
"pit-trial","30","327307","0.0-2.0-8.2-0.2","battery-v0.2","","""event"",""trial"",""time""
""fullscreenenter"",""1"",""2213""
","
","
","""event"",""trial"",""time""
""fullscreenenter"",""1"",""2213""
","
","","","378.09999999403954","","","19","10552","5055","&#9776;","elianto","#3366ff99"," "," ","1","+10","[1229.2000000178814]","1","0","1","","","","","","","",""
"pit-trial","31","330600","0.0-2.0-8.2-1.2","battery-v0.2","","""event"",""trial"",""time""
""fullscreenenter"",""1"",""2213""
","
","
","""event"",""trial"",""time""
""fullscreenenter"",""1"",""2213""
","
","","","439.40000000596046","","","19","10552","5055","&#9776;","elianto","#3366ff99"," "," ","1","+10","[1290.2000000178814]","1","0","1","","","","","","","",""
"pit-trial","32","333723","0.0-2.0-8.2-2.2","battery-v0.2","","""event"",""trial"",""time""
""fullscreenenter"",""1"",""2213""
","
","
","""event"",""trial"",""time""
""fullscreenenter"",""1"",""2213""
","
","","","269.40000000596046","","","19","10552","5055","&#9776;","elianto","#3366ff99"," "," ","1","+10","[1120]","1","0","1","","","","","","","",""
"pit-trial","33","336904","0.0-2.0-8.2-3.2","battery-v0.2","","""event"",""trial"",""time""
""fullscreenenter"",""1"",""2213""
","
","
","""event"",""trial"",""time""
""fullscreenenter"",""1"",""2213""
","
","","","327.59999999403954","","","19","10552","5055","&#9776;","elianto","#3366ff99"," "," ","1","0","[1178]","1","0","1","","","","","","","",""
"pit-trial","34","340169","0.0-2.0-8.2-4.2","battery-v0.2","","""event"",""trial"",""time""
""fullscreenenter"",""1"",""2213""
","
","
","""event"",""trial"",""time""
""fullscreenenter"",""1"",""2213""
","
","","","409.7000000178814","","","19","10552","5055","&#9776;","elianto","#3366ff99"," "," ","1","+10","[1260.4000000059605]","1","0","1","","","","","","","",""
"call-function","35","340171","0.0-2.0-9.0","battery-v0.2","","""event"",""trial"",""time""
""fullscreenenter"",""1"",""2213""
","
","
","""event"",""trial"",""time""
""fullscreenenter"",""1"",""2213""
","
","","","","","","","","","","","","","","","","","","","","","","","","","","",""
"pit-instructions","36","378593","0.0-2.0-10.0","battery-v0.2","","""event"",""trial"",""time""
""fullscreenenter"",""1"",""2213""
","
","
","""event"",""trial"",""time""
""fullscreenenter"",""1"",""2213""
","
","","[{""page_index"":0,""viewing_time"":6010.5},{""page_index"":1,""viewing_time"":6501.0999999940395},{""page_index"":2,""viewing_time"":9107.5},{""page_index"":3,""viewing_time"":8862.700000017881},{""page_index"":4,""viewing_time"":7938.299999982119}]","38420.5","","","","","","","","","","","","","","","","","","","","","","","",""
"pit-trial","37","383471","0.0-2.0-11.0-0.0","battery-v0.2","","""event"",""trial"",""time""
""fullscreenenter"",""1"",""2213""
","
","
","""event"",""trial"",""time""
""fullscreenenter"",""1"",""2213""
","
","","","-1","","","19","10552","5055","&#9761;","elianto","#3366ff99","-1","-1","1","+10","[]","0","0","2","","","","","","","",""
"pit-trial","38","388340","0.0-2.0-11.0-1.0","battery-v0.2","","""event"",""trial"",""time""
""fullscreenenter"",""1"",""2213""
","
","
","""event"",""trial"",""time""
""fullscreenenter"",""1"",""2213""
","
","","","-1","","","19","10552","5055","&#9761;","elianto","#3366ff99","-1","-1","1","+10","[]","0","0","2","","","","","","","",""
"pit-trial","39","393231","0.0-2.0-11.0-2.0","battery-v0.2","","""event"",""trial"",""time""
""fullscreenenter"",""1"",""2213""
","
","
","""event"",""trial"",""time""
""fullscreenenter"",""1"",""2213""
","
","","","-1","","","19","10552","5055","&#9761;","elianto","#3366ff99","-1","-1","1","+10","[]","0","0","2","","","","","","","",""
"pit-trial","40","398110","0.0-2.0-11.0-3.0","battery-v0.2","","""event"",""trial"",""time""
""fullscreenenter"",""1"",""2213""
","
","
","""event"",""trial"",""time""
""fullscreenenter"",""1"",""2213""
","
","","","-1","","","19","10552","5055","&#9761;","elianto","#3366ff99","-1","-1","1","0","[]","0","0","2","","","","","","","",""
"pit-trial","41","403001","0.0-2.0-11.0-4.0","battery-v0.2","","""event"",""trial"",""time""
""fullscreenenter"",""1"",""2213""
","
","
","""event"",""trial"",""time""
""fullscreenenter"",""1"",""2213""
","
","","","-1","","","19","10552","5055","&#9761;","elianto","#3366ff99","-1","-1","1","+10","[]","0","0","2","","","","","","","",""
"pit-trial","42","407891","0.0-2.0-11.1-0.1","battery-v0.2","","""event"",""trial"",""time""
""fullscreenenter"",""1"",""2213""
","
","
","""event"",""trial"",""time""
""fullscreenenter"",""1"",""2213""
","
","","","-1","","","19","10552","5055","&#9761;","elianto","#3366ff99","-1","-1","1","+10","[]","0","0","2","","","","","","","",""
"pit-trial","43","412745","0.0-2.0-11.1-1.1","battery-v0.2","","""event"",""trial"",""time""
""fullscreenenter"",""1"",""2213""
","
","
","""event"",""trial"",""time""
""fullscreenenter"",""1"",""2213""
","
","","","-1","","","19","10552","5055","&#9761;","elianto","#3366ff99","-1","-1","1","+10","[]","0","0","2","","","","","","","",""
"pit-trial","44","417598","0.0-2.0-11.1-2.1","battery-v0.2","","""event"",""trial"",""time""
""fullscreenenter"",""1"",""2213""
","
","
","""event"",""trial"",""time""
""fullscreenenter"",""1"",""2213""
","
","","","-1","","","19","10552","5055","&#9761;","elianto","#3366ff99","-1","-1","1","+10","[]","0","0","2","","","","","","","",""
"pit-trial","45","422452","0.0-2.0-11.1-3.1","battery-v0.2","","""event"",""trial"",""time""
""fullscreenenter"",""1"",""2213""
","
","
","""event"",""trial"",""time""
""fullscreenenter"",""1"",""2213""
","
","","","-1","","","19","10552","5055","&#9761;","elianto","#3366ff99","-1","-1","1","0","[]","0","0","2","","","","","","","",""
"pit-trial","46","427306","0.0-2.0-11.1-4.1","battery-v0.2","","""event"",""trial"",""time""
""fullscreenenter"",""1"",""2213""
","
","
","""event"",""trial"",""time""
""fullscreenenter"",""1"",""2213""
","
","","","-1","","","19","10552","5055","&#9761;","elianto","#3366ff99","-1","-1","1","+10","[]","0","0","2","","","","","","","",""
"pit-trial","47","432161","0.0-2.0-11.2-0.2","battery-v0.2","","""event"",""trial"",""time""
""fullscreenenter"",""1"",""2213""
","
","
","""event"",""trial"",""time""
""fullscreenenter"",""1"",""2213""
","
","","","-1","","","19","10552","5055","&#9761;","elianto","#3366ff99","-1","-1","1","+10","[]","0","0","2","","","","","","","",""
"pit-trial","48","437016","0.0-2.0-11.2-1.2","battery-v0.2","","""event"",""trial"",""time""
""fullscreenenter"",""1"",""2213""
","
","
","""event"",""trial"",""time""
""fullscreenenter"",""1"",""2213""
","
","","","-1","","","19","10552","5055","&#9761;","elianto","#3366ff99","-1","-1","1","+10","[]","0","0","2","","","","","","","",""
"pit-trial","49","441870","0.0-2.0-11.2-2.2","battery-v0.2","","""event"",""trial"",""time""
""fullscreenenter"",""1"",""2213""
","
","
","""event"",""trial"",""time""
""fullscreenenter"",""1"",""2213""
","
","","","-1","","","19","10552","5055","&#9761;","elianto","#3366ff99","-1","-1","1","+10","[]","0","0","2","","","","","","","",""
"pit-trial","50","446724","0.0-2.0-11.2-3.2","battery-v0.2","","""event"",""trial"",""time""
""fullscreenenter"",""1"",""2213""
","
","
","""event"",""trial"",""time""
""fullscreenenter"",""1"",""2213""
","
","","","-1","","","19","10552","5055","&#9761;","elianto","#3366ff99","-1","-1","1","0","[]","0","0","2","","","","","","","",""
"pit-trial","51","451578","0.0-2.0-11.2-4.2","battery-v0.2","","""event"",""trial"",""time""
""fullscreenenter"",""1"",""2213""
","
","
","""event"",""trial"",""time""
""fullscreenenter"",""1"",""2213""
","
","","","-1","","","19","10552","5055","&#9761;","elianto","#3366ff99","-1","-1","1","+10","[]","0","0","2","","","","","","","",""
"pit-trial","52","456432","0.0-2.0-11.3-0.3","battery-v0.2","","""event"",""trial"",""time""
""fullscreenenter"",""1"",""2213""
","
","
","""event"",""trial"",""time""
""fullscreenenter"",""1"",""2213""
","
","","","-1","","","19","10552","5055","&#9761;","elianto","#3366ff99","-1","-1","1","+10","[]","0","0","2","","","","","","","",""
"pit-trial","53","461285","0.0-2.0-11.3-1.3","battery-v0.2","","""event"",""trial"",""time""
""fullscreenenter"",""1"",""2213""
","
","
","""event"",""trial"",""time""
""fullscreenenter"",""1"",""2213""
","
","","","-1","","","19","10552","5055","&#9761;","elianto","#3366ff99","-1","-1","1","+10","[]","0","0","2","","","","","","","",""
"pit-trial","54","466140","0.0-2.0-11.3-2.3","battery-v0.2","","""event"",""trial"",""time""
""fullscreenenter"",""1"",""2213""
","
","
","""event"",""trial"",""time""
""fullscreenenter"",""1"",""2213""
","
","","","-1","","","19","10552","5055","&#9761;","elianto","#3366ff99","-1","-1","1","+10","[]","0","0","2","","","","","","","",""
"pit-trial","55","470994","0.0-2.0-11.3-3.3","battery-v0.2","","""event"",""trial"",""time""
""fullscreenenter"",""1"",""2213""
","
","
","""event"",""trial"",""time""
""fullscreenenter"",""1"",""2213""
","
","","","-1","","","19","10552","5055","&#9761;","elianto","#3366ff99","-1","-1","1","0","[]","0","0","2","","","","","","","",""
"pit-trial","56","475848","0.0-2.0-11.3-4.3","battery-v0.2","","""event"",""trial"",""time""
""fullscreenenter"",""1"",""2213""
","
","
","""event"",""trial"",""time""
""fullscreenenter"",""1"",""2213""
","
","","","-1","","","19","10552","5055","&#9761;","elianto","#3366ff99","-1","-1","1","+10","[]","0","0","2","","","","","","","",""
"call-function","57","475850","0.0-2.0-12.0","battery-v0.2","","""event"",""trial"",""time""
""fullscreenenter"",""1"",""2213""
","
","
","""event"",""trial"",""time""
""fullscreenenter"",""1"",""2213""
","
","","","","","","","","","","","","","","","","","","","","","","","","","","",""
"pit-instructions","58","515380","0.0-2.0-13.0","battery-v0.2","","""event"",""trial"",""time""
""fullscreenenter"",""1"",""2213""
","
","
","""event"",""trial"",""time""
""fullscreenenter"",""1"",""2213""
","
","","[{""page_index"":0,""viewing_time"":6962.200000017881},{""page_index"":1,""viewing_time"":9550},{""page_index"":2,""viewing_time"":4621.5},{""page_index"":3,""viewing_time"":11659.59999999404},{""page_index"":4,""viewing_time"":6738.9000000059605}]","39532.70000001788","","","","","","","","","","","","","","","","","","","","","","","",""
"pit-trial","59","518938","0.0-2.0-14.0-0.0","battery-v0.2","","""event"",""trial"",""time""
""fullscreenenter"",""1"",""2213""
","
","
","""event"",""trial"",""time""
""fullscreenenter"",""1"",""2213""
","
","","","690.4000000059605","","","19","10552","5055","&#9826;","elianto","#f73b6a7A","-1"," ","0","-10","[1545.199999988079]","1","0","3","","","","","","","",""
"pit-trial","60","523828","0.0-2.0-14.0-1.0","battery-v0.2","","""event"",""trial"",""time""
""fullscreenenter"",""1"",""2213""
","
","
","""event"",""trial"",""time""
""fullscreenenter"",""1"",""2213""
","
","","","-1","","","19","10552","5055","&#9826;","elianto","#f73b6a7A","-1","-1","1","0","[]","0","0","3","","","","","","","",""
"pit-trial","61","528718","0.0-2.0-14.0-2.0","battery-v0.2","","""event"",""trial"",""time""
""fullscreenenter"",""1"",""2213""
","
","
","""event"",""trial"",""time""
""fullscreenenter"",""1"",""2213""
","
","","","-1","","","19","10552","5055","&#9826;","elianto","#f73b6a7A","-1","-1","1","0","[]","0","0","3","","","","","","","",""
"pit-trial","62","533583","0.0-2.0-14.0-3.0","battery-v0.2","","""event"",""trial"",""time""
""fullscreenenter"",""1"",""2213""
","
","
","""event"",""trial"",""time""
""fullscreenenter"",""1"",""2213""
","
","","","-1","","","19","10552","5055","&#9826;","elianto","#f73b6a7A","-1","-1","1","-10","[]","0","0","3","","","","","","","",""
"pit-trial","63","538457","0.0-2.0-14.0-4.0","battery-v0.2","","""event"",""trial"",""time""
""fullscreenenter"",""1"",""2213""
","
","
","""event"",""trial"",""time""
""fullscreenenter"",""1"",""2213""
","
","","","-1","","","19","10552","5055","&#9826;","elianto","#f73b6a7A","-1","-1","1","0","[]","0","0","3","","","","","","","",""
"pit-trial","64","543338","0.0-2.0-14.1-0.1","battery-v0.2","","""event"",""trial"",""time""
""fullscreenenter"",""1"",""2213""
","
","
","""event"",""trial"",""time""
""fullscreenenter"",""1"",""2213""
","
","","","-1","","","19","10552","5055","&#9826;","elianto","#f73b6a7A","-1","-1","1","0","[]","0","0","3","","","","","","","",""
"pit-trial","65","548192","0.0-2.0-14.1-1.1","battery-v0.2","","""event"",""trial"",""time""
""fullscreenenter"",""1"",""2213""
","
","
","""event"",""trial"",""time""
""fullscreenenter"",""1"",""2213""
","
","","","-1","","","19","10552","5055","&#9826;","elianto","#f73b6a7A","-1","-1","1","0","[]","0","0","3","","","","","","","",""
"pit-trial","66","553047","0.0-2.0-14.1-2.1","battery-v0.2","","""event"",""trial"",""time""
""fullscreenenter"",""1"",""2213""
","
","
","""event"",""trial"",""time""
""fullscreenenter"",""1"",""2213""
","
","","","-1","","","19","10552","5055","&#9826;","elianto","#f73b6a7A","-1","-1","1","0","[]","0","0","3","","","","","","","",""
"pit-trial","67","557901","0.0-2.0-14.1-3.1","battery-v0.2","","""event"",""trial"",""time""
""fullscreenenter"",""1"",""2213""
","
","
","""event"",""trial"",""time""
""fullscreenenter"",""1"",""2213""
","
","","","-1","","","19","10552","5055","&#9826;","elianto","#f73b6a7A","-1","-1","1","-10","[]","0","0","3","","","","","","","",""
"pit-trial","68","562754","0.0-2.0-14.1-4.1","battery-v0.2","","""event"",""trial"",""time""
""fullscreenenter"",""1"",""2213""
","
","
","""event"",""trial"",""time""
""fullscreenenter"",""1"",""2213""
","
","","","-1","","","19","10552","5055","&#9826;","elianto","#f73b6a7A","-1","-1","1","0","[]","0","0","3","","","","","","","",""
"pit-trial","69","567609","0.0-2.0-14.2-0.2","battery-v0.2","","""event"",""trial"",""time""
""fullscreenenter"",""1"",""2213""
","
","
","""event"",""trial"",""time""
""fullscreenenter"",""1"",""2213""
","
","","","-1","","","19","10552","5055","&#9826;","elianto","#f73b6a7A","-1","-1","1","0","[]","0","0","3","","","","","","","",""
"pit-trial","70","572464","0.0-2.0-14.2-1.2","battery-v0.2","","""event"",""trial"",""time""
""fullscreenenter"",""1"",""2213""
","
","
","""event"",""trial"",""time""
""fullscreenenter"",""1"",""2213""
","
","","","-1","","","19","10552","5055","&#9826;","elianto","#f73b6a7A","-1","-1","1","0","[]","0","0","3","","","","","","","",""
"pit-trial","71","577322","0.0-2.0-14.2-2.2","battery-v0.2","","""event"",""trial"",""time""
""fullscreenenter"",""1"",""2213""
","
","
","""event"",""trial"",""time""
""fullscreenenter"",""1"",""2213""
","
","","","-1","","","19","10552","5055","&#9826;","elianto","#f73b6a7A","-1","-1","1","0","[]","0","0","3","","","","","","","",""
"pit-trial","72","582176","0.0-2.0-14.2-3.2","battery-v0.2","","""event"",""trial"",""time""
""fullscreenenter"",""1"",""2213""
","
","
","""event"",""trial"",""time""
""fullscreenenter"",""1"",""2213""
","
","","","-1","","","19","10552","5055","&#9826;","elianto","#f73b6a7A","-1","-1","1","-10","[]","0","0","3","","","","","","","",""
"pit-trial","73","587030","0.0-2.0-14.2-4.2","battery-v0.2","","""event"",""trial"",""time""
""fullscreenenter"",""1"",""2213""
","
","
","""event"",""trial"",""time""
""fullscreenenter"",""1"",""2213""
","
","","","-1","","","19","10552","5055","&#9826;","elianto","#f73b6a7A","-1","-1","1","0","[]","0","0","3","","","","","","","",""
"pit-trial","74","591894","0.0-2.0-14.3-0.3","battery-v0.2","","""event"",""trial"",""time""
""fullscreenenter"",""1"",""2213""
","
","
","""event"",""trial"",""time""
""fullscreenenter"",""1"",""2213""
","
","","","-1","","","19","10552","5055","&#9826;","elianto","#f73b6a7A","-1","-1","1","0","[]","0","0","3","","","","","","","",""
"pit-trial","75","596748","0.0-2.0-14.3-1.3","battery-v0.2","","""event"",""trial"",""time""
""fullscreenenter"",""1"",""2213""
","
","
","""event"",""trial"",""time""
""fullscreenenter"",""1"",""2213""
","
","","","-1","","","19","10552","5055","&#9826;","elianto","#f73b6a7A","-1","-1","1","0","[]","0","0","3","","","","","","","",""
"pit-trial","76","601602","0.0-2.0-14.3-2.3","battery-v0.2","","""event"",""trial"",""time""
""fullscreenenter"",""1"",""2213""
","
","
","""event"",""trial"",""time""
""fullscreenenter"",""1"",""2213""
","
","","","-1","","","19","10552","5055","&#9826;","elianto","#f73b6a7A","-1","-1","1","0","[]","0","0","3","","","","","","","",""
"pit-trial","77","606456","0.0-2.0-14.3-3.3","battery-v0.2","","""event"",""trial"",""time""
""fullscreenenter"",""1"",""2213""
","
","
","""event"",""trial"",""time""
""fullscreenenter"",""1"",""2213""
","
","","","-1","","","19","10552","5055","&#9826;","elianto","#f73b6a7A","-1","-1","1","-10","[]","0","0","3","","","","","","","",""
"pit-trial","78","611310","0.0-2.0-14.3-4.3","battery-v0.2","","""event"",""trial"",""time""
""fullscreenenter"",""1"",""2213""
","
","
","""event"",""trial"",""time""
""fullscreenenter"",""1"",""2213""
","
","","","-1","","","19","10552","5055","&#9826;","elianto","#f73b6a7A","-1","-1","1","0","[]","0","0","3","","","","","","","",""
"call-function","79","611312","0.0-2.0-15.0","battery-v0.2","","""event"",""trial"",""time""
""fullscreenenter"",""1"",""2213""
","
","
","""event"",""trial"",""time""
""fullscreenenter"",""1"",""2213""
","
","","","","","","","","","","","","","","","","","","","","","","","","","","",""
"pit-instructions","80","636780","0.0-2.0-16.0","battery-v0.2","","""event"",""trial"",""time""
""fullscreenenter"",""1"",""2213""
","
","
","""event"",""trial"",""time""
""fullscreenenter"",""1"",""2213""
","
","","[{""page_index"":0,""viewing_time"":7134.899999976158},{""page_index"":1,""viewing_time"":8019.700000017881},{""page_index"":2,""viewing_time"":4820.5999999940395},{""page_index"":3,""viewing_time"":5491.5}]","25467.19999998808","","","","","","","","","","","","","","","","","","","","","","","",""
"pit-trial","81","641656","0.0-2.0-17.0-0.0","battery-v0.2","","""event"",""trial"",""time""
""fullscreenenter"",""1"",""2213""
","
","
","""event"",""trial"",""time""
""fullscreenenter"",""1"",""2213""
","
","","","-1","","","19","10552","5055","&#9789;","elianto","#f73b6a7A"," ","-1","0","-10","[]","0","0","4","","","","","","","",""
"pit-trial","82","644906","0.0-2.0-17.0-1.0","battery-v0.2","","""event"",""trial"",""time""
""fullscreenenter"",""1"",""2213""
","
","
","""event"",""trial"",""time""
""fullscreenenter"",""1"",""2213""
","
","","","387.5","","","19","10552","5055","&#9789;","elianto","#f73b6a7A"," "," ","1","0","[1244.2000000178814]","1","0","4","","","","","","","",""
"pit-trial","83","648376","0.0-2.0-17.0-2.0","battery-v0.2","","""event"",""trial"",""time""
""fullscreenenter"",""1"",""2213""
","
","
","""event"",""trial"",""time""
""fullscreenenter"",""1"",""2213""
","
","","","594.7999999821186","","","19","10552","5055","&#9789;","elianto","#f73b6a7A"," "," ","1","0","[1451.0999999940395]","1","0","4","","","","","","","",""
"pit-trial","84","651726","0.0-2.0-17.0-3.0","battery-v0.2","","""event"",""trial"",""time""
""fullscreenenter"",""1"",""2213""
","
","
","""event"",""trial"",""time""
""fullscreenenter"",""1"",""2213""
","
","","","476.69999998807907","","","19","10552","5055","&#9789;","elianto","#f73b6a7A"," "," ","1","-10","[1329.5]","1","0","4","","","","","","","",""
"pit-trial","85","656605","0.0-2.0-17.0-4.0","battery-v0.2","","""event"",""trial"",""time""
""fullscreenenter"",""1"",""2213""
","
","
","""event"",""trial"",""time""
""fullscreenenter"",""1"",""2213""
","
","","","-1","","","19","10552","5055","&#9789;","elianto","#f73b6a7A"," ","-1","0","-10","[]","0","0","4","","","","","","","",""
"pit-trial","86","659916","0.0-2.0-17.1-0.1","battery-v0.2","","""event"",""trial"",""time""
""fullscreenenter"",""1"",""2213""
","
","
","""event"",""trial"",""time""
""fullscreenenter"",""1"",""2213""
","
","","","445.2999999821186","","","19","10552","5055","&#9789;","elianto","#f73b6a7A"," "," ","1","0","[1301]","1","0","4","","","","","","","",""
"pit-trial","87","663115","0.0-2.0-17.1-1.1","battery-v0.2","","""event"",""trial"",""time""
""fullscreenenter"",""1"",""2213""
","
","
","""event"",""trial"",""time""
""fullscreenenter"",""1"",""2213""
","
","","","344.39999997615814","","","19","10552","5055","&#9789;","elianto","#f73b6a7A"," "," ","1","0","[1195.199999988079]","1","0","4","","","","","","","",""
"pit-trial","88","666217","0.0-2.0-17.1-2.1","battery-v0.2","","""event"",""trial"",""time""
""fullscreenenter"",""1"",""2213""
","
","
","""event"",""trial"",""time""
""fullscreenenter"",""1"",""2213""
","
","","","232","","","19","10552","5055","&#9789;","elianto","#f73b6a7A"," "," ","1","0","[1098]","1","0","4","","","","","","","",""
"pit-trial","89","669391","0.0-2.0-17.1-3.1","battery-v0.2","","""event"",""trial"",""time""
""fullscreenenter"",""1"",""2213""
","
","
","""event"",""trial"",""time""
""fullscreenenter"",""1"",""2213""
","
","","","319.7999999821186","","","19","10552","5055","&#9789;","elianto","#f73b6a7A"," "," ","1","-10","[1170.800000011921]","1","0","4","","","","","","","",""
"pit-trial","90","673242","0.0-2.0-17.1-4.1","battery-v0.2","","""event"",""trial"",""time""
""fullscreenenter"",""1"",""2213""
","
","
","""event"",""trial"",""time""
""fullscreenenter"",""1"",""2213""
","
","","","998.5","","","19","10552","5055","&#9789;","elianto","#f73b6a7A"," "," ","1","0","[1848.7000000178814]","1","0","4","","","","","","","",""
"pit-trial","91","676650","0.0-2.0-17.2-0.2","battery-v0.2","","""event"",""trial"",""time""
""fullscreenenter"",""1"",""2213""
","
","
","""event"",""trial"",""time""
""fullscreenenter"",""1"",""2213""
","
","","","553.9000000059605","","","19","10552","5055","&#9789;","elianto","#f73b6a7A"," "," ","1","0","[1404.7000000178814]","1","0","4","","","","","","","",""
"pit-trial","92","681504","0.0-2.0-17.2-1.2","battery-v0.2","","""event"",""trial"",""time""
""fullscreenenter"",""1"",""2213""
","
","
","""event"",""trial"",""time""
""fullscreenenter"",""1"",""2213""
","
","","","-1","","","19","10552","5055","&#9789;","elianto","#f73b6a7A"," ","-1","0","-10","[]","0","0","4","","","","","","","",""
"pit-trial","93","685130","0.0-2.0-17.2-2.2","battery-v0.2","","""event"",""trial"",""time""
""fullscreenenter"",""1"",""2213""
","
","
","""event"",""trial"",""time""
""fullscreenenter"",""1"",""2213""
","
","","","763.6999999880791","","","19","10552","5055","&#9789;","elianto","#f73b6a7A"," "," ","1","0","[1614.199999988079]","1","0","4","","","","","","","",""
"pit-trial","94","689983","0.0-2.0-17.2-3.2","battery-v0.2","","""event"",""trial"",""time""
""fullscreenenter"",""1"",""2213""
","
","
","""event"",""trial"",""time""
""fullscreenenter"",""1"",""2213""
","
","","","-1","","","19","10552","5055","&#9789;","elianto","#f73b6a7A"," ","-1","0","0","[]","0","0","4","","","","","","","",""
"pit-trial","95","694838","0.0-2.0-17.2-4.2","battery-v0.2","","""event"",""trial"",""time""
""fullscreenenter"",""1"",""2213""
","
","
","""event"",""trial"",""time""
""fullscreenenter"",""1"",""2213""
","
","","","-1","","","19","10552","5055","&#9789;","elianto","#f73b6a7A"," ","-1","0","-10","[]","0","0","4","","","","","","","",""
"pit-trial","96","699692","0.0-2.0-17.3-0.3","battery-v0.2","","""event"",""trial"",""time""
""fullscreenenter"",""1"",""2213""
","
","
","""event"",""trial"",""time""
""fullscreenenter"",""1"",""2213""
","
","","","-1","","","19","10552","5055","&#9789;","elianto","#f73b6a7A"," ","-1","0","-10","[]","0","0","4","","","","","","","",""
"pit-trial","97","704546","0.0-2.0-17.3-1.3","battery-v0.2","","""event"",""trial"",""time""
""fullscreenenter"",""1"",""2213""
","
","
","""event"",""trial"",""time""
""fullscreenenter"",""1"",""2213""
","
","","","-1","","","19","10552","5055","&#9789;","elianto","#f73b6a7A"," ","-1","0","-10","[]","0","0","4","","","","","","","",""
"pit-trial","98","709400","0.0-2.0-17.3-2.3","battery-v0.2","","""event"",""trial"",""time""
""fullscreenenter"",""1"",""2213""
","
","
","""event"",""trial"",""time""
""fullscreenenter"",""1"",""2213""
","
","","","-1","","","19","10552","5055","&#9789;","elianto","#f73b6a7A"," ","-1","0","-10","[]","0","0","4","","","","","","","",""
"pit-trial","99","714256","0.0-2.0-17.3-3.3","battery-v0.2","","""event"",""trial"",""time""
""fullscreenenter"",""1"",""2213""
","
","
","""event"",""trial"",""time""
""fullscreenenter"",""1"",""2213""
","
","","","-1","","","19","10552","5055","&#9789;","elianto","#f73b6a7A"," ","-1","0","0","[]","0","0","4","","","","","","","",""
"pit-trial","100","719110","0.0-2.0-17.3-4.3","battery-v0.2","","""event"",""trial"",""time""
""fullscreenenter"",""1"",""2213""
","
","
","""event"",""trial"",""time""
""fullscreenenter"",""1"",""2213""
","
","","","-1","","","19","10552","5055","&#9789;","elianto","#f73b6a7A"," ","-1","0","-10","[]","0","0","4","","","","","","","",""
"call-function","101","719113","0.0-2.0-18.0","battery-v0.2","","""event"",""trial"",""time""
""fullscreenenter"",""1"",""2213""
","
","
","""event"",""trial"",""time""
""fullscreenenter"",""1"",""2213""
","
","","","","","","","","","","","","","","","","","","","","","","","","","","",""
"pit-instructions","102","814325","0.0-2.0-19.0","battery-v0.2","","""event"",""trial"",""time""
""fullscreenenter"",""1"",""2213""
","
","
","""event"",""trial"",""time""
""fullscreenenter"",""1"",""2213""
","
","","[{""page_index"":0,""viewing_time"":13039.40000000596},{""page_index"":1,""viewing_time"":6197.9000000059605},{""page_index"":2,""viewing_time"":19230.69999998808},{""page_index"":3,""viewing_time"":9799.700000017881},{""page_index"":4,""viewing_time"":12499.699999988079},{""page_index"":5,""viewing_time"":8450.59999999404},{""page_index"":6,""viewing_time"":9629.300000011921},{""page_index"":7,""viewing_time"":9070.799999982119},{""page_index"":8,""viewing_time"":7299.100000023842}]","95217.59999999404","","","","","","","","","","","","","","","","","","","","","","","",""
"pit-comprehension","103","824714","0.0-2.0-20.0-0.0","battery-v0.2","","""event"",""trial"",""time""
""fullscreenenter"",""1"",""2213""
","
","
","""event"",""trial"",""time""
""fullscreenenter"",""1"",""2213""
","
","","","10377.5","[""SPACE""]","0","19","10552","5055","","","","","","","","","","","","","","","","","","",""
"pit-instructions","104","828712","0.0-2.0-20.0-1.0","battery-v0.2","","""event"",""trial"",""time""
""fullscreenenter"",""1"",""2213""
","
","
","""event"",""trial"",""time""
""fullscreenenter"",""1"",""2213""
","
","","[{""page_index"":0,""viewing_time"":3964.699999988079}]","3965","","","","","","","","","","","","","","","","","","","","","","","",""
"pit-comprehension","105","836112","0.0-2.0-21.0-0.0","battery-v0.2","","""event"",""trial"",""time""
""fullscreenenter"",""1"",""2213""
","
","
","""event"",""trial"",""time""
""fullscreenenter"",""1"",""2213""
","
","","","7395.9000000059605","[""10""]","0","19","10552","5055","","","","","","","","","","","","","","","","","","",""
"pit-instructions","106","838422","0.0-2.0-21.0-1.0","battery-v0.2","","""event"",""trial"",""time""
""fullscreenenter"",""1"",""2213""
","
","
","""event"",""trial"",""time""
""fullscreenenter"",""1"",""2213""
","
","","[{""page_index"":0,""viewing_time"":2280.300000011921}]","2280.7000000178814","","","","","","","","","","","","","","","","","","","","","","","",""
"pit-comprehension","107","845065","0.0-2.0-22.0-0.0","battery-v0.2","","""event"",""trial"",""time""
""fullscreenenter"",""1"",""2213""
","
","
","""event"",""trial"",""time""
""fullscreenenter"",""1"",""2213""
","
","","","6638.399999976158","[""0""]","0","19","10552","5055","","","","","","","","","","","","","","","","","","",""
"pit-instructions","108","847793","0.0-2.0-22.0-1.0","battery-v0.2","","""event"",""trial"",""time""
""fullscreenenter"",""1"",""2213""
","
","
","""event"",""trial"",""time""
""fullscreenenter"",""1"",""2213""
","
","","[{""page_index"":0,""viewing_time"":2699.4000000059605}]","2699.800000011921","","","","","","","","","","","","","","","","","","","","","","","",""
"pit-comprehension","109","857512","0.0-2.0-23.0-0.0","battery-v0.2","","""event"",""trial"",""time""
""fullscreenenter"",""1"",""2213""
","
","
","""event"",""trial"",""time""
""fullscreenenter"",""1"",""2213""
","
","","","9715.59999999404","[""False""]","1","19","10552","5055","","","","","","","","","","","","","","","","","","",""
"pit-instructions","110","864852","0.0-2.0-23.0-1.0","battery-v0.2","","""event"",""trial"",""time""
""fullscreenenter"",""1"",""2213""
","
","
","""event"",""trial"",""time""
""fullscreenenter"",""1"",""2213""
","
","","[{""page_index"":0,""viewing_time"":7312.100000023842}]","7312.600000023842","","","","","","","","","","","","","","","","","","","","","","","",""
"pit-instructions","111","866133","0.0-2.0-23.0-2.0-0.0","battery-v0.2","","""event"",""trial"",""time""
""fullscreenenter"",""1"",""2213""
","
","
","""event"",""trial"",""time""
""fullscreenenter"",""1"",""2213""
","
","","[{""page_index"":0,""viewing_time"":1277.7999999821186}]","1278.199999988079","","","","","","","","","","","","","","","","","","","","","","","",""
"pit-comprehension","112","874733","0.0-2.0-23.1-0.1","battery-v0.2","","""event"",""trial"",""time""
""fullscreenenter"",""1"",""2213""
","
","
","""event"",""trial"",""time""
""fullscreenenter"",""1"",""2213""
","
","","","8596.90000000596","[""True""]","0","19","10552","5055","","","","","","","","","","","","","","","","","","",""
"pit-instructions","113","878332","0.0-2.0-23.1-1.1","battery-v0.2","","""event"",""trial"",""time""
""fullscreenenter"",""1"",""2213""
","
","
","""event"",""trial"",""time""
""fullscreenenter"",""1"",""2213""
","
","","[{""page_index"":0,""viewing_time"":3569.7999999821186}]","3570.2999999821186","","","","","","","","","","","","","","","","","","","","","","","",""
"pit-comprehension","114","885742","0.0-2.0-24.0-0.0","battery-v0.2","","""event"",""trial"",""time""
""fullscreenenter"",""1"",""2213""
","
","
","""event"",""trial"",""time""
""fullscreenenter"",""1"",""2213""
","
","","","7406.300000011921","[""True""]","0","19","10552","5055","","","","","","","","","","","","","","","","","","",""
"pit-instructions","115","887651","0.0-2.0-24.0-1.0","battery-v0.2","","""event"",""trial"",""time""
""fullscreenenter"",""1"",""2213""
","
","
","""event"",""trial"",""time""
""fullscreenenter"",""1"",""2213""
","
","","[{""page_index"":0,""viewing_time"":1876.699999988079}]","1877","","","","","","","","","","","","","","","","","","","","","","","",""
"pit-comprehension","116","893679","0.0-2.0-25.0-0.0","battery-v0.2","","""event"",""trial"",""time""
""fullscreenenter"",""1"",""2213""
","
","
","""event"",""trial"",""time""
""fullscreenenter"",""1"",""2213""
","
","","","6023.699999988079","[""True""]","0","19","10552","5055","","","","","","","","","","","","","","","","","","",""
"pit-instructions","117","895132","0.0-2.0-25.0-1.0","battery-v0.2","","""event"",""trial"",""time""
""fullscreenenter"",""1"",""2213""
","
","
","""event"",""trial"",""time""
""fullscreenenter"",""1"",""2213""
","
","","[{""page_index"":0,""viewing_time"":1424.4000000059605}]","1424.800000011921","","","","","","","","","","","","","","","","","","","","","","","",""
"pit-comprehension","118","902411","0.0-2.0-26.0-0.0","battery-v0.2","","""event"",""trial"",""time""
""fullscreenenter"",""1"",""2213""
","
","
","""event"",""trial"",""time""
""fullscreenenter"",""1"",""2213""
","
","","","7275.300000011921","[""True""]","1","19","10552","5055","","","","","","","","","","","","","","","","","","",""
"pit-instructions","119","916532","0.0-2.0-26.0-1.0","battery-v0.2","","""event"",""trial"",""time""
""fullscreenenter"",""1"",""2213""
","
","
","""event"",""trial"",""time""
""fullscreenenter"",""1"",""2213""
","
","","[{""page_index"":0,""viewing_time"":14089.59999999404}]","14090.09999999404","","","","","","","","","","","","","","","","","","","","","","","",""
"pit-instructions","120","917831","0.0-2.0-26.0-2.0-0.0","battery-v0.2","","""event"",""trial"",""time""
""fullscreenenter"",""1"",""2213""
","
","
","""event"",""trial"",""time""
""fullscreenenter"",""1"",""2213""
","
","","[{""page_index"":0,""viewing_time"":1296}]","1296.5","","","","","","","","","","","","","","","","","","","","","","","",""
"pit-comprehension","121","923134","0.0-2.0-26.1-0.1","battery-v0.2","","""event"",""trial"",""time""
""fullscreenenter"",""1"",""2213""
","
","
","""event"",""trial"",""time""
""fullscreenenter"",""1"",""2213""
","
","","","5299.4000000059605","[""False""]","0","19","10552","5055","","","","","","","","","","","","","","","","","","",""
"pit-instructions","122","925221","0.0-2.0-26.1-1.1","battery-v0.2","","""event"",""trial"",""time""
""fullscreenenter"",""1"",""2213""
","
","
","""event"",""trial"",""time""
""fullscreenenter"",""1"",""2213""
","
","","[{""page_index"":0,""viewing_time"":2056.9000000059605}]","2057.199999988079","","","","","","","","","","","","","","","","","","","","","","","",""
"pit-instructions","123","948232","0.0-3.0","battery-v0.2","","""event"",""trial"",""time""
""fullscreenenter"",""1"",""2213""
","
","
","""event"",""trial"",""time""
""fullscreenenter"",""1"",""2213""
","
","","[{""page_index"":0,""viewing_time"":8776.799999982119},{""page_index"":1,""viewing_time"":7600.4000000059605},{""page_index"":2,""viewing_time"":6630.0999999940395}]","23007.69999998808","","","","","","","","","","","","","","","","","","","","","","","",""
"pit-trial","124","951769","0.0-4.0","battery-v0.2","","""event"",""trial"",""time""
""fullscreenenter"",""1"",""2213""
","
","
","""event"",""trial"",""time""
""fullscreenenter"",""1"",""2213""
","
","","","659.7000000178814","","","19","10552","5055","&#9733;","elianto","#3366ff99","-1"," ","0","0","[1524.7000000178814]","1","1","","","10552","1","2","2","win","no-go","0"
"pit-trial","125","955180","0.0-5.0","battery-v0.2","","""event"",""trial"",""time""
""fullscreenenter"",""1"",""2213""
","
","
","""event"",""trial"",""time""
""fullscreenenter"",""1"",""2213""
","
","","","542.7999999821186","","","19","10552","5055","&#9728;","elianto","#f73b6a7A","-1"," ","0","-10","[1402.2999999821186]","1","1","","","10552","2","0","4","lose","no-go","0"
"pit-trial","126","958819","0.0-6.0","battery-v0.2","","""event"",""trial"",""time""
""fullscreenenter"",""1"",""2213""
","
","
","""event"",""trial"",""time""
""fullscreenenter"",""1"",""2213""
","
","","","783.8000000119209","","","19","10552","5055","&#9752;","elianto","#f73b6a7A"," "," ","1","0","[1635.300000011921]","1","1","","","10552","3","3","3","lose","go","0"
"pit-trial","127","962414","0.0-7.0","battery-v0.2","","""event"",""trial"",""time""
""fullscreenenter"",""1"",""2213""
","
","
","""event"",""trial"",""time""
""fullscreenenter"",""1"",""2213""
","
","","","714.0999999940395","","","19","10552","5055","&#9730;","elianto","#3366ff99"," "," ","1","+10","[1576]","1","1","","","10552","4","1","1","win","go","0"
"pit-trial","128","965960","0.0-8.0","battery-v0.2","","""event"",""trial"",""time""
""fullscreenenter"",""1"",""2213""
","
","
","""event"",""trial"",""time""
""fullscreenenter"",""1"",""2213""
","
","","","679.5999999940395","","","19","10552","5055","&#9733;","elianto","#3366ff99","-1"," ","0","0","[1531.699999988079]","1","1","","","10552","5","2","2","win","no-go","0"
"pit-trial","129","970849","0.0-9.0","battery-v0.2","","""event"",""trial"",""time""
""fullscreenenter"",""1"",""2213""
","
","
","""event"",""trial"",""time""
""fullscreenenter"",""1"",""2213""
","
","","","-1","","","19","10552","5055","&#9752;","elianto","#f73b6a7A"," ","-1","0","-10","[]","0","1","","","10552","6","3","3","lose","go","0"
"pit-trial","130","974479","0.0-10.0","battery-v0.2","","""event"",""trial"",""time""
""fullscreenenter"",""1"",""2213""
","
","
","""event"",""trial"",""time""
""fullscreenenter"",""1"",""2213""
","
","","","770.4000000059605","","","19","10552","5055","&#9728;","elianto","#f73b6a7A","-1"," ","0","-10","[1620.3999999761581]","1","1","","","10552","7","0","4","lose","no-go","0"
"pit-trial","131","978059","0.0-11.0","battery-v0.2","","""event"",""trial"",""time""
""fullscreenenter"",""1"",""2213""
","
","
","""event"",""trial"",""time""
""fullscreenenter"",""1"",""2213""
","
","","","710.7000000178814","","","19","10552","5055","&#9730;","elianto","#3366ff99"," "," ","1","+10","[1563]","1","1","","","10552","8","1","1","win","go","0"
"pit-trial","132","982914","0.0-12.0","battery-v0.2","","""event"",""trial"",""time""
""fullscreenenter"",""1"",""2213""
","
","
","""event"",""trial"",""time""
""fullscreenenter"",""1"",""2213""
","
","","","-1","","","19","10552","5055","&#9728;","elianto","#f73b6a7A","-1","-1","1","-10","[]","0","1","","","10552","9","0","4","lose","no-go","1"
"pit-trial","133","986372","0.0-13.0","battery-v0.2","","""event"",""trial"",""time""
""fullscreenenter"",""1"",""2213""
","
","
","""event"",""trial"",""time""
""fullscreenenter"",""1"",""2213""
","
","","","601.7999999821186","","","19","10552","5055","&#9733;","elianto","#3366ff99","-1"," ","0","0","[1453.5999999940395]","1","1","","","10552","10","2","2","win","no-go","0"
"pit-trial","134","989849","0.0-14.0","battery-v0.2","","""event"",""trial"",""time""
""fullscreenenter"",""1"",""2213""
","
","
","""event"",""trial"",""time""
""fullscreenenter"",""1"",""2213""
","
","","","623.7999999821186","","","19","10552","5055","&#9752;","elianto","#f73b6a7A"," "," ","1","0","[1474.7999999821186]","1","1","","","10552","11","3","3","lose","go","0"
"pit-trial","135","993428","0.0-15.0","battery-v0.2","","""event"",""trial"",""time""
""fullscreenenter"",""1"",""2213""
","
","
","""event"",""trial"",""time""
""fullscreenenter"",""1"",""2213""
","
","","","724.8999999761581","","","19","10552","5055","&#9730;","elianto","#3366ff99"," "," ","1","+10","[1576]","1","1","","","10552","12","1","1","win","go","0"
"pit-trial","136","996964","0.0-16.0","battery-v0.2","","""event"",""trial"",""time""
""fullscreenenter"",""1"",""2213""
","
","
","""event"",""trial"",""time""
""fullscreenenter"",""1"",""2213""
","
","","","682.4000000059605","","","19","10552","5055","&#9752;","elianto","#f73b6a7A"," "," ","1","0","[1532.5]","1","1","","","10552","13","3","3","lose","go","0"
"pit-trial","137","1000368","0.0-17.0","battery-v0.2","","""event"",""trial"",""time""
""fullscreenenter"",""1"",""2213""
","
","
","""event"",""trial"",""time""
""fullscreenenter"",""1"",""2213""
","
","","","548.9000000059605","","","19","10552","5055","&#9733;","elianto","#3366ff99","-1"," ","0","0","[1401.300000011921]","1","1","","","10552","14","2","2","win","no-go","0"
"pit-trial","138","1004156","0.0-18.0","battery-v0.2","","""event"",""trial"",""time""
""fullscreenenter"",""1"",""2213""
","
","
","""event"",""trial"",""time""
""fullscreenenter"",""1"",""2213""
","
","","","933.2000000178814","","","19","10552","5055","&#9728;","elianto","#f73b6a7A","-1"," ","0","0","[1785.2000000178814]","1","1","","","10552","15","0","4","lose","no-go","1"
"pit-trial","139","1007846","0.0-19.0","battery-v0.2","","""event"",""trial"",""time""
""fullscreenenter"",""1"",""2213""
","
","
","""event"",""trial"",""time""
""fullscreenenter"",""1"",""2213""
","
","","","836.1999999880791","","","19","10552","5055","&#9730;","elianto","#3366ff99"," "," ","1","+10","[1686.2999999821186]","1","1","","","10552","16","1","1","win","go","0"
"pit-trial","140","1012113","0.0-20.0","battery-v0.2","","""event"",""trial"",""time""
""fullscreenenter"",""1"",""2213""
","
","
","""event"",""trial"",""time""
""fullscreenenter"",""1"",""2213""
","
","","","1411","","","19","10552","5055","&#9728;","elianto","#f73b6a7A","-1"," ","0","-10","[2263.5999999940395]","1","1","","","10552","17","0","4","lose","no-go","0"
"pit-trial","141","1015994","0.0-21.0","battery-v0.2","","""event"",""trial"",""time""
""fullscreenenter"",""1"",""2213""
","
","
","""event"",""trial"",""time""
""fullscreenenter"",""1"",""2213""
","
","","","1027.5999999940395","","","19","10552","5055","&#9752;","elianto","#f73b6a7A"," "," ","1","-10","[1878]","1","1","","","10552","18","3","3","lose","go","1"
"pit-trial","142","1019403","0.0-22.0","battery-v0.2","","""event"",""trial"",""time""
""fullscreenenter"",""1"",""2213""
","
","
","""event"",""trial"",""time""
""fullscreenenter"",""1"",""2213""
","
","","","554.4000000059605","","","19","10552","5055","&#9733;","elianto","#3366ff99","-1"," ","0","0","[1405.2000000178814]","1","1","","","10552","19","2","2","win","no-go","0"
"pit-trial","143","1022805","0.0-23.0","battery-v0.2","","""event"",""trial"",""time""
""fullscreenenter"",""1"",""2213""
","
","
","""event"",""trial"",""time""
""fullscreenenter"",""1"",""2213""
","
","","","547.2999999821186","","","19","10552","5055","&#9730;","elianto","#3366ff99"," "," ","1","+10","[1398.2999999821186]","1","1","","","10552","20","1","1","win","go","0"
"pit-instructions","144","1034878","0.0-24.0","battery-v0.2","","""event"",""trial"",""time""
""fullscreenenter"",""1"",""2213""
","
","
","""event"",""trial"",""time""
""fullscreenenter"",""1"",""2213""
","
","","[{""page_index"":0,""viewing_time"":5910.699999988079},{""page_index"":1,""viewing_time"":6160.0999999940395}]","12071.299999982119","","","","","","","","","","","","","","","","","","","","","","","",""
"pit-trial","145","1038415","0.0-25.0","battery-v0.2","","""event"",""trial"",""time""
""fullscreenenter"",""1"",""2213""
","
","
","""event"",""trial"",""time""
""fullscreenenter"",""1"",""2213""
","
","","","677.5","","","19","10552","5055","j","elianto","#f73b6a7A","-1"," ","0","0","[1529.4000000059605]","1","2","","","10552","21","0","4","lose","no-go","1"
"pit-trial","146","1042086","0.0-26.0","battery-v0.2","","""event"",""trial"",""time""
""fullscreenenter"",""1"",""2213""
","
","
","""event"",""trial"",""time""
""fullscreenenter"",""1"",""2213""
","
","","","804.8000000119209","","","19","10552","5055","e","elianto","#f73b6a7A","-1"," ","0","-10","[1655.4000000059605]","1","2","","","10552","22","2","4","lose","no-go","0"
"pit-trial","147","1045646","0.0-27.0","battery-v0.2","","""event"",""trial"",""time""
""fullscreenenter"",""1"",""2213""
","
","
","""event"",""trial"",""time""
""fullscreenenter"",""1"",""2213""
","
","","","687.9000000059605","","","19","10552","5055","w","elianto","#f73b6a7A"," "," ","1","0","[1551.0999999940395]","1","2","","","10552","23","3","3","lose","go","0"
"pit-trial","148","1049256","0.0-28.0","battery-v0.2","","""event"",""trial"",""time""
""fullscreenenter"",""1"",""2213""
","
","
","""event"",""trial"",""time""
""fullscreenenter"",""1"",""2213""
","
","","","739.5","","","19","10552","5055","d","elianto","#3366ff99"," "," ","1","+10","[1590.2000000178814]","1","2","","","10552","24","1","1","win","go","0"
"pit-trial","149","1054126","0.0-29.0","battery-v0.2","","""event"",""trial"",""time""
""fullscreenenter"",""1"",""2213""
","
","
","""event"",""trial"",""time""
""fullscreenenter"",""1"",""2213""
","
","","","-1","","","19","10552","5055","e","elianto","#f73b6a7A","-1","-1","1","0","[]","0","2","","","10552","25","2","4","lose","no-go","0"
"pit-trial","150","1057606","0.0-30.0","battery-v0.2","","""event"",""trial"",""time""
""fullscreenenter"",""1"",""2213""
","
","
","""event"",""trial"",""time""
""fullscreenenter"",""1"",""2213""
","
","","","614","","","19","10552","5055","d","elianto","#3366ff99"," "," ","1","+10","[1467.2000000178814]","1","2","","","10552","26","1","1","win","go","0"
"pit-trial","151","1062476","0.0-31.0","battery-v0.2","","""event"",""trial"",""time""
""fullscreenenter"",""1"",""2213""
","
","
","""event"",""trial"",""time""
""fullscreenenter"",""1"",""2213""
","
","","","-1","","","19","10552","5055","w","elianto","#f73b6a7A"," ","-1","0","-10","[]","0","2","","","10552","27","3","3","lose","go","0"
"pit-trial","152","1065965","0.0-32.0","battery-v0.2","","""event"",""trial"",""time""
""fullscreenenter"",""1"",""2213""
","
","
","""event"",""trial"",""time""
""fullscreenenter"",""1"",""2213""
","
","","","631.1000000238419","","","19","10552","5055","j","elianto","#f73b6a7A","-1"," ","0","-10","[1485.5]","1","2","","","10552","28","0","4","lose","no-go","0"
"pit-trial","153","1070100","0.0-33.0","battery-v0.2","","""event"",""trial"",""time""
""fullscreenenter"",""1"",""2213""
","
","
","""event"",""trial"",""time""
""fullscreenenter"",""1"",""2213""
","
","","","1280.0999999940395","","","19","10552","5055","e","elianto","#f73b6a7A","-1"," ","0","-10","[2132.100000023842]","1","2","","","10552","29","2","4","lose","no-go","0"
"pit-trial","154","1073829","0.0-34.0","battery-v0.2","","""event"",""trial"",""time""
""fullscreenenter"",""1"",""2213""
","
","
","""event"",""trial"",""time""
""fullscreenenter"",""1"",""2213""
","
","","","874.9000000059605","","","19","10552","5055","w","elianto","#f73b6a7A"," "," ","1","0","[1725.0999999940395]","1","2","","","10552","30","3","3","lose","go","0"
"pit-trial","155","1077466","0.0-35.0","battery-v0.2","","""event"",""trial"",""time""
""fullscreenenter"",""1"",""2213""
","
","
","""event"",""trial"",""time""
""fullscreenenter"",""1"",""2213""
","
","","","784.5","","","19","10552","5055","d","elianto","#3366ff99"," "," ","1","+10","[1634.5]","1","2","","","10552","31","1","1","win","go","0"
"pit-trial","156","1082320","0.0-36.0","battery-v0.2","","""event"",""trial"",""time""
""fullscreenenter"",""1"",""2213""
","
","
","""event"",""trial"",""time""
""fullscreenenter"",""1"",""2213""
","
","","","-1","","","19","10552","5055","j","elianto","#f73b6a7A","-1","-1","1","-10","[]","0","2","","","10552","32","0","4","lose","no-go","1"
"pit-trial","157","1085742","0.0-37.0","battery-v0.2","","""event"",""trial"",""time""
""fullscreenenter"",""1"",""2213""
","
","
","""event"",""trial"",""time""
""fullscreenenter"",""1"",""2213""
","
","","","557","","","19","10552","5055","j","elianto","#f73b6a7A","-1"," ","0","0","[1407.9000000059605]","1","2","","","10552","33","0","4","lose","no-go","1"
"pit-trial","158","1089124","0.0-38.0","battery-v0.2","","""event"",""trial"",""time""
""fullscreenenter"",""1"",""2213""
","
","
","""event"",""trial"",""time""
""fullscreenenter"",""1"",""2213""
","
","","","528.1999999880791","","","19","10552","5055","d","elianto","#3366ff99"," "," ","1","0","[1379.199999988079]","1","2","","","10552","34","1","1","win","go","1"
"pit-trial","159","1092671","0.0-39.0","battery-v0.2","","""event"",""trial"",""time""
""fullscreenenter"",""1"",""2213""
","
","
","""event"",""trial"",""time""
""fullscreenenter"",""1"",""2213""
","
","","","692.5","","","19","10552","5055","w","elianto","#f73b6a7A"," "," ","1","-10","[1543.300000011921]","1","2","","","10552","35","3","3","lose","go","1"
"pit-trial","160","1096221","0.0-40.0","battery-v0.2","","""event"",""trial"",""time""
""fullscreenenter"",""1"",""2213""
","
","
","""event"",""trial"",""time""
""fullscreenenter"",""1"",""2213""
","
","","","696.3999999761581","","","19","10552","5055","e","elianto","#f73b6a7A","-1"," ","0","-10","[1547.2999999821186]","1","2","","","10552","36","2","4","lose","no-go","0"
"pit-trial","161","1101075","0.0-41.0","battery-v0.2","","""event"",""trial"",""time""
""fullscreenenter"",""1"",""2213""
","
","
","""event"",""trial"",""time""
""fullscreenenter"",""1"",""2213""
","
","","","-1","","","19","10552","5055","w","elianto","#f73b6a7A"," ","-1","0","-10","[]","0","2","","","10552","37","3","3","lose","go","0"
"pit-trial","162","1105785","0.0-42.0","battery-v0.2","","""event"",""trial"",""time""
""fullscreenenter"",""1"",""2213""
","
","
","""event"",""trial"",""time""
""fullscreenenter"",""1"",""2213""
","
","","","1857.4000000059605","","","19","10552","5055","e","elianto","#f73b6a7A","-1"," ","0","-10","[2707.699999988079]","1","2","","","10552","38","2","4","lose","no-go","0"
"pit-trial","163","1109313","0.0-43.0","battery-v0.2","","""event"",""trial"",""time""
""fullscreenenter"",""1"",""2213""
","
","
","""event"",""trial"",""time""
""fullscreenenter"",""1"",""2213""
","
","","","674.5","","","19","10552","5055","d","elianto","#3366ff99"," "," ","1","+10","[1524.9000000059605]","1","2","","","10552","39","1","1","win","go","0"
"pit-trial","164","1112796","0.0-44.0","battery-v0.2","","""event"",""trial"",""time""
""fullscreenenter"",""1"",""2213""
","
","
","""event"",""trial"",""time""
""fullscreenenter"",""1"",""2213""
","
","","","627.1999999880791","","","19","10552","5055","j","elianto","#f73b6a7A","-1"," ","0","-10","[1479]","1","2","","","10552","40","0","4","lose","no-go","0"
"pit-trial","165","1117650","0.0-45.0","battery-v0.2","","""event"",""trial"",""time""
""fullscreenenter"",""1"",""2213""
","
","
","""event"",""trial"",""time""
""fullscreenenter"",""1"",""2213""
","
","","","-1","","","19","10552","5055","e","elianto","#f73b6a7A","-1","-1","1","0","[]","0","2","","","10552","41","2","4","lose","no-go","0"
"pit-trial","166","1122243","0.0-46.0","battery-v0.2","","""event"",""trial"",""time""
""fullscreenenter"",""1"",""2213""
","
","
","""event"",""trial"",""time""
""fullscreenenter"",""1"",""2213""
","
","","","1738.699999988079","","","19","10552","5055","j","elianto","#f73b6a7A","-1"," ","0","-10","[2589.9000000059605]","1","2","","","10552","42","0","4","lose","no-go","0"
"pit-trial","167","1125701","0.0-47.0","battery-v0.2","","""event"",""trial"",""time""
""fullscreenenter"",""1"",""2213""
","
","
","""event"",""trial"",""time""
""fullscreenenter"",""1"",""2213""
","
","","","605.9000000059605","","","19","10552","5055","d","elianto","#3366ff99"," "," ","1","+10","[1456.5]","1","2","","","10552","43","1","1","win","go","0"
"pit-trial","168","1130090","0.0-48.0","battery-v0.2","","""event"",""trial"",""time""
""fullscreenenter"",""1"",""2213""
","
","
","""event"",""trial"",""time""
""fullscreenenter"",""1"",""2213""
","
","","","1534.199999988079","","","19","10552","5055","w","elianto","#f73b6a7A"," "," ","1","0","[2384.7999999821186]","1","2","","","10552","44","3","3","lose","go","0"
"pit-trial","169","1133715","0.0-49.0","battery-v0.2","","""event"",""trial"",""time""
""fullscreenenter"",""1"",""2213""
","
","
","""event"",""trial"",""time""
""fullscreenenter"",""1"",""2213""
","
","","","771.5","","","19","10552","5055","s","elianto","#3366ff99","-1"," ","0","0","[1622.8999999761581]","1","2","","","10552","45","4","2","win","no-go","0"
"pit-trial","170","1137452","0.0-50.0","battery-v0.2","","""event"",""trial"",""time""
""fullscreenenter"",""1"",""2213""
","
","
","""event"",""trial"",""time""
""fullscreenenter"",""1"",""2213""
","
","","","882.5","","","19","10552","5055","j","elianto","#f73b6a7A","-1"," ","0","-10","[1733.0999999940395]","1","2","","","10552","46","0","4","lose","no-go","0"
"pit-trial","171","1142306","0.0-51.0","battery-v0.2","","""event"",""trial"",""time""
""fullscreenenter"",""1"",""2213""
","
","
","""event"",""trial"",""time""
""fullscreenenter"",""1"",""2213""
","
","","","-1","","","19","10552","5055","w","elianto","#f73b6a7A"," ","-1","0","-10","[]","0","2","","","10552","47","3","3","lose","go","0"
"pit-trial","172","1146716","0.0-52.0","battery-v0.2","","""event"",""trial"",""time""
""fullscreenenter"",""1"",""2213""
","
","
","""event"",""trial"",""time""
""fullscreenenter"",""1"",""2213""
","
","","","1554.7000000178814","","","19","10552","5055","e","elianto","#f73b6a7A","-1"," ","0","-10","[2405.699999988079]","1","2","","","10552","48","2","4","lose","no-go","0"
"pit-trial","173","1150118","0.0-53.0","battery-v0.2","","""event"",""trial"",""time""
""fullscreenenter"",""1"",""2213""
","
","
","""event"",""trial"",""time""
""fullscreenenter"",""1"",""2213""
","
","","","549.2999999821186","","","19","10552","5055","d","elianto","#3366ff99"," "," ","1","+10","[1400.2999999821186]","1","2","","","10552","49","1","1","win","go","0"
"pit-trial","174","1153828","0.0-54.0","battery-v0.2","","""event"",""trial"",""time""
""fullscreenenter"",""1"",""2213""
","
","
","""event"",""trial"",""time""
""fullscreenenter"",""1"",""2213""
","
","","","856","","","19","10552","5055","j","elianto","#f73b6a7A","-1"," ","0","-10","[1706.5]","1","2","","","10552","50","0","4","lose","no-go","0"
"pit-trial","175","1157239","0.0-55.0","battery-v0.2","","""event"",""trial"",""time""
""fullscreenenter"",""1"",""2213""
","
","
","""event"",""trial"",""time""
""fullscreenenter"",""1"",""2213""
","
","","","556.9000000059605","","","19","10552","5055","s","elianto","#3366ff99","-1"," ","0","0","[1407.4000000059605]","1","2","","","10552","51","4","2","win","no-go","0"
"pit-trial","176","1162093","0.0-56.0","battery-v0.2","","""event"",""trial"",""time""
""fullscreenenter"",""1"",""2213""
","
","
","""event"",""trial"",""time""
""fullscreenenter"",""1"",""2213""
","
","","","-1","","","19","10552","5055","w","elianto","#f73b6a7A"," ","-1","0","-10","[]","0","2","","","10552","52","3","3","lose","go","0"
"pit-trial","177","1165461","0.0-57.0","battery-v0.2","","""event"",""trial"",""time""
""fullscreenenter"",""1"",""2213""
","
","
","""event"",""trial"",""time""
""fullscreenenter"",""1"",""2213""
","
","","","514.2000000178814","","","19","10552","5055","d","elianto","#3366ff99"," "," ","1","+10","[1364.7000000178814]","1","2","","","10552","53","1","1","win","go","0"
"pit-trial","178","1168910","0.0-58.0","battery-v0.2","","""event"",""trial"",""time""
""fullscreenenter"",""1"",""2213""
","
","
","""event"",""trial"",""time""
""fullscreenenter"",""1"",""2213""
","
","","","595.3000000119209","","","19","10552","5055","s","elianto","#3366ff99","-1"," ","0","0","[1445.5999999940395]","1","2","","","10552","54","4","2","win","no-go","0"
"pit-trial","179","1172490","0.0-59.0","battery-v0.2","","""event"",""trial"",""time""
""fullscreenenter"",""1"",""2213""
","
","
","""event"",""trial"",""time""
""fullscreenenter"",""1"",""2213""
","
","","","726.1999999880791","","","19","10552","5055","e","elianto","#f73b6a7A","-1"," ","0","-10","[1576.5]","1","2","","","10552","55","2","4","lose","no-go","0"
"pit-trial","180","1177202","0.0-60.0","battery-v0.2","","""event"",""trial"",""time""
""fullscreenenter"",""1"",""2213""
","
","
","""event"",""trial"",""time""
""fullscreenenter"",""1"",""2213""
","
","","","1857.9000000059605","","","19","10552","5055","j","elianto","#f73b6a7A","-1"," ","0","-10","[2708.2999999821186]","1","2","","","10552","56","0","4","lose","no-go","0"
"pit-trial","181","1180653","0.0-61.0","battery-v0.2","","""event"",""trial"",""time""
""fullscreenenter"",""1"",""2213""
","
","
","""event"",""trial"",""time""
""fullscreenenter"",""1"",""2213""
","
","","","598.3999999761581","","","19","10552","5055","s","elianto","#3366ff99","-1"," ","0","0","[1448.5999999940395]","1","2","","","10552","57","4","2","win","no-go","0"
"pit-trial","182","1184082","0.0-62.0","battery-v0.2","","""event"",""trial"",""time""
""fullscreenenter"",""1"",""2213""
","
","
","""event"",""trial"",""time""
""fullscreenenter"",""1"",""2213""
","
","","","574.3000000119209","","","19","10552","5055","d","elianto","#3366ff99"," "," ","1","+10","[1424.9000000059605]","1","2","","","10552","58","1","1","win","go","0"
"pit-trial","183","1188936","0.0-63.0","battery-v0.2","","""event"",""trial"",""time""
""fullscreenenter"",""1"",""2213""
","
","
","""event"",""trial"",""time""
""fullscreenenter"",""1"",""2213""
","
","","","-1","","","19","10552","5055","w","elianto","#f73b6a7A"," ","-1","0","-10","[]","0","2","","","10552","59","3","3","lose","go","0"
"pit-trial","184","1192398","0.0-64.0","battery-v0.2","","""event"",""trial"",""time""
""fullscreenenter"",""1"",""2213""
","
","
","""event"",""trial"",""time""
""fullscreenenter"",""1"",""2213""
","
","","","607.1999999880791","","","19","10552","5055","j","elianto","#f73b6a7A","-1"," ","0","-10","[1458.5]","1","2","","","10552","60","0","4","lose","no-go","0"
"pit-trial","185","1195859","0.0-65.0","battery-v0.2","","""event"",""trial"",""time""
""fullscreenenter"",""1"",""2213""
","
","
","""event"",""trial"",""time""
""fullscreenenter"",""1"",""2213""
","
","","","605.6999999880791","","","19","10552","5055","s","elianto","#3366ff99","-1"," ","0","0","[1456.800000011921]","1","2","","","10552","61","4","2","win","no-go","0"
"pit-trial","186","1200713","0.0-66.0","battery-v0.2","","""event"",""trial"",""time""
""fullscreenenter"",""1"",""2213""
","
","
","""event"",""trial"",""time""
""fullscreenenter"",""1"",""2213""
","
","","","-1","","","19","10552","5055","e","elianto","#f73b6a7A","-1","-1","1","-10","[]","0","2","","","10552","62","2","4","lose","no-go","1"
"pit-trial","187","1205567","0.0-67.0","battery-v0.2","","""event"",""trial"",""time""
""fullscreenenter"",""1"",""2213""
","
","
","""event"",""trial"",""time""
""fullscreenenter"",""1"",""2213""
","
","","","-1","","","19","10552","5055","w","elianto","#f73b6a7A"," ","-1","0","-10","[]","0","2","","","10552","63","3","3","lose","go","0"
"pit-trial","188","1210314","0.0-68.0","battery-v0.2","","""event"",""trial"",""time""
""fullscreenenter"",""1"",""2213""
","
","
","""event"",""trial"",""time""
""fullscreenenter"",""1"",""2213""
","
","","","1893","","","19","10552","5055","d","elianto","#3366ff99"," "," ","1","+10","[2743.100000023842]","1","2","","","10552","64","1","1","win","go","0"
"pit-trial","189","1213776","0.0-69.0","battery-v0.2","","""event"",""trial"",""time""
""fullscreenenter"",""1"",""2213""
","
","
","""event"",""trial"",""time""
""fullscreenenter"",""1"",""2213""
","
","","","607.9000000059605","","","19","10552","5055","e","elianto","#f73b6a7A","-1"," ","0","-10","[1459.800000011921]","1","2","","","10552","65","2","4","lose","no-go","0"
"pit-trial","190","1218272","0.0-70.0","battery-v0.2","","""event"",""trial"",""time""
""fullscreenenter"",""1"",""2213""
","
","
","""event"",""trial"",""time""
""fullscreenenter"",""1"",""2213""
","
","","","1639.300000011921","","","19","10552","5055","d","elianto","#3366ff99"," "," ","1","+10","[2491.9000000059605]","1","2","","","10552","66","1","1","win","go","0"
"pit-trial","191","1221956","0.0-71.0","battery-v0.2","","""event"",""trial"",""time""
""fullscreenenter"",""1"",""2213""
","
","
","""event"",""trial"",""time""
""fullscreenenter"",""1"",""2213""
","
","","","830.4000000059605","","","19","10552","5055","s","elianto","#3366ff99","-1"," ","0","0","[1681.4000000059605]","1","2","","","10552","67","4","2","win","no-go","0"
"pit-trial","192","1226564","0.0-72.0","battery-v0.2","","""event"",""trial"",""time""
""fullscreenenter"",""1"",""2213""
","
","
","""event"",""trial"",""time""
""fullscreenenter"",""1"",""2213""
","
","","","1754.300000011921","","","19","10552","5055","w","elianto","#f73b6a7A"," "," ","1","-10","[2604.5]","1","2","","","10552","68","3","3","lose","go","1"
"pit-trial","193","1229986","0.0-73.0","battery-v0.2","","""event"",""trial"",""time""
""fullscreenenter"",""1"",""2213""
","
","
","""event"",""trial"",""time""
""fullscreenenter"",""1"",""2213""
","
","","","561.4000000059605","","","19","10552","5055","s","elianto","#3366ff99","-1"," ","0","0","[1413.1000000238419,2901.600000023842]","2","2","","","10552","69","4","2","win","no-go","0"
"pit-trial","194","1233725","0.0-74.0","battery-v0.2","","""event"",""trial"",""time""
""fullscreenenter"",""1"",""2213""
","
","
","""event"",""trial"",""time""
""fullscreenenter"",""1"",""2213""
","
","","","883.8999999761581","","","19","10552","5055","p","elianto","#3366ff99"," "," ","1","+10","[1736]","1","2","","","10552","70","5","1","win","go","0"
"pit-trial","195","1237106","0.0-75.0","battery-v0.2","","""event"",""trial"",""time""
""fullscreenenter"",""1"",""2213""
","
","
","""event"",""trial"",""time""
""fullscreenenter"",""1"",""2213""
","
","","","527.3000000119209","","","19","10552","5055","d","elianto","#3366ff99"," "," ","1","0","[1378]","1","2","","","10552","71","1","1","win","go","1"
"pit-trial","196","1241960","0.0-76.0","battery-v0.2","","""event"",""trial"",""time""
""fullscreenenter"",""1"",""2213""
","
","
","""event"",""trial"",""time""
""fullscreenenter"",""1"",""2213""
","
","","","-1","","","19","10552","5055","w","elianto","#f73b6a7A"," ","-1","0","-10","[]","0","2","","","10552","72","3","3","lose","go","0"
"pit-trial","197","1246815","0.0-77.0","battery-v0.2","","""event"",""trial"",""time""
""fullscreenenter"",""1"",""2213""
","
","
","""event"",""trial"",""time""
""fullscreenenter"",""1"",""2213""
","
","","","-1","","","19","10552","5055","d","elianto","#3366ff99"," ","-1","0","0","[]","0","2","","","10552","73","1","1","win","go","0"
"pit-trial","198","1251669","0.0-78.0","battery-v0.2","","""event"",""trial"",""time""
""fullscreenenter"",""1"",""2213""
","
","
","""event"",""trial"",""time""
""fullscreenenter"",""1"",""2213""
","
","","","-1","","","19","10552","5055","w","elianto","#f73b6a7A"," ","-1","0","-10","[]","0","2","","","10552","74","3","3","lose","go","0"
"pit-trial","199","1255137","0.0-79.0","battery-v0.2","","""event"",""trial"",""time""
""fullscreenenter"",""1"",""2213""
","
","
","""event"",""trial"",""time""
""fullscreenenter"",""1"",""2213""
","
","","","614.3000000119209","","","19","10552","5055","p","elianto","#3366ff99"," "," ","1","+10","[1464.699999988079]","1","2","","","10552","75","5","1","win","go","0"
"pit-trial","200","1258483","0.0-80.0","battery-v0.2","","""event"",""trial"",""time""
""fullscreenenter"",""1"",""2213""
","
","
","""event"",""trial"",""time""
""fullscreenenter"",""1"",""2213""
","
","","","492.19999998807907","","","19","10552","5055","s","elianto","#3366ff99","-1"," ","0","0","[1342.5]","1","2","","","10552","76","4","2","win","no-go","0"
"pit-trial","201","1261840","0.0-81.0","battery-v0.2","","""event"",""trial"",""time""
""fullscreenenter"",""1"",""2213""
","
","
","""event"",""trial"",""time""
""fullscreenenter"",""1"",""2213""
","
","","","504.40000000596046","","","19","10552","5055","p","elianto","#3366ff99"," "," ","1","+10","[1355.199999988079]","1","2","","","10552","77","5","1","win","go","0"
"pit-trial","202","1266693","0.0-82.0","battery-v0.2","","""event"",""trial"",""time""
""fullscreenenter"",""1"",""2213""
","
","
","""event"",""trial"",""time""
""fullscreenenter"",""1"",""2213""
","
","","","-1","","","19","10552","5055","g","elianto","#f73b6a7A","-1","-1","1","0","[]","0","2","","","10552","78","6","4","lose","no-go","0"
"pit-trial","203","1271130","0.0-83.0","battery-v0.2","","""event"",""trial"",""time""
""fullscreenenter"",""1"",""2213""
","
","
","""event"",""trial"",""time""
""fullscreenenter"",""1"",""2213""
","
","","","1583.199999988079","","","19","10552","5055","s","elianto","#3366ff99","-1"," ","0","0","[2434]","1","2","","","10552","79","4","2","win","no-go","0"
"pit-trial","204","1275983","0.0-84.0","battery-v0.2","","""event"",""trial"",""time""
""fullscreenenter"",""1"",""2213""
","
","
","""event"",""trial"",""time""
""fullscreenenter"",""1"",""2213""
","
","","","-1","","","19","10552","5055","w","elianto","#f73b6a7A"," ","-1","0","-10","[]","0","2","","","10552","80","3","3","lose","go","0"
"pit-trial","205","1279460","0.0-85.0","battery-v0.2","","""event"",""trial"",""time""
""fullscreenenter"",""1"",""2213""
","
","
","""event"",""trial"",""time""
""fullscreenenter"",""1"",""2213""
","
","","","621.4000000059605","","","19","10552","5055","p","elianto","#3366ff99"," "," ","1","0","[1472.5]","1","2","","","10552","81","5","1","win","go","1"
"pit-trial","206","1283170","0.0-86.0","battery-v0.2","","""event"",""trial"",""time""
""fullscreenenter"",""1"",""2213""
","
","
","""event"",""trial"",""time""
""fullscreenenter"",""1"",""2213""
","
","","","854.8000000119209","","","19","10552","5055","s","elianto","#3366ff99","-1"," ","0","0","[1706.2000000178814]","1","2","","","10552","82","4","2","win","no-go","0"
"pit-trial","207","1287955","0.0-87.0","battery-v0.2","","""event"",""trial"",""time""
""fullscreenenter"",""1"",""2213""
","
","
","""event"",""trial"",""time""
""fullscreenenter"",""1"",""2213""
","
","","","1930.7999999821186","","","19","10552","5055","a","elianto","#f73b6a7A"," "," ","1","0","[2781.399999976158]","1","2","","","10552","83","7","3","lose","go","0"
"pit-trial","208","1291742","0.0-88.0","battery-v0.2","","""event"",""trial"",""time""
""fullscreenenter"",""1"",""2213""
","
","
","""event"",""trial"",""time""
""fullscreenenter"",""1"",""2213""
","
","","","931.7000000178814","","","19","10552","5055","g","elianto","#f73b6a7A","-1"," ","0","-10","[1783.800000011921]","1","2","","","10552","84","6","4","lose","no-go","0"
"pit-trial","209","1295456","0.0-89.0","battery-v0.2","","""event"",""trial"",""time""
""fullscreenenter"",""1"",""2213""
","
","
","""event"",""trial"",""time""
""fullscreenenter"",""1"",""2213""
","
","","","859.9000000059605","","","19","10552","5055","a","elianto","#f73b6a7A"," "," ","1","0","[1710]","1","2","","","10552","85","7","3","lose","go","0"
"pit-trial","210","1298968","0.0-90.0","battery-v0.2","","""event"",""trial"",""time""
""fullscreenenter"",""1"",""2213""
","
","
","""event"",""trial"",""time""
""fullscreenenter"",""1"",""2213""
","
","","","656.9000000059605","","","19","10552","5055","s","elianto","#3366ff99","-1"," ","0","0","[1508.8999999761581]","1","2","","","10552","86","4","2","win","no-go","0"
"pit-trial","211","1303822","0.0-91.0","battery-v0.2","","""event"",""trial"",""time""
""fullscreenenter"",""1"",""2213""
","
","
","""event"",""trial"",""time""
""fullscreenenter"",""1"",""2213""
","
","","","-1","","","19","10552","5055","p","elianto","#3366ff99"," ","-1","0","+10","[]","0","2","","","10552","87","5","1","win","go","1"
"pit-trial","212","1308676","0.0-92.0","battery-v0.2","","""event"",""trial"",""time""
""fullscreenenter"",""1"",""2213""
","
","
","""event"",""trial"",""time""
""fullscreenenter"",""1"",""2213""
","
","","","-1","","","19","10552","5055","g","elianto","#f73b6a7A","-1","-1","1","0","[]","0","2","","","10552","88","6","4","lose","no-go","0"
"pit-trial","213","1313545","0.0-93.0","battery-v0.2","","""event"",""trial"",""time""
""fullscreenenter"",""1"",""2213""
","
","
","""event"",""trial"",""time""
""fullscreenenter"",""1"",""2213""
","
","","","-1","","","19","10552","5055","s","elianto","#3366ff99","-1","-1","1","0","[]","0","2","","","10552","89","4","2","win","no-go","1"
"pit-trial","214","1318400","0.0-94.0","battery-v0.2","","""event"",""trial"",""time""
""fullscreenenter"",""1"",""2213""
","
","
","""event"",""trial"",""time""
""fullscreenenter"",""1"",""2213""
","
","","","-1","","","19","10552","5055","p","elianto","#3366ff99"," ","-1","0","0","[]","0","2","","","10552","90","5","1","win","go","0"
"pit-trial","215","1323256","0.0-95.0","battery-v0.2","","""event"",""trial"",""time""
""fullscreenenter"",""1"",""2213""
","
","
","""event"",""trial"",""time""
""fullscreenenter"",""1"",""2213""
","
","","","-1","","","19","10552","5055","g","elianto","#f73b6a7A","-1","-1","1","0","[]","0","2","","","10552","91","6","4","lose","no-go","0"
"pit-trial","216","1328111","0.0-96.0","battery-v0.2","","""event"",""trial"",""time""
""fullscreenenter"",""1"",""2213""
","
","
","""event"",""trial"",""time""
""fullscreenenter"",""1"",""2213""
","
","","","-1","","","19","10552","5055","a","elianto","#f73b6a7A"," ","-1","0","0","[]","0","2","","","10552","92","7","3","lose","go","1"
"pit-trial","217","1332966","0.0-97.0","battery-v0.2","","""event"",""trial"",""time""
""fullscreenenter"",""1"",""2213""
","
","
","""event"",""trial"",""time""
""fullscreenenter"",""1"",""2213""
","
","","","-1","","","19","10552","5055","l","elianto","#3366ff99","-1","-1","1","0","[]","0","2","","","10552","93","8","2","win","no-go","1"
"pit-trial","218","1337822","0.0-98.0","battery-v0.2","","""event"",""trial"",""time""
""fullscreenenter"",""1"",""2213""
","
","
","""event"",""trial"",""time""
""fullscreenenter"",""1"",""2213""
","
","","","-1","","","19","10552","5055","a","elianto","#f73b6a7A"," ","-1","0","-10","[]","0","2","","","10552","94","7","3","lose","go","0"
"pit-trial","219","1342675","0.0-99.0","battery-v0.2","","""event"",""trial"",""time""
""fullscreenenter"",""1"",""2213""
","
","
","""event"",""trial"",""time""
""fullscreenenter"",""1"",""2213""
","
","","","-1","","","19","10552","5055","g","elianto","#f73b6a7A","-1","-1","1","0","[]","0","2","","","10552","95","6","4","lose","no-go","0"
"pit-trial","220","1347531","0.0-100.0","battery-v0.2","","""event"",""trial"",""time""
""fullscreenenter"",""1"",""2213""
","
","
","""event"",""trial"",""time""
""fullscreenenter"",""1"",""2213""
","
","","","-1","","","19","10552","5055","p","elianto","#3366ff99"," ","-1","0","0","[]","0","2","","","10552","96","5","1","win","go","0"
"pit-trial","221","1352385","0.0-101.0","battery-v0.2","","""event"",""trial"",""time""
""fullscreenenter"",""1"",""2213""
","
","
","""event"",""trial"",""time""
""fullscreenenter"",""1"",""2213""
","
","","","-1","","","19","10552","5055","a","elianto","#f73b6a7A"," ","-1","0","-10","[]","0","2","","","10552","97","7","3","lose","go","0"
"pit-trial","222","1357240","0.0-102.0","battery-v0.2","","""event"",""trial"",""time""
""fullscreenenter"",""1"",""2213""
","
","
","""event"",""trial"",""time""
""fullscreenenter"",""1"",""2213""
","
","","","-1","","","19","10552","5055","g","elianto","#f73b6a7A","-1","-1","1","0","[]","0","2","","","10552","98","6","4","lose","no-go","0"
"pit-trial","223","1361176","0.0-103.0","battery-v0.2","","""event"",""trial"",""time""
""fullscreenenter"",""1"",""2213""
","
","
","""event"",""trial"",""time""
""fullscreenenter"",""1"",""2213""
","
","","","1081.2000000178814","","","19","10552","5055","p","elianto","#3366ff99"," "," ","1","+10","[1932.800000011921]","1","2","","","10552","99","5","1","win","go","0"
"pit-trial","224","1365811","0.0-104.0","battery-v0.2","","""event"",""trial"",""time""
""fullscreenenter"",""1"",""2213""
","
","
","""event"",""trial"",""time""
""fullscreenenter"",""1"",""2213""
","
","","","1777.199999988079","","","19","10552","5055","l","elianto","#3366ff99","-1"," ","0","+10","[2631.5]","1","2","","","10552","100","8","2","win","no-go","1"
"pit-trial","225","1370666","0.0-105.0","battery-v0.2","","""event"",""trial"",""time""
""fullscreenenter"",""1"",""2213""
","
","
","""event"",""trial"",""time""
""fullscreenenter"",""1"",""2213""
","
","","","-1","","","19","10552","5055","g","elianto","#f73b6a7A","-1","-1","1","0","[]","0","2","","","10552","101","6","4","lose","no-go","0"
"pit-trial","226","1374690","0.0-106.0","battery-v0.2","","""event"",""trial"",""time""
""fullscreenenter"",""1"",""2213""
","
","
","""event"",""trial"",""time""
""fullscreenenter"",""1"",""2213""
","
","","","1169.7000000178814","","","19","10552","5055","u","elianto","#3366ff99","-1"," ","0","0","[2021.1000000238419]","1","2","","","10552","102","9","2","win","no-go","0"
"pit-trial","227","1378605","0.0-107.0","battery-v0.2","","""event"",""trial"",""time""
""fullscreenenter"",""1"",""2213""
","
","
","""event"",""trial"",""time""
""fullscreenenter"",""1"",""2213""
","
","","","1061.5999999940395","","","19","10552","5055","p","elianto","#3366ff99"," "," ","1","+10","[1912.199999988079]","1","2","","","10552","103","5","1","win","go","0"
"pit-trial","228","1383356","0.0-108.0","battery-v0.2","","""event"",""trial"",""time""
""fullscreenenter"",""1"",""2213""
","
","
","""event"",""trial"",""time""
""fullscreenenter"",""1"",""2213""
","
","","","1898.0999999940395","","","19","10552","5055","l","elianto","#3366ff99","-1"," ","0","0","[2748.5999999940395]","1","2","","","10552","104","8","2","win","no-go","0"
"pit-trial","229","1387030","0.0-109.0","battery-v0.2","","""event"",""trial"",""time""
""fullscreenenter"",""1"",""2213""
","
","
","""event"",""trial"",""time""
""fullscreenenter"",""1"",""2213""
","
","","","819.5","","","19","10552","5055","l","elianto","#3366ff99","-1"," ","0","0","[1669.8999999761581]","1","2","","","10552","105","8","2","win","no-go","0"
"pit-trial","230","1390664","0.0-110.0","battery-v0.2","","""event"",""trial"",""time""
""fullscreenenter"",""1"",""2213""
","
","
","""event"",""trial"",""time""
""fullscreenenter"",""1"",""2213""
","
","","","779.9000000059605","","","19","10552","5055","p","elianto","#3366ff99"," "," ","1","+10","[1630.1000000238419]","1","2","","","10552","106","5","1","win","go","0"
"pit-trial","231","1395518","0.0-111.0","battery-v0.2","","""event"",""trial"",""time""
""fullscreenenter"",""1"",""2213""
","
","
","""event"",""trial"",""time""
""fullscreenenter"",""1"",""2213""
","
","","","-1","","","19","10552","5055","g","elianto","#f73b6a7A","-1","-1","1","0","[]","0","2","","","10552","107","6","4","lose","no-go","0"
"pit-trial","232","1400000","0.0-112.0","battery-v0.2","","""event"",""trial"",""time""
""fullscreenenter"",""1"",""2213""
","
","
","""event"",""trial"",""time""
""fullscreenenter"",""1"",""2213""
","
","","","1626","","","19","10552","5055","u","elianto","#3366ff99","-1"," ","0","+10","[2478]","1","2","","","10552","108","9","2","win","no-go","1"
"pit-trial","233","1404072","0.0-113.0","battery-v0.2","","""event"",""trial"",""time""
""fullscreenenter"",""1"",""2213""
","
","
","""event"",""trial"",""time""
""fullscreenenter"",""1"",""2213""
","
","","","1218.7999999821186","","","19","10552","5055","p","elianto","#3366ff99"," "," ","1","+10","[2069.0999999940395]","1","2","","","10552","109","5","1","win","go","0"
"pit-trial","234","1408928","0.0-114.0","battery-v0.2","","""event"",""trial"",""time""
""fullscreenenter"",""1"",""2213""
","
","
","""event"",""trial"",""time""
""fullscreenenter"",""1"",""2213""
","
","","","-1","","","19","10552","5055","g","elianto","#f73b6a7A","-1","-1","1","0","[]","0","2","","","10552","110","6","4","lose","no-go","0"
"pit-trial","235","1412683","0.0-115.0","battery-v0.2","","""event"",""trial"",""time""
""fullscreenenter"",""1"",""2213""
","
","
","""event"",""trial"",""time""
""fullscreenenter"",""1"",""2213""
","
","","","901.1000000238419","","","19","10552","5055","u","elianto","#3366ff99","-1"," ","0","0","[1751.699999988079]","1","2","","","10552","111","9","2","win","no-go","0"
"pit-trial","236","1416277","0.0-116.0","battery-v0.2","","""event"",""trial"",""time""
""fullscreenenter"",""1"",""2213""
","
","
","""event"",""trial"",""time""
""fullscreenenter"",""1"",""2213""
","
","","","740.5999999940395","","","19","10552","5055","l","elianto","#3366ff99","-1"," ","0","0","[1591.5]","1","2","","","10552","112","8","2","win","no-go","0"
"pit-trial","237","1419796","0.0-117.0","battery-v0.2","","""event"",""trial"",""time""
""fullscreenenter"",""1"",""2213""
","
","
","""event"",""trial"",""time""
""fullscreenenter"",""1"",""2213""
","
","","","655.0999999940395","","","19","10552","5055","u","elianto","#3366ff99","-1"," ","0","0","[1505.5999999940395]","1","2","","","10552","113","9","2","win","no-go","0"
"pit-trial","238","1423310","0.0-118.0","battery-v0.2","","""event"",""trial"",""time""
""fullscreenenter"",""1"",""2213""
","
","
","""event"",""trial"",""time""
""fullscreenenter"",""1"",""2213""
","
","","","659.6999999880791","","","19","10552","5055","p","elianto","#3366ff99"," "," ","1","+10","[1510]","1","2","","","10552","114","5","1","win","go","0"
"pit-trial","239","1426831","0.0-119.0","battery-v0.2","","""event"",""trial"",""time""
""fullscreenenter"",""1"",""2213""
","
","
","""event"",""trial"",""time""
""fullscreenenter"",""1"",""2213""
","
","","","666.9000000059605","","","19","10552","5055","l","elianto","#3366ff99","-1"," ","0","0","[1517.9000000059605]","1","2","","","10552","115","8","2","win","no-go","0"
"pit-trial","240","1431686","0.0-120.0","battery-v0.2","","""event"",""trial"",""time""
""fullscreenenter"",""1"",""2213""
","
","
","""event"",""trial"",""time""
""fullscreenenter"",""1"",""2213""
","
","","","-1","","","19","10552","5055","a","elianto","#f73b6a7A"," ","-1","0","-10","[]","0","2","","","10552","116","7","3","lose","go","0"
"pit-trial","241","1436540","0.0-121.0","battery-v0.2","","""event"",""trial"",""time""
""fullscreenenter"",""1"",""2213""
","
","
","""event"",""trial"",""time""
""fullscreenenter"",""1"",""2213""
","
","","","-1","","","19","10552","5055","p","elianto","#3366ff99"," ","-1","0","0","[2906.399999976158]","1","2","","","10552","117","5","1","win","go","0"
"pit-trial","242","1440224","0.0-122.0","battery-v0.2","","""event"",""trial"",""time""
""fullscreenenter"",""1"",""2213""
","
","
","""event"",""trial"",""time""
""fullscreenenter"",""1"",""2213""
","
","","","829.8000000119209","","","19","10552","5055","l","elianto","#3366ff99","-1"," ","0","+10","[1680.5999999940395]","1","2","","","10552","118","8","2","win","no-go","1"
"pit-trial","243","1445080","0.0-123.0","battery-v0.2","","""event"",""trial"",""time""
""fullscreenenter"",""1"",""2213""
","
","
","""event"",""trial"",""time""
""fullscreenenter"",""1"",""2213""
","
","","","-1","","","19","10552","5055","g","elianto","#f73b6a7A","-1","-1","1","0","[]","0","2","","","10552","119","6","4","lose","no-go","0"
"pit-trial","244","1448653","0.0-124.0","battery-v0.2","","""event"",""trial"",""time""
""fullscreenenter"",""1"",""2213""
","
","
","""event"",""trial"",""time""
""fullscreenenter"",""1"",""2213""
","
","","","718.5","","","19","10552","5055","u","elianto","#3366ff99","-1"," ","0","0","[1569.0999999940395]","1","2","","","10552","120","9","2","win","no-go","0"
"pit-trial","245","1452413","0.0-125.0","battery-v0.2","","""event"",""trial"",""time""
""fullscreenenter"",""1"",""2213""
","
","
","""event"",""trial"",""time""
""fullscreenenter"",""1"",""2213""
","
","","","905.9000000059605","","","19","10552","5055","u","elianto","#3366ff99","-1"," ","0","0","[1757.2000000178814]","1","2","","","10552","121","9","2","win","no-go","0"
"pit-trial","246","1456607","0.0-126.0","battery-v0.2","","""event"",""trial"",""time""
""fullscreenenter"",""1"",""2213""
","
","
","""event"",""trial"",""time""
""fullscreenenter"",""1"",""2213""
","
","","","1341.3999999761581","","","19","10552","5055","a","elianto","#f73b6a7A"," "," ","1","0","[122.2999999821186,2191.7999999821186,4162.0999999940395]","3","2","","","10552","122","7","3","lose","go","0"
"pit-trial","247","1460310","0.0-127.0","battery-v0.2","","""event"",""trial"",""time""
""fullscreenenter"",""1"",""2213""
","
","
","""event"",""trial"",""time""
""fullscreenenter"",""1"",""2213""
","
","","","849.2999999821186","","","19","10552","5055","l","elianto","#3366ff99","-1"," ","0","0","[1699.699999988079]","1","2","","","10552","123","8","2","win","no-go","0"
"pit-trial","248","1463972","0.0-128.0","battery-v0.2","","""event"",""trial"",""time""
""fullscreenenter"",""1"",""2213""
","
","
","""event"",""trial"",""time""
""fullscreenenter"",""1"",""2213""
","
","","","808.0999999940395","","","19","10552","5055","p","elianto","#3366ff99"," "," ","1","0","[551,1659.5]","2","2","","","10552","124","5","1","win","go","1"
"pit-trial","249","1467470","0.0-129.0","battery-v0.2","","""event"",""trial"",""time""
""fullscreenenter"",""1"",""2213""
","
","
","""event"",""trial"",""time""
""fullscreenenter"",""1"",""2213""
","
","","","645.5","","","19","10552","5055","u","elianto","#3366ff99","-1"," ","0","+10","[1496.1000000238419]","1","2","","","10552","125","9","2","win","no-go","1"
"pit-trial","250","1470872","0.0-130.0","battery-v0.2","","""event"",""trial"",""time""
""fullscreenenter"",""1"",""2213""
","
","
","""event"",""trial"",""time""
""fullscreenenter"",""1"",""2213""
","
","","","548.3000000119209","","","19","10552","5055","a","elianto","#f73b6a7A"," "," ","1","0","[1398.4000000059605,2597.9000000059605]","2","2","","","10552","126","7","3","lose","go","0"
"pit-trial","251","1474151","0.0-131.0","battery-v0.2","","""event"",""trial"",""time""
""fullscreenenter"",""1"",""2213""
","
","
","""event"",""trial"",""time""
""fullscreenenter"",""1"",""2213""
","
","","","425.30000001192093","","","19","10552","5055","g","elianto","#f73b6a7A","-1"," ","0","0","[1275.4000000059605]","1","2","","","10552","127","6","4","lose","no-go","1"
"pit-trial","252","1477614","0.0-132.0","battery-v0.2","","""event"",""trial"",""time""
""fullscreenenter"",""1"",""2213""
","
","
","""event"",""trial"",""time""
""fullscreenenter"",""1"",""2213""
","
","","","609.3000000119209","","","19","10552","5055","l","elianto","#3366ff99","-1"," ","0","0","[1459.7000000178814]","1","2","","","10552","128","8","2","win","no-go","0"
"pit-trial","253","1480661","0.0-133.0","battery-v0.2","","""event"",""trial"",""time""
""fullscreenenter"",""1"",""2213""
","
","
","""event"",""trial"",""time""
""fullscreenenter"",""1"",""2213""
","
","","","190.59999999403954","","","19","10552","5055","l","elianto","#3366ff99","-1"," ","0","0","[1043.5]","1","2","","","10552","129","8","2","win","no-go","0"
"pit-trial","254","1483827","0.0-134.0","battery-v0.2","","""event"",""trial"",""time""
""fullscreenenter"",""1"",""2213""
","
","
","""event"",""trial"",""time""
""fullscreenenter"",""1"",""2213""
","
","","","312.59999999403954","","","19","10552","5055","a","elianto","#f73b6a7A"," "," ","1","0","[1163.3999999761581]","1","2","","","10552","130","7","3","lose","go","0"
"pit-trial","255","1487612","0.0-135.0","battery-v0.2","","""event"",""trial"",""time""
""fullscreenenter"",""1"",""2213""
","
","
","""event"",""trial"",""time""
""fullscreenenter"",""1"",""2213""
","
","","","930.5","","","19","10552","5055","g","elianto","#f73b6a7A","-1"," ","0","-10","[68.30000001192093,1781.5999999940395]","2","2","","","10552","131","6","4","lose","no-go","0"
"pit-trial","256","1491115","0.0-136.0","battery-v0.2","","""event"",""trial"",""time""
""fullscreenenter"",""1"",""2213""
","
","
","""event"",""trial"",""time""
""fullscreenenter"",""1"",""2213""
","
","","","649.7000000178814","","","19","10552","5055","u","elianto","#3366ff99","-1"," ","0","+10","[1500.7000000178814]","1","2","","","10552","132","9","2","win","no-go","1"
"pit-trial","257","1495176","0.0-137.0","battery-v0.2","","""event"",""trial"",""time""
""fullscreenenter"",""1"",""2213""
","
","
","""event"",""trial"",""time""
""fullscreenenter"",""1"",""2213""
","
","","","1205.6000000238419","","","19","10552","5055","a","elianto","#f73b6a7A"," "," ","1","0","[2057.9000000059605]","1","2","","","10552","133","7","3","lose","go","0"
"pit-trial","258","1500030","0.0-138.0","battery-v0.2","","""event"",""trial"",""time""
""fullscreenenter"",""1"",""2213""
","
","
","""event"",""trial"",""time""
""fullscreenenter"",""1"",""2213""
","
","","","-1","","","19","10552","5055","g","elianto","#f73b6a7A","-1","-1","1","0","[]","0","2","","","10552","134","6","4","lose","no-go","0"
"pit-trial","259","1503951","0.0-139.0","battery-v0.2","","""event"",""trial"",""time""
""fullscreenenter"",""1"",""2213""
","
","
","""event"",""trial"",""time""
""fullscreenenter"",""1"",""2213""
","
","","","1067","","","19","10552","5055","l","elianto","#3366ff99","-1"," ","0","+10","[1917.5]","1","2","","","10552","135","8","2","win","no-go","1"
"pit-trial","260","1507606","0.0-140.0","battery-v0.2","","""event"",""trial"",""time""
""fullscreenenter"",""1"",""2213""
","
","
","""event"",""trial"",""time""
""fullscreenenter"",""1"",""2213""
","
","","","801.3000000119209","","","19","10552","5055","u","elianto","#3366ff99","-1"," ","0","+10","[1651.800000011921]","1","2","","","10552","136","9","2","win","no-go","1"
"pit-trial","261","1511214","0.0-141.0","battery-v0.2","","""event"",""trial"",""time""
""fullscreenenter"",""1"",""2213""
","
","
","""event"",""trial"",""time""
""fullscreenenter"",""1"",""2213""
","
","","","753.1000000238419","","","19","10552","5055","l","elianto","#3366ff99","-1"," ","0","0","[1603.699999988079]","1","2","","","10552","137","8","2","win","no-go","0"
"pit-trial","262","1516068","0.0-142.0","battery-v0.2","","""event"",""trial"",""time""
""fullscreenenter"",""1"",""2213""
","
","
","""event"",""trial"",""time""
""fullscreenenter"",""1"",""2213""
","
","","","-1","","","19","10552","5055","g","elianto","#f73b6a7A","-1","-1","1","-10","[]","0","2","","","10552","138","6","4","lose","no-go","1"
"pit-trial","263","1519789","0.0-143.0","battery-v0.2","","""event"",""trial"",""time""
""fullscreenenter"",""1"",""2213""
","
","
","""event"",""trial"",""time""
""fullscreenenter"",""1"",""2213""
","
","","","867","","","19","10552","5055","a","elianto","#f73b6a7A"," "," ","1","0","[1717.5]","1","2","","","10552","139","7","3","lose","go","0"
"pit-trial","264","1524643","0.0-144.0","battery-v0.2","","""event"",""trial"",""time""
""fullscreenenter"",""1"",""2213""
","
","
","""event"",""trial"",""time""
""fullscreenenter"",""1"",""2213""
","
","","","-1","","","19","10552","5055","u","elianto","#3366ff99","-1","-1","1","+10","[]","0","2","","","10552","140","9","2","win","no-go","0"
"pit-instructions","265","1544747","0.0-145.0","battery-v0.2","","""event"",""trial"",""time""
""fullscreenenter"",""1"",""2213""
","
","
","""event"",""trial"",""time""
""fullscreenenter"",""1"",""2213""
","
","","[{""page_index"":0,""viewing_time"":7771.800000011921},{""page_index"":1,""viewing_time"":12329.299999982119}]","20101.40000000596","","","","","","","","","","","","","","","","","","","","","","","",""
