"trial_type","trial_index","time_elapsed","internal_node_id","task_version","subject_id","interactions","blur_events","focus_events","fullscreenenter_events","fullscreenexit_events","success","view_history","rt","responses","num_errors","age","subject","participantId","rune","rune_set","hex","correct","choice","accuracy","outcome","keys","total_keys","block","practice","value","sub","trial","stimulus","robot","valence","action","sham"
"pavlovia","0","50","0.0-0.0","battery-v0.2","","""event"",""trial"",""time""
""fullscreenenter"",""1"",""7008""
","
","
","""event"",""trial"",""time""
""fullscreenenter"",""1"",""7008""
","
","","","","","","","","","","","","","","","","","","","","","","","","","","",""
"fullscreen","1","7968","0.0-1.0","battery-v0.2","","""event"",""trial"",""time""
""fullscreenenter"",""1"",""7008""
""fullscreenexit"",""2"",""12597""
","
","
","""event"",""trial"",""time""
""fullscreenenter"",""1"",""7008""
","""event"",""trial"",""time""
""fullscreenexit"",""2"",""12597""
","true","","","","","","","","","","","","","","","","","","","","","","","","","",""
"pit-instructions","2","30748","0.0-2.0-0.0","battery-v0.2","","""event"",""trial"",""time""
""fullscreenenter"",""1"",""7008""
""fullscreenexit"",""2"",""12597""
","
","
","""event"",""trial"",""time""
""fullscreenenter"",""1"",""7008""
","""event"",""trial"",""time""
""fullscreenexit"",""2"",""12597""
","","[{""page_index"":0,""viewing_time"":22753.89999999106}]","22758.39999999106","","","","","","","","","","","","","","","","","","","","","","","",""
"pit-comprehension","3","38144","0.0-2.0-1.0-0.0","battery-v0.2","","""event"",""trial"",""time""
""fullscreenenter"",""1"",""7008""
""fullscreenexit"",""2"",""12597""
","
","
","""event"",""trial"",""time""
""fullscreenenter"",""1"",""7008""
","""event"",""trial"",""time""
""fullscreenexit"",""2"",""12597""
","","","7365","[""shark""]","0","17","5025","3170","","","","","","","","","","","","","","","","","","",""
"pit-instructions","4","39743","0.0-2.0-1.0-1.0","battery-v0.2","","""event"",""trial"",""time""
""fullscreenenter"",""1"",""7008""
""fullscreenexit"",""2"",""12597""
","
","
","""event"",""trial"",""time""
""fullscreenenter"",""1"",""7008""
","""event"",""trial"",""time""
""fullscreenexit"",""2"",""12597""
","","[{""page_index"":0,""viewing_time"":1558.2000000029802}]","1559.4000000059605","","","","","","","","","","","","","","","","","","","","","","","",""
"pit-comprehension","5","43423","0.0-2.0-2.0-0.0","battery-v0.2","","""event"",""trial"",""time""
""fullscreenenter"",""1"",""7008""
""fullscreenexit"",""2"",""12597""
","
","
","""event"",""trial"",""time""
""fullscreenenter"",""1"",""7008""
","""event"",""trial"",""time""
""fullscreenexit"",""2"",""12597""
","","","3664.7000000029802","[""tiger""]","0","17","5025","3170","","","","","","","","","","","","","","","","","","",""
"pit-instructions","6","44897","0.0-2.0-2.0-1.0","battery-v0.2","","""event"",""trial"",""time""
""fullscreenenter"",""1"",""7008""
""fullscreenexit"",""2"",""12597""
","
","
","""event"",""trial"",""time""
""fullscreenenter"",""1"",""7008""
","""event"",""trial"",""time""
""fullscreenexit"",""2"",""12597""
","","[{""page_index"":0,""viewing_time"":1459.5}]","1461.2999999970198","","","","","","","","","","","","","","","","","","","","","","","",""
"pit-instructions","7","147709","0.0-2.0-3.0","battery-v0.2","","""event"",""trial"",""time""
""fullscreenenter"",""1"",""7008""
""fullscreenexit"",""2"",""12597""
","
","
","""event"",""trial"",""time""
""fullscreenenter"",""1"",""7008""
","""event"",""trial"",""time""
""fullscreenexit"",""2"",""12597""
","","[{""page_index"":0,""viewing_time"":10847.800000011921},{""page_index"":1,""viewing_time"":6610.29999999702},{""page_index"":2,""viewing_time"":6617.29999999702},{""page_index"":3,""viewing_time"":6747.79999999702},{""page_index"":4,""viewing_time"":6168},{""page_index"":5,""viewing_time"":5633.9000000059605},{""page_index"":6,""viewing_time"":7420.899999991059},{""page_index"":7,""viewing_time"":6656.800000011921},{""page_index"":8,""viewing_time"":7602.29999999702},{""page_index"":9,""viewing_time"":9150},{""page_index"":10,""viewing_time"":7320.5},{""page_index"":11,""viewing_time"":8746.79999999702},{""page_index"":12,""viewing_time"":7521.79999999702},{""page_index"":13,""viewing_time"":5742}]","102789.60000000894","","","","","","","","","","","","","","","","","","","","","","","",""
"pit-trial","8","151159","0.0-2.0-4.0-0.0","battery-v0.2","","""event"",""trial"",""time""
""fullscreenenter"",""1"",""7008""
""fullscreenexit"",""2"",""12597""
","
","
","""event"",""trial"",""time""
""fullscreenenter"",""1"",""7008""
","""event"",""trial"",""time""
""fullscreenexit"",""2"",""12597""
","","","583.1000000089407","","","17","5025","3170","&#9784;","elianto","#FFFFF080"," "," ","1","&#10004","[1431.7000000029802]","1","0","0","","","","","","","",""
"pit-trial","9","154540","0.0-2.0-4.1-0.1","battery-v0.2","","""event"",""trial"",""time""
""fullscreenenter"",""1"",""7008""
""fullscreenexit"",""2"",""12597""
","
","
","""event"",""trial"",""time""
""fullscreenenter"",""1"",""7008""
","""event"",""trial"",""time""
""fullscreenexit"",""2"",""12597""
","","","515.2999999970198","","","17","5025","3170","&#9784;","elianto","#FFFFF080"," "," ","1","&#10004","[1364.7999999970198]","1","0","0","","","","","","","",""
"pit-trial","10","157760","0.0-2.0-4.2-0.2","battery-v0.2","","""event"",""trial"",""time""
""fullscreenenter"",""1"",""7008""
""fullscreenexit"",""2"",""12597""
","
","
","""event"",""trial"",""time""
""fullscreenenter"",""1"",""7008""
","""event"",""trial"",""time""
""fullscreenexit"",""2"",""12597""
","","","350.69999998807907","","","17","5025","3170","&#9784;","elianto","#FFFFF080"," "," ","1","&#10004","[1205.1000000089407]","1","0","0","","","","","","","",""
"pit-trial","11","160983","0.0-2.0-4.3-0.3","battery-v0.2","","""event"",""trial"",""time""
""fullscreenenter"",""1"",""7008""
""fullscreenexit"",""2"",""12597""
","
","
","""event"",""trial"",""time""
""fullscreenenter"",""1"",""7008""
","""event"",""trial"",""time""
""fullscreenexit"",""2"",""12597""
","","","357.6000000089407","","","17","5025","3170","&#9784;","elianto","#FFFFF080"," "," ","1","&#10004","[1207.7999999970198]","1","0","0","","","","","","","",""
"pit-trial","12","164279","0.0-2.0-4.4-0.4","battery-v0.2","","""event"",""trial"",""time""
""fullscreenenter"",""1"",""7008""
""fullscreenexit"",""2"",""12597""
","
","
","""event"",""trial"",""time""
""fullscreenenter"",""1"",""7008""
","""event"",""trial"",""time""
""fullscreenexit"",""2"",""12597""
","","","420.69999998807907","","","17","5025","3170","&#9784;","elianto","#FFFFF080"," "," ","1","&#10004","[1274.1000000089407]","1","0","0","","","","","","","",""
"pit-instructions","13","187318","0.0-2.0-5.0","battery-v0.2","","""event"",""trial"",""time""
""fullscreenenter"",""1"",""7008""
""fullscreenexit"",""2"",""12597""
","
","
","""event"",""trial"",""time""
""fullscreenenter"",""1"",""7008""
","""event"",""trial"",""time""
""fullscreenexit"",""2"",""12597""
","","[{""page_index"":0,""viewing_time"":5481.9000000059605},{""page_index"":1,""viewing_time"":5911.899999991059},{""page_index"":2,""viewing_time"":5235.5},{""page_index"":3,""viewing_time"":6383.5}]","23014.40000000596","","","","","","","","","","","","","","","","","","","","","","","",""
"pit-trial","14","192182","0.0-2.0-6.0-0.0","battery-v0.2","","""event"",""trial"",""time""
""fullscreenenter"",""1"",""7008""
""fullscreenexit"",""2"",""12597""
","
","
","""event"",""trial"",""time""
""fullscreenenter"",""1"",""7008""
","""event"",""trial"",""time""
""fullscreenexit"",""2"",""12597""
","","","-1","","","17","5025","3170","&#9854;","elianto","#FFFFF080","-1","-1","1","&#10004","[]","0","0","1","","","","","","","",""
"pit-trial","15","197050","0.0-2.0-6.1-0.1","battery-v0.2","","""event"",""trial"",""time""
""fullscreenenter"",""1"",""7008""
""fullscreenexit"",""2"",""12597""
","
","
","""event"",""trial"",""time""
""fullscreenenter"",""1"",""7008""
","""event"",""trial"",""time""
""fullscreenexit"",""2"",""12597""
","","","-1","","","17","5025","3170","&#9854;","elianto","#FFFFF080","-1","-1","1","&#10004","[]","0","0","1","","","","","","","",""
"pit-trial","16","201918","0.0-2.0-6.2-0.2","battery-v0.2","","""event"",""trial"",""time""
""fullscreenenter"",""1"",""7008""
""fullscreenexit"",""2"",""12597""
","
","
","""event"",""trial"",""time""
""fullscreenenter"",""1"",""7008""
","""event"",""trial"",""time""
""fullscreenexit"",""2"",""12597""
","","","-1","","","17","5025","3170","&#9854;","elianto","#FFFFF080","-1","-1","1","&#10004","[]","0","0","1","","","","","","","",""
"pit-trial","17","206789","0.0-2.0-6.3-0.3","battery-v0.2","","""event"",""trial"",""time""
""fullscreenenter"",""1"",""7008""
""fullscreenexit"",""2"",""12597""
","
","
","""event"",""trial"",""time""
""fullscreenenter"",""1"",""7008""
","""event"",""trial"",""time""
""fullscreenexit"",""2"",""12597""
","","","-1","","","17","5025","3170","&#9854;","elianto","#FFFFF080","-1","-1","1","&#10004","[]","0","0","1","","","","","","","",""
"pit-trial","18","211651","0.0-2.0-6.4-0.4","battery-v0.2","","""event"",""trial"",""time""
""fullscreenenter"",""1"",""7008""
""fullscreenexit"",""2"",""12597""
","
","
","""event"",""trial"",""time""
""fullscreenenter"",""1"",""7008""
","""event"",""trial"",""time""
""fullscreenexit"",""2"",""12597""
","","","-1","","","17","5025","3170","&#9854;","elianto","#FFFFF080","-1","-1","1","&#10004","[]","0","0","1","","","","","","","",""
"pit-instructions","19","342731","0.0-2.0-7.0","battery-v0.2","","""event"",""trial"",""time""
""fullscreenenter"",""1"",""7008""
""fullscreenexit"",""2"",""12597""
","
","
","""event"",""trial"",""time""
""fullscreenenter"",""1"",""7008""
","""event"",""trial"",""time""
""fullscreenexit"",""2"",""12597""
","","[{""page_index"":0,""viewing_time"":7625.899999991059},{""page_index"":1,""viewing_time"":9145.70000000298},{""page_index"":2,""viewing_time"":6138},{""page_index"":3,""viewing_time"":6480.100000008941},{""page_index"":4,""viewing_time"":6308.5999999940395},{""page_index"":5,""viewing_time"":6753.5},{""page_index"":6,""viewing_time"":4315.9000000059605},{""page_index"":7,""viewing_time"":7654.29999999702},{""page_index"":8,""viewing_time"":7214.5999999940395},{""page_index"":9,""viewing_time"":8293},{""page_index"":10,""viewing_time"":8071.600000008941},{""page_index"":11,""viewing_time"":6083.199999988079},{""page_index"":12,""viewing_time"":8190},{""page_index"":13,""viewing_time"":9009.60000000894},{""page_index"":14,""viewing_time"":8403.59999999404},{""page_index"":15,""viewing_time"":6989.9000000059605},{""page_index"":16,""viewing_time"":6266.399999991059},{""page_index"":17,""viewing_time"":8113.9000000059605}]","131061.39999999106","","","","","","","","","","","","","","","","","","","","","","","",""
"pit-trial","20","346649","0.0-2.0-8.0-0.0","battery-v0.2","","""event"",""trial"",""time""
""fullscreenenter"",""1"",""7008""
""fullscreenexit"",""2"",""12597""
","
","
","""event"",""trial"",""time""
""fullscreenenter"",""1"",""7008""
","""event"",""trial"",""time""
""fullscreenexit"",""2"",""12597""
","","","1050.4000000059605","","","17","5025","3170","&#9776;","elianto","#3366ff99"," "," ","1","+10","[1905.2999999970198]","1","0","1","","","","","","","",""
"pit-trial","21","349936","0.0-2.0-8.0-1.0","battery-v0.2","","""event"",""trial"",""time""
""fullscreenenter"",""1"",""7008""
""fullscreenexit"",""2"",""12597""
","
","
","""event"",""trial"",""time""
""fullscreenenter"",""1"",""7008""
","""event"",""trial"",""time""
""fullscreenexit"",""2"",""12597""
","","","416.30000001192093","","","17","5025","3170","&#9776;","elianto","#3366ff99"," "," ","1","+10","[1273.7000000029802]","1","0","1","","","","","","","",""
"pit-trial","22","353066","0.0-2.0-8.0-2.0","battery-v0.2","","""event"",""trial"",""time""
""fullscreenenter"",""1"",""7008""
""fullscreenexit"",""2"",""12597""
","
","
","""event"",""trial"",""time""
""fullscreenenter"",""1"",""7008""
","""event"",""trial"",""time""
""fullscreenexit"",""2"",""12597""
","","","266.09999999403954","","","17","5025","3170","&#9776;","elianto","#3366ff99"," "," ","1","+10","[1120.4000000059605]","1","0","1","","","","","","","",""
"pit-trial","23","356082","0.0-2.0-8.0-3.0","battery-v0.2","","""event"",""trial"",""time""
""fullscreenenter"",""1"",""7008""
""fullscreenexit"",""2"",""12597""
","
","
","""event"",""trial"",""time""
""fullscreenenter"",""1"",""7008""
","""event"",""trial"",""time""
""fullscreenexit"",""2"",""12597""
","","","148.20000000298023","","","17","5025","3170","&#9776;","elianto","#3366ff99"," "," ","1","0","[1004.9000000059605]","1","0","1","","","","","","","",""
"pit-trial","24","359190","0.0-2.0-8.0-4.0","battery-v0.2","","""event"",""trial"",""time""
""fullscreenenter"",""1"",""7008""
""fullscreenexit"",""2"",""12597""
","
","
","""event"",""trial"",""time""
""fullscreenenter"",""1"",""7008""
","""event"",""trial"",""time""
""fullscreenexit"",""2"",""12597""
","","","240.29999999701977","","","17","5025","3170","&#9776;","elianto","#3366ff99"," "," ","1","+10","[1092.0999999940395]","1","0","1","","","","","","","",""
"pit-trial","25","362347","0.0-2.0-8.1-0.1","battery-v0.2","","""event"",""trial"",""time""
""fullscreenenter"",""1"",""7008""
""fullscreenexit"",""2"",""12597""
","
","
","""event"",""trial"",""time""
""fullscreenenter"",""1"",""7008""
","""event"",""trial"",""time""
""fullscreenexit"",""2"",""12597""
","","","275.5","","","17","5025","3170","&#9776;","elianto","#3366ff99"," "," ","1","+10","[1138.8999999910593]","1","0","1","","","","","","","",""
"pit-trial","26","365417","0.0-2.0-8.1-1.1","battery-v0.2","","""event"",""trial"",""time""
""fullscreenenter"",""1"",""7008""
""fullscreenexit"",""2"",""12597""
","
","
","""event"",""trial"",""time""
""fullscreenenter"",""1"",""7008""
","""event"",""trial"",""time""
""fullscreenexit"",""2"",""12597""
","","","203","","","17","5025","3170","&#9776;","elianto","#3366ff99"," "," ","1","+10","[1059.2999999970198]","1","0","1","","","","","","","",""
"pit-trial","27","368450","0.0-2.0-8.1-2.1","battery-v0.2","","""event"",""trial"",""time""
""fullscreenenter"",""1"",""7008""
""fullscreenexit"",""2"",""12597""
","
","
","""event"",""trial"",""time""
""fullscreenenter"",""1"",""7008""
","""event"",""trial"",""time""
""fullscreenexit"",""2"",""12597""
","","","171.1000000089407","","","17","5025","3170","&#9776;","elianto","#3366ff99"," "," ","1","+10","[1022.0999999940395]","1","0","1","","","","","","","",""
"pit-trial","28","371432","0.0-2.0-8.1-3.1","battery-v0.2","","""event"",""trial"",""time""
""fullscreenenter"",""1"",""7008""
""fullscreenexit"",""2"",""12597""
","
","
","""event"",""trial"",""time""
""fullscreenenter"",""1"",""7008""
","""event"",""trial"",""time""
""fullscreenexit"",""2"",""12597""
","","","116.79999999701977","","","17","5025","3170","&#9776;","elianto","#3366ff99"," "," ","1","0","[966.9000000059605]","1","0","1","","","","","","","",""
"pit-trial","29","374659","0.0-2.0-8.1-4.1","battery-v0.2","","""event"",""trial"",""time""
""fullscreenenter"",""1"",""7008""
""fullscreenexit"",""2"",""12597""
","
","
","""event"",""trial"",""time""
""fullscreenenter"",""1"",""7008""
","""event"",""trial"",""time""
""fullscreenexit"",""2"",""12597""
","","","361.1000000089407","","","17","5025","3170","&#9776;","elianto","#3366ff99"," "," ","1","+10","[1212.5999999940395]","1","0","1","","","","","","","",""
"pit-trial","30","377884","0.0-2.0-8.2-0.2","battery-v0.2","","""event"",""trial"",""time""
""fullscreenenter"",""1"",""7008""
""fullscreenexit"",""2"",""12597""
","
","
","""event"",""trial"",""time""
""fullscreenenter"",""1"",""7008""
","""event"",""trial"",""time""
""fullscreenexit"",""2"",""12597""
","","","355.3999999910593","","","17","5025","3170","&#9776;","elianto","#3366ff99"," "," ","1","+10","[1210.0999999940395]","1","0","1","","","","","","","",""
"pit-trial","31","380936","0.0-2.0-8.2-1.2","battery-v0.2","","""event"",""trial"",""time""
""fullscreenenter"",""1"",""7008""
""fullscreenexit"",""2"",""12597""
","
","
","""event"",""trial"",""time""
""fullscreenenter"",""1"",""7008""
","""event"",""trial"",""time""
""fullscreenexit"",""2"",""12597""
","","","192.20000000298023","","","17","5025","3170","&#9776;","elianto","#3366ff99"," "," ","1","+10","[1042.2999999970198]","1","0","1","","","","","","","",""
"pit-trial","32","383969","0.0-2.0-8.2-2.2","battery-v0.2","","""event"",""trial"",""time""
""fullscreenenter"",""1"",""7008""
""fullscreenexit"",""2"",""12597""
","
","
","""event"",""trial"",""time""
""fullscreenenter"",""1"",""7008""
","""event"",""trial"",""time""
""fullscreenexit"",""2"",""12597""
","","","167.70000000298023","","","17","5025","3170","&#9776;","elianto","#3366ff99"," "," ","1","+10","[1019.1000000089407]","1","0","1","","","","","","","",""
"pit-trial","33","386954","0.0-2.0-8.2-3.2","battery-v0.2","","""event"",""trial"",""time""
""fullscreenenter"",""1"",""7008""
""fullscreenexit"",""2"",""12597""
","
","
","""event"",""trial"",""time""
""fullscreenenter"",""1"",""7008""
","""event"",""trial"",""time""
""fullscreenexit"",""2"",""12597""
","","","119.59999999403954","","","17","5025","3170","&#9776;","elianto","#3366ff99"," "," ","1","0","[972.4000000059605]","1","0","1","","","","","","","",""
"pit-trial","34","389853","0.0-2.0-8.2-4.2","battery-v0.2","","""event"",""trial"",""time""
""fullscreenenter"",""1"",""7008""
""fullscreenexit"",""2"",""12597""
","
","
","""event"",""trial"",""time""
""fullscreenenter"",""1"",""7008""
","""event"",""trial"",""time""
""fullscreenexit"",""2"",""12597""
","","","32.5","","","17","5025","3170","&#9776;","elianto","#3366ff99"," "," ","1","+10","[882.9000000059605]","1","0","1","","","","","","","",""
"call-function","35","389865","0.0-2.0-9.0","battery-v0.2","","""event"",""trial"",""time""
""fullscreenenter"",""1"",""7008""
""fullscreenexit"",""2"",""12597""
","
","
","""event"",""trial"",""time""
""fullscreenenter"",""1"",""7008""
","""event"",""trial"",""time""
""fullscreenexit"",""2"",""12597""
","","","","","","","","","","","","","","","","","","","","","","","","","","",""
"pit-instructions","36","432820","0.0-2.0-10.0","battery-v0.2","","""event"",""trial"",""time""
""fullscreenenter"",""1"",""7008""
""fullscreenexit"",""2"",""12597""
","
","
","""event"",""trial"",""time""
""fullscreenenter"",""1"",""7008""
","""event"",""trial"",""time""
""fullscreenexit"",""2"",""12597""
","","[{""page_index"":0,""viewing_time"":6733.29999999702},{""page_index"":1,""viewing_time"":7490.5},{""page_index"":2,""viewing_time"":10929.20000000298},{""page_index"":3,""viewing_time"":8951.29999999702},{""page_index"":4,""viewing_time"":8846.79999999702}]","42953.29999999702","","","","","","","","","","","","","","","","","","","","","","","",""
"pit-trial","37","437681","0.0-2.0-11.0-0.0","battery-v0.2","","""event"",""trial"",""time""
""fullscreenenter"",""1"",""7008""
""fullscreenexit"",""2"",""12597""
","
","
","""event"",""trial"",""time""
""fullscreenenter"",""1"",""7008""
","""event"",""trial"",""time""
""fullscreenexit"",""2"",""12597""
","","","-1","","","17","5025","3170","&#9761;","elianto","#3366ff99","-1","-1","1","+10","[]","0","0","2","","","","","","","",""
"pit-trial","38","442543","0.0-2.0-11.0-1.0","battery-v0.2","","""event"",""trial"",""time""
""fullscreenenter"",""1"",""7008""
""fullscreenexit"",""2"",""12597""
","
","
","""event"",""trial"",""time""
""fullscreenenter"",""1"",""7008""
","""event"",""trial"",""time""
""fullscreenexit"",""2"",""12597""
","","","-1","","","17","5025","3170","&#9761;","elianto","#3366ff99","-1","-1","1","+10","[]","0","0","2","","","","","","","",""
"pit-trial","39","447408","0.0-2.0-11.0-2.0","battery-v0.2","","""event"",""trial"",""time""
""fullscreenenter"",""1"",""7008""
""fullscreenexit"",""2"",""12597""
","
","
","""event"",""trial"",""time""
""fullscreenenter"",""1"",""7008""
","""event"",""trial"",""time""
""fullscreenexit"",""2"",""12597""
","","","-1","","","17","5025","3170","&#9761;","elianto","#3366ff99","-1","-1","1","+10","[]","0","0","2","","","","","","","",""
"pit-trial","40","452269","0.0-2.0-11.0-3.0","battery-v0.2","","""event"",""trial"",""time""
""fullscreenenter"",""1"",""7008""
""fullscreenexit"",""2"",""12597""
","
","
","""event"",""trial"",""time""
""fullscreenenter"",""1"",""7008""
","""event"",""trial"",""time""
""fullscreenexit"",""2"",""12597""
","","","-1","","","17","5025","3170","&#9761;","elianto","#3366ff99","-1","-1","1","0","[]","0","0","2","","","","","","","",""
"pit-trial","41","457130","0.0-2.0-11.0-4.0","battery-v0.2","","""event"",""trial"",""time""
""fullscreenenter"",""1"",""7008""
""fullscreenexit"",""2"",""12597""
","
","
","""event"",""trial"",""time""
""fullscreenenter"",""1"",""7008""
","""event"",""trial"",""time""
""fullscreenexit"",""2"",""12597""
","","","-1","","","17","5025","3170","&#9761;","elianto","#3366ff99","-1","-1","1","+10","[]","0","0","2","","","","","","","",""
"pit-trial","42","461994","0.0-2.0-11.1-0.1","battery-v0.2","","""event"",""trial"",""time""
""fullscreenenter"",""1"",""7008""
""fullscreenexit"",""2"",""12597""
","
","
","""event"",""trial"",""time""
""fullscreenenter"",""1"",""7008""
","""event"",""trial"",""time""
""fullscreenexit"",""2"",""12597""
","","","-1","","","17","5025","3170","&#9761;","elianto","#3366ff99","-1","-1","1","+10","[]","0","0","2","","","","","","","",""
"pit-trial","43","466862","0.0-2.0-11.1-1.1","battery-v0.2","","""event"",""trial"",""time""
""fullscreenenter"",""1"",""7008""
""fullscreenexit"",""2"",""12597""
","
","
","""event"",""trial"",""time""
""fullscreenenter"",""1"",""7008""
","""event"",""trial"",""time""
""fullscreenexit"",""2"",""12597""
","","","-1","","","17","5025","3170","&#9761;","elianto","#3366ff99","-1","-1","1","+10","[]","0","0","2","","","","","","","",""
"pit-trial","44","471724","0.0-2.0-11.1-2.1","battery-v0.2","","""event"",""trial"",""time""
""fullscreenenter"",""1"",""7008""
""fullscreenexit"",""2"",""12597""
","
","
","""event"",""trial"",""time""
""fullscreenenter"",""1"",""7008""
","""event"",""trial"",""time""
""fullscreenexit"",""2"",""12597""
","","","-1","","","17","5025","3170","&#9761;","elianto","#3366ff99","-1","-1","1","+10","[]","0","0","2","","","","","","","",""
"pit-trial","45","476586","0.0-2.0-11.1-3.1","battery-v0.2","","""event"",""trial"",""time""
""fullscreenenter"",""1"",""7008""
""fullscreenexit"",""2"",""12597""
","
","
","""event"",""trial"",""time""
""fullscreenenter"",""1"",""7008""
","""event"",""trial"",""time""
""fullscreenexit"",""2"",""12597""
","","","-1","","","17","5025","3170","&#9761;","elianto","#3366ff99","-1","-1","1","0","[]","0","0","2","","","","","","","",""
"pit-trial","46","481446","0.0-2.0-11.1-4.1","battery-v0.2","","""event"",""trial"",""time""
""fullscreenenter"",""1"",""7008""
""fullscreenexit"",""2"",""12597""
","
","
","""event"",""trial"",""time""
""fullscreenenter"",""1"",""7008""
","""event"",""trial"",""time""
""fullscreenexit"",""2"",""12597""
","","","-1","","","17","5025","3170","&#9761;","elianto","#3366ff99","-1","-1","1","+10","[]","0","0","2","","","","","","","",""
"pit-trial","47","486315","0.0-2.0-11.2-0.2","battery-v0.2","","""event"",""trial"",""time""
""fullscreenenter"",""1"",""7008""
""fullscreenexit"",""2"",""12597""
","
","
","""event"",""trial"",""time""
""fullscreenenter"",""1"",""7008""
","""event"",""trial"",""time""
""fullscreenexit"",""2"",""12597""
","","","-1","","","17","5025","3170","&#9761;","elianto","#3366ff99","-1","-1","1","+10","[]","0","0","2","","","","","","","",""
"pit-trial","48","491176","0.0-2.0-11.2-1.2","battery-v0.2","","""event"",""trial"",""time""
""fullscreenenter"",""1"",""7008""
""fullscreenexit"",""2"",""12597""
","
","
","""event"",""trial"",""time""
""fullscreenenter"",""1"",""7008""
","""event"",""trial"",""time""
""fullscreenexit"",""2"",""12597""
","","","-1","","","17","5025","3170","&#9761;","elianto","#3366ff99","-1","-1","1","+10","[]","0","0","2","","","","","","","",""
"pit-trial","49","496037","0.0-2.0-11.2-2.2","battery-v0.2","","""event"",""trial"",""time""
""fullscreenenter"",""1"",""7008""
""fullscreenexit"",""2"",""12597""
","
","
","""event"",""trial"",""time""
""fullscreenenter"",""1"",""7008""
","""event"",""trial"",""time""
""fullscreenexit"",""2"",""12597""
","","","-1","","","17","5025","3170","&#9761;","elianto","#3366ff99","-1","-1","1","+10","[]","0","0","2","","","","","","","",""
"pit-trial","50","500900","0.0-2.0-11.2-3.2","battery-v0.2","","""event"",""trial"",""time""
""fullscreenenter"",""1"",""7008""
""fullscreenexit"",""2"",""12597""
","
","
","""event"",""trial"",""time""
""fullscreenenter"",""1"",""7008""
","""event"",""trial"",""time""
""fullscreenexit"",""2"",""12597""
","","","-1","","","17","5025","3170","&#9761;","elianto","#3366ff99","-1","-1","1","0","[]","0","0","2","","","","","","","",""
"pit-trial","51","505768","0.0-2.0-11.2-4.2","battery-v0.2","","""event"",""trial"",""time""
""fullscreenenter"",""1"",""7008""
""fullscreenexit"",""2"",""12597""
","
","
","""event"",""trial"",""time""
""fullscreenenter"",""1"",""7008""
","""event"",""trial"",""time""
""fullscreenexit"",""2"",""12597""
","","","-1","","","17","5025","3170","&#9761;","elianto","#3366ff99","-1","-1","1","+10","[]","0","0","2","","","","","","","",""
"pit-trial","52","510632","0.0-2.0-11.3-0.3","battery-v0.2","","""event"",""trial"",""time""
""fullscreenenter"",""1"",""7008""
""fullscreenexit"",""2"",""12597""
","
","
","""event"",""trial"",""time""
""fullscreenenter"",""1"",""7008""
","""event"",""trial"",""time""
""fullscreenexit"",""2"",""12597""
","","","-1","","","17","5025","3170","&#9761;","elianto","#3366ff99","-1","-1","1","+10","[]","0","0","2","","","","","","","",""
"pit-trial","53","515492","0.0-2.0-11.3-1.3","battery-v0.2","","""event"",""trial"",""time""
""fullscreenenter"",""1"",""7008""
""fullscreenexit"",""2"",""12597""
","
","
","""event"",""trial"",""time""
""fullscreenenter"",""1"",""7008""
","""event"",""trial"",""time""
""fullscreenexit"",""2"",""12597""
","","","-1","","","17","5025","3170","&#9761;","elianto","#3366ff99","-1","-1","1","+10","[]","0","0","2","","","","","","","",""
"pit-trial","54","520359","0.0-2.0-11.3-2.3","battery-v0.2","","""event"",""trial"",""time""
""fullscreenenter"",""1"",""7008""
""fullscreenexit"",""2"",""12597""
","
","
","""event"",""trial"",""time""
""fullscreenenter"",""1"",""7008""
","""event"",""trial"",""time""
""fullscreenexit"",""2"",""12597""
","","","-1","","","17","5025","3170","&#9761;","elianto","#3366ff99","-1","-1","1","+10","[]","0","0","2","","","","","","","",""
"pit-trial","55","525226","0.0-2.0-11.3-3.3","battery-v0.2","","""event"",""trial"",""time""
""fullscreenenter"",""1"",""7008""
""fullscreenexit"",""2"",""12597""
","
","
","""event"",""trial"",""time""
""fullscreenenter"",""1"",""7008""
","""event"",""trial"",""time""
""fullscreenexit"",""2"",""12597""
","","","-1","","","17","5025","3170","&#9761;","elianto","#3366ff99","-1","-1","1","0","[]","0","0","2","","","","","","","",""
"pit-trial","56","530088","0.0-2.0-11.3-4.3","battery-v0.2","","""event"",""trial"",""time""
""fullscreenenter"",""1"",""7008""
""fullscreenexit"",""2"",""12597""
","
","
","""event"",""trial"",""time""
""fullscreenenter"",""1"",""7008""
","""event"",""trial"",""time""
""fullscreenexit"",""2"",""12597""
","","","-1","","","17","5025","3170","&#9761;","elianto","#3366ff99","-1","-1","1","+10","[]","0","0","2","","","","","","","",""
"call-function","57","530096","0.0-2.0-12.0","battery-v0.2","","""event"",""trial"",""time""
""fullscreenenter"",""1"",""7008""
""fullscreenexit"",""2"",""12597""
","
","
","""event"",""trial"",""time""
""fullscreenenter"",""1"",""7008""
","""event"",""trial"",""time""
""fullscreenexit"",""2"",""12597""
","","","","","","","","","","","","","","","","","","","","","","","","","","",""
"pit-instructions","58","570830","0.0-2.0-13.0","battery-v0.2","","""event"",""trial"",""time""
""fullscreenenter"",""1"",""7008""
""fullscreenexit"",""2"",""12597""
","
","
","""event"",""trial"",""time""
""fullscreenenter"",""1"",""7008""
","""event"",""trial"",""time""
""fullscreenexit"",""2"",""12597""
","","[{""page_index"":0,""viewing_time"":5453.79999999702},{""page_index"":1,""viewing_time"":8769.09999999404},{""page_index"":2,""viewing_time"":5895},{""page_index"":3,""viewing_time"":11375.5},{""page_index"":4,""viewing_time"":9214}]","40712","","","","","","","","","","","","","","","","","","","","","","","",""
"pit-trial","59","574085","0.0-2.0-14.0-0.0","battery-v0.2","","""event"",""trial"",""time""
""fullscreenenter"",""1"",""7008""
""fullscreenexit"",""2"",""12597""
","
","
","""event"",""trial"",""time""
""fullscreenenter"",""1"",""7008""
","""event"",""trial"",""time""
""fullscreenexit"",""2"",""12597""
","","","393.40000000596046","","","17","5025","3170","&#9826;","elianto","#f73b6a7A","-1"," ","0","-10","[1241.7999999970198]","1","0","3","","","","","","","",""
"pit-trial","60","577074","0.0-2.0-14.0-1.0","battery-v0.2","","""event"",""trial"",""time""
""fullscreenenter"",""1"",""7008""
""fullscreenexit"",""2"",""12597""
","
","
","""event"",""trial"",""time""
""fullscreenenter"",""1"",""7008""
","""event"",""trial"",""time""
""fullscreenexit"",""2"",""12597""
","","","121.20000000298023","","","17","5025","3170","&#9826;","elianto","#f73b6a7A","-1"," ","0","-10","[971.3999999910593]","1","0","3","","","","","","","",""
"pit-trial","61","581939","0.0-2.0-14.0-2.0","battery-v0.2","","""event"",""trial"",""time""
""fullscreenenter"",""1"",""7008""
""fullscreenexit"",""2"",""12597""
","
","
","""event"",""trial"",""time""
""fullscreenenter"",""1"",""7008""
","""event"",""trial"",""time""
""fullscreenexit"",""2"",""12597""
","","","-1","","","17","5025","3170","&#9826;","elianto","#f73b6a7A","-1","-1","1","0","[]","0","0","3","","","","","","","",""
"pit-trial","62","586803","0.0-2.0-14.0-3.0","battery-v0.2","","""event"",""trial"",""time""
""fullscreenenter"",""1"",""7008""
""fullscreenexit"",""2"",""12597""
","
","
","""event"",""trial"",""time""
""fullscreenenter"",""1"",""7008""
","""event"",""trial"",""time""
""fullscreenexit"",""2"",""12597""
","","","-1","","","17","5025","3170","&#9826;","elianto","#f73b6a7A","-1","-1","1","-10","[]","0","0","3","","","","","","","",""
"pit-trial","63","591665","0.0-2.0-14.0-4.0","battery-v0.2","","""event"",""trial"",""time""
""fullscreenenter"",""1"",""7008""
""fullscreenexit"",""2"",""12597""
","
","
","""event"",""trial"",""time""
""fullscreenenter"",""1"",""7008""
","""event"",""trial"",""time""
""fullscreenexit"",""2"",""12597""
","","","-1","","","17","5025","3170","&#9826;","elianto","#f73b6a7A","-1","-1","1","0","[]","0","0","3","","","","","","","",""
"pit-trial","64","596531","0.0-2.0-14.1-0.1","battery-v0.2","","""event"",""trial"",""time""
""fullscreenenter"",""1"",""7008""
""fullscreenexit"",""2"",""12597""
","
","
","""event"",""trial"",""time""
""fullscreenenter"",""1"",""7008""
","""event"",""trial"",""time""
""fullscreenexit"",""2"",""12597""
","","","-1","","","17","5025","3170","&#9826;","elianto","#f73b6a7A","-1","-1","1","0","[]","0","0","3","","","","","","","",""
"pit-trial","65","601393","0.0-2.0-14.1-1.1","battery-v0.2","","""event"",""trial"",""time""
""fullscreenenter"",""1"",""7008""
""fullscreenexit"",""2"",""12597""
","
","
","""event"",""trial"",""time""
""fullscreenenter"",""1"",""7008""
","""event"",""trial"",""time""
""fullscreenexit"",""2"",""12597""
","","","-1","","","17","5025","3170","&#9826;","elianto","#f73b6a7A","-1","-1","1","0","[]","0","0","3","","","","","","","",""
"pit-trial","66","606258","0.0-2.0-14.1-2.1","battery-v0.2","","""event"",""trial"",""time""
""fullscreenenter"",""1"",""7008""
""fullscreenexit"",""2"",""12597""
","
","
","""event"",""trial"",""time""
""fullscreenenter"",""1"",""7008""
","""event"",""trial"",""time""
""fullscreenexit"",""2"",""12597""
","","","-1","","","17","5025","3170","&#9826;","elianto","#f73b6a7A","-1","-1","1","0","[]","0","0","3","","","","","","","",""
"pit-trial","67","611120","0.0-2.0-14.1-3.1","battery-v0.2","","""event"",""trial"",""time""
""fullscreenenter"",""1"",""7008""
""fullscreenexit"",""2"",""12597""
","
","
","""event"",""trial"",""time""
""fullscreenenter"",""1"",""7008""
","""event"",""trial"",""time""
""fullscreenexit"",""2"",""12597""
","","","-1","","","17","5025","3170","&#9826;","elianto","#f73b6a7A","-1","-1","1","-10","[]","0","0","3","","","","","","","",""
"pit-trial","68","615986","0.0-2.0-14.1-4.1","battery-v0.2","","""event"",""trial"",""time""
""fullscreenenter"",""1"",""7008""
""fullscreenexit"",""2"",""12597""
","
","
","""event"",""trial"",""time""
""fullscreenenter"",""1"",""7008""
","""event"",""trial"",""time""
""fullscreenexit"",""2"",""12597""
","","","-1","","","17","5025","3170","&#9826;","elianto","#f73b6a7A","-1","-1","1","0","[]","0","0","3","","","","","","","",""
"pit-trial","69","620849","0.0-2.0-14.2-0.2","battery-v0.2","","""event"",""trial"",""time""
""fullscreenenter"",""1"",""7008""
""fullscreenexit"",""2"",""12597""
","
","
","""event"",""trial"",""time""
""fullscreenenter"",""1"",""7008""
","""event"",""trial"",""time""
""fullscreenexit"",""2"",""12597""
","","","-1","","","17","5025","3170","&#9826;","elianto","#f73b6a7A","-1","-1","1","0","[]","0","0","3","","","","","","","",""
"pit-trial","70","625715","0.0-2.0-14.2-1.2","battery-v0.2","","""event"",""trial"",""time""
""fullscreenenter"",""1"",""7008""
""fullscreenexit"",""2"",""12597""
","
","
","""event"",""trial"",""time""
""fullscreenenter"",""1"",""7008""
","""event"",""trial"",""time""
""fullscreenexit"",""2"",""12597""
","","","-1","","","17","5025","3170","&#9826;","elianto","#f73b6a7A","-1","-1","1","0","[]","0","0","3","","","","","","","",""
"pit-trial","71","630582","0.0-2.0-14.2-2.2","battery-v0.2","","""event"",""trial"",""time""
""fullscreenenter"",""1"",""7008""
""fullscreenexit"",""2"",""12597""
","
","
","""event"",""trial"",""time""
""fullscreenenter"",""1"",""7008""
","""event"",""trial"",""time""
""fullscreenexit"",""2"",""12597""
","","","-1","","","17","5025","3170","&#9826;","elianto","#f73b6a7A","-1","-1","1","0","[]","0","0","3","","","","","","","",""
"pit-trial","72","635447","0.0-2.0-14.2-3.2","battery-v0.2","","""event"",""trial"",""time""
""fullscreenenter"",""1"",""7008""
""fullscreenexit"",""2"",""12597""
","
","
","""event"",""trial"",""time""
""fullscreenenter"",""1"",""7008""
","""event"",""trial"",""time""
""fullscreenexit"",""2"",""12597""
","","","-1","","","17","5025","3170","&#9826;","elianto","#f73b6a7A","-1","-1","1","-10","[]","0","0","3","","","","","","","",""
"pit-trial","73","640307","0.0-2.0-14.2-4.2","battery-v0.2","","""event"",""trial"",""time""
""fullscreenenter"",""1"",""7008""
""fullscreenexit"",""2"",""12597""
","
","
","""event"",""trial"",""time""
""fullscreenenter"",""1"",""7008""
","""event"",""trial"",""time""
""fullscreenexit"",""2"",""12597""
","","","-1","","","17","5025","3170","&#9826;","elianto","#f73b6a7A","-1","-1","1","0","[]","0","0","3","","","","","","","",""
"pit-trial","74","645170","0.0-2.0-14.3-0.3","battery-v0.2","","""event"",""trial"",""time""
""fullscreenenter"",""1"",""7008""
""fullscreenexit"",""2"",""12597""
","
","
","""event"",""trial"",""time""
""fullscreenenter"",""1"",""7008""
","""event"",""trial"",""time""
""fullscreenexit"",""2"",""12597""
","","","-1","","","17","5025","3170","&#9826;","elianto","#f73b6a7A","-1","-1","1","0","[]","0","0","3","","","","","","","",""
"pit-trial","75","650036","0.0-2.0-14.3-1.3","battery-v0.2","","""event"",""trial"",""time""
""fullscreenenter"",""1"",""7008""
""fullscreenexit"",""2"",""12597""
","
","
","""event"",""trial"",""time""
""fullscreenenter"",""1"",""7008""
","""event"",""trial"",""time""
""fullscreenexit"",""2"",""12597""
","","","-1","","","17","5025","3170","&#9826;","elianto","#f73b6a7A","-1","-1","1","0","[]","0","0","3","","","","","","","",""
"pit-trial","76","654900","0.0-2.0-14.3-2.3","battery-v0.2","","""event"",""trial"",""time""
""fullscreenenter"",""1"",""7008""
""fullscreenexit"",""2"",""12597""
","
","
","""event"",""trial"",""time""
""fullscreenenter"",""1"",""7008""
","""event"",""trial"",""time""
""fullscreenexit"",""2"",""12597""
","","","-1","","","17","5025","3170","&#9826;","elianto","#f73b6a7A","-1","-1","1","0","[]","0","0","3","","","","","","","",""
"pit-trial","77","659765","0.0-2.0-14.3-3.3","battery-v0.2","","""event"",""trial"",""time""
""fullscreenenter"",""1"",""7008""
""fullscreenexit"",""2"",""12597""
","
","
","""event"",""trial"",""time""
""fullscreenenter"",""1"",""7008""
","""event"",""trial"",""time""
""fullscreenexit"",""2"",""12597""
","","","-1","","","17","5025","3170","&#9826;","elianto","#f73b6a7A","-1","-1","1","-10","[]","0","0","3","","","","","","","",""
"pit-trial","78","664629","0.0-2.0-14.3-4.3","battery-v0.2","","""event"",""trial"",""time""
""fullscreenenter"",""1"",""7008""
""fullscreenexit"",""2"",""12597""
","
","
","""event"",""trial"",""time""
""fullscreenenter"",""1"",""7008""
","""event"",""trial"",""time""
""fullscreenexit"",""2"",""12597""
","","","-1","","","17","5025","3170","&#9826;","elianto","#f73b6a7A","-1","-1","1","0","[]","0","0","3","","","","","","","",""
"call-function","79","664643","0.0-2.0-15.0","battery-v0.2","","""event"",""trial"",""time""
""fullscreenenter"",""1"",""7008""
""fullscreenexit"",""2"",""12597""
","
","
","""event"",""trial"",""time""
""fullscreenenter"",""1"",""7008""
","""event"",""trial"",""time""
""fullscreenexit"",""2"",""12597""
","","","","","","","","","","","","","","","","","","","","","","","","","","",""
"pit-instructions","80","690508","0.0-2.0-16.0","battery-v0.2","","""event"",""trial"",""time""
""fullscreenenter"",""1"",""7008""
""fullscreenexit"",""2"",""12597""
","
","
","""event"",""trial"",""time""
""fullscreenenter"",""1"",""7008""
","""event"",""trial"",""time""
""fullscreenexit"",""2"",""12597""
","","[{""page_index"":0,""viewing_time"":7991.29999999702},{""page_index"":1,""viewing_time"":8591.59999999404},{""page_index"":2,""viewing_time"":4109.70000000298},{""page_index"":3,""viewing_time"":5165.70000000298}]","25863.20000000298","","","","","","","","","","","","","","","","","","","","","","","",""
"pit-trial","81","693692","0.0-2.0-17.0-0.0","battery-v0.2","","""event"",""trial"",""time""
""fullscreenenter"",""1"",""7008""
""fullscreenexit"",""2"",""12597""
","
","
","""event"",""trial"",""time""
""fullscreenenter"",""1"",""7008""
","""event"",""trial"",""time""
""fullscreenexit"",""2"",""12597""
","","","326","","","17","5025","3170","&#9789;","elianto","#f73b6a7A"," "," ","1","0","[1176]","1","0","4","","","","","","","",""
"pit-trial","82","698555","0.0-2.0-17.0-1.0","battery-v0.2","","""event"",""trial"",""time""
""fullscreenenter"",""1"",""7008""
""fullscreenexit"",""2"",""12597""
","
","
","""event"",""trial"",""time""
""fullscreenenter"",""1"",""7008""
","""event"",""trial"",""time""
""fullscreenexit"",""2"",""12597""
","","","-1","","","17","5025","3170","&#9789;","elianto","#f73b6a7A"," ","-1","0","-10","[]","0","0","4","","","","","","","",""
"pit-trial","83","701692","0.0-2.0-17.0-2.0","battery-v0.2","","""event"",""trial"",""time""
""fullscreenenter"",""1"",""7008""
""fullscreenexit"",""2"",""12597""
","
","
","""event"",""trial"",""time""
""fullscreenenter"",""1"",""7008""
","""event"",""trial"",""time""
""fullscreenexit"",""2"",""12597""
","","","272.90000000596046","","","17","5025","3170","&#9789;","elianto","#f73b6a7A"," "," ","1","0","[1122.8999999910593]","1","0","4","","","","","","","",""
"pit-trial","84","704726","0.0-2.0-17.0-3.0","battery-v0.2","","""event"",""trial"",""time""
""fullscreenenter"",""1"",""7008""
""fullscreenexit"",""2"",""12597""
","
","
","""event"",""trial"",""time""
""fullscreenenter"",""1"",""7008""
","""event"",""trial"",""time""
""fullscreenexit"",""2"",""12597""
","","","170","","","17","5025","3170","&#9789;","elianto","#f73b6a7A"," "," ","1","-10","[1020.0999999940395]","1","0","4","","","","","","","",""
"pit-trial","85","707648","0.0-2.0-17.0-4.0","battery-v0.2","","""event"",""trial"",""time""
""fullscreenenter"",""1"",""7008""
""fullscreenexit"",""2"",""12597""
","
","
","""event"",""trial"",""time""
""fullscreenenter"",""1"",""7008""
","""event"",""trial"",""time""
""fullscreenexit"",""2"",""12597""
","","","59.3999999910593","","","17","5025","3170","&#9789;","elianto","#f73b6a7A"," "," ","1","0","[909.8999999910593]","1","0","4","","","","","","","",""
"pit-trial","86","710598","0.0-2.0-17.1-0.1","battery-v0.2","","""event"",""trial"",""time""
""fullscreenenter"",""1"",""7008""
""fullscreenexit"",""2"",""12597""
","
","
","""event"",""trial"",""time""
""fullscreenenter"",""1"",""7008""
","""event"",""trial"",""time""
""fullscreenexit"",""2"",""12597""
","","","80.3999999910593","","","17","5025","3170","&#9789;","elianto","#f73b6a7A"," "," ","1","0","[935.1000000089407]","1","0","4","","","","","","","",""
"pit-trial","87","713554","0.0-2.0-17.1-1.1","battery-v0.2","","""event"",""trial"",""time""
""fullscreenenter"",""1"",""7008""
""fullscreenexit"",""2"",""12597""
","
","
","""event"",""trial"",""time""
""fullscreenenter"",""1"",""7008""
","""event"",""trial"",""time""
""fullscreenexit"",""2"",""12597""
","","","90.09999999403954","","","17","5025","3170","&#9789;","elianto","#f73b6a7A"," "," ","1","0","[942.5999999940395]","1","0","4","","","","","","","",""
"pit-trial","88","716498","0.0-2.0-17.1-2.1","battery-v0.2","","""event"",""trial"",""time""
""fullscreenenter"",""1"",""7008""
""fullscreenexit"",""2"",""12597""
","
","
","""event"",""trial"",""time""
""fullscreenenter"",""1"",""7008""
","""event"",""trial"",""time""
""fullscreenexit"",""2"",""12597""
","","","80.8999999910593","","","17","5025","3170","&#9789;","elianto","#f73b6a7A"," "," ","1","0","[930.9000000059605]","1","0","4","","","","","","","",""
"pit-trial","89","719798","0.0-2.0-17.1-3.1","battery-v0.2","","""event"",""trial"",""time""
""fullscreenenter"",""1"",""7008""
""fullscreenexit"",""2"",""12597""
","
","
","""event"",""trial"",""time""
""fullscreenenter"",""1"",""7008""
","""event"",""trial"",""time""
""fullscreenexit"",""2"",""12597""
","","","431.19999998807907","","","17","5025","3170","&#9789;","elianto","#f73b6a7A"," "," ","1","-10","[1284.5]","1","0","4","","","","","","","",""
"pit-trial","90","722886","0.0-2.0-17.1-4.1","battery-v0.2","","""event"",""trial"",""time""
""fullscreenenter"",""1"",""7008""
""fullscreenexit"",""2"",""12597""
","
","
","""event"",""trial"",""time""
""fullscreenenter"",""1"",""7008""
","""event"",""trial"",""time""
""fullscreenexit"",""2"",""12597""
","","","227.8999999910593","","","17","5025","3170","&#9789;","elianto","#f73b6a7A"," "," ","1","0","[1078.4000000059605]","1","0","4","","","","","","","",""
"pit-trial","91","726331","0.0-2.0-17.2-0.2","battery-v0.2","","""event"",""trial"",""time""
""fullscreenenter"",""1"",""7008""
""fullscreenexit"",""2"",""12597""
","
","
","""event"",""trial"",""time""
""fullscreenenter"",""1"",""7008""
","""event"",""trial"",""time""
""fullscreenexit"",""2"",""12597""
","","","582.3999999910593","","","17","5025","3170","&#9789;","elianto","#f73b6a7A"," "," ","1","0","[1432.5]","1","0","4","","","","","","","",""
"pit-trial","92","729264","0.0-2.0-17.2-1.2","battery-v0.2","","""event"",""trial"",""time""
""fullscreenenter"",""1"",""7008""
""fullscreenexit"",""2"",""12597""
","
","
","""event"",""trial"",""time""
""fullscreenenter"",""1"",""7008""
","""event"",""trial"",""time""
""fullscreenexit"",""2"",""12597""
","","","68.69999998807907","","","17","5025","3170","&#9789;","elianto","#f73b6a7A"," "," ","1","0","[923.7999999970198]","1","0","4","","","","","","","",""
"pit-trial","93","732278","0.0-2.0-17.2-2.2","battery-v0.2","","""event"",""trial"",""time""
""fullscreenenter"",""1"",""7008""
""fullscreenexit"",""2"",""12597""
","
","
","""event"",""trial"",""time""
""fullscreenenter"",""1"",""7008""
","""event"",""trial"",""time""
""fullscreenexit"",""2"",""12597""
","","","149.20000000298023","","","17","5025","3170","&#9789;","elianto","#f73b6a7A"," "," ","1","0","[1003.2999999970198]","1","0","4","","","","","","","",""
"pit-trial","94","736241","0.0-2.0-17.2-3.2","battery-v0.2","","""event"",""trial"",""time""
""fullscreenenter"",""1"",""7008""
""fullscreenexit"",""2"",""12597""
","
","
","""event"",""trial"",""time""
""fullscreenenter"",""1"",""7008""
","""event"",""trial"",""time""
""fullscreenexit"",""2"",""12597""
","","","1089.9000000059605","","","17","5025","3170","&#9789;","elianto","#f73b6a7A"," "," ","1","-10","[1947.7000000029802]","1","0","4","","","","","","","",""
"pit-trial","95","739251","0.0-2.0-17.2-4.2","battery-v0.2","","""event"",""trial"",""time""
""fullscreenenter"",""1"",""7008""
""fullscreenexit"",""2"",""12597""
","
","
","""event"",""trial"",""time""
""fullscreenenter"",""1"",""7008""
","""event"",""trial"",""time""
""fullscreenexit"",""2"",""12597""
","","","148.20000000298023","","","17","5025","3170","&#9789;","elianto","#f73b6a7A"," "," ","1","0","[998.2000000029802]","1","0","4","","","","","","","",""
"pit-trial","96","742421","0.0-2.0-17.3-0.3","battery-v0.2","","""event"",""trial"",""time""
""fullscreenenter"",""1"",""7008""
""fullscreenexit"",""2"",""12597""
","
","
","""event"",""trial"",""time""
""fullscreenenter"",""1"",""7008""
","""event"",""trial"",""time""
""fullscreenexit"",""2"",""12597""
","","","302.20000000298023","","","17","5025","3170","&#9789;","elianto","#f73b6a7A"," "," ","1","0","[1152.300000011921]","1","0","4","","","","","","","",""
"pit-trial","97","745636","0.0-2.0-17.3-1.3","battery-v0.2","","""event"",""trial"",""time""
""fullscreenenter"",""1"",""7008""
""fullscreenexit"",""2"",""12597""
","
","
","""event"",""trial"",""time""
""fullscreenenter"",""1"",""7008""
","""event"",""trial"",""time""
""fullscreenexit"",""2"",""12597""
","","","348.8999999910593","","","17","5025","3170","&#9789;","elianto","#f73b6a7A"," "," ","1","0","[1199]","1","0","4","","","","","","","",""
"pit-trial","98","748771","0.0-2.0-17.3-2.3","battery-v0.2","","""event"",""trial"",""time""
""fullscreenenter"",""1"",""7008""
""fullscreenexit"",""2"",""12597""
","
","
","""event"",""trial"",""time""
""fullscreenenter"",""1"",""7008""
","""event"",""trial"",""time""
""fullscreenexit"",""2"",""12597""
","","","270.29999999701977","","","17","5025","3170","&#9789;","elianto","#f73b6a7A"," "," ","1","0","[1120.2999999970198]","1","0","4","","","","","","","",""
"pit-trial","99","751799","0.0-2.0-17.3-3.3","battery-v0.2","","""event"",""trial"",""time""
""fullscreenenter"",""1"",""7008""
""fullscreenexit"",""2"",""12597""
","
","
","""event"",""trial"",""time""
""fullscreenenter"",""1"",""7008""
","""event"",""trial"",""time""
""fullscreenexit"",""2"",""12597""
","","","163.09999999403954","","","17","5025","3170","&#9789;","elianto","#f73b6a7A"," "," ","1","-10","[1013.1000000089407]","1","0","4","","","","","","","",""
"pit-trial","100","754733","0.0-2.0-17.3-4.3","battery-v0.2","","""event"",""trial"",""time""
""fullscreenenter"",""1"",""7008""
""fullscreenexit"",""2"",""12597""
","
","
","""event"",""trial"",""time""
""fullscreenenter"",""1"",""7008""
","""event"",""trial"",""time""
""fullscreenexit"",""2"",""12597""
","","","72.6000000089407","","","17","5025","3170","&#9789;","elianto","#f73b6a7A"," "," ","1","0","[924.4000000059605]","1","0","4","","","","","","","",""
"call-function","101","754741","0.0-2.0-18.0","battery-v0.2","","""event"",""trial"",""time""
""fullscreenenter"",""1"",""7008""
""fullscreenexit"",""2"",""12597""
","
","
","""event"",""trial"",""time""
""fullscreenenter"",""1"",""7008""
","""event"",""trial"",""time""
""fullscreenexit"",""2"",""12597""
","","","","","","","","","","","","","","","","","","","","","","","","","","",""
"pit-instructions","102","828519","0.0-2.0-19.0","battery-v0.2","","""event"",""trial"",""time""
""fullscreenenter"",""1"",""7008""
""fullscreenexit"",""2"",""12597""
","
","
","""event"",""trial"",""time""
""fullscreenenter"",""1"",""7008""
","""event"",""trial"",""time""
""fullscreenexit"",""2"",""12597""
","","[{""page_index"":0,""viewing_time"":7971.20000000298},{""page_index"":1,""viewing_time"":6459},{""page_index"":2,""viewing_time"":14717.39999999106},{""page_index"":3,""viewing_time"":8133.600000008941},{""page_index"":4,""viewing_time"":6905.899999991059},{""page_index"":5,""viewing_time"":9743.10000000894},{""page_index"":6,""viewing_time"":8011.199999988079},{""page_index"":7,""viewing_time"":7452.800000011921},{""page_index"":8,""viewing_time"":4378.199999988079}]","73775.20000000298","","","","","","","","","","","","","","","","","","","","","","","",""
"pit-comprehension","103","833213","0.0-2.0-20.0-0.0","battery-v0.2","","""event"",""trial"",""time""
""fullscreenenter"",""1"",""7008""
""fullscreenexit"",""2"",""12597""
","
","
","""event"",""trial"",""time""
""fullscreenenter"",""1"",""7008""
","""event"",""trial"",""time""
""fullscreenexit"",""2"",""12597""
","","","4671.600000008941","[""SPACE""]","0","17","5025","3170","","","","","","","","","","","","","","","","","","",""
"pit-instructions","104","836638","0.0-2.0-20.0-1.0","battery-v0.2","","""event"",""trial"",""time""
""fullscreenenter"",""1"",""7008""
""fullscreenexit"",""2"",""12597""
","
","
","""event"",""trial"",""time""
""fullscreenenter"",""1"",""7008""
","""event"",""trial"",""time""
""fullscreenexit"",""2"",""12597""
","","[{""page_index"":0,""viewing_time"":3308.5}]","3310.9000000059605","","","","","","","","","","","","","","","","","","","","","","","",""
"pit-comprehension","105","842400","0.0-2.0-21.0-0.0","battery-v0.2","","""event"",""trial"",""time""
""fullscreenenter"",""1"",""7008""
""fullscreenexit"",""2"",""12597""
","
","
","""event"",""trial"",""time""
""fullscreenenter"",""1"",""7008""
","""event"",""trial"",""time""
""fullscreenexit"",""2"",""12597""
","","","5737.0999999940395","[""10""]","0","17","5025","3170","","","","","","","","","","","","","","","","","","",""
"pit-instructions","106","845482","0.0-2.0-21.0-1.0","battery-v0.2","","""event"",""trial"",""time""
""fullscreenenter"",""1"",""7008""
""fullscreenexit"",""2"",""12597""
","
","
","""event"",""trial"",""time""
""fullscreenenter"",""1"",""7008""
","""event"",""trial"",""time""
""fullscreenexit"",""2"",""12597""
","","[{""page_index"":0,""viewing_time"":2903.4000000059605}]","2904.2999999970198","","","","","","","","","","","","","","","","","","","","","","","",""
"pit-comprehension","107","853767","0.0-2.0-22.0-0.0","battery-v0.2","","""event"",""trial"",""time""
""fullscreenenter"",""1"",""7008""
""fullscreenexit"",""2"",""12597""
","
","
","""event"",""trial"",""time""
""fullscreenenter"",""1"",""7008""
","""event"",""trial"",""time""
""fullscreenexit"",""2"",""12597""
","","","8264.89999999106","[""-10""]","1","17","5025","3170","","","","","","","","","","","","","","","","","","",""
"pit-instructions","108","859423","0.0-2.0-22.0-1.0","battery-v0.2","","""event"",""trial"",""time""
""fullscreenenter"",""1"",""7008""
""fullscreenexit"",""2"",""12597""
","
","
","""event"",""trial"",""time""
""fullscreenenter"",""1"",""7008""
","""event"",""trial"",""time""
""fullscreenexit"",""2"",""12597""
","","[{""page_index"":0,""viewing_time"":5515.5}]","5516.9000000059605","","","","","","","","","","","","","","","","","","","","","","","",""
"pit-instructions","109","861018","0.0-2.0-22.0-2.0-0.0","battery-v0.2","","""event"",""trial"",""time""
""fullscreenenter"",""1"",""7008""
""fullscreenexit"",""2"",""12597""
","
","
","""event"",""trial"",""time""
""fullscreenenter"",""1"",""7008""
","""event"",""trial"",""time""
""fullscreenexit"",""2"",""12597""
","","[{""page_index"":0,""viewing_time"":1583.4000000059605}]","1585.2000000029802","","","","","","","","","","","","","","","","","","","","","","","",""
"pit-comprehension","110","867590","0.0-2.0-22.1-0.1","battery-v0.2","","""event"",""trial"",""time""
""fullscreenenter"",""1"",""7008""
""fullscreenexit"",""2"",""12597""
","
","
","""event"",""trial"",""time""
""fullscreenenter"",""1"",""7008""
","""event"",""trial"",""time""
""fullscreenexit"",""2"",""12597""
","","","6557.5999999940395","[""0""]","0","17","5025","3170","","","","","","","","","","","","","","","","","","",""
"pit-instructions","111","873104","0.0-2.0-22.1-1.1","battery-v0.2","","""event"",""trial"",""time""
""fullscreenenter"",""1"",""7008""
""fullscreenexit"",""2"",""12597""
","
","
","""event"",""trial"",""time""
""fullscreenenter"",""1"",""7008""
","""event"",""trial"",""time""
""fullscreenexit"",""2"",""12597""
","","[{""page_index"":0,""viewing_time"":5385}]","5386.29999999702","","","","","","","","","","","","","","","","","","","","","","","",""
"pit-comprehension","112","885105","0.0-2.0-23.0-0.0","battery-v0.2","","""event"",""trial"",""time""
""fullscreenenter"",""1"",""7008""
""fullscreenexit"",""2"",""12597""
","
","
","""event"",""trial"",""time""
""fullscreenenter"",""1"",""7008""
","""event"",""trial"",""time""
""fullscreenexit"",""2"",""12597""
","","","11984.29999999702","[""True""]","0","17","5025","3170","","","","","","","","","","","","","","","","","","",""
"pit-instructions","113","887791","0.0-2.0-23.0-1.0","battery-v0.2","","""event"",""trial"",""time""
""fullscreenenter"",""1"",""7008""
""fullscreenexit"",""2"",""12597""
","
","
","""event"",""trial"",""time""
""fullscreenenter"",""1"",""7008""
","""event"",""trial"",""time""
""fullscreenexit"",""2"",""12597""
","","[{""page_index"":0,""viewing_time"":2486.9000000059605}]","2489.7999999970198","","","","","","","","","","","","","","","","","","","","","","","",""
"pit-comprehension","114","895547","0.0-2.0-24.0-0.0","battery-v0.2","","""event"",""trial"",""time""
""fullscreenenter"",""1"",""7008""
""fullscreenexit"",""2"",""12597""
","
","
","""event"",""trial"",""time""
""fullscreenenter"",""1"",""7008""
","""event"",""trial"",""time""
""fullscreenexit"",""2"",""12597""
","","","7738.70000000298","[""True""]","0","17","5025","3170","","","","","","","","","","","","","","","","","","",""
"pit-instructions","115","899329","0.0-2.0-24.0-1.0","battery-v0.2","","""event"",""trial"",""time""
""fullscreenenter"",""1"",""7008""
""fullscreenexit"",""2"",""12597""
","
","
","""event"",""trial"",""time""
""fullscreenenter"",""1"",""7008""
","""event"",""trial"",""time""
""fullscreenexit"",""2"",""12597""
","","[{""page_index"":0,""viewing_time"":3583.1000000089407}]","3585.7000000029802","","","","","","","","","","","","","","","","","","","","","","","",""
"pit-comprehension","116","905971","0.0-2.0-25.0-0.0","battery-v0.2","","""event"",""trial"",""time""
""fullscreenenter"",""1"",""7008""
""fullscreenexit"",""2"",""12597""
","
","
","""event"",""trial"",""time""
""fullscreenenter"",""1"",""7008""
","""event"",""trial"",""time""
""fullscreenexit"",""2"",""12597""
","","","6625.5","[""True""]","0","17","5025","3170","","","","","","","","","","","","","","","","","","",""
"pit-instructions","117","912844","0.0-2.0-25.0-1.0","battery-v0.2","","""event"",""trial"",""time""
""fullscreenenter"",""1"",""7008""
""fullscreenexit"",""2"",""12597""
","
","
","""event"",""trial"",""time""
""fullscreenenter"",""1"",""7008""
","""event"",""trial"",""time""
""fullscreenexit"",""2"",""12597""
","","[{""page_index"":0,""viewing_time"":6667.4000000059605}]","6669.4000000059605","","","","","","","","","","","","","","","","","","","","","","","",""
"pit-comprehension","118","918149","0.0-2.0-26.0-0.0","battery-v0.2","","""event"",""trial"",""time""
""fullscreenenter"",""1"",""7008""
""fullscreenexit"",""2"",""12597""
","
","
","""event"",""trial"",""time""
""fullscreenenter"",""1"",""7008""
","""event"",""trial"",""time""
""fullscreenexit"",""2"",""12597""
","","","5289.29999999702","[""False""]","0","17","5025","3170","","","","","","","","","","","","","","","","","","",""
"pit-instructions","119","921037","0.0-2.0-26.0-1.0","battery-v0.2","","""event"",""trial"",""time""
""fullscreenenter"",""1"",""7008""
""fullscreenexit"",""2"",""12597""
","
","
","""event"",""trial"",""time""
""fullscreenenter"",""1"",""7008""
","""event"",""trial"",""time""
""fullscreenexit"",""2"",""12597""
","","[{""page_index"":0,""viewing_time"":2763.7999999970198}]","2765.5999999940395","","","","","","","","","","","","","","","","","","","","","","","",""
"pit-instructions","120","938332","0.0-3.0","battery-v0.2","","""event"",""trial"",""time""
""fullscreenenter"",""1"",""7008""
""fullscreenexit"",""2"",""12597""
","
","
","""event"",""trial"",""time""
""fullscreenenter"",""1"",""7008""
","""event"",""trial"",""time""
""fullscreenexit"",""2"",""12597""
","","[{""page_index"":0,""viewing_time"":4442},{""page_index"":1,""viewing_time"":5439.79999999702},{""page_index"":2,""viewing_time"":7400.70000000298}]","17284.70000000298","","","","","","","","","","","","","","","","","","","","","","","",""
"pit-trial","121","941662","0.0-4.0","battery-v0.2","","""event"",""trial"",""time""
""fullscreenenter"",""1"",""7008""
""fullscreenexit"",""2"",""12597""
","
","
","""event"",""trial"",""time""
""fullscreenenter"",""1"",""7008""
","""event"",""trial"",""time""
""fullscreenexit"",""2"",""12597""
","","","458.5","","","17","5025","3170","&#9728;","elianto","#f73b6a7A","-1"," ","0","0","[1309.7000000029802]","1","1","","","5025","1","0","4","lose","no-go","1"
"pit-trial","122","945329","0.0-5.0","battery-v0.2","","""event"",""trial"",""time""
""fullscreenenter"",""1"",""7008""
""fullscreenexit"",""2"",""12597""
","
","
","""event"",""trial"",""time""
""fullscreenenter"",""1"",""7008""
","""event"",""trial"",""time""
""fullscreenexit"",""2"",""12597""
","","","804.5999999940395","","","17","5025","3170","&#9730;","elianto","#3366ff99"," "," ","1","+10","[1654.9000000059605]","1","1","","","5025","2","1","1","win","go","0"
"pit-trial","123","950206","0.0-6.0","battery-v0.2","","""event"",""trial"",""time""
""fullscreenenter"",""1"",""7008""
""fullscreenexit"",""2"",""12597""
","
","
","""event"",""trial"",""time""
""fullscreenenter"",""1"",""7008""
","""event"",""trial"",""time""
""fullscreenexit"",""2"",""12597""
","","","-1","","","17","5025","3170","&#9733;","elianto","#3366ff99","-1","-1","1","+10","[]","0","1","","","5025","3","2","2","win","no-go","0"
"pit-trial","124","954026","0.0-7.0","battery-v0.2","","""event"",""trial"",""time""
""fullscreenenter"",""1"",""7008""
""fullscreenexit"",""2"",""12597""
","
","
","""event"",""trial"",""time""
""fullscreenenter"",""1"",""7008""
","""event"",""trial"",""time""
""fullscreenexit"",""2"",""12597""
","","","956.2999999970198","","","17","5025","3170","&#9752;","elianto","#f73b6a7A"," "," ","1","0","[1807]","1","1","","","5025","4","3","3","lose","go","0"
"pit-trial","125","958890","0.0-8.0","battery-v0.2","","""event"",""trial"",""time""
""fullscreenenter"",""1"",""7008""
""fullscreenexit"",""2"",""12597""
","
","
","""event"",""trial"",""time""
""fullscreenenter"",""1"",""7008""
","""event"",""trial"",""time""
""fullscreenexit"",""2"",""12597""
","","","-1","","","17","5025","3170","&#9733;","elianto","#3366ff99","-1","-1","1","+10","[]","0","1","","","5025","5","2","2","win","no-go","0"
"pit-trial","126","962483","0.0-9.0","battery-v0.2","","""event"",""trial"",""time""
""fullscreenenter"",""1"",""7008""
""fullscreenexit"",""2"",""12597""
","
","
","""event"",""trial"",""time""
""fullscreenenter"",""1"",""7008""
","""event"",""trial"",""time""
""fullscreenexit"",""2"",""12597""
","","","728.2999999970198","","","17","5025","3170","&#9730;","elianto","#3366ff99"," "," ","1","+10","[1582.4000000059605]","1","1","","","5025","6","1","1","win","go","0"
"pit-trial","127","966038","0.0-10.0","battery-v0.2","","""event"",""trial"",""time""
""fullscreenenter"",""1"",""7008""
""fullscreenexit"",""2"",""12597""
","
","
","""event"",""trial"",""time""
""fullscreenenter"",""1"",""7008""
","""event"",""trial"",""time""
""fullscreenexit"",""2"",""12597""
","","","691.5","","","17","5025","3170","&#9728;","elianto","#f73b6a7A","-1"," ","0","-10","[1541.9000000059605]","1","1","","","5025","7","0","4","lose","no-go","0"
"pit-trial","128","969654","0.0-11.0","battery-v0.2","","""event"",""trial"",""time""
""fullscreenenter"",""1"",""7008""
""fullscreenexit"",""2"",""12597""
","
","
","""event"",""trial"",""time""
""fullscreenenter"",""1"",""7008""
","""event"",""trial"",""time""
""fullscreenexit"",""2"",""12597""
","","","747.7999999970198","","","17","5025","3170","&#9752;","elianto","#f73b6a7A"," "," ","1","0","[1597.7999999970198]","1","1","","","5025","8","3","3","lose","go","0"
"pit-trial","129","974516","0.0-12.0","battery-v0.2","","""event"",""trial"",""time""
""fullscreenenter"",""1"",""7008""
""fullscreenexit"",""2"",""12597""
","
","
","""event"",""trial"",""time""
""fullscreenenter"",""1"",""7008""
","""event"",""trial"",""time""
""fullscreenexit"",""2"",""12597""
","","","-1","","","17","5025","3170","&#9728;","elianto","#f73b6a7A","-1","-1","1","0","[]","0","1","","","5025","9","0","4","lose","no-go","0"
"pit-trial","130","978001","0.0-13.0","battery-v0.2","","""event"",""trial"",""time""
""fullscreenenter"",""1"",""7008""
""fullscreenexit"",""2"",""12597""
","
","
","""event"",""trial"",""time""
""fullscreenenter"",""1"",""7008""
","""event"",""trial"",""time""
""fullscreenexit"",""2"",""12597""
","","","613.7999999970198","","","17","5025","3170","&#9730;","elianto","#3366ff99"," "," ","1","+10","[1469.6000000089407]","1","1","","","5025","10","1","1","win","go","0"
"pit-trial","131","981718","0.0-14.0","battery-v0.2","","""event"",""trial"",""time""
""fullscreenenter"",""1"",""7008""
""fullscreenexit"",""2"",""12597""
","
","
","""event"",""trial"",""time""
""fullscreenenter"",""1"",""7008""
","""event"",""trial"",""time""
""fullscreenexit"",""2"",""12597""
","","","851.8999999910593","","","17","5025","3170","&#9752;","elianto","#f73b6a7A"," "," ","1","0","[1704.2000000029802]","1","1","","","5025","11","3","3","lose","go","0"
"pit-trial","132","985040","0.0-15.0","battery-v0.2","","""event"",""trial"",""time""
""fullscreenenter"",""1"",""7008""
""fullscreenexit"",""2"",""12597""
","
","
","""event"",""trial"",""time""
""fullscreenenter"",""1"",""7008""
","""event"",""trial"",""time""
""fullscreenexit"",""2"",""12597""
","","","452.90000000596046","","","17","5025","3170","&#9733;","elianto","#3366ff99","-1"," ","0","+10","[1308.5]","1","1","","","5025","12","2","2","win","no-go","1"
"pit-trial","133","989910","0.0-16.0","battery-v0.2","","""event"",""trial"",""time""
""fullscreenenter"",""1"",""7008""
""fullscreenexit"",""2"",""12597""
","
","
","""event"",""trial"",""time""
""fullscreenenter"",""1"",""7008""
","""event"",""trial"",""time""
""fullscreenexit"",""2"",""12597""
","","","-1","","","17","5025","3170","&#9728;","elianto","#f73b6a7A","-1","-1","1","0","[]","0","1","","","5025","13","0","4","lose","no-go","0"
"pit-trial","134","993783","0.0-17.0","battery-v0.2","","""event"",""trial"",""time""
""fullscreenenter"",""1"",""7008""
""fullscreenexit"",""2"",""12597""
","
","
","""event"",""trial"",""time""
""fullscreenenter"",""1"",""7008""
","""event"",""trial"",""time""
""fullscreenexit"",""2"",""12597""
","","","993.5","","","17","5025","3170","&#9730;","elianto","#3366ff99"," "," ","1","+10","[1850.1000000089407]","1","1","","","5025","14","1","1","win","go","0"
"pit-trial","135","997334","0.0-18.0","battery-v0.2","","""event"",""trial"",""time""
""fullscreenenter"",""1"",""7008""
""fullscreenexit"",""2"",""12597""
","
","
","""event"",""trial"",""time""
""fullscreenenter"",""1"",""7008""
","""event"",""trial"",""time""
""fullscreenexit"",""2"",""12597""
","","","688.6999999880791","","","17","5025","3170","&#9752;","elianto","#f73b6a7A"," "," ","1","0","[1538.5]","1","1","","","5025","15","3","3","lose","go","0"
"pit-trial","136","1001118","0.0-19.0","battery-v0.2","","""event"",""trial"",""time""
""fullscreenenter"",""1"",""7008""
""fullscreenexit"",""2"",""12597""
","
","
","""event"",""trial"",""time""
""fullscreenenter"",""1"",""7008""
","""event"",""trial"",""time""
""fullscreenexit"",""2"",""12597""
","","","916.6000000089407","","","17","5025","3170","&#9733;","elianto","#3366ff99","-1"," ","0","0","[1766.7999999970198]","1","1","","","5025","16","2","2","win","no-go","0"
"pit-trial","137","1004727","0.0-20.0","battery-v0.2","","""event"",""trial"",""time""
""fullscreenenter"",""1"",""7008""
""fullscreenexit"",""2"",""12597""
","
","
","""event"",""trial"",""time""
""fullscreenenter"",""1"",""7008""
","""event"",""trial"",""time""
""fullscreenexit"",""2"",""12597""
","","","737.2999999970198","","","17","5025","3170","&#9733;","elianto","#3366ff99","-1"," ","0","0","[1591.0999999940395]","1","1","","","5025","17","2","2","win","no-go","0"
"pit-trial","138","1008272","0.0-21.0","battery-v0.2","","""event"",""trial"",""time""
""fullscreenenter"",""1"",""7008""
""fullscreenexit"",""2"",""12597""
","
","
","""event"",""trial"",""time""
""fullscreenenter"",""1"",""7008""
","""event"",""trial"",""time""
""fullscreenexit"",""2"",""12597""
","","","685","","","17","5025","3170","&#9752;","elianto","#f73b6a7A"," "," ","1","0","[1535.0999999940395]","1","1","","","5025","18","3","3","lose","go","0"
"pit-trial","139","1013139","0.0-22.0","battery-v0.2","","""event"",""trial"",""time""
""fullscreenenter"",""1"",""7008""
""fullscreenexit"",""2"",""12597""
","
","
","""event"",""trial"",""time""
""fullscreenenter"",""1"",""7008""
","""event"",""trial"",""time""
""fullscreenexit"",""2"",""12597""
","","","-1","","","17","5025","3170","&#9728;","elianto","#f73b6a7A","-1","-1","1","0","[]","0","1","","","5025","19","0","4","lose","no-go","0"
"pit-trial","140","1017005","0.0-23.0","battery-v0.2","","""event"",""trial"",""time""
""fullscreenenter"",""1"",""7008""
""fullscreenexit"",""2"",""12597""
","
","
","""event"",""trial"",""time""
""fullscreenenter"",""1"",""7008""
","""event"",""trial"",""time""
""fullscreenexit"",""2"",""12597""
","","","1000.0999999940395","","","17","5025","3170","&#9730;","elianto","#3366ff99"," "," ","1","0","[1850.2000000029802]","1","1","","","5025","20","1","1","win","go","1"
"pit-instructions","141","1032031","0.0-24.0","battery-v0.2","","""event"",""trial"",""time""
""fullscreenenter"",""1"",""7008""
""fullscreenexit"",""2"",""12597""
","
","
","""event"",""trial"",""time""
""fullscreenenter"",""1"",""7008""
","""event"",""trial"",""time""
""fullscreenexit"",""2"",""12597""
","","[{""page_index"":0,""viewing_time"":7381.5},{""page_index"":1,""viewing_time"":7634.5999999940395}]","15017","","","","","","","","","","","","","","","","","","","","","","","",""
"pit-trial","142","1035321","0.0-25.0","battery-v0.2","","""event"",""trial"",""time""
""fullscreenenter"",""1"",""7008""
""fullscreenexit"",""2"",""12597""
","
","
","""event"",""trial"",""time""
""fullscreenenter"",""1"",""7008""
","""event"",""trial"",""time""
""fullscreenexit"",""2"",""12597""
","","","417.20000000298023","","","17","5025","3170","d","elianto","#3366ff99"," "," ","1","+10","[1269.7000000029802]","1","2","","","5025","21","1","1","win","go","0"
"pit-trial","143","1040185","0.0-26.0","battery-v0.2","","""event"",""trial"",""time""
""fullscreenenter"",""1"",""7008""
""fullscreenexit"",""2"",""12597""
","
","
","""event"",""trial"",""time""
""fullscreenenter"",""1"",""7008""
","""event"",""trial"",""time""
""fullscreenexit"",""2"",""12597""
","","","-1","","","17","5025","3170","e","elianto","#f73b6a7A","-1","-1","1","0","[]","0","2","","","5025","22","2","4","lose","no-go","0"
"pit-trial","144","1043785","0.0-27.0","battery-v0.2","","""event"",""trial"",""time""
""fullscreenenter"",""1"",""7008""
""fullscreenexit"",""2"",""12597""
","
","
","""event"",""trial"",""time""
""fullscreenenter"",""1"",""7008""
","""event"",""trial"",""time""
""fullscreenexit"",""2"",""12597""
","","","736.5","","","17","5025","3170","w","elianto","#f73b6a7A"," "," ","1","-10","[1589.7000000029802]","1","2","","","5025","23","3","3","lose","go","1"
"pit-trial","145","1048650","0.0-28.0","battery-v0.2","","""event"",""trial"",""time""
""fullscreenenter"",""1"",""7008""
""fullscreenexit"",""2"",""12597""
","
","
","""event"",""trial"",""time""
""fullscreenenter"",""1"",""7008""
","""event"",""trial"",""time""
""fullscreenexit"",""2"",""12597""
","","","-1","","","17","5025","3170","j","elianto","#f73b6a7A","-1","-1","1","0","[]","0","2","","","5025","24","0","4","lose","no-go","0"
"pit-trial","146","1052303","0.0-29.0","battery-v0.2","","""event"",""trial"",""time""
""fullscreenenter"",""1"",""7008""
""fullscreenexit"",""2"",""12597""
","
","
","""event"",""trial"",""time""
""fullscreenenter"",""1"",""7008""
","""event"",""trial"",""time""
""fullscreenexit"",""2"",""12597""
","","","787.5999999940395","","","17","5025","3170","d","elianto","#3366ff99"," "," ","1","+10","[1639.5]","1","2","","","5025","25","1","1","win","go","0"
"pit-trial","147","1057165","0.0-30.0","battery-v0.2","","""event"",""trial"",""time""
""fullscreenenter"",""1"",""7008""
""fullscreenexit"",""2"",""12597""
","
","
","""event"",""trial"",""time""
""fullscreenenter"",""1"",""7008""
","""event"",""trial"",""time""
""fullscreenexit"",""2"",""12597""
","","","-1","","","17","5025","3170","e","elianto","#f73b6a7A","-1","-1","1","0","[]","0","2","","","5025","26","2","4","lose","no-go","0"
"pit-trial","148","1062030","0.0-31.0","battery-v0.2","","""event"",""trial"",""time""
""fullscreenenter"",""1"",""7008""
""fullscreenexit"",""2"",""12597""
","
","
","""event"",""trial"",""time""
""fullscreenenter"",""1"",""7008""
","""event"",""trial"",""time""
""fullscreenexit"",""2"",""12597""
","","","-1","","","17","5025","3170","j","elianto","#f73b6a7A","-1","-1","1","-10","[]","0","2","","","5025","27","0","4","lose","no-go","1"
"pit-trial","149","1066892","0.0-32.0","battery-v0.2","","""event"",""trial"",""time""
""fullscreenenter"",""1"",""7008""
""fullscreenexit"",""2"",""12597""
","
","
","""event"",""trial"",""time""
""fullscreenenter"",""1"",""7008""
","""event"",""trial"",""time""
""fullscreenexit"",""2"",""12597""
","","","-1","","","17","5025","3170","w","elianto","#f73b6a7A"," ","-1","0","-10","[]","0","2","","","5025","28","3","3","lose","go","0"
"pit-trial","150","1070782","0.0-33.0","battery-v0.2","","""event"",""trial"",""time""
""fullscreenenter"",""1"",""7008""
""fullscreenexit"",""2"",""12597""
","
","
","""event"",""trial"",""time""
""fullscreenenter"",""1"",""7008""
","""event"",""trial"",""time""
""fullscreenexit"",""2"",""12597""
","","","1026","","","17","5025","3170","w","elianto","#f73b6a7A"," "," ","1","-10","[1876.0999999940395]","1","2","","","5025","29","3","3","lose","go","1"
"pit-trial","151","1074567","0.0-34.0","battery-v0.2","","""event"",""trial"",""time""
""fullscreenenter"",""1"",""7008""
""fullscreenexit"",""2"",""12597""
","
","
","""event"",""trial"",""time""
""fullscreenenter"",""1"",""7008""
","""event"",""trial"",""time""
""fullscreenexit"",""2"",""12597""
","","","921.2999999970198","","","17","5025","3170","d","elianto","#3366ff99"," "," ","1","0","[1773.5]","1","2","","","5025","30","1","1","win","go","1"
"pit-trial","152","1078546","0.0-35.0","battery-v0.2","","""event"",""trial"",""time""
""fullscreenenter"",""1"",""7008""
""fullscreenexit"",""2"",""12597""
","
","
","""event"",""trial"",""time""
""fullscreenenter"",""1"",""7008""
","""event"",""trial"",""time""
""fullscreenexit"",""2"",""12597""
","","","1112.5","","","17","5025","3170","e","elianto","#f73b6a7A","-1"," ","0","-10","[1969.2999999970198]","1","2","","","5025","31","2","4","lose","no-go","0"
"pit-trial","153","1082416","0.0-36.0","battery-v0.2","","""event"",""trial"",""time""
""fullscreenenter"",""1"",""7008""
""fullscreenexit"",""2"",""12597""
","
","
","""event"",""trial"",""time""
""fullscreenenter"",""1"",""7008""
","""event"",""trial"",""time""
""fullscreenexit"",""2"",""12597""
","","","1001.2999999970198","","","17","5025","3170","j","elianto","#f73b6a7A","-1"," ","0","-10","[1859.5]","1","2","","","5025","32","0","4","lose","no-go","0"
"pit-trial","154","1085963","0.0-37.0","battery-v0.2","","""event"",""trial"",""time""
""fullscreenenter"",""1"",""7008""
""fullscreenexit"",""2"",""12597""
","
","
","""event"",""trial"",""time""
""fullscreenenter"",""1"",""7008""
","""event"",""trial"",""time""
""fullscreenexit"",""2"",""12597""
","","","681.0999999940395","","","17","5025","3170","d","elianto","#3366ff99"," "," ","1","+10","[1538.7999999970198]","1","2","","","5025","33","1","1","win","go","0"
"pit-trial","155","1090824","0.0-38.0","battery-v0.2","","""event"",""trial"",""time""
""fullscreenenter"",""1"",""7008""
""fullscreenexit"",""2"",""12597""
","
","
","""event"",""trial"",""time""
""fullscreenenter"",""1"",""7008""
","""event"",""trial"",""time""
""fullscreenexit"",""2"",""12597""
","","","-1","","","17","5025","3170","w","elianto","#f73b6a7A"," ","-1","0","-10","[]","0","2","","","5025","34","3","3","lose","go","0"
"pit-trial","156","1094532","0.0-39.0","battery-v0.2","","""event"",""trial"",""time""
""fullscreenenter"",""1"",""7008""
""fullscreenexit"",""2"",""12597""
","
","
","""event"",""trial"",""time""
""fullscreenenter"",""1"",""7008""
","""event"",""trial"",""time""
""fullscreenexit"",""2"",""12597""
","","","847.5","","","17","5025","3170","j","elianto","#f73b6a7A","-1"," ","0","0","[1697.3999999910593]","1","2","","","5025","35","0","4","lose","no-go","1"
"pit-trial","157","1098362","0.0-40.0","battery-v0.2","","""event"",""trial"",""time""
""fullscreenenter"",""1"",""7008""
""fullscreenexit"",""2"",""12597""
","
","
","""event"",""trial"",""time""
""fullscreenenter"",""1"",""7008""
","""event"",""trial"",""time""
""fullscreenexit"",""2"",""12597""
","","","965.7000000029802","","","17","5025","3170","e","elianto","#f73b6a7A","-1"," ","0","-10","[1817.2999999970198]","1","2","","","5025","36","2","4","lose","no-go","0"
"pit-trial","158","1102411","0.0-41.0","battery-v0.2","","""event"",""trial"",""time""
""fullscreenenter"",""1"",""7008""
""fullscreenexit"",""2"",""12597""
","
","
","""event"",""trial"",""time""
""fullscreenenter"",""1"",""7008""
","""event"",""trial"",""time""
""fullscreenexit"",""2"",""12597""
","","","1180.0999999940395","","","17","5025","3170","w","elianto","#f73b6a7A"," "," ","1","-10","[2036.5]","1","2","","","5025","37","3","3","lose","go","1"
"pit-trial","159","1105944","0.0-42.0","battery-v0.2","","""event"",""trial"",""time""
""fullscreenenter"",""1"",""7008""
""fullscreenexit"",""2"",""12597""
","
","
","""event"",""trial"",""time""
""fullscreenenter"",""1"",""7008""
","""event"",""trial"",""time""
""fullscreenexit"",""2"",""12597""
","","","665.0999999940395","","","17","5025","3170","e","elianto","#f73b6a7A","-1"," ","0","-10","[1518.2000000029802]","1","2","","","5025","38","2","4","lose","no-go","0"
"pit-trial","160","1109689","0.0-43.0","battery-v0.2","","""event"",""trial"",""time""
""fullscreenenter"",""1"",""7008""
""fullscreenexit"",""2"",""12597""
","
","
","""event"",""trial"",""time""
""fullscreenenter"",""1"",""7008""
","""event"",""trial"",""time""
""fullscreenexit"",""2"",""12597""
","","","883.7000000029802","","","17","5025","3170","j","elianto","#f73b6a7A","-1"," ","0","-10","[1733.5]","1","2","","","5025","39","0","4","lose","no-go","0"
"pit-trial","161","1113274","0.0-44.0","battery-v0.2","","""event"",""trial"",""time""
""fullscreenenter"",""1"",""7008""
""fullscreenexit"",""2"",""12597""
","
","
","""event"",""trial"",""time""
""fullscreenenter"",""1"",""7008""
","""event"",""trial"",""time""
""fullscreenexit"",""2"",""12597""
","","","719.1000000089407","","","17","5025","3170","d","elianto","#3366ff99"," "," ","1","+10","[1569.3999999910593]","1","2","","","5025","40","1","1","win","go","0"
"pit-trial","162","1118136","0.0-45.0","battery-v0.2","","""event"",""trial"",""time""
""fullscreenenter"",""1"",""7008""
""fullscreenexit"",""2"",""12597""
","
","
","""event"",""trial"",""time""
""fullscreenenter"",""1"",""7008""
","""event"",""trial"",""time""
""fullscreenexit"",""2"",""12597""
","","","-1","","","17","5025","3170","w","elianto","#f73b6a7A"," ","-1","0","-10","[]","0","2","","","5025","41","3","3","lose","go","0"
"pit-trial","163","1121867","0.0-46.0","battery-v0.2","","""event"",""trial"",""time""
""fullscreenenter"",""1"",""7008""
""fullscreenexit"",""2"",""12597""
","
","
","""event"",""trial"",""time""
""fullscreenenter"",""1"",""7008""
","""event"",""trial"",""time""
""fullscreenexit"",""2"",""12597""
","","","872.5999999940395","","","17","5025","3170","j","elianto","#f73b6a7A","-1"," ","0","-10","[1723.7999999970198]","1","2","","","5025","42","0","4","lose","no-go","0"
"pit-trial","164","1125965","0.0-47.0","battery-v0.2","","""event"",""trial"",""time""
""fullscreenenter"",""1"",""7008""
""fullscreenexit"",""2"",""12597""
","
","
","""event"",""trial"",""time""
""fullscreenenter"",""1"",""7008""
","""event"",""trial"",""time""
""fullscreenexit"",""2"",""12597""
","","","1232.8999999910593","","","17","5025","3170","e","elianto","#f73b6a7A","-1"," ","0","0","[2083.0999999940395]","1","2","","","5025","43","2","4","lose","no-go","1"
"pit-trial","165","1129470","0.0-48.0","battery-v0.2","","""event"",""trial"",""time""
""fullscreenenter"",""1"",""7008""
""fullscreenexit"",""2"",""12597""
","
","
","""event"",""trial"",""time""
""fullscreenenter"",""1"",""7008""
","""event"",""trial"",""time""
""fullscreenexit"",""2"",""12597""
","","","638.4000000059605","","","17","5025","3170","d","elianto","#3366ff99"," "," ","1","+10","[1495.2000000029802]","1","2","","","5025","44","1","1","win","go","0"
"pit-trial","166","1133114","0.0-49.0","battery-v0.2","","""event"",""trial"",""time""
""fullscreenenter"",""1"",""7008""
""fullscreenexit"",""2"",""12597""
","
","
","""event"",""trial"",""time""
""fullscreenenter"",""1"",""7008""
","""event"",""trial"",""time""
""fullscreenexit"",""2"",""12597""
","","","775.9000000059605","","","17","5025","3170","w","elianto","#f73b6a7A"," "," ","1","0","[1629.699999988079]","1","2","","","5025","45","3","3","lose","go","0"
"pit-trial","167","1136659","0.0-50.0","battery-v0.2","","""event"",""trial"",""time""
""fullscreenenter"",""1"",""7008""
""fullscreenexit"",""2"",""12597""
","
","
","""event"",""trial"",""time""
""fullscreenenter"",""1"",""7008""
","""event"",""trial"",""time""
""fullscreenexit"",""2"",""12597""
","","","680.7999999970198","","","17","5025","3170","s","elianto","#3366ff99","-1"," ","0","0","[1533.7000000029802]","1","2","","","5025","46","4","2","win","no-go","0"
"pit-trial","168","1140464","0.0-51.0","battery-v0.2","","""event"",""trial"",""time""
""fullscreenenter"",""1"",""7008""
""fullscreenexit"",""2"",""12597""
","
","
","""event"",""trial"",""time""
""fullscreenenter"",""1"",""7008""
","""event"",""trial"",""time""
""fullscreenexit"",""2"",""12597""
","","","938.1000000089407","","","17","5025","3170","e","elianto","#f73b6a7A","-1"," ","0","-10","[1793.7000000029802]","1","2","","","5025","47","2","4","lose","no-go","0"
"pit-trial","169","1144159","0.0-52.0","battery-v0.2","","""event"",""trial"",""time""
""fullscreenenter"",""1"",""7008""
""fullscreenexit"",""2"",""12597""
","
","
","""event"",""trial"",""time""
""fullscreenenter"",""1"",""7008""
","""event"",""trial"",""time""
""fullscreenexit"",""2"",""12597""
","","","832.9000000059605","","","17","5025","3170","j","elianto","#f73b6a7A","-1"," ","0","-10","[1684.8999999910593]","1","2","","","5025","48","0","4","lose","no-go","0"
"pit-trial","170","1148157","0.0-53.0","battery-v0.2","","""event"",""trial"",""time""
""fullscreenenter"",""1"",""7008""
""fullscreenexit"",""2"",""12597""
","
","
","""event"",""trial"",""time""
""fullscreenenter"",""1"",""7008""
","""event"",""trial"",""time""
""fullscreenexit"",""2"",""12597""
","","","1139.8999999910593","","","17","5025","3170","w","elianto","#f73b6a7A"," "," ","1","0","[1990]","1","2","","","5025","49","3","3","lose","go","0"
"pit-trial","171","1153017","0.0-54.0","battery-v0.2","","""event"",""trial"",""time""
""fullscreenenter"",""1"",""7008""
""fullscreenexit"",""2"",""12597""
","
","
","""event"",""trial"",""time""
""fullscreenenter"",""1"",""7008""
","""event"",""trial"",""time""
""fullscreenexit"",""2"",""12597""
","","","-1","","","17","5025","3170","j","elianto","#f73b6a7A","-1","-1","1","0","[]","0","2","","","5025","50","0","4","lose","no-go","0"
"pit-trial","172","1156591","0.0-55.0","battery-v0.2","","""event"",""trial"",""time""
""fullscreenenter"",""1"",""7008""
""fullscreenexit"",""2"",""12597""
","
","
","""event"",""trial"",""time""
""fullscreenenter"",""1"",""7008""
","""event"",""trial"",""time""
""fullscreenexit"",""2"",""12597""
","","","712.5999999940395","","","17","5025","3170","d","elianto","#3366ff99"," "," ","1","+10","[1562.7000000029802]","1","2","","","5025","51","1","1","win","go","0"
"pit-trial","173","1160301","0.0-56.0","battery-v0.2","","""event"",""trial"",""time""
""fullscreenenter"",""1"",""7008""
""fullscreenexit"",""2"",""12597""
","
","
","""event"",""trial"",""time""
""fullscreenenter"",""1"",""7008""
","""event"",""trial"",""time""
""fullscreenexit"",""2"",""12597""
","","","846.8999999910593","","","17","5025","3170","s","elianto","#3366ff99","-1"," ","0","+10","[1697.9000000059605]","1","2","","","5025","52","4","2","win","no-go","1"
"pit-trial","174","1163777","0.0-57.0","battery-v0.2","","""event"",""trial"",""time""
""fullscreenenter"",""1"",""7008""
""fullscreenexit"",""2"",""12597""
","
","
","""event"",""trial"",""time""
""fullscreenenter"",""1"",""7008""
","""event"",""trial"",""time""
""fullscreenexit"",""2"",""12597""
","","","614.6999999880791","","","17","5025","3170","d","elianto","#3366ff99"," "," ","1","+10","[1465]","1","2","","","5025","53","1","1","win","go","0"
"pit-trial","175","1167855","0.0-58.0","battery-v0.2","","""event"",""trial"",""time""
""fullscreenenter"",""1"",""7008""
""fullscreenexit"",""2"",""12597""
","
","
","""event"",""trial"",""time""
""fullscreenenter"",""1"",""7008""
","""event"",""trial"",""time""
""fullscreenexit"",""2"",""12597""
","","","1209.2999999970198","","","17","5025","3170","e","elianto","#f73b6a7A","-1"," ","0","-10","[2061.199999988079]","1","2","","","5025","54","2","4","lose","no-go","0"
"pit-trial","176","1171367","0.0-59.0","battery-v0.2","","""event"",""trial"",""time""
""fullscreenenter"",""1"",""7008""
""fullscreenexit"",""2"",""12597""
","
","
","""event"",""trial"",""time""
""fullscreenenter"",""1"",""7008""
","""event"",""trial"",""time""
""fullscreenexit"",""2"",""12597""
","","","640.7000000029802","","","17","5025","3170","s","elianto","#3366ff99","-1"," ","0","0","[1496]","1","2","","","5025","55","4","2","win","no-go","0"
"pit-trial","177","1176232","0.0-60.0","battery-v0.2","","""event"",""trial"",""time""
""fullscreenenter"",""1"",""7008""
""fullscreenexit"",""2"",""12597""
","
","
","""event"",""trial"",""time""
""fullscreenenter"",""1"",""7008""
","""event"",""trial"",""time""
""fullscreenexit"",""2"",""12597""
","","","-1","","","17","5025","3170","j","elianto","#f73b6a7A","-1","-1","1","0","[]","0","2","","","5025","56","0","4","lose","no-go","0"
"pit-trial","178","1179767","0.0-61.0","battery-v0.2","","""event"",""trial"",""time""
""fullscreenenter"",""1"",""7008""
""fullscreenexit"",""2"",""12597""
","
","
","""event"",""trial"",""time""
""fullscreenenter"",""1"",""7008""
","""event"",""trial"",""time""
""fullscreenexit"",""2"",""12597""
","","","673.9000000059605","","","17","5025","3170","d","elianto","#3366ff99"," "," ","1","+10","[1524.0999999940395]","1","2","","","5025","57","1","1","win","go","0"
"pit-trial","179","1184633","0.0-62.0","battery-v0.2","","""event"",""trial"",""time""
""fullscreenenter"",""1"",""7008""
""fullscreenexit"",""2"",""12597""
","
","
","""event"",""trial"",""time""
""fullscreenenter"",""1"",""7008""
","""event"",""trial"",""time""
""fullscreenexit"",""2"",""12597""
","","","-1","","","17","5025","3170","j","elianto","#f73b6a7A","-1","-1","1","0","[]","0","2","","","5025","58","0","4","lose","no-go","0"
"pit-trial","180","1189497","0.0-63.0","battery-v0.2","","""event"",""trial"",""time""
""fullscreenenter"",""1"",""7008""
""fullscreenexit"",""2"",""12597""
","
","
","""event"",""trial"",""time""
""fullscreenenter"",""1"",""7008""
","""event"",""trial"",""time""
""fullscreenexit"",""2"",""12597""
","","","-1","","","17","5025","3170","w","elianto","#f73b6a7A"," ","-1","0","-10","[]","0","2","","","5025","59","3","3","lose","go","0"
"pit-trial","181","1193062","0.0-64.0","battery-v0.2","","""event"",""trial"",""time""
""fullscreenenter"",""1"",""7008""
""fullscreenexit"",""2"",""12597""
","
","
","""event"",""trial"",""time""
""fullscreenenter"",""1"",""7008""
","""event"",""trial"",""time""
""fullscreenexit"",""2"",""12597""
","","","699.4000000059605","","","17","5025","3170","s","elianto","#3366ff99","-1"," ","0","0","[1553.2999999970198]","1","2","","","5025","60","4","2","win","no-go","0"
"pit-trial","182","1196661","0.0-65.0","battery-v0.2","","""event"",""trial"",""time""
""fullscreenenter"",""1"",""7008""
""fullscreenexit"",""2"",""12597""
","
","
","""event"",""trial"",""time""
""fullscreenenter"",""1"",""7008""
","""event"",""trial"",""time""
""fullscreenexit"",""2"",""12597""
","","","735.2999999970198","","","17","5025","3170","d","elianto","#3366ff99"," "," ","1","+10","[1590]","1","2","","","5025","61","1","1","win","go","0"
"pit-trial","183","1201530","0.0-66.0","battery-v0.2","","""event"",""trial"",""time""
""fullscreenenter"",""1"",""7008""
""fullscreenexit"",""2"",""12597""
","
","
","""event"",""trial"",""time""
""fullscreenenter"",""1"",""7008""
","""event"",""trial"",""time""
""fullscreenexit"",""2"",""12597""
","","","-1","","","17","5025","3170","w","elianto","#f73b6a7A"," ","-1","0","0","[]","0","2","","","5025","62","3","3","lose","go","1"
"pit-trial","184","1206391","0.0-67.0","battery-v0.2","","""event"",""trial"",""time""
""fullscreenenter"",""1"",""7008""
""fullscreenexit"",""2"",""12597""
","
","
","""event"",""trial"",""time""
""fullscreenenter"",""1"",""7008""
","""event"",""trial"",""time""
""fullscreenexit"",""2"",""12597""
","","","-1","","","17","5025","3170","s","elianto","#3366ff99","-1","-1","1","+10","[]","0","2","","","5025","63","4","2","win","no-go","0"
"pit-trial","185","1211256","0.0-68.0","battery-v0.2","","""event"",""trial"",""time""
""fullscreenenter"",""1"",""7008""
""fullscreenexit"",""2"",""12597""
","
","
","""event"",""trial"",""time""
""fullscreenenter"",""1"",""7008""
","""event"",""trial"",""time""
""fullscreenexit"",""2"",""12597""
","","","-1","","","17","5025","3170","e","elianto","#f73b6a7A","-1","-1","1","0","[]","0","2","","","5025","64","2","4","lose","no-go","0"
"pit-trial","186","1214777","0.0-69.0","battery-v0.2","","""event"",""trial"",""time""
""fullscreenenter"",""1"",""7008""
""fullscreenexit"",""2"",""12597""
","
","
","""event"",""trial"",""time""
""fullscreenenter"",""1"",""7008""
","""event"",""trial"",""time""
""fullscreenexit"",""2"",""12597""
","","","653.0999999940395","","","17","5025","3170","s","elianto","#3366ff99","-1"," ","0","0","[1509.4000000059605]","1","2","","","5025","65","4","2","win","no-go","0"
"pit-trial","187","1219233","0.0-70.0","battery-v0.2","","""event"",""trial"",""time""
""fullscreenenter"",""1"",""7008""
""fullscreenexit"",""2"",""12597""
","
","
","""event"",""trial"",""time""
""fullscreenenter"",""1"",""7008""
","""event"",""trial"",""time""
""fullscreenexit"",""2"",""12597""
","","","1591.7000000029802","","","17","5025","3170","e","elianto","#f73b6a7A","-1"," ","0","-10","[2443.2000000029802]","1","2","","","5025","66","2","4","lose","no-go","0"
"pit-trial","188","1222909","0.0-71.0","battery-v0.2","","""event"",""trial"",""time""
""fullscreenenter"",""1"",""7008""
""fullscreenexit"",""2"",""12597""
","
","
","""event"",""trial"",""time""
""fullscreenenter"",""1"",""7008""
","""event"",""trial"",""time""
""fullscreenexit"",""2"",""12597""
","","","810.5999999940395","","","17","5025","3170","d","elianto","#3366ff99"," "," ","1","+10","[1660.7000000029802]","1","2","","","5025","67","1","1","win","go","0"
"pit-trial","189","1227772","0.0-72.0","battery-v0.2","","""event"",""trial"",""time""
""fullscreenenter"",""1"",""7008""
""fullscreenexit"",""2"",""12597""
","
","
","""event"",""trial"",""time""
""fullscreenenter"",""1"",""7008""
","""event"",""trial"",""time""
""fullscreenexit"",""2"",""12597""
","","","-1","","","17","5025","3170","w","elianto","#f73b6a7A"," ","-1","0","-10","[]","0","2","","","5025","68","3","3","lose","go","0"
"pit-trial","190","1231955","0.0-73.0","battery-v0.2","","""event"",""trial"",""time""
""fullscreenenter"",""1"",""7008""
""fullscreenexit"",""2"",""12597""
","
","
","""event"",""trial"",""time""
""fullscreenenter"",""1"",""7008""
","""event"",""trial"",""time""
""fullscreenexit"",""2"",""12597""
","","","1308.0999999940395","","","17","5025","3170","p","elianto","#3366ff99"," "," ","1","+10","[2162.5]","1","2","","","5025","69","5","1","win","go","0"
"pit-trial","191","1236815","0.0-74.0","battery-v0.2","","""event"",""trial"",""time""
""fullscreenenter"",""1"",""7008""
""fullscreenexit"",""2"",""12597""
","
","
","""event"",""trial"",""time""
""fullscreenenter"",""1"",""7008""
","""event"",""trial"",""time""
""fullscreenexit"",""2"",""12597""
","","","-1","","","17","5025","3170","s","elianto","#3366ff99","-1","-1","1","+10","[]","0","2","","","5025","70","4","2","win","no-go","0"
"pit-trial","192","1241005","0.0-75.0","battery-v0.2","","""event"",""trial"",""time""
""fullscreenenter"",""1"",""7008""
""fullscreenexit"",""2"",""12597""
","
","
","""event"",""trial"",""time""
""fullscreenenter"",""1"",""7008""
","""event"",""trial"",""time""
""fullscreenexit"",""2"",""12597""
","","","1327.2000000029802","","","17","5025","3170","w","elianto","#f73b6a7A"," "," ","1","0","[2177.2999999970198]","1","2","","","5025","71","3","3","lose","go","0"
"pit-trial","193","1244635","0.0-76.0","battery-v0.2","","""event"",""trial"",""time""
""fullscreenenter"",""1"",""7008""
""fullscreenexit"",""2"",""12597""
","
","
","""event"",""trial"",""time""
""fullscreenenter"",""1"",""7008""
","""event"",""trial"",""time""
""fullscreenexit"",""2"",""12597""
","","","760.4000000059605","","","17","5025","3170","d","elianto","#3366ff99"," "," ","1","+10","[1617]","1","2","","","5025","72","1","1","win","go","0"
"pit-trial","194","1249499","0.0-77.0","battery-v0.2","","""event"",""trial"",""time""
""fullscreenenter"",""1"",""7008""
""fullscreenexit"",""2"",""12597""
","
","
","""event"",""trial"",""time""
""fullscreenenter"",""1"",""7008""
","""event"",""trial"",""time""
""fullscreenexit"",""2"",""12597""
","","","-1","","","17","5025","3170","s","elianto","#3366ff99","-1","-1","1","+10","[]","0","2","","","5025","73","4","2","win","no-go","0"
"pit-trial","195","1253015","0.0-78.0","battery-v0.2","","""event"",""trial"",""time""
""fullscreenenter"",""1"",""7008""
""fullscreenexit"",""2"",""12597""
","
","
","""event"",""trial"",""time""
""fullscreenenter"",""1"",""7008""
","""event"",""trial"",""time""
""fullscreenexit"",""2"",""12597""
","","","649.4000000059605","","","17","5025","3170","p","elianto","#3366ff99"," "," ","1","+10","[1502.7000000029802]","1","2","","","5025","74","5","1","win","go","0"
"pit-trial","196","1256669","0.0-79.0","battery-v0.2","","""event"",""trial"",""time""
""fullscreenenter"",""1"",""7008""
""fullscreenexit"",""2"",""12597""
","
","
","""event"",""trial"",""time""
""fullscreenenter"",""1"",""7008""
","""event"",""trial"",""time""
""fullscreenexit"",""2"",""12597""
","","","792.8999999910593","","","17","5025","3170","w","elianto","#f73b6a7A"," "," ","1","0","[1642.9000000059605]","1","2","","","5025","75","3","3","lose","go","0"
"pit-trial","197","1260178","0.0-80.0","battery-v0.2","","""event"",""trial"",""time""
""fullscreenenter"",""1"",""7008""
""fullscreenexit"",""2"",""12597""
","
","
","""event"",""trial"",""time""
""fullscreenenter"",""1"",""7008""
","""event"",""trial"",""time""
""fullscreenexit"",""2"",""12597""
","","","649.7000000029802","","","17","5025","3170","d","elianto","#3366ff99"," "," ","1","+10","[1499.800000011921]","1","2","","","5025","76","1","1","win","go","0"
"pit-trial","198","1263760","0.0-81.0","battery-v0.2","","""event"",""trial"",""time""
""fullscreenenter"",""1"",""7008""
""fullscreenexit"",""2"",""12597""
","
","
","""event"",""trial"",""time""
""fullscreenenter"",""1"",""7008""
","""event"",""trial"",""time""
""fullscreenexit"",""2"",""12597""
","","","719.6999999880791","","","17","5025","3170","w","elianto","#f73b6a7A"," "," ","1","-10","[1571.0999999940395]","1","2","","","5025","77","3","3","lose","go","1"
"pit-trial","199","1267761","0.0-82.0","battery-v0.2","","""event"",""trial"",""time""
""fullscreenenter"",""1"",""7008""
""fullscreenexit"",""2"",""12597""
","
","
","""event"",""trial"",""time""
""fullscreenenter"",""1"",""7008""
","""event"",""trial"",""time""
""fullscreenexit"",""2"",""12597""
","","","1139.5","","","17","5025","3170","g","elianto","#f73b6a7A","-1"," ","0","-10","[1993.3999999910593]","1","2","","","5025","78","6","4","lose","no-go","0"
"pit-trial","200","1271416","0.0-83.0","battery-v0.2","","""event"",""trial"",""time""
""fullscreenenter"",""1"",""7008""
""fullscreenexit"",""2"",""12597""
","
","
","""event"",""trial"",""time""
""fullscreenenter"",""1"",""7008""
","""event"",""trial"",""time""
""fullscreenexit"",""2"",""12597""
","","","788.7000000029802","","","17","5025","3170","s","elianto","#3366ff99","-1"," ","0","0","[1638.7000000029802]","1","2","","","5025","79","4","2","win","no-go","0"
"pit-trial","201","1274995","0.0-84.0","battery-v0.2","","""event"",""trial"",""time""
""fullscreenenter"",""1"",""7008""
""fullscreenexit"",""2"",""12597""
","
","
","""event"",""trial"",""time""
""fullscreenenter"",""1"",""7008""
","""event"",""trial"",""time""
""fullscreenexit"",""2"",""12597""
","","","716.5","","","17","5025","3170","p","elianto","#3366ff99"," "," ","1","+10","[1566.5]","1","2","","","5025","80","5","1","win","go","0"
"pit-trial","202","1279026","0.0-85.0","battery-v0.2","","""event"",""trial"",""time""
""fullscreenenter"",""1"",""7008""
""fullscreenexit"",""2"",""12597""
","
","
","""event"",""trial"",""time""
""fullscreenenter"",""1"",""7008""
","""event"",""trial"",""time""
""fullscreenexit"",""2"",""12597""
","","","1168.5999999940395","","","17","5025","3170","a","elianto","#f73b6a7A"," "," ","1","0","[2018.9000000059605]","1","2","","","5025","81","7","3","lose","go","0"
"pit-trial","203","1283916","0.0-86.0","battery-v0.2","","""event"",""trial"",""time""
""fullscreenenter"",""1"",""7008""
""fullscreenexit"",""2"",""12597""
","
","
","""event"",""trial"",""time""
""fullscreenenter"",""1"",""7008""
","""event"",""trial"",""time""
""fullscreenexit"",""2"",""12597""
","","","-1","","","17","5025","3170","g","elianto","#f73b6a7A","-1","-1","1","-10","[]","0","2","","","5025","82","6","4","lose","no-go","1"
"pit-trial","204","1287580","0.0-87.0","battery-v0.2","","""event"",""trial"",""time""
""fullscreenenter"",""1"",""7008""
""fullscreenexit"",""2"",""12597""
","
","
","""event"",""trial"",""time""
""fullscreenenter"",""1"",""7008""
","""event"",""trial"",""time""
""fullscreenexit"",""2"",""12597""
","","","791.5999999940395","","","17","5025","3170","s","elianto","#3366ff99","-1"," ","0","0","[1649.4000000059605]","1","2","","","5025","83","4","2","win","no-go","0"
"pit-trial","205","1291060","0.0-88.0","battery-v0.2","","""event"",""trial"",""time""
""fullscreenenter"",""1"",""7008""
""fullscreenexit"",""2"",""12597""
","
","
","""event"",""trial"",""time""
""fullscreenenter"",""1"",""7008""
","""event"",""trial"",""time""
""fullscreenexit"",""2"",""12597""
","","","618.7000000029802","","","17","5025","3170","p","elianto","#3366ff99"," "," ","1","+10","[1468.7999999970198]","1","2","","","5025","84","5","1","win","go","0"
"pit-trial","206","1294516","0.0-89.0","battery-v0.2","","""event"",""trial"",""time""
""fullscreenenter"",""1"",""7008""
""fullscreenexit"",""2"",""12597""
","
","
","""event"",""trial"",""time""
""fullscreenenter"",""1"",""7008""
","""event"",""trial"",""time""
""fullscreenexit"",""2"",""12597""
","","","594.2000000029802","","","17","5025","3170","s","elianto","#3366ff99","-1"," ","0","0","[1444.9000000059605]","1","2","","","5025","85","4","2","win","no-go","0"
"pit-trial","207","1297986","0.0-90.0","battery-v0.2","","""event"",""trial"",""time""
""fullscreenenter"",""1"",""7008""
""fullscreenexit"",""2"",""12597""
","
","
","""event"",""trial"",""time""
""fullscreenenter"",""1"",""7008""
","""event"",""trial"",""time""
""fullscreenexit"",""2"",""12597""
","","","608.2000000029802","","","17","5025","3170","p","elianto","#3366ff99"," "," ","1","+10","[1458.2999999970198]","1","2","","","5025","86","5","1","win","go","0"
"pit-trial","208","1302853","0.0-91.0","battery-v0.2","","""event"",""trial"",""time""
""fullscreenenter"",""1"",""7008""
""fullscreenexit"",""2"",""12597""
","
","
","""event"",""trial"",""time""
""fullscreenenter"",""1"",""7008""
","""event"",""trial"",""time""
""fullscreenexit"",""2"",""12597""
","","","-1","","","17","5025","3170","a","elianto","#f73b6a7A"," ","-1","0","-10","[]","0","2","","","5025","87","7","3","lose","go","0"
"pit-trial","209","1306663","0.0-92.0","battery-v0.2","","""event"",""trial"",""time""
""fullscreenenter"",""1"",""7008""
""fullscreenexit"",""2"",""12597""
","
","
","""event"",""trial"",""time""
""fullscreenenter"",""1"",""7008""
","""event"",""trial"",""time""
""fullscreenexit"",""2"",""12597""
