"trial_type","trial_index","time_elapsed","internal_node_id","task_version","subject_id","interactions","blur_events","focus_events","fullscreenenter_events","fullscreenexit_events","success","view_history","rt","responses","num_errors","age","subject","participantId","rune","rune_set","hex","correct","choice","accuracy","outcome","keys","total_keys","block","practice","value","sub","trial","stimulus","robot","valence","action","sham"
"pavlovia","0","4","0.0-0.0","battery-v0.2","","""event"",""trial"",""time""
""fullscreenenter"",""1"",""3215""
","
","
","""event"",""trial"",""time""
""fullscreenenter"",""1"",""3215""
","
","","","","","","","","","","","","","","","","","","","","","","","","","","",""
"fullscreen","1","4210","0.0-1.0","battery-v0.2","","""event"",""trial"",""time""
""fullscreenenter"",""1"",""3215""
","
","
","""event"",""trial"",""time""
""fullscreenenter"",""1"",""3215""
","
","true","","","","","","","","","","","","","","","","","","","","","","","","","",""
"pit-instructions","2","10204","0.0-2.0-0.0","battery-v0.2","","""event"",""trial"",""time""
""fullscreenenter"",""1"",""3215""
","
","
","""event"",""trial"",""time""
""fullscreenenter"",""1"",""3215""
","
","","[{""page_index"":0,""viewing_time"":5987.399999976158}]","5987.799999952316","","","","","","","","","","","","","","","","","","","","","","","",""
"pit-comprehension","3","21523","0.0-2.0-1.0-0.0","battery-v0.2","","""event"",""trial"",""time""
""fullscreenenter"",""1"",""3215""
","
","
","""event"",""trial"",""time""
""fullscreenenter"",""1"",""3215""
","
","","","11316.299999952316","[""shark""]","0","19","6342","3098","","","","","","","","","","","","","","","","","","",""
"pit-instructions","4","23888","0.0-2.0-1.0-1.0","battery-v0.2","","""event"",""trial"",""time""
""fullscreenenter"",""1"",""3215""
","
","
","""event"",""trial"",""time""
""fullscreenenter"",""1"",""3215""
","
","","[{""page_index"":0,""viewing_time"":2355.5}]","2356.399999976158","","","","","","","","","","","","","","","","","","","","","","","",""
"pit-comprehension","5","50589","0.0-2.0-2.0-0.0","battery-v0.2","","""event"",""trial"",""time""
""fullscreenenter"",""1"",""3215""
","
","
","""event"",""trial"",""time""
""fullscreenenter"",""1"",""3215""
","
","","","26696.100000023842","[""tiger""]","0","19","6342","3098","","","","","","","","","","","","","","","","","","",""
"pit-instructions","6","62321","0.0-2.0-2.0-1.0","battery-v0.2","","""event"",""trial"",""time""
""fullscreenenter"",""1"",""3215""
","
","
","""event"",""trial"",""time""
""fullscreenenter"",""1"",""3215""
","
","","[{""page_index"":0,""viewing_time"":11727.300000071526}]","11728.200000047684","","","","","","","","","","","","","","","","","","","","","","","",""
"pit-instructions","7","170272","0.0-2.0-3.0","battery-v0.2","","""event"",""trial"",""time""
""fullscreenenter"",""1"",""3215""
","
","
","""event"",""trial"",""time""
""fullscreenenter"",""1"",""3215""
","
","","[{""page_index"":0,""viewing_time"":10345.5},{""page_index"":1,""viewing_time"":7333.700000047684},{""page_index"":2,""viewing_time"":7050.399999976158},{""page_index"":3,""viewing_time"":5916.600000023842},{""page_index"":4,""viewing_time"":6982.299999952316},{""page_index"":5,""viewing_time"":6817.400000095367},{""page_index"":6,""viewing_time"":9435.199999928474},{""page_index"":7,""viewing_time"":7583.5},{""page_index"":8,""viewing_time"":8466.399999976158},{""page_index"":9,""viewing_time"":8684},{""page_index"":10,""viewing_time"":7846.900000095367},{""page_index"":11,""viewing_time"":8503.599999904633},{""page_index"":12,""viewing_time"":7099.400000095367},{""page_index"":13,""viewing_time"":5887.199999928474}]","107952.80000007153","","","","","","","","","","","","","","","","","","","","","","","",""
"pit-trial","8","173723","0.0-2.0-4.0-0.0","battery-v0.2","","""event"",""trial"",""time""
""fullscreenenter"",""1"",""3215""
","
","
","""event"",""trial"",""time""
""fullscreenenter"",""1"",""3215""
","
","","","583.6000000238419","","","19","6342","3098","&#9784;","elianto","#FFFFF080"," "," ","1","&#10004","[1436.8999999761581]","1","0","0","","","","","","","",""
"pit-trial","9","177170","0.0-2.0-4.1-0.1","battery-v0.2","","""event"",""trial"",""time""
""fullscreenenter"",""1"",""3215""
","
","
","""event"",""trial"",""time""
""fullscreenenter"",""1"",""3215""
","
","","","584.5","","","19","6342","3098","&#9784;","elianto","#FFFFF080"," "," ","1","&#10004","[1435]","1","0","0","","","","","","","",""
"pit-trial","10","180657","0.0-2.0-4.2-0.2","battery-v0.2","","""event"",""trial"",""time""
""fullscreenenter"",""1"",""3215""
","
","
","""event"",""trial"",""time""
""fullscreenenter"",""1"",""3215""
","
","","","625.8000000715256","","","19","6342","3098","&#9784;","elianto","#FFFFF080"," "," ","1","&#10004","[1480.2999999523163]","1","0","0","","","","","","","",""
"pit-trial","11","184122","0.0-2.0-4.3-0.3","battery-v0.2","","""event"",""trial"",""time""
""fullscreenenter"",""1"",""3215""
","
","
","""event"",""trial"",""time""
""fullscreenenter"",""1"",""3215""
","
","","","607.3999999761581","","","19","6342","3098","&#9784;","elianto","#FFFFF080"," "," ","1","&#10004","[1458.1000000238419]","1","0","0","","","","","","","",""
"pit-trial","12","187544","0.0-2.0-4.4-0.4","battery-v0.2","","""event"",""trial"",""time""
""fullscreenenter"",""1"",""3215""
","
","
","""event"",""trial"",""time""
""fullscreenenter"",""1"",""3215""
","
","","","560.8000000715256","","","19","6342","3098","&#9784;","elianto","#FFFFF080"," "," ","1","&#10004","[1414.2999999523163]","1","0","0","","","","","","","",""
"pit-instructions","13","214802","0.0-2.0-5.0","battery-v0.2","","""event"",""trial"",""time""
""fullscreenenter"",""1"",""3215""
","
","
","""event"",""trial"",""time""
""fullscreenenter"",""1"",""3215""
","
","","[{""page_index"":0,""viewing_time"":5601.299999952316},{""page_index"":1,""viewing_time"":7750.5},{""page_index"":2,""viewing_time"":7633.600000023842},{""page_index"":3,""viewing_time"":6267}]","27253.699999928474","","","","","","","","","","","","","","","","","","","","","","","",""
"pit-trial","14","219673","0.0-2.0-6.0-0.0","battery-v0.2","","""event"",""trial"",""time""
""fullscreenenter"",""1"",""3215""
","
","
","""event"",""trial"",""time""
""fullscreenenter"",""1"",""3215""
","
","","","-1","","","19","6342","3098","&#9854;","elianto","#FFFFF080","-1","-1","1","&#10004","[]","0","0","1","","","","","","","",""
"pit-trial","15","224543","0.0-2.0-6.1-0.1","battery-v0.2","","""event"",""trial"",""time""
""fullscreenenter"",""1"",""3215""
","
","
","""event"",""trial"",""time""
""fullscreenenter"",""1"",""3215""
","
","","","-1","","","19","6342","3098","&#9854;","elianto","#FFFFF080","-1","-1","1","&#10004","[]","0","0","1","","","","","","","",""
"pit-trial","16","229407","0.0-2.0-6.2-0.2","battery-v0.2","","""event"",""trial"",""time""
""fullscreenenter"",""1"",""3215""
","
","
","""event"",""trial"",""time""
""fullscreenenter"",""1"",""3215""
","
","","","-1","","","19","6342","3098","&#9854;","elianto","#FFFFF080","-1","-1","1","&#10004","[]","0","0","1","","","","","","","",""
"pit-trial","17","234281","0.0-2.0-6.3-0.3","battery-v0.2","","""event"",""trial"",""time""
""fullscreenenter"",""1"",""3215""
","
","
","""event"",""trial"",""time""
""fullscreenenter"",""1"",""3215""
","
","","","-1","","","19","6342","3098","&#9854;","elianto","#FFFFF080","-1","-1","1","&#10004","[]","0","0","1","","","","","","","",""
"pit-trial","18","239150","0.0-2.0-6.4-0.4","battery-v0.2","","""event"",""trial"",""time""
""fullscreenenter"",""1"",""3215""
","
","
","""event"",""trial"",""time""
""fullscreenenter"",""1"",""3215""
","
","","","-1","","","19","6342","3098","&#9854;","elianto","#FFFFF080","-1","-1","1","&#10004","[]","0","0","1","","","","","","","",""
"pit-instructions","19","380447","0.0-2.0-7.0","battery-v0.2","","""event"",""trial"",""time""
""fullscreenenter"",""1"",""3215""
","
","
","""event"",""trial"",""time""
""fullscreenenter"",""1"",""3215""
","
","","[{""page_index"":0,""viewing_time"":5978.899999976158},{""page_index"":1,""viewing_time"":9133.600000023842},{""page_index"":2,""viewing_time"":7500.199999928474},{""page_index"":3,""viewing_time"":8083.900000095367},{""page_index"":4,""viewing_time"":7549.899999976158},{""page_index"":5,""viewing_time"":7616.199999928474},{""page_index"":6,""viewing_time"":5900.900000095367},{""page_index"":7,""viewing_time"":10467.399999976158},{""page_index"":8,""viewing_time"":8833.100000023842},{""page_index"":9,""viewing_time"":6284.599999904633},{""page_index"":10,""viewing_time"":9700.300000071526},{""page_index"":11,""viewing_time"":5299.799999952316},{""page_index"":12,""viewing_time"":7983.800000071526},{""page_index"":13,""viewing_time"":7817.099999904633},{""page_index"":14,""viewing_time"":7766.600000023842},{""page_index"":15,""viewing_time"":11000.300000071526},{""page_index"":16,""viewing_time"":6800},{""page_index"":17,""viewing_time"":7581.699999928474}]","141299.39999997616","","","","","","","","","","","","","","","","","","","","","","","",""
"pit-trial","20","384015","0.0-2.0-8.0-0.0","battery-v0.2","","""event"",""trial"",""time""
""fullscreenenter"",""1"",""3215""
","
","
","""event"",""trial"",""time""
""fullscreenenter"",""1"",""3215""
","
","","","698.6999999284744","","","19","6342","3098","&#9776;","elianto","#3366ff99"," "," ","1","+10","[1557.2000000476837]","1","0","1","","","","","","","",""
"pit-trial","21","387686","0.0-2.0-8.0-1.0","battery-v0.2","","""event"",""trial"",""time""
""fullscreenenter"",""1"",""3215""
","
","
","""event"",""trial"",""time""
""fullscreenenter"",""1"",""3215""
","
","","","808.5","","","19","6342","3098","&#9776;","elianto","#3366ff99"," "," ","1","+10","[1661.7000000476837]","1","0","1","","","","","","","",""
"pit-trial","22","391174","0.0-2.0-8.0-2.0","battery-v0.2","","""event"",""trial"",""time""
""fullscreenenter"",""1"",""3215""
","
","
","""event"",""trial"",""time""
""fullscreenenter"",""1"",""3215""
","
","","","627.5","","","19","6342","3098","&#9776;","elianto","#3366ff99"," "," ","1","+10","[1480.1000000238419]","1","0","1","","","","","","","",""
"pit-trial","23","394457","0.0-2.0-8.0-3.0","battery-v0.2","","""event"",""trial"",""time""
""fullscreenenter"",""1"",""3215""
","
","
","""event"",""trial"",""time""
""fullscreenenter"",""1"",""3215""
","
","","","422.7000000476837","","","19","6342","3098","&#9776;","elianto","#3366ff99"," "," ","1","0","[1273.7000000476837]","1","0","1","","","","","","","",""
"pit-trial","24","397751","0.0-2.0-8.0-4.0","battery-v0.2","","""event"",""trial"",""time""
""fullscreenenter"",""1"",""3215""
","
","
","""event"",""trial"",""time""
""fullscreenenter"",""1"",""3215""
","
","","","433.60000002384186","","","19","6342","3098","&#9776;","elianto","#3366ff99"," "," ","1","+10","[1283.6999999284744]","1","0","1","","","","","","","",""
"pit-trial","25","400940","0.0-2.0-8.1-0.1","battery-v0.2","","""event"",""trial"",""time""
""fullscreenenter"",""1"",""3215""
","
","
","""event"",""trial"",""time""
""fullscreenenter"",""1"",""3215""
","
","","","329.7000000476837","","","19","6342","3098","&#9776;","elianto","#3366ff99"," "," ","1","+10","[1183]","1","0","1","","","","","","","",""
"pit-trial","26","404223","0.0-2.0-8.1-1.1","battery-v0.2","","""event"",""trial"",""time""
""fullscreenenter"",""1"",""3215""
","
","
","""event"",""trial"",""time""
""fullscreenenter"",""1"",""3215""
","
","","","415.60000002384186","","","19","6342","3098","&#9776;","elianto","#3366ff99"," "," ","1","+10","[1271.6000000238419]","1","0","1","","","","","","","",""
"pit-trial","27","407533","0.0-2.0-8.1-2.1","battery-v0.2","","""event"",""trial"",""time""
""fullscreenenter"",""1"",""3215""
","
","
","""event"",""trial"",""time""
""fullscreenenter"",""1"",""3215""
","
","","","448.1999999284744","","","19","6342","3098","&#9776;","elianto","#3366ff99"," "," ","1","+10","[1299.2999999523163]","1","0","1","","","","","","","",""
"pit-trial","28","410822","0.0-2.0-8.1-3.1","battery-v0.2","","""event"",""trial"",""time""
""fullscreenenter"",""1"",""3215""
","
","
","""event"",""trial"",""time""
""fullscreenenter"",""1"",""3215""
","
","","","422.39999997615814","","","19","6342","3098","&#9776;","elianto","#3366ff99"," "," ","1","0","[1276.5]","1","0","1","","","","","","","",""
"pit-trial","29","414167","0.0-2.0-8.1-4.1","battery-v0.2","","""event"",""trial"",""time""
""fullscreenenter"",""1"",""3215""
","
","
","""event"",""trial"",""time""
""fullscreenenter"",""1"",""3215""
","
","","","478.7000000476837","","","19","6342","3098","&#9776;","elianto","#3366ff99"," "," ","1","+10","[1328.8999999761581]","1","0","1","","","","","","","",""
"pit-trial","30","417599","0.0-2.0-8.2-0.2","battery-v0.2","","""event"",""trial"",""time""
""fullscreenenter"",""1"",""3215""
","
","
","""event"",""trial"",""time""
""fullscreenenter"",""1"",""3215""
","
","","","564.1000000238419","","","19","6342","3098","&#9776;","elianto","#3366ff99"," "," ","1","+10","[1416.3999999761581]","1","0","1","","","","","","","",""
"pit-trial","31","421120","0.0-2.0-8.2-1.2","battery-v0.2","","""event"",""trial"",""time""
""fullscreenenter"",""1"",""3215""
","
","
","""event"",""trial"",""time""
""fullscreenenter"",""1"",""3215""
","
","","","654.3999999761581","","","19","6342","3098","&#9776;","elianto","#3366ff99"," "," ","1","+10","[1511.1999999284744]","1","0","1","","","","","","","",""
"pit-trial","32","424405","0.0-2.0-8.2-2.2","battery-v0.2","","""event"",""trial"",""time""
""fullscreenenter"",""1"",""3215""
","
","
","""event"",""trial"",""time""
""fullscreenenter"",""1"",""3215""
","
","","","419.10000002384186","","","19","6342","3098","&#9776;","elianto","#3366ff99"," "," ","1","+10","[1271]","1","0","1","","","","","","","",""
"pit-trial","33","428222","0.0-2.0-8.2-3.2","battery-v0.2","","""event"",""trial"",""time""
""fullscreenenter"",""1"",""3215""
","
","
","""event"",""trial"",""time""
""fullscreenenter"",""1"",""3215""
","
","","","950.7000000476837","","","19","6342","3098","&#9776;","elianto","#3366ff99"," "," ","1","0","[1801.6000000238419]","1","0","1","","","","","","","",""
"pit-trial","34","431828","0.0-2.0-8.2-4.2","battery-v0.2","","""event"",""trial"",""time""
""fullscreenenter"",""1"",""3215""
","
","
","""event"",""trial"",""time""
""fullscreenenter"",""1"",""3215""
","
","","","735.3999999761581","","","19","6342","3098","&#9776;","elianto","#3366ff99"," "," ","1","+10","[1594.7000000476837]","1","0","1","","","","","","","",""
"call-function","35","431832","0.0-2.0-9.0","battery-v0.2","","""event"",""trial"",""time""
""fullscreenenter"",""1"",""3215""
","
","
","""event"",""trial"",""time""
""fullscreenenter"",""1"",""3215""
","
","","","","","","","","","","","","","","","","","","","","","","","","","","",""
"pit-instructions","36","477404","0.0-2.0-10.0","battery-v0.2","","""event"",""trial"",""time""
""fullscreenenter"",""1"",""3215""
","
","
","""event"",""trial"",""time""
""fullscreenenter"",""1"",""3215""
","
","","[{""page_index"":0,""viewing_time"":7464.899999976158},{""page_index"":1,""viewing_time"":7267.299999952316},{""page_index"":2,""viewing_time"":11916.900000095367},{""page_index"":3,""viewing_time"":10800.699999928474},{""page_index"":4,""viewing_time"":8123}]","45573.699999928474","","","","","","","","","","","","","","","","","","","","","","","",""
"pit-trial","37","481162","0.0-2.0-11.0-0.0","battery-v0.2","","""event"",""trial"",""time""
""fullscreenenter"",""1"",""3215""
","
","
","""event"",""trial"",""time""
""fullscreenenter"",""1"",""3215""
","
","","","896.5","","","19","6342","3098","&#9761;","elianto","#3366ff99","-1"," ","0","0","[1747.6000000238419]","1","0","2","","","","","","","",""
"pit-trial","38","486033","0.0-2.0-11.0-1.0","battery-v0.2","","""event"",""trial"",""time""
""fullscreenenter"",""1"",""3215""
","
","
","""event"",""trial"",""time""
""fullscreenenter"",""1"",""3215""
","
","","","-1","","","19","6342","3098","&#9761;","elianto","#3366ff99","-1","-1","1","+10","[]","0","0","2","","","","","","","",""
"pit-trial","39","490896","0.0-2.0-11.0-2.0","battery-v0.2","","""event"",""trial"",""time""
""fullscreenenter"",""1"",""3215""
","
","
","""event"",""trial"",""time""
""fullscreenenter"",""1"",""3215""
","
","","","-1","","","19","6342","3098","&#9761;","elianto","#3366ff99","-1","-1","1","+10","[]","0","0","2","","","","","","","",""
"pit-trial","40","495760","0.0-2.0-11.0-3.0","battery-v0.2","","""event"",""trial"",""time""
""fullscreenenter"",""1"",""3215""
","
","
","""event"",""trial"",""time""
""fullscreenenter"",""1"",""3215""
","
","","","-1","","","19","6342","3098","&#9761;","elianto","#3366ff99","-1","-1","1","0","[]","0","0","2","","","","","","","",""
"pit-trial","41","500624","0.0-2.0-11.0-4.0","battery-v0.2","","""event"",""trial"",""time""
""fullscreenenter"",""1"",""3215""
","
","
","""event"",""trial"",""time""
""fullscreenenter"",""1"",""3215""
","
","","","-1","","","19","6342","3098","&#9761;","elianto","#3366ff99","-1","-1","1","+10","[]","0","0","2","","","","","","","",""
"pit-trial","42","505496","0.0-2.0-11.1-0.1","battery-v0.2","","""event"",""trial"",""time""
""fullscreenenter"",""1"",""3215""
","
","
","""event"",""trial"",""time""
""fullscreenenter"",""1"",""3215""
","
","","","-1","","","19","6342","3098","&#9761;","elianto","#3366ff99","-1","-1","1","+10","[]","0","0","2","","","","","","","",""
"pit-trial","43","510363","0.0-2.0-11.1-1.1","battery-v0.2","","""event"",""trial"",""time""
""fullscreenenter"",""1"",""3215""
","
","
","""event"",""trial"",""time""
""fullscreenenter"",""1"",""3215""
","
","","","-1","","","19","6342","3098","&#9761;","elianto","#3366ff99","-1","-1","1","+10","[]","0","0","2","","","","","","","",""
"pit-trial","44","515234","0.0-2.0-11.1-2.1","battery-v0.2","","""event"",""trial"",""time""
""fullscreenenter"",""1"",""3215""
","
","
","""event"",""trial"",""time""
""fullscreenenter"",""1"",""3215""
","
","","","-1","","","19","6342","3098","&#9761;","elianto","#3366ff99","-1","-1","1","+10","[]","0","0","2","","","","","","","",""
"pit-trial","45","520104","0.0-2.0-11.1-3.1","battery-v0.2","","""event"",""trial"",""time""
""fullscreenenter"",""1"",""3215""
","
","
","""event"",""trial"",""time""
""fullscreenenter"",""1"",""3215""
","
","","","-1","","","19","6342","3098","&#9761;","elianto","#3366ff99","-1","-1","1","0","[]","0","0","2","","","","","","","",""
"pit-trial","46","524978","0.0-2.0-11.1-4.1","battery-v0.2","","""event"",""trial"",""time""
""fullscreenenter"",""1"",""3215""
","
","
","""event"",""trial"",""time""
""fullscreenenter"",""1"",""3215""
","
","","","-1","","","19","6342","3098","&#9761;","elianto","#3366ff99","-1","-1","1","+10","[]","0","0","2","","","","","","","",""
"pit-trial","47","529847","0.0-2.0-11.2-0.2","battery-v0.2","","""event"",""trial"",""time""
""fullscreenenter"",""1"",""3215""
","
","
","""event"",""trial"",""time""
""fullscreenenter"",""1"",""3215""
","
","","","-1","","","19","6342","3098","&#9761;","elianto","#3366ff99","-1","-1","1","+10","[]","0","0","2","","","","","","","",""
"pit-trial","48","534712","0.0-2.0-11.2-1.2","battery-v0.2","","""event"",""trial"",""time""
""fullscreenenter"",""1"",""3215""
","
","
","""event"",""trial"",""time""
""fullscreenenter"",""1"",""3215""
","
","","","-1","","","19","6342","3098","&#9761;","elianto","#3366ff99","-1","-1","1","+10","[]","0","0","2","","","","","","","",""
"pit-trial","49","539586","0.0-2.0-11.2-2.2","battery-v0.2","","""event"",""trial"",""time""
""fullscreenenter"",""1"",""3215""
","
","
","""event"",""trial"",""time""
""fullscreenenter"",""1"",""3215""
","
","","","-1","","","19","6342","3098","&#9761;","elianto","#3366ff99","-1","-1","1","+10","[]","0","0","2","","","","","","","",""
"pit-trial","50","544450","0.0-2.0-11.2-3.2","battery-v0.2","","""event"",""trial"",""time""
""fullscreenenter"",""1"",""3215""
","
","
","""event"",""trial"",""time""
""fullscreenenter"",""1"",""3215""
","
","","","-1","","","19","6342","3098","&#9761;","elianto","#3366ff99","-1","-1","1","0","[]","0","0","2","","","","","","","",""
"pit-trial","51","549318","0.0-2.0-11.2-4.2","battery-v0.2","","""event"",""trial"",""time""
""fullscreenenter"",""1"",""3215""
","
","
","""event"",""trial"",""time""
""fullscreenenter"",""1"",""3215""
","
","","","-1","","","19","6342","3098","&#9761;","elianto","#3366ff99","-1","-1","1","+10","[]","0","0","2","","","","","","","",""
"pit-trial","52","554195","0.0-2.0-11.3-0.3","battery-v0.2","","""event"",""trial"",""time""
""fullscreenenter"",""1"",""3215""
","
","
","""event"",""trial"",""time""
""fullscreenenter"",""1"",""3215""
","
","","","-1","","","19","6342","3098","&#9761;","elianto","#3366ff99","-1","-1","1","+10","[]","0","0","2","","","","","","","",""
"pit-trial","53","559061","0.0-2.0-11.3-1.3","battery-v0.2","","""event"",""trial"",""time""
""fullscreenenter"",""1"",""3215""
","
","
","""event"",""trial"",""time""
""fullscreenenter"",""1"",""3215""
","
","","","-1","","","19","6342","3098","&#9761;","elianto","#3366ff99","-1","-1","1","+10","[]","0","0","2","","","","","","","",""
"pit-trial","54","563925","0.0-2.0-11.3-2.3","battery-v0.2","","""event"",""trial"",""time""
""fullscreenenter"",""1"",""3215""
","
","
","""event"",""trial"",""time""
""fullscreenenter"",""1"",""3215""
","
","","","-1","","","19","6342","3098","&#9761;","elianto","#3366ff99","-1","-1","1","+10","[]","0","0","2","","","","","","","",""
"pit-trial","55","568789","0.0-2.0-11.3-3.3","battery-v0.2","","""event"",""trial"",""time""
""fullscreenenter"",""1"",""3215""
","
","
","""event"",""trial"",""time""
""fullscreenenter"",""1"",""3215""
","
","","","-1","","","19","6342","3098","&#9761;","elianto","#3366ff99","-1","-1","1","0","[]","0","0","2","","","","","","","",""
"pit-trial","56","573654","0.0-2.0-11.3-4.3","battery-v0.2","","""event"",""trial"",""time""
""fullscreenenter"",""1"",""3215""
","
","
","""event"",""trial"",""time""
""fullscreenenter"",""1"",""3215""
","
","","","-1","","","19","6342","3098","&#9761;","elianto","#3366ff99","-1","-1","1","+10","[]","0","0","2","","","","","","","",""
"call-function","57","573657","0.0-2.0-12.0","battery-v0.2","","""event"",""trial"",""time""
""fullscreenenter"",""1"",""3215""
","
","
","""event"",""trial"",""time""
""fullscreenenter"",""1"",""3215""
","
","","","","","","","","","","","","","","","","","","","","","","","","","","",""
"pit-instructions","58","613612","0.0-2.0-13.0","battery-v0.2","","""event"",""trial"",""time""
""fullscreenenter"",""1"",""3215""
","
","
","""event"",""trial"",""time""
""fullscreenenter"",""1"",""3215""
","
","","[{""page_index"":0,""viewing_time"":8152.5},{""page_index"":1,""viewing_time"":8352},{""page_index"":2,""viewing_time"":5066.600000023842},{""page_index"":3,""viewing_time"":12883.5},{""page_index"":4,""viewing_time"":5500.299999952316}]","39955.89999997616","","","","","","","","","","","","","","","","","","","","","","","",""
"pit-trial","59","617046","0.0-2.0-14.0-0.0","battery-v0.2","","""event"",""trial"",""time""
""fullscreenenter"",""1"",""3215""
","
","
","""event"",""trial"",""time""
""fullscreenenter"",""1"",""3215""
","
","","","563.2999999523163","","","19","6342","3098","&#9826;","elianto","#f73b6a7A","-1"," ","0","-10","[1420]","1","0","3","","","","","","","",""
"pit-trial","60","621914","0.0-2.0-14.0-1.0","battery-v0.2","","""event"",""trial"",""time""
""fullscreenenter"",""1"",""3215""
","
","
","""event"",""trial"",""time""
""fullscreenenter"",""1"",""3215""
","
","","","-1","","","19","6342","3098","&#9826;","elianto","#f73b6a7A","-1","-1","1","0","[]","0","0","3","","","","","","","",""
"pit-trial","61","626782","0.0-2.0-14.0-2.0","battery-v0.2","","""event"",""trial"",""time""
""fullscreenenter"",""1"",""3215""
","
","
","""event"",""trial"",""time""
""fullscreenenter"",""1"",""3215""
","
","","","-1","","","19","6342","3098","&#9826;","elianto","#f73b6a7A","-1","-1","1","0","[]","0","0","3","","","","","","","",""
"pit-trial","62","631649","0.0-2.0-14.0-3.0","battery-v0.2","","""event"",""trial"",""time""
""fullscreenenter"",""1"",""3215""
","
","
","""event"",""trial"",""time""
""fullscreenenter"",""1"",""3215""
","
","","","-1","","","19","6342","3098","&#9826;","elianto","#f73b6a7A","-1","-1","1","-10","[]","0","0","3","","","","","","","",""
"pit-trial","63","636514","0.0-2.0-14.0-4.0","battery-v0.2","","""event"",""trial"",""time""
""fullscreenenter"",""1"",""3215""
","
","
","""event"",""trial"",""time""
""fullscreenenter"",""1"",""3215""
","
","","","-1","","","19","6342","3098","&#9826;","elianto","#f73b6a7A","-1","-1","1","0","[]","0","0","3","","","","","","","",""
"pit-trial","64","641387","0.0-2.0-14.1-0.1","battery-v0.2","","""event"",""trial"",""time""
""fullscreenenter"",""1"",""3215""
","
","
","""event"",""trial"",""time""
""fullscreenenter"",""1"",""3215""
","
","","","-1","","","19","6342","3098","&#9826;","elianto","#f73b6a7A","-1","-1","1","0","[]","0","0","3","","","","","","","",""
"pit-trial","65","646256","0.0-2.0-14.1-1.1","battery-v0.2","","""event"",""trial"",""time""
""fullscreenenter"",""1"",""3215""
","
","
","""event"",""trial"",""time""
""fullscreenenter"",""1"",""3215""
","
","","","-1","","","19","6342","3098","&#9826;","elianto","#f73b6a7A","-1","-1","1","0","[]","0","0","3","","","","","","","",""
"pit-trial","66","651120","0.0-2.0-14.1-2.1","battery-v0.2","","""event"",""trial"",""time""
""fullscreenenter"",""1"",""3215""
","
","
","""event"",""trial"",""time""
""fullscreenenter"",""1"",""3215""
","
","","","-1","","","19","6342","3098","&#9826;","elianto","#f73b6a7A","-1","-1","1","0","[]","0","0","3","","","","","","","",""
"pit-trial","67","655984","0.0-2.0-14.1-3.1","battery-v0.2","","""event"",""trial"",""time""
""fullscreenenter"",""1"",""3215""
","
","
","""event"",""trial"",""time""
""fullscreenenter"",""1"",""3215""
","
","","","-1","","","19","6342","3098","&#9826;","elianto","#f73b6a7A","-1","-1","1","-10","[]","0","0","3","","","","","","","",""
"pit-trial","68","660848","0.0-2.0-14.1-4.1","battery-v0.2","","""event"",""trial"",""time""
""fullscreenenter"",""1"",""3215""
","
","
","""event"",""trial"",""time""
""fullscreenenter"",""1"",""3215""
","
","","","-1","","","19","6342","3098","&#9826;","elianto","#f73b6a7A","-1","-1","1","0","[]","0","0","3","","","","","","","",""
"pit-trial","69","665724","0.0-2.0-14.2-0.2","battery-v0.2","","""event"",""trial"",""time""
""fullscreenenter"",""1"",""3215""
","
","
","""event"",""trial"",""time""
""fullscreenenter"",""1"",""3215""
","
","","","-1","","","19","6342","3098","&#9826;","elianto","#f73b6a7A","-1","-1","1","0","[]","0","0","3","","","","","","","",""
"pit-trial","70","670591","0.0-2.0-14.2-1.2","battery-v0.2","","""event"",""trial"",""time""
""fullscreenenter"",""1"",""3215""
","
","
","""event"",""trial"",""time""
""fullscreenenter"",""1"",""3215""
","
","","","-1","","","19","6342","3098","&#9826;","elianto","#f73b6a7A","-1","-1","1","0","[]","0","0","3","","","","","","","",""
"pit-trial","71","675455","0.0-2.0-14.2-2.2","battery-v0.2","","""event"",""trial"",""time""
""fullscreenenter"",""1"",""3215""
","
","
","""event"",""trial"",""time""
""fullscreenenter"",""1"",""3215""
","
","","","-1","","","19","6342","3098","&#9826;","elianto","#f73b6a7A","-1","-1","1","0","[]","0","0","3","","","","","","","",""
"pit-trial","72","680319","0.0-2.0-14.2-3.2","battery-v0.2","","""event"",""trial"",""time""
""fullscreenenter"",""1"",""3215""
","
","
","""event"",""trial"",""time""
""fullscreenenter"",""1"",""3215""
","
","","","-1","","","19","6342","3098","&#9826;","elianto","#f73b6a7A","-1","-1","1","-10","[]","0","0","3","","","","","","","",""
"pit-trial","73","685183","0.0-2.0-14.2-4.2","battery-v0.2","","""event"",""trial"",""time""
""fullscreenenter"",""1"",""3215""
","
","
","""event"",""trial"",""time""
""fullscreenenter"",""1"",""3215""
","
","","","-1","","","19","6342","3098","&#9826;","elianto","#f73b6a7A","-1","-1","1","0","[]","0","0","3","","","","","","","",""
"pit-trial","74","690056","0.0-2.0-14.3-0.3","battery-v0.2","","""event"",""trial"",""time""
""fullscreenenter"",""1"",""3215""
","
","
","""event"",""trial"",""time""
""fullscreenenter"",""1"",""3215""
","
","","","-1","","","19","6342","3098","&#9826;","elianto","#f73b6a7A","-1","-1","1","0","[]","0","0","3","","","","","","","",""
"pit-trial","75","694920","0.0-2.0-14.3-1.3","battery-v0.2","","""event"",""trial"",""time""
""fullscreenenter"",""1"",""3215""
","
","
","""event"",""trial"",""time""
""fullscreenenter"",""1"",""3215""
","
","","","-1","","","19","6342","3098","&#9826;","elianto","#f73b6a7A","-1","-1","1","0","[]","0","0","3","","","","","","","",""
"pit-trial","76","699788","0.0-2.0-14.3-2.3","battery-v0.2","","""event"",""trial"",""time""
""fullscreenenter"",""1"",""3215""
","
","
","""event"",""trial"",""time""
""fullscreenenter"",""1"",""3215""
","
","","","-1","","","19","6342","3098","&#9826;","elianto","#f73b6a7A","-1","-1","1","0","[]","0","0","3","","","","","","","",""
"pit-trial","77","704655","0.0-2.0-14.3-3.3","battery-v0.2","","""event"",""trial"",""time""
""fullscreenenter"",""1"",""3215""
","
","
","""event"",""trial"",""time""
""fullscreenenter"",""1"",""3215""
","
","","","-1","","","19","6342","3098","&#9826;","elianto","#f73b6a7A","-1","-1","1","-10","[]","0","0","3","","","","","","","",""
"pit-trial","78","709528","0.0-2.0-14.3-4.3","battery-v0.2","","""event"",""trial"",""time""
""fullscreenenter"",""1"",""3215""
","
","
","""event"",""trial"",""time""
""fullscreenenter"",""1"",""3215""
","
","","","-1","","","19","6342","3098","&#9826;","elianto","#f73b6a7A","-1","-1","1","0","[]","0","0","3","","","","","","","",""
"call-function","79","709531","0.0-2.0-15.0","battery-v0.2","","""event"",""trial"",""time""
""fullscreenenter"",""1"",""3215""
","
","
","""event"",""trial"",""time""
""fullscreenenter"",""1"",""3215""
","
","","","","","","","","","","","","","","","","","","","","","","","","","","",""
"pit-instructions","80","742210","0.0-2.0-16.0","battery-v0.2","","""event"",""trial"",""time""
""fullscreenenter"",""1"",""3215""
","
","
","""event"",""trial"",""time""
""fullscreenenter"",""1"",""3215""
","
","","[{""page_index"":0,""viewing_time"":10411.100000023842},{""page_index"":1,""viewing_time"":8967.899999976158},{""page_index"":2,""viewing_time"":7766.200000047684},{""page_index"":3,""viewing_time"":5534}]","32680.400000095367","","","","","","","","","","","","","","","","","","","","","","","",""
"pit-trial","81","745828","0.0-2.0-17.0-0.0","battery-v0.2","","""event"",""trial"",""time""
""fullscreenenter"",""1"",""3215""
","
","
","""event"",""trial"",""time""
""fullscreenenter"",""1"",""3215""
","
","","","755.1000000238419","","","19","6342","3098","&#9789;","elianto","#f73b6a7A"," "," ","1","0","[1611.1000000238419]","1","0","4","","","","","","","",""
"pit-trial","82","749314","0.0-2.0-17.0-1.0","battery-v0.2","","""event"",""trial"",""time""
""fullscreenenter"",""1"",""3215""
","
","
","""event"",""trial"",""time""
""fullscreenenter"",""1"",""3215""
","
","","","621","","","19","6342","3098","&#9789;","elianto","#f73b6a7A"," "," ","1","0","[1475.6000000238419]","1","0","4","","","","","","","",""
"pit-trial","83","752604","0.0-2.0-17.0-2.0","battery-v0.2","","""event"",""trial"",""time""
""fullscreenenter"",""1"",""3215""
","
","
","""event"",""trial"",""time""
""fullscreenenter"",""1"",""3215""
","
","","","430.2000000476837","","","19","6342","3098","&#9789;","elianto","#f73b6a7A"," "," ","1","0","[1281.6999999284744]","1","0","4","","","","","","","",""
"pit-trial","84","755820","0.0-2.0-17.0-3.0","battery-v0.2","","""event"",""trial"",""time""
""fullscreenenter"",""1"",""3215""
","
","
","""event"",""trial"",""time""
""fullscreenenter"",""1"",""3215""
","
","","","343.89999997615814","","","19","6342","3098","&#9789;","elianto","#f73b6a7A"," "," ","1","-10","[1205.7999999523163]","1","0","4","","","","","","","",""
"pit-trial","85","759109","0.0-2.0-17.0-4.0","battery-v0.2","","""event"",""trial"",""time""
""fullscreenenter"",""1"",""3215""
","
","
","""event"",""trial"",""time""
""fullscreenenter"",""1"",""3215""
","
","","","412.7000000476837","","","19","6342","3098","&#9789;","elianto","#f73b6a7A"," "," ","1","0","[1274.7999999523163]","1","0","4","","","","","","","",""
"pit-trial","86","762372","0.0-2.0-17.1-0.1","battery-v0.2","","""event"",""trial"",""time""
""fullscreenenter"",""1"",""3215""
","
","
","""event"",""trial"",""time""
""fullscreenenter"",""1"",""3215""
","
","","","397.40000009536743","","","19","6342","3098","&#9789;","elianto","#f73b6a7A"," "," ","1","0","[1252.1000000238419]","1","0","4","","","","","","","",""
"pit-trial","87","765787","0.0-2.0-17.1-1.1","battery-v0.2","","""event"",""trial"",""time""
""fullscreenenter"",""1"",""3215""
","
","
","""event"",""trial"",""time""
""fullscreenenter"",""1"",""3215""
","
","","","545.3999999761581","","","19","6342","3098","&#9789;","elianto","#f73b6a7A"," "," ","1","0","[1405.5]","1","0","4","","","","","","","",""
"pit-trial","88","769107","0.0-2.0-17.1-2.1","battery-v0.2","","""event"",""trial"",""time""
""fullscreenenter"",""1"",""3215""
","
","
","""event"",""trial"",""time""
""fullscreenenter"",""1"",""3215""
","
","","","453.1999999284744","","","19","6342","3098","&#9789;","elianto","#f73b6a7A"," "," ","1","0","[1307]","1","0","4","","","","","","","",""
"pit-trial","89","772539","0.0-2.0-17.1-3.1","battery-v0.2","","""event"",""trial"",""time""
""fullscreenenter"",""1"",""3215""
","
","
","""event"",""trial"",""time""
""fullscreenenter"",""1"",""3215""
","
","","","566.4000000953674","","","19","6342","3098","&#9789;","elianto","#f73b6a7A"," "," ","1","-10","[1417.8999999761581]","1","0","4","","","","","","","",""
"pit-trial","90","776043","0.0-2.0-17.1-4.1","battery-v0.2","","""event"",""trial"",""time""
""fullscreenenter"",""1"",""3215""
","
","
","""event"",""trial"",""time""
""fullscreenenter"",""1"",""3215""
","
","","","635.8000000715256","","","19","6342","3098","&#9789;","elianto","#f73b6a7A"," "," ","1","0","[1496.3000000715256]","1","0","4","","","","","","","",""
"pit-trial","91","779525","0.0-2.0-17.2-0.2","battery-v0.2","","""event"",""trial"",""time""
""fullscreenenter"",""1"",""3215""
","
","
","""event"",""trial"",""time""
""fullscreenenter"",""1"",""3215""
","
","","","610.1999999284744","","","19","6342","3098","&#9789;","elianto","#f73b6a7A"," "," ","1","0","[1464.8999999761581]","1","0","4","","","","","","","",""
"pit-trial","92","783124","0.0-2.0-17.2-1.2","battery-v0.2","","""event"",""trial"",""time""
""fullscreenenter"",""1"",""3215""
","
","
","""event"",""trial"",""time""
""fullscreenenter"",""1"",""3215""
","
","","","730.8999999761581","","","19","6342","3098","&#9789;","elianto","#f73b6a7A"," "," ","1","0","[1588.3999999761581]","1","0","4","","","","","","","",""
"pit-trial","93","786965","0.0-2.0-17.2-2.2","battery-v0.2","","""event"",""trial"",""time""
""fullscreenenter"",""1"",""3215""
","
","
","""event"",""trial"",""time""
""fullscreenenter"",""1"",""3215""
","
","","","972.3000000715256","","","19","6342","3098","&#9789;","elianto","#f73b6a7A"," "," ","1","0","[1830.6000000238419]","1","0","4","","","","","","","",""
"pit-trial","94","791835","0.0-2.0-17.2-3.2","battery-v0.2","","""event"",""trial"",""time""
""fullscreenenter"",""1"",""3215""
","
","
","""event"",""trial"",""time""
""fullscreenenter"",""1"",""3215""
","
","","","-1","","","19","6342","3098","&#9789;","elianto","#f73b6a7A"," ","-1","0","0","[3609.1999999284744,4778.5]","2","0","4","","","","","","","",""
"pit-trial","95","795331","0.0-2.0-17.2-4.2","battery-v0.2","","""event"",""trial"",""time""
""fullscreenenter"",""1"",""3215""
","
","
","""event"",""trial"",""time""
""fullscreenenter"",""1"",""3215""
","
","","","635.6999999284744","","","19","6342","3098","&#9789;","elianto","#f73b6a7A"," "," ","1","0","[1485.8000000715256]","1","0","4","","","","","","","",""
"pit-trial","96","798761","0.0-2.0-17.3-0.3","battery-v0.2","","""event"",""trial"",""time""
""fullscreenenter"",""1"",""3215""
","
","
","""event"",""trial"",""time""
""fullscreenenter"",""1"",""3215""
","
","","","564","","","19","6342","3098","&#9789;","elianto","#f73b6a7A"," "," ","1","0","[1414.6000000238419]","1","0","4","","","","","","","",""
"pit-trial","97","801948","0.0-2.0-17.3-1.3","battery-v0.2","","""event"",""trial"",""time""
""fullscreenenter"",""1"",""3215""
","
","
","""event"",""trial"",""time""
""fullscreenenter"",""1"",""3215""
","
","","","317.60000002384186","","","19","6342","3098","&#9789;","elianto","#f73b6a7A"," "," ","1","0","[1172.5]","1","0","4","","","","","","","",""
"pit-trial","98","805352","0.0-2.0-17.3-2.3","battery-v0.2","","""event"",""trial"",""time""
""fullscreenenter"",""1"",""3215""
","
","
","""event"",""trial"",""time""
""fullscreenenter"",""1"",""3215""
","
","","","544.2000000476837","","","19","6342","3098","&#9789;","elianto","#f73b6a7A"," "," ","1","0","[1394.9000000953674]","1","0","4","","","","","","","",""
"pit-trial","99","808771","0.0-2.0-17.3-3.3","battery-v0.2","","""event"",""trial"",""time""
""fullscreenenter"",""1"",""3215""
","
","
","""event"",""trial"",""time""
""fullscreenenter"",""1"",""3215""
","
","","","548.5999999046326","","","19","6342","3098","&#9789;","elianto","#f73b6a7A"," "," ","1","-10","[1402.5]","1","0","4","","","","","","","",""
"pit-trial","100","812435","0.0-2.0-17.3-4.3","battery-v0.2","","""event"",""trial"",""time""
""fullscreenenter"",""1"",""3215""
","
","
","""event"",""trial"",""time""
""fullscreenenter"",""1"",""3215""
","
","","","787.5","","","19","6342","3098","&#9789;","elianto","#f73b6a7A"," "," ","1","0","[1648]","1","0","4","","","","","","","",""
"call-function","101","812439","0.0-2.0-18.0","battery-v0.2","","""event"",""trial"",""time""
""fullscreenenter"",""1"",""3215""
","
","
","""event"",""trial"",""time""
""fullscreenenter"",""1"",""3215""
","
","","","","","","","","","","","","","","","","","","","","","","","","","","",""
"pit-instructions","102","914174","0.0-2.0-19.0","battery-v0.2","","""event"",""trial"",""time""
""fullscreenenter"",""1"",""3215""
","
","
","""event"",""trial"",""time""
""fullscreenenter"",""1"",""3215""
","
","","[{""page_index"":0,""viewing_time"":8818.200000047684},{""page_index"":1,""viewing_time"":25301.299999952316},{""page_index"":2,""viewing_time"":19601.5},{""page_index"":3,""viewing_time"":8455.299999952316},{""page_index"":4,""viewing_time"":9275.400000095367},{""page_index"":5,""viewing_time"":10108.099999904633},{""page_index"":6,""viewing_time"":9196.200000047684},{""page_index"":7,""viewing_time"":6716.899999976158},{""page_index"":8,""viewing_time"":4264.700000047684}]","101739","","","","","","","","","","","","","","","","","","","","","","","",""
"pit-comprehension","103","919657","0.0-2.0-20.0-0.0","battery-v0.2","","""event"",""trial"",""time""
""fullscreenenter"",""1"",""3215""
","
","
","""event"",""trial"",""time""
""fullscreenenter"",""1"",""3215""
","
","","","5476.399999976158","[""SPACE""]","0","19","6342","3098","","","","","","","","","","","","","","","","","","",""
"pit-instructions","104","922907","0.0-2.0-20.0-1.0","battery-v0.2","","""event"",""trial"",""time""
""fullscreenenter"",""1"",""3215""
","
","
","""event"",""trial"",""time""
""fullscreenenter"",""1"",""3215""
","
","","[{""page_index"":0,""viewing_time"":3221}]","3222.100000023842","","","","","","","","","","","","","","","","","","","","","","","",""
"pit-comprehension","105","928743","0.0-2.0-21.0-0.0","battery-v0.2","","""event"",""trial"",""time""
""fullscreenenter"",""1"",""3215""
","
","
","""event"",""trial"",""time""
""fullscreenenter"",""1"",""3215""
","
","","","5831.100000023842","[""10""]","0","19","6342","3098","","","","","","","","","","","","","","","","","","",""
"pit-instructions","106","932005","0.0-2.0-21.0-1.0","battery-v0.2","","""event"",""trial"",""time""
""fullscreenenter"",""1"",""3215""
","
","
","""event"",""trial"",""time""
""fullscreenenter"",""1"",""3215""
","
","","[{""page_index"":0,""viewing_time"":3235.2000000476837}]","3235.600000023842","","","","","","","","","","","","","","","","","","","","","","","",""
"pit-comprehension","107","942024","0.0-2.0-22.0-0.0","battery-v0.2","","""event"",""trial"",""time""
""fullscreenenter"",""1"",""3215""
","
","
","""event"",""trial"",""time""
""fullscreenenter"",""1"",""3215""
","
","","","10016.100000023842","[""0""]","0","19","6342","3098","","","","","","","","","","","","","","","","","","",""
"pit-instructions","108","944139","0.0-2.0-22.0-1.0","battery-v0.2","","""event"",""trial"",""time""
""fullscreenenter"",""1"",""3215""
","
","
","""event"",""trial"",""time""
""fullscreenenter"",""1"",""3215""
","
","","[{""page_index"":0,""viewing_time"":2085.600000023842}]","2086.399999976158","","","","","","","","","","","","","","","","","","","","","","","",""
"pit-comprehension","109","952742","0.0-2.0-23.0-0.0","battery-v0.2","","""event"",""trial"",""time""
""fullscreenenter"",""1"",""3215""
","
","
","""event"",""trial"",""time""
""fullscreenenter"",""1"",""3215""
","
","","","8597.900000095367","[""True""]","0","19","6342","3098","","","","","","","","","","","","","","","","","","",""
"pit-instructions","110","957457","0.0-2.0-23.0-1.0","battery-v0.2","","""event"",""trial"",""time""
""fullscreenenter"",""1"",""3215""
","
","
","""event"",""trial"",""time""
""fullscreenenter"",""1"",""3215""
","
","","[{""page_index"":0,""viewing_time"":4682.300000071526}]","4683.300000071526","","","","","","","","","","","","","","","","","","","","","","","",""
"pit-comprehension","111","964990","0.0-2.0-24.0-0.0","battery-v0.2","","""event"",""trial"",""time""
""fullscreenenter"",""1"",""3215""
","
","
","""event"",""trial"",""time""
""fullscreenenter"",""1"",""3215""
","
","","","7527.299999952316","[""True""]","0","19","6342","3098","","","","","","","","","","","","","","","","","","",""
"pit-instructions","112","967940","0.0-2.0-24.0-1.0","battery-v0.2","","""event"",""trial"",""time""
""fullscreenenter"",""1"",""3215""
","
","
","""event"",""trial"",""time""
""fullscreenenter"",""1"",""3215""
","
","","[{""page_index"":0,""viewing_time"":2916.1999999284744}]","2917","","","","","","","","","","","","","","","","","","","","","","","",""
"pit-comprehension","113","974774","0.0-2.0-25.0-0.0","battery-v0.2","","""event"",""trial"",""time""
""fullscreenenter"",""1"",""3215""
","
","
","""event"",""trial"",""time""
""fullscreenenter"",""1"",""3215""
","
","","","6827.299999952316","[""True""]","0","19","6342","3098","","","","","","","","","","","","","","","","","","",""
"pit-instructions","114","977454","0.0-2.0-25.0-1.0","battery-v0.2","","""event"",""trial"",""time""
""fullscreenenter"",""1"",""3215""
","
","
","""event"",""trial"",""time""
""fullscreenenter"",""1"",""3215""
","
","","[{""page_index"":0,""viewing_time"":2646.6999999284744}]","2647","","","","","","","","","","","","","","","","","","","","","","","",""
"pit-comprehension","115","984057","0.0-2.0-26.0-0.0","battery-v0.2","","""event"",""trial"",""time""
""fullscreenenter"",""1"",""3215""
","
","
","""event"",""trial"",""time""
""fullscreenenter"",""1"",""3215""
","
","","","6599.399999976158","[""False""]","0","19","6342","3098","","","","","","","","","","","","","","","","","","",""
"pit-instructions","116","988789","0.0-2.0-26.0-1.0","battery-v0.2","","""event"",""trial"",""time""
""fullscreenenter"",""1"",""3215""
","
","
","""event"",""trial"",""time""
""fullscreenenter"",""1"",""3215""
","
","","[{""page_index"":0,""viewing_time"":4699.799999952316}]","4700.600000023842","","","","","","","","","","","","","","","","","","","","","","","",""
"pit-instructions","117","1007956","0.0-3.0","battery-v0.2","","""event"",""trial"",""time""
""fullscreenenter"",""1"",""3215""
","
","
","""event"",""trial"",""time""
""fullscreenenter"",""1"",""3215""
","
","","[{""page_index"":0,""viewing_time"":4763.5},{""page_index"":1,""viewing_time"":6783},{""page_index"":2,""viewing_time"":7617.100000023842}]","19164.800000071526","","","","","","","","","","","","","","","","","","","","","","","",""
"pit-trial","118","1011662","0.0-4.0","battery-v0.2","","""event"",""trial"",""time""
""fullscreenenter"",""1"",""3215""
","
","
","""event"",""trial"",""time""
""fullscreenenter"",""1"",""3215""
","
","","","841.6999999284744","","","19","6342","3098","&#9752;","elianto","#f73b6a7A"," "," ","1","0","[1693.5999999046326]","1","1","","","6342","1","3","3","lose","go","0"
"pit-trial","119","1015207","0.0-5.0","battery-v0.2","","""event"",""trial"",""time""
""fullscreenenter"",""1"",""3215""
","
","
","""event"",""trial"",""time""
""fullscreenenter"",""1"",""3215""
","
","","","681.8999999761581","","","19","6342","3098","&#9733;","elianto","#3366ff99","-1"," ","0","+10","[1532.6000000238419]","1","1","","","6342","2","2","2","win","no-go","1"
"pit-trial","120","1018701","0.0-6.0","battery-v0.2","","""event"",""trial"",""time""
""fullscreenenter"",""1"",""3215""
","
","
","""event"",""trial"",""time""
""fullscreenenter"",""1"",""3215""
","
","","","631.6999999284744","","","19","6342","3098","&#9728;","elianto","#f73b6a7A","-1"," ","0","0","[1487]","1","1","","","6342","3","0","4","lose","no-go","1"
"pit-trial","121","1022077","0.0-7.0","battery-v0.2","","""event"",""trial"",""time""
""fullscreenenter"",""1"",""3215""
","
","
","""event"",""trial"",""time""
""fullscreenenter"",""1"",""3215""
","
","","","512.6000000238419","","","19","6342","3098","&#9730;","elianto","#3366ff99"," "," ","1","+10","[1365.1000000238419]","1","1","","","6342","4","1","1","win","go","0"
"pit-trial","122","1025516","0.0-8.0","battery-v0.2","","""event"",""trial"",""time""
""fullscreenenter"",""1"",""3215""
","
","
","""event"",""trial"",""time""
""fullscreenenter"",""1"",""3215""
","
","","","576.1000000238419","","","19","6342","3098","&#9728;","elianto","#f73b6a7A","-1"," ","0","-10","[1427.7999999523163]","1","1","","","6342","5","0","4","lose","no-go","0"
"pit-trial","123","1028990","0.0-9.0","battery-v0.2","","""event"",""trial"",""time""
""fullscreenenter"",""1"",""3215""
","
","
","""event"",""trial"",""time""
""fullscreenenter"",""1"",""3215""
","
","","","606.8999999761581","","","19","6342","3098","&#9752;","elianto","#f73b6a7A"," "," ","1","0","[1460.3999999761581]","1","1","","","6342","6","3","3","lose","go","0"
"pit-trial","124","1032391","0.0-10.0","battery-v0.2","","""event"",""trial"",""time""
""fullscreenenter"",""1"",""3215""
","
","
","""event"",""trial"",""time""
""fullscreenenter"",""1"",""3215""
","
","","","534.3999999761581","","","19","6342","3098","&#9733;","elianto","#3366ff99","-1"," ","0","0","[1389.6000000238419]","1","1","","","6342","7","2","2","win","no-go","0"
"pit-trial","125","1035966","0.0-11.0","battery-v0.2","","""event"",""trial"",""time""
""fullscreenenter"",""1"",""3215""
","
","
","""event"",""trial"",""time""
""fullscreenenter"",""1"",""3215""
","
","","","713","","","19","6342","3098","&#9730;","elianto","#3366ff99"," "," ","1","+10","[1566.6000000238419]","1","1","","","6342","8","1","1","win","go","0"
"pit-trial","126","1039492","0.0-12.0","battery-v0.2","","""event"",""trial"",""time""
""fullscreenenter"",""1"",""3215""
","
","
","""event"",""trial"",""time""
""fullscreenenter"",""1"",""3215""
","
","","","653.3999999761581","","","19","6342","3098","&#9752;","elianto","#f73b6a7A"," "," ","1","0","[1515.8999999761581]","1","1","","","6342","9","3","3","lose","go","0"
"pit-trial","127","1042981","0.0-13.0","battery-v0.2","","""event"",""trial"",""time""
""fullscreenenter"",""1"",""3215""
","
","
","""event"",""trial"",""time""
""fullscreenenter"",""1"",""3215""
","
","","","629.3999999761581","","","19","6342","3098","&#9730;","elianto","#3366ff99"," "," ","1","0","[1482]","1","1","","","6342","10","1","1","win","go","1"
"pit-trial","128","1047854","0.0-14.0","battery-v0.2","","""event"",""trial"",""time""
""fullscreenenter"",""1"",""3215""
","
","
","""event"",""trial"",""time""
""fullscreenenter"",""1"",""3215""
","
","","","-1","","","19","6342","3098","&#9728;","elianto","#f73b6a7A","-1","-1","1","0","[]","0","1","","","6342","11","0","4","lose","no-go","0"
"pit-trial","129","1052724","0.0-15.0","battery-v0.2","","""event"",""trial"",""time""
""fullscreenenter"",""1"",""3215""
","
","
","""event"",""trial"",""time""
""fullscreenenter"",""1"",""3215""
","
","","","-1","","","19","6342","3098","&#9733;","elianto","#3366ff99","-1","-1","1","+10","[]","0","1","","","6342","12","2","2","win","no-go","0"
"pit-trial","130","1057599","0.0-16.0","battery-v0.2","","""event"",""trial"",""time""
""fullscreenenter"",""1"",""3215""
","
","
","""event"",""trial"",""time""
""fullscreenenter"",""1"",""3215""
","
","","","-1","","","19","6342","3098","&#9728;","elianto","#f73b6a7A","-1","-1","1","-10","[]","0","1","","","6342","13","0","4","lose","no-go","1"
"pit-trial","131","1061104","0.0-17.0","battery-v0.2","","""event"",""trial"",""time""
""fullscreenenter"",""1"",""3215""
","
","
","""event"",""trial"",""time""
""fullscreenenter"",""1"",""3215""
","
","","","629.5","","","19","6342","3098","&#9752;","elianto","#f73b6a7A"," "," ","1","0","[1487.7000000476837]","1","1","","","6342","14","3","3","lose","go","0"
"pit-trial","132","1064558","0.0-18.0","battery-v0.2","","""event"",""trial"",""time""
""fullscreenenter"",""1"",""3215""
","
","
","""event"",""trial"",""time""
""fullscreenenter"",""1"",""3215""
","
","","","581.0999999046326","","","19","6342","3098","&#9730;","elianto","#3366ff99"," "," ","1","0","[1432.1000000238419]","1","1","","","6342","15","1","1","win","go","1"
"pit-trial","133","1069427","0.0-19.0","battery-v0.2","","""event"",""trial"",""time""
""fullscreenenter"",""1"",""3215""
","
","
","""event"",""trial"",""time""
""fullscreenenter"",""1"",""3215""
","
","","","-1","","","19","6342","3098","&#9733;","elianto","#3366ff99","-1","-1","1","+10","[]","0","1","","","6342","16","2","2","win","no-go","0"
"pit-trial","134","1073070","0.0-20.0","battery-v0.2","","""event"",""trial"",""time""
""fullscreenenter"",""1"",""3215""
","
","
","""event"",""trial"",""time""
""fullscreenenter"",""1"",""3215""
","
","","","781","","","19","6342","3098","&#9730;","elianto","#3366ff99"," "," ","1","+10","[1631.3999999761581]","1","1","","","6342","17","1","1","win","go","0"
"pit-trial","135","1076835","0.0-21.0","battery-v0.2","","""event"",""trial"",""time""
""fullscreenenter"",""1"",""3215""
","
","
","""event"",""trial"",""time""
""fullscreenenter"",""1"",""3215""
","
","","","900.6000000238419","","","19","6342","3098","&#9752;","elianto","#f73b6a7A"," "," ","1","-10","[1756.8000000715256]","1","1","","","6342","18","3","3","lose","go","1"
"pit-trial","136","1081709","0.0-22.0","battery-v0.2","","""event"",""trial"",""time""
""fullscreenenter"",""1"",""3215""
","
","
","""event"",""trial"",""time""
""fullscreenenter"",""1"",""3215""
","
","","","-1","","","19","6342","3098","&#9728;","elianto","#f73b6a7A","-1","-1","1","-10","[]","0","1","","","6342","19","0","4","lose","no-go","1"
"pit-trial","137","1085347","0.0-23.0","battery-v0.2","","""event"",""trial"",""time""
""fullscreenenter"",""1"",""3215""
","
","
","""event"",""trial"",""time""
""fullscreenenter"",""1"",""3215""
","
","","","777.7000000476837","","","19","6342","3098","&#9733;","elianto","#3366ff99","-1"," ","0","0","[1628.8999999761581]","1","1","","","6342","20","2","2","win","no-go","0"
"pit-instructions","138","1098921","0.0-24.0","battery-v0.2","","""event"",""trial"",""time""
""fullscreenenter"",""1"",""3215""
","
","
","""event"",""trial"",""time""
""fullscreenenter"",""1"",""3215""
","
","","[{""page_index"":0,""viewing_time"":6836.5},{""page_index"":1,""viewing_time"":6733.5}]","13571.399999976158","","","","","","","","","","","","","","","","","","","","","","","",""
"pit-trial","139","1102385","0.0-25.0","battery-v0.2","","""event"",""trial"",""time""
""fullscreenenter"",""1"",""3215""
","
","
","""event"",""trial"",""time""
""fullscreenenter"",""1"",""3215""
","
","","","602.8000000715256","","","19","6342","3098","l","elianto","#3366ff99"," "," ","1","+10","[1457.3999999761581]","1","2","","","6342","21","1","1","win","go","0"
"pit-trial","140","1106057","0.0-26.0","battery-v0.2","","""event"",""trial"",""time""
""fullscreenenter"",""1"",""3215""
","
","
","""event"",""trial"",""time""
""fullscreenenter"",""1"",""3215""
","
","","","808.7000000476837","","","19","6342","3098","u","elianto","#f73b6a7A","-1"," ","0","-10","[1659.3000000715256]","1","2","","","6342","22","0","4","lose","no-go","0"
"pit-trial","141","1109648","0.0-27.0","battery-v0.2","","""event"",""trial"",""time""
""fullscreenenter"",""1"",""3215""
","
","
","""event"",""trial"",""time""
""fullscreenenter"",""1"",""3215""
","
","","","725.7000000476837","","","19","6342","3098","a","elianto","#f73b6a7A","-1"," ","0","0","[1578.6999999284744]","1","2","","","6342","23","2","4","lose","no-go","1"
"pit-trial","142","1113209","0.0-28.0","battery-v0.2","","""event"",""trial"",""time""
""fullscreenenter"",""1"",""3215""
","
","
","""event"",""trial"",""time""
""fullscreenenter"",""1"",""3215""
","
","","","696.1999999284744","","","19","6342","3098","g","elianto","#f73b6a7A"," "," ","1","0","[1549.5999999046326]","1","2","","","6342","24","3","3","lose","go","0"
"pit-trial","143","1116819","0.0-29.0","battery-v0.2","","""event"",""trial"",""time""
""fullscreenenter"",""1"",""3215""
","
","
","""event"",""trial"",""time""
""fullscreenenter"",""1"",""3215""
","
","","","741.8000000715256","","","19","6342","3098","a","elianto","#f73b6a7A","-1"," ","0","-10","[1593.5]","1","2","","","6342","25","2","4","lose","no-go","0"
"pit-trial","144","1120359","0.0-30.0","battery-v0.2","","""event"",""trial"",""time""
""fullscreenenter"",""1"",""3215""
","
","
","""event"",""trial"",""time""
""fullscreenenter"",""1"",""3215""
","
","","","674.2999999523163","","","19","6342","3098","g","elianto","#f73b6a7A"," "," ","1","-10","[1534]","1","2","","","6342","26","3","3","lose","go","1"
"pit-trial","145","1125223","0.0-31.0","battery-v0.2","","""event"",""trial"",""time""
""fullscreenenter"",""1"",""3215""
","
","
","""event"",""trial"",""time""
""fullscreenenter"",""1"",""3215""
","
","","","-1","","","19","6342","3098","u","elianto","#f73b6a7A","-1","-1","1","0","[]","0","2","","","6342","27","0","4","lose","no-go","0"
"pit-trial","146","1128775","0.0-32.0","battery-v0.2","","""event"",""trial"",""time""
""fullscreenenter"",""1"",""3215""
","
","
","""event"",""trial"",""time""
""fullscreenenter"",""1"",""3215""
","
","","","685","","","19","6342","3098","l","elianto","#3366ff99"," "," ","1","+10","[1538.8000000715256]","1","2","","","6342","28","1","1","win","go","0"
"pit-trial","147","1132384","0.0-33.0","battery-v0.2","","""event"",""trial"",""time""
""fullscreenenter"",""1"",""3215""
","
","
","""event"",""trial"",""time""
""fullscreenenter"",""1"",""3215""
","
","","","746.7000000476837","","","19","6342","3098","l","elianto","#3366ff99"," "," ","1","+10","[1597.6000000238419]","1","2","","","6342","29","1","1","win","go","0"
"pit-trial","148","1137259","0.0-34.0","battery-v0.2","","""event"",""trial"",""time""
""fullscreenenter"",""1"",""3215""
","
","
","""event"",""trial"",""time""
""fullscreenenter"",""1"",""3215""
","
","","","-1","","","19","6342","3098","g","elianto","#f73b6a7A"," ","-1","0","-10","[]","0","2","","","6342","30","3","3","lose","go","0"
"pit-trial","149","1141521","0.0-35.0","battery-v0.2","","""event"",""trial"",""time""
""fullscreenenter"",""1"",""3215""
","
","
","""event"",""trial"",""time""
""fullscreenenter"",""1"",""3215""
","
","","","1396.2999999523163","","","19","6342","3098","u","elianto","#f73b6a7A","-1"," ","0","-10","[2246.5999999046326]","1","2","","","6342","31","0","4","lose","no-go","0"
"pit-trial","150","1146394","0.0-36.0","battery-v0.2","","""event"",""trial"",""time""
""fullscreenenter"",""1"",""3215""
","
","
","""event"",""trial"",""time""
""fullscreenenter"",""1"",""3215""
","
","","","-1","","","19","6342","3098","a","elianto","#f73b6a7A","-1","-1","1","0","[]","0","2","","","6342","32","2","4","lose","no-go","0"
"pit-trial","151","1151263","0.0-37.0","battery-v0.2","","""event"",""trial"",""time""
""fullscreenenter"",""1"",""3215""
","
","
","""event"",""trial"",""time""
""fullscreenenter"",""1"",""3215""
","
","","","-1","","","19","6342","3098","u","elianto","#f73b6a7A","-1","-1","1","-10","[]","0","2","","","6342","33","0","4","lose","no-go","1"
"pit-trial","152","1154943","0.0-38.0","battery-v0.2","","""event"",""trial"",""time""
""fullscreenenter"",""1"",""3215""
","
","
","""event"",""trial"",""time""
""fullscreenenter"",""1"",""3215""
","
","","","804.1000000238419","","","19","6342","3098","g","elianto","#f73b6a7A"," "," ","1","0","[1666.3999999761581]","1","2","","","6342","34","3","3","lose","go","0"
"pit-trial","153","1158394","0.0-39.0","battery-v0.2","","""event"",""trial"",""time""
""fullscreenenter"",""1"",""3215""
","
","
","""event"",""trial"",""time""
""fullscreenenter"",""1"",""3215""
","
","","","582.3000000715256","","","19","6342","3098","l","elianto","#3366ff99"," "," ","1","+10","[1433.1000000238419]","1","2","","","6342","35","1","1","win","go","0"
"pit-trial","154","1162826","0.0-40.0","battery-v0.2","","""event"",""trial"",""time""
""fullscreenenter"",""1"",""3215""
","
","
","""event"",""trial"",""time""
""fullscreenenter"",""1"",""3215""
","
","","","1555.7000000476837","","","19","6342","3098","a","elianto","#f73b6a7A","-1"," ","0","-10","[2414.7000000476837]","1","2","","","6342","36","2","4","lose","no-go","0"
"pit-trial","155","1167695","0.0-41.0","battery-v0.2","","""event"",""trial"",""time""
""fullscreenenter"",""1"",""3215""
","
","
","""event"",""trial"",""time""
""fullscreenenter"",""1"",""3215""
","
","","","2004.8999999761581","","","19","6342","3098","l","elianto","#3366ff99"," "," ","1","0","[2855]","1","2","","","6342","37","1","1","win","go","1"
"pit-trial","156","1171545","0.0-42.0","battery-v0.2","","""event"",""trial"",""time""
""fullscreenenter"",""1"",""3215""
","
","
","""event"",""trial"",""time""
""fullscreenenter"",""1"",""3215""
","
","","","977","","","19","6342","3098","a","elianto","#f73b6a7A","-1"," ","0","0","[1836.5]","1","2","","","6342","38","2","4","lose","no-go","1"
"pit-trial","157","1175967","0.0-43.0","battery-v0.2","","""event"",""trial"",""time""
""fullscreenenter"",""1"",""3215""
","
","
","""event"",""trial"",""time""
""fullscreenenter"",""1"",""3215""
","
","","","1550.8999999761581","","","19","6342","3098","u","elianto","#f73b6a7A","-1"," ","0","-10","[2409.4000000953674]","1","2","","","6342","39","0","4","lose","no-go","0"
"pit-trial","158","1180504","0.0-44.0","battery-v0.2","","""event"",""trial"",""time""
""fullscreenenter"",""1"",""3215""
","
","
","""event"",""trial"",""time""
""fullscreenenter"",""1"",""3215""
","
","","","1661.2999999523163","","","19","6342","3098","g","elianto","#f73b6a7A"," "," ","1","0","[2519.7999999523163]","1","2","","","6342","40","3","3","lose","go","0"
"pit-trial","159","1184141","0.0-45.0","battery-v0.2","","""event"",""trial"",""time""
""fullscreenenter"",""1"",""3215""
","
","
","""event"",""trial"",""time""
""fullscreenenter"",""1"",""3215""
","
","","","767.8999999761581","","","19","6342","3098","a","elianto","#f73b6a7A","-1"," ","0","-10","[1622.8999999761581]","1","2","","","6342","41","2","4","lose","no-go","0"
"pit-trial","160","1187565","0.0-46.0","battery-v0.2","","""event"",""trial"",""time""
""fullscreenenter"",""1"",""3215""
","
","
","""event"",""trial"",""time""
""fullscreenenter"",""1"",""3215""
","
","","","563.6999999284744","","","19","6342","3098","l","elianto","#3366ff99"," "," ","1","+10","[1415.5]","1","2","","","6342","42","1","1","win","go","0"
"pit-trial","161","1192439","0.0-47.0","battery-v0.2","","""event"",""trial"",""time""
""fullscreenenter"",""1"",""3215""
","
","
","""event"",""trial"",""time""
""fullscreenenter"",""1"",""3215""
","
","","","-1","","","19","6342","3098","g","elianto","#f73b6a7A"," ","-1","0","-10","[]","0","2","","","6342","43","3","3","lose","go","0"
"pit-trial","162","1196743","0.0-48.0","battery-v0.2","","""event"",""trial"",""time""
""fullscreenenter"",""1"",""3215""
","
","
","""event"",""trial"",""time""
""fullscreenenter"",""1"",""3215""
","
","","","1434.6000000238419","","","19","6342","3098","u","elianto","#f73b6a7A","-1"," ","0","-10","[2287.9000000953674]","1","2","","","6342","44","0","4","lose","no-go","0"
"pit-trial","163","1200239","0.0-49.0","battery-v0.2","","""event"",""trial"",""time""
""fullscreenenter"",""1"",""3215""
","
","
","""event"",""trial"",""time""
""fullscreenenter"",""1"",""3215""
","
","","","622.7000000476837","","","19","6342","3098","p","elianto","#3366ff99","-1"," ","0","+10","[1481.7999999523163]","1","2","","","6342","45","4","2","win","no-go","1"
"pit-trial","164","1205111","0.0-50.0","battery-v0.2","","""event"",""trial"",""time""
""fullscreenenter"",""1"",""3215""
","
","
","""event"",""trial"",""time""
""fullscreenenter"",""1"",""3215""
","
","","","-1","","","19","6342","3098","u","elianto","#f73b6a7A","-1","-1","1","-10","[]","0","2","","","6342","46","0","4","lose","no-go","1"
"pit-trial","165","1209979","0.0-51.0","battery-v0.2","","""event"",""trial"",""time""
""fullscreenenter"",""1"",""3215""
","
","
","""event"",""trial"",""time""
""fullscreenenter"",""1"",""3215""
","
","","","-1","","","19","6342","3098","a","elianto","#f73b6a7A","-1","-1","1","0","[]","0","2","","","6342","47","2","4","lose","no-go","0"
"pit-trial","166","1214439","0.0-52.0","battery-v0.2","","""event"",""trial"",""time""
""fullscreenenter"",""1"",""3215""
","
","
","""event"",""trial"",""time""
""fullscreenenter"",""1"",""3215""
","
","","","1591","","","19","6342","3098","g","elianto","#f73b6a7A"," "," ","1","-10","[2448.6999999284744]","1","2","","","6342","48","3","3","lose","go","1"
"pit-trial","167","1217955","0.0-53.0","battery-v0.2","","""event"",""trial"",""time""
""fullscreenenter"",""1"",""3215""
","
","
","""event"",""trial"",""time""
""fullscreenenter"",""1"",""3215""
","
","","","656.7000000476837","","","19","6342","3098","p","elianto","#3366ff99","-1"," ","0","+10","[1508.5]","1","2","","","6342","49","4","2","win","no-go","1"
"pit-trial","168","1222822","0.0-54.0","battery-v0.2","","""event"",""trial"",""time""
""fullscreenenter"",""1"",""3215""
","
","
","""event"",""trial"",""time""
""fullscreenenter"",""1"",""3215""
","
","","","-1","","","19","6342","3098","g","elianto","#f73b6a7A"," ","-1","0","-10","[2989]","1","2","","","6342","50","3","3","lose","go","0"
"pit-trial","169","1227692","0.0-55.0","battery-v0.2","","""event"",""trial"",""time""
""fullscreenenter"",""1"",""3215""
","
","
","""event"",""trial"",""time""
""fullscreenenter"",""1"",""3215""
","
","","","-1","","","19","6342","3098","u","elianto","#f73b6a7A","-1","-1","1","0","[]","0","2","","","6342","51","0","4","lose","no-go","0"
"pit-trial","170","1231206","0.0-56.0","battery-v0.2","","""event"",""trial"",""time""
""fullscreenenter"",""1"",""3215""
","
","
","""event"",""trial"",""time""
""fullscreenenter"",""1"",""3215""
","
","","","652","","","19","6342","3098","l","elianto","#3366ff99"," "," ","1","+10","[1502.7999999523163]","1","2","","","6342","52","1","1","win","go","0"
"pit-trial","171","1234998","0.0-57.0","battery-v0.2","","""event"",""trial"",""time""
""fullscreenenter"",""1"",""3215""
","
","
","""event"",""trial"",""time""
""fullscreenenter"",""1"",""3215""
","
","","","926.8000000715256","","","19","6342","3098","a","elianto","#f73b6a7A","-1"," ","0","-10","[1778.6000000238419]","1","2","","","6342","53","2","4","lose","no-go","0"
"pit-trial","172","1238523","0.0-58.0","battery-v0.2","","""event"",""trial"",""time""
""fullscreenenter"",""1"",""3215""
","
","
","""event"",""trial"",""time""
""fullscreenenter"",""1"",""3215""
","
","","","651.1000000238419","","","19","6342","3098","p","elianto","#3366ff99","-1"," ","0","0","[1509.5999999046326]","1","2","","","6342","54","4","2","win","no-go","0"
"pit-trial","173","1243398","0.0-59.0","battery-v0.2","","""event"",""trial"",""time""
""fullscreenenter"",""1"",""3215""
","
","
","""event"",""trial"",""time""
""fullscreenenter"",""1"",""3215""
","
","","","-1","","","19","6342","3098","u","elianto","#f73b6a7A","-1","-1","1","0","[]","0","2","","","6342","55","0","4","lose","no-go","0"
"pit-trial","174","1246858","0.0-60.0","battery-v0.2","","""event"",""trial"",""time""
""fullscreenenter"",""1"",""3215""
","
","
","""event"",""trial"",""time""
""fullscreenenter"",""1"",""3215""
","
","","","589.1000000238419","","","19","6342","3098","l","elianto","#3366ff99"," "," ","1","+10","[1447.5]","1","2","","","6342","56","1","1","win","go","0"
"pit-trial","175","1250347","0.0-61.0","battery-v0.2","","""event"",""trial"",""time""
""fullscreenenter"",""1"",""3215""
","
","
","""event"",""trial"",""time""
""fullscreenenter"",""1"",""3215""
","
","","","623.5","","","19","6342","3098","l","elianto","#3366ff99"," "," ","1","+10","[1473.5999999046326]","1","2","","","6342","57","1","1","win","go","0"
"pit-trial","176","1255221","0.0-62.0","battery-v0.2","","""event"",""trial"",""time""
""fullscreenenter"",""1"",""3215""
","
","
","""event"",""trial"",""time""
""fullscreenenter"",""1"",""3215""
","
","","","-1","","","19","6342","3098","g","elianto","#f73b6a7A"," ","-1","0","-10","[]","0","2","","","6342","58","3","3","lose","go","0"
"pit-trial","177","1260089","0.0-63.0","battery-v0.2","","""event"",""trial"",""time""
""fullscreenenter"",""1"",""3215""
","
","
","""event"",""trial"",""time""
""fullscreenenter"",""1"",""3215""
","
","","","-1","","","19","6342","3098","u","elianto","#f73b6a7A","-1","-1","1","-10","[]","0","2","","","6342","59","0","4","lose","no-go","1"
"pit-trial","178","1263545","0.0-64.0","battery-v0.2","","""event"",""trial"",""time""
""fullscreenenter"",""1"",""3215""
","
","
","""event"",""trial"",""time""
""fullscreenenter"",""1"",""3215""
","
","","","589.1999999284744","","","19","6342","3098","p","elianto","#3366ff99","-1"," ","0","+10","[1441.0999999046326]","1","2","","","6342","60","4","2","win","no-go","1"
"pit-trial","179","1267002","0.0-65.0","battery-v0.2","","""event"",""trial"",""time""
""fullscreenenter"",""1"",""3215""
","
","
","""event"",""trial"",""time""
""fullscreenenter"",""1"",""3215""
","
","","","580.7999999523163","","","19","6342","3098","p","elianto","#3366ff99","-1"," ","0","0","[1442.2999999523163]","1","2","","","6342","61","4","2","win","no-go","0"
"pit-trial","180","1271875","0.0-66.0","battery-v0.2","","""event"",""trial"",""time""
""fullscreenenter"",""1"",""3215""
","
","
","""event"",""trial"",""time""
""fullscreenenter"",""1"",""3215""
","
","","","-1","","","19","6342","3098","a","elianto","#f73b6a7A","-1","-1","1","0","[2991.5]","1","2","","","6342","62","2","4","lose","no-go","0"
"pit-trial","181","1275891","0.0-67.0","battery-v0.2","","""event"",""trial"",""time""
""fullscreenenter"",""1"",""3215""
","
","
","""event"",""trial"",""time""
""fullscreenenter"",""1"",""3215""
","
","","","1151.3000000715256","","","19","6342","3098","l","elianto","#3366ff99"," "," ","1","0","[2001.3000000715256]","1","2","","","6342","63","1","1","win","go","1"
"pit-trial","182","1279891","0.0-68.0","battery-v0.2","","""event"",""trial"",""time""
""fullscreenenter"",""1"",""3215""
","
","
","""event"",""trial"",""time""
""fullscreenenter"",""1"",""3215""
","
","","","1136","","","19","6342","3098","g","elianto","#f73b6a7A"," "," ","1","0","[1986]","1","2","","","6342","64","3","3","lose","go","0"
"pit-trial","183","1283427","0.0-69.0","battery-v0.2","","""event"",""trial"",""time""
""fullscreenenter"",""1"",""3215""
","
","
","""event"",""trial"",""time""
""fullscreenenter"",""1"",""3215""
","
","","","668.5","","","19","6342","3098","p","elianto","#3366ff99","-1"," ","0","0","[1518.8999999761581]","1","2","","","6342","65","4","2","win","no-go","0"
"pit-trial","184","1287379","0.0-70.0","battery-v0.2","","""event"",""trial"",""time""
""fullscreenenter"",""1"",""3215""
","
","
","""event"",""trial"",""time""
""fullscreenenter"",""1"",""3215""
","
","","","1076.7000000476837","","","19","6342","3098","g","elianto","#f73b6a7A"," "," ","1","0","[1935]","1","2","","","6342","66","3","3","lose","go","0"
"pit-trial","185","1292248","0.0-71.0","battery-v0.2","","""event"",""trial"",""time""
""fullscreenenter"",""1"",""3215""
","
","
","""event"",""trial"",""time""
""fullscreenenter"",""1"",""3215""
","
","","","-1","","","19","6342","3098","a","elianto","#f73b6a7A","-1","-1","1","-10","[]","0","2","","","6342","67","2","4","lose","no-go","1"
"pit-trial","186","1295779","0.0-72.0","battery-v0.2","","""event"",""trial"",""time""
""fullscreenenter"",""1"",""3215""
","
","
","""event"",""trial"",""time""
""fullscreenenter"",""1"",""3215""
","
","","","653.4000000953674","","","19","6342","3098","l","elianto","#3366ff99"," "," ","1","0","[1512.7000000476837]","1","2","","","6342","68","1","1","win","go","1"
"pit-trial","187","1299394","0.0-73.0","battery-v0.2","","""event"",""trial"",""time""
""fullscreenenter"",""1"",""3215""
","
","
","""event"",""trial"",""time""
""fullscreenenter"",""1"",""3215""
","
","","","741.1000000238419","","","19","6342","3098","g","elianto","#f73b6a7A"," "," ","1","0","[1599.6000000238419]","1","2","","","6342","69","3","3","lose","go","0"
"pit-trial","188","1304263","0.0-74.0","battery-v0.2","","""event"",""trial"",""time""
""fullscreenenter"",""1"",""3215""
","
","
","""event"",""trial"",""time""
""fullscreenenter"",""1"",""3215""
","
","","","-1","","","19","6342","3098","p","elianto","#3366ff99","-1","-1","1","+10","[]","0","2","","","6342","70","4","2","win","no-go","0"
"pit-trial","189","1308408","0.0-75.0","battery-v0.2","","""event"",""trial"",""time""
""fullscreenenter"",""1"",""3215""
","
","
","""event"",""trial"",""time""
""fullscreenenter"",""1"",""3215""
","
","","","1272.7999999523163","","","19","6342","3098","s","elianto","#3366ff99"," "," ","1","+10","[2131.5]","1","2","","","6342","71","5","1","win","go","0"
"pit-trial","190","1313280","0.0-76.0","battery-v0.2","","""event"",""trial"",""time""
""fullscreenenter"",""1"",""3215""
","
","
","""event"",""trial"",""time""
""fullscreenenter"",""1"",""3215""
","
","","","-1","","","19","6342","3098","l","elianto","#3366ff99"," ","-1","0","0","[]","0","2","","","6342","72","1","1","win","go","0"
"pit-trial","191","1318151","0.0-77.0","battery-v0.2","","""event"",""trial"",""time""
""fullscreenenter"",""1"",""3215""
","
","
","""event"",""trial"",""time""
""fullscreenenter"",""1"",""3215""
","
","","","-1","","","19","6342","3098","g","elianto","#f73b6a7A"," ","-1","0","-10","[]","0","2","","","6342","73","3","3","lose","go","0"
"pit-trial","192","1323025","0.0-78.0","battery-v0.2","","""event"",""trial"",""time""
""fullscreenenter"",""1"",""3215""
","
","
","""event"",""trial"",""time""
""fullscreenenter"",""1"",""3215""
","
","","","-1","","","19","6342","3098","p","elianto","#3366ff99","-1","-1","1","0","[]","0","2","","","6342","74","4","2","win","no-go","1"
"pit-trial","193","1326856","0.0-79.0","battery-v0.2","","""event"",""trial"",""time""
""fullscreenenter"",""1"",""3215""
","
","
","""event"",""trial"",""time""
""fullscreenenter"",""1"",""3215""
","
","","","969.2000000476837","","","19","6342","3098","l","elianto","#3366ff99"," "," ","1","+10","[1819.6000000238419]","1","2","","","6342","75","1","1","win","go","0"
"pit-trial","194","1330593","0.0-80.0","battery-v0.2","","""event"",""trial"",""time""
""fullscreenenter"",""1"",""3215""
","
","
","""event"",""trial"",""time""
""fullscreenenter"",""1"",""3215""
","
","","","873.1999999284744","","","19","6342","3098","s","elianto","#3366ff99"," "," ","1","+10","[1723.8999999761581]","1","2","","","6342","76","5","1","win","go","0"
"pit-trial","195","1335461","0.0-81.0","battery-v0.2","","""event"",""trial"",""time""
""fullscreenenter"",""1"",""3215""
","
","
","""event"",""trial"",""time""
""fullscreenenter"",""1"",""3215""
","
","","","-1","","","19","6342","3098","w","elianto","#f73b6a7A","-1","-1","1","0","[]","0","2","","","6342","77","6","4","lose","no-go","0"
"pit-trial","196","1339280","0.0-82.0","battery-v0.2","","""event"",""trial"",""time""
""fullscreenenter"",""1"",""3215""
","
","
","""event"",""trial"",""time""
""fullscreenenter"",""1"",""3215""
","
","","","946.7999999523163","","","19","6342","3098","s","elianto","#3366ff99"," "," ","1","+10","[1808.4000000953674]","1","2","","","6342","78","5","1","win","go","0"
"pit-trial","197","1344149","0.0-83.0","battery-v0.2","","""event"",""trial"",""time""
""fullscreenenter"",""1"",""3215""
","
","
","""event"",""trial"",""time""
""fullscreenenter"",""1"",""3215""
","
","","","-1","","","19","6342","3098","p","elianto","#3366ff99","-1","-1","1","+10","[]","0","2","","","6342","79","4","2","win","no-go","0"
"pit-trial","198","1349032","0.0-84.0","battery-v0.2","","""event"",""trial"",""time""
""fullscreenenter"",""1"",""3215""
","
","
","""event"",""trial"",""time""
""fullscreenenter"",""1"",""3215""
","
","","","-1","","","19","6342","3098","g","elianto","#f73b6a7A"," ","-1","0","-10","[]","0","2","","","6342","80","3","3","lose","go","0"
"pit-trial","199","1353911","0.0-85.0","battery-v0.2","","""event"",""trial"",""time""
""fullscreenenter"",""1"",""3215""
","
","
","""event"",""trial"",""time""
""fullscreenenter"",""1"",""3215""
","
","","","-1","","","19","6342","3098","p","elianto","#3366ff99","-1","-1","1","+10","[]","0","2","","","6342","81","4","2","win","no-go","0"
"pit-trial","200","1358333","0.0-86.0","battery-v0.2","","""event"",""trial"",""time""
""fullscreenenter"",""1"",""3215""
","
","
","""event"",""trial"",""time""
""fullscreenenter"",""1"",""3215""
","
","","","1540.6999999284744","","","19","6342","3098","w","elianto","#f73b6a7A","-1"," ","0","0","[2400.6999999284744]","1","2","","","6342","82","6","4","lose","no-go","1"
"pit-trial","201","1362570","0.0-87.0","battery-v0.2","","""event"",""trial"",""time""
""fullscreenenter"",""1"",""3215""
","
","
","""event"",""trial"",""time""
""fullscreenenter"",""1"",""3215""
","
","","","1362.2000000476837","","","19","6342","3098","e","elianto","#f73b6a7A"," "," ","1","0","[2221.3000000715256]","1","2","","","6342","83","7","3","lose","go","0"
"pit-trial","202","1366157","0.0-88.0","battery-v0.2","","""event"",""trial"",""time""
""fullscreenenter"",""1"",""3215""
","
","
","""event"",""trial"",""time""
""fullscreenenter"",""1"",""3215""
","
","","","710.2999999523163","","","19","6342","3098","s","elianto","#3366ff99"," "," ","1","+10","[1569.5]","1","2","","","6342","84","5","1","win","go","0"
"pit-trial","203","1370191","0.0-89.0","battery-v0.2","","""event"",""trial"",""time""
""fullscreenenter"",""1"",""3215""
","
","
","""event"",""trial"",""time""
""fullscreenenter"",""1"",""3215""
","
","","","1157.7999999523163","","","19","6342","3098","w","elianto","#f73b6a7A","-1"," ","0","-10","[2017.3999999761581]","1","2","","","6342","85","6","4","lose","no-go","0"
"pit-trial","204","1373809","0.0-90.0","battery-v0.2","","""event"",""trial"",""time""
""fullscreenenter"",""1"",""3215""
","
","
","""event"",""trial"",""time""
""fullscreenenter"",""1"",""3215""
","
","","","745.2000000476837","","","19","6342","3098","s","elianto","#3366ff99"," "," ","1","+10","[1604.5]","1","2","","","6342","86","5","1","win","go","0"
"pit-trial","205","1377736","0.0-91.0","battery-v0.2","","""event"",""trial"",""time""
""fullscreenenter"",""1"",""3215""
","
","
","""event"",""trial"",""time""
""fullscreenenter"",""1"",""3215""
","
","","","1066.8999999761581","","","19","6342","3098","e","elianto","#f73b6a7A"," "," ","1","0","[1917]","1","2","","","6342","87","7","3","lose","go","0"
"pit-trial","206","1381400","0.0-92.0","battery-v0.2","","""event"",""trial"",""time""
""fullscreenenter"",""1"",""3215""
","
","
","""event"",""trial"",""time""
""fullscreenenter"",""1"",""3215""
","
","","","799.2999999523163","","","19","6342","3098","p","elianto","#3366ff99","-1"," ","0","0","[1655.6999999284744]","1","2","","","6342","88","4","2","win","no-go","0"
"pit-trial","207","1386276","0.0-93.0","battery-v0.2","","""event"",""trial"",""time""
""fullscreenenter"",""1"",""3215""
","
","
","""event"",""trial"",""time""
""fullscreenenter"",""1"",""3215""
","
","","","-1","","","19","6342","3098","p","elianto","#3366ff99","-1","-1","1","0","[]","0","2","","","6342","89","4","2","win","no-go","1"
"pit-trial","208","1390020","0.0-94.0","battery-v0.2","","""event"",""trial"",""time""
""fullscreenenter"",""1"",""3215""
","
","
","""event"",""trial"",""time""
""fullscreenenter"",""1"",""3215""
","
","","","880.2000000476837","","","19","6342","3098","w","elianto","#f73b6a7A","-1"," ","0","0","[1731.3999999761581]","1","2","","","6342","90","6","4","lose","no-go","1"
"pit-trial","209","1394125","0.0-95.0","battery-v0.2","","""event"",""trial"",""time""
""fullscreenenter"",""1"",""3215""
","
","
","""event"",""trial"",""time""
""fullscreenenter"",""1"",""3215""
","
","","","1235.6999999284744","","","19","6342","3098","s","elianto","#3366ff99"," "," ","1","+10","[2093]","1","2","","","6342","91","5","1","win","go","0"
"pit-trial","210","1398117","0.0-96.0","battery-v0.2","","""event"",""trial"",""time""
""fullscreenenter"",""1"",""3215""
","
","
","""event"",""trial"",""time""
""fullscreenenter"",""1"",""3215""
","
","","","1126.1999999284744","","","19","6342","3098","e","elianto","#f73b6a7A"," "," ","1","0","[1980.2000000476837]","1","2","","","6342","92","7","3","lose","go","0"
"pit-trial","211","1402186","0.0-97.0","battery-v0.2","","""event"",""trial"",""time""
""fullscreenenter"",""1"",""3215""
","
","
","""event"",""trial"",""time""
""fullscreenenter"",""1"",""3215""
","
","","","1199.2999999523163","","","19","6342","3098","d","elianto","#3366ff99","-1"," ","0","+10","[2054.5]","1","2","","","6342","93","8","2","win","no-go","1"
"pit-trial","212","1405893","0.0-98.0","battery-v0.2","","""event"",""trial"",""time""
""fullscreenenter"",""1"",""3215""
","
","
","""event"",""trial"",""time""
""fullscreenenter"",""1"",""3215""
","
","","","842.6000000238419","","","19","6342","3098","w","elianto","#f73b6a7A","-1"," ","0","-10","[1698]","1","2","","","6342","94","6","4","lose","no-go","0"
"pit-trial","213","1409669","0.0-99.0","battery-v0.2","","""event"",""trial"",""time""
""fullscreenenter"",""1"",""3215""
","
","
","""event"",""trial"",""time""
""fullscreenenter"",""1"",""3215""
","
","","","907","","","19","6342","3098","s","elianto","#3366ff99"," "," ","1","0","[1760.6999999284744]","1","2","","","6342","95","5","1","win","go","1"
"pit-trial","214","1413445","0.0-100.0","battery-v0.2","","""event"",""trial"",""time""
""fullscreenenter"",""1"",""3215""
","
","
","""event"",""trial"",""time""
""fullscreenenter"",""1"",""3215""
","
","","","904.7000000476837","","","19","6342","3098","e","elianto","#f73b6a7A"," "," ","1","0","[1763.6000000238419]","1","2","","","6342","96","7","3","lose","go","0"
"pit-trial","215","1417620","0.0-101.0","battery-v0.2","","""event"",""trial"",""time""
""fullscreenenter"",""1"",""3215""
","
","
","""event"",""trial"",""time""
""fullscreenenter"",""1"",""3215""
","
","","","1306.6999999284744","","","19","6342","3098","d","elianto","#3366ff99","-1"," ","0","0","[2160.2999999523163]","1","2","","","6342","97","8","2","win","no-go","0"
"pit-trial","216","1421972","0.0-102.0","battery-v0.2","","""event"",""trial"",""time""
""fullscreenenter"",""1"",""3215""
","
","
","""event"",""trial"",""time""
""fullscreenenter"",""1"",""3215""
","
","","","1482.5","","","19","6342","3098","e","elianto","#f73b6a7A"," "," ","1","0","[2340.8000000715256]","1","2","","","6342","98","7","3","lose","go","0"
"pit-trial","217","1425621","0.0-103.0","battery-v0.2","","""event"",""trial"",""time""
""fullscreenenter"",""1"",""3215""
","
","
","""event"",""trial"",""time""
""fullscreenenter"",""1"",""3215""
","
","","","773.7999999523163","","","19","6342","3098","s","elianto","#3366ff99"," "," ","1","+10","[1633.0999999046326]","1","2","","","6342","99","5","1","win","go","0"
"pit-trial","218","1430490","0.0-104.0","battery-v0.2","","""event"",""trial"",""time""
""fullscreenenter"",""1"",""3215""
","
","
","""event"",""trial"",""time""
""fullscreenenter"",""1"",""3215""
","
","","","-1","","","19","6342","3098","w","elianto","#f73b6a7A","-1","-1","1","-10","[]","0","2","","","6342","100","6","4","lose","no-go","1"
"pit-trial","219","1435364","0.0-105.0","battery-v0.2","","""event"",""trial"",""time""
""fullscreenenter"",""1"",""3215""
","
","
","""event"",""trial"",""time""
""fullscreenenter"",""1"",""3215""
","
","","","-1","","","19","6342","3098","w","elianto","#f73b6a7A","-1","-1","1","0","[]","0","2","","","6342","101","6","4","lose","no-go","0"
"pit-trial","220","1439114","0.0-106.0","battery-v0.2","","""event"",""trial"",""time""
""fullscreenenter"",""1"",""3215""
","
","
","""event"",""trial"",""time""
""fullscreenenter"",""1"",""3215""
","
","","","891.1000000238419","","","19","6342","3098","d","elianto","#3366ff99","-1"," ","0","+10","[1741.7999999523163]","1","2","","","6342","102","8","2","win","no-go","1"
"pit-trial","221","1443108","0.0-107.0","battery-v0.2","","""event"",""trial"",""time""
""fullscreenenter"",""1"",""3215""
","
","
","""event"",""trial"",""time""
""fullscreenenter"",""1"",""3215""
","
","","","1125.5999999046326","","","19","6342","3098","j","elianto","#3366ff99","-1"," ","0","0","[1976.6000000238419]","1","2","","","6342","103","9","2","win","no-go","0"
"pit-trial","222","1446891","0.0-108.0","battery-v0.2","","""event"",""trial"",""time""
""fullscreenenter"",""1"",""3215""
","
","
","""event"",""trial"",""time""
""fullscreenenter"",""1"",""3215""
","
","","","916.8999999761581","","","19","6342","3098","s","elianto","#3366ff99"," "," ","1","0","[1772.1000000238419]","1","2","","","6342","104","5","1","win","go","1"
"pit-trial","223","1451755","0.0-109.0","battery-v0.2","","""event"",""trial"",""time""
""fullscreenenter"",""1"",""3215""
","
","
","""event"",""trial"",""time""
""fullscreenenter"",""1"",""3215""
","
","","","-1","","","19","6342","3098","w","elianto","#f73b6a7A","-1","-1","1","0","[]","0","2","","","6342","105","6","4","lose","no-go","0"
"pit-trial","224","1455561","0.0-110.0","battery-v0.2","","""event"",""trial"",""time""
""fullscreenenter"",""1"",""3215""
","
","
","""event"",""trial"",""time""
""fullscreenenter"",""1"",""3215""
","
","","","938.3000000715256","","","19","6342","3098","d","elianto","#3366ff99","-1"," ","0","0","[1795.7999999523163]","1","2","","","6342","106","8","2","win","no-go","0"
"pit-trial","225","1459236","0.0-111.0","battery-v0.2","","""event"",""trial"",""time""
""fullscreenenter"",""1"",""3215""
","
","
","""event"",""trial"",""time""
""fullscreenenter"",""1"",""3215""
","
","","","808.5","","","19","6342","3098","s","elianto","#3366ff99"," "," ","1","0","[1660]","1","2","","","6342","107","5","1","win","go","1"
"pit-trial","226","1463635","0.0-112.0","battery-v0.2","","""event"",""trial"",""time""
""fullscreenenter"",""1"",""3215""
","
","
","""event"",""trial"",""time""
""fullscreenenter"",""1"",""3215""
","
","","","1529.1000000238419","","","19","6342","3098","j","elianto","#3366ff99","-1"," ","0","0","[2387.5]","1","2","","","6342","108","9","2","win","no-go","0"
"pit-trial","227","1468507","0.0-113.0","battery-v0.2","","""event"",""trial"",""time""
""fullscreenenter"",""1"",""3215""
","
","
","""event"",""trial"",""time""
""fullscreenenter"",""1"",""3215""
","
","","","-1","","","19","6342","3098","j","elianto","#3366ff99","-1","-1","1","+10","[]","0","2","","","6342","109","9","2","win","no-go","0"
"pit-trial","228","1472553","0.0-114.0","battery-v0.2","","""event"",""trial"",""time""
""fullscreenenter"",""1"",""3215""
","
","
","""event"",""trial"",""time""
""fullscreenenter"",""1"",""3215""
","
","","","1175.1000000238419","","","19","6342","3098","d","elianto","#3366ff99","-1"," ","0","0","[2031.2000000476837]","1","2","","","6342","110","8","2","win","no-go","0"
"pit-trial","229","1476115","0.0-115.0","battery-v0.2","","""event"",""trial"",""time""
""fullscreenenter"",""1"",""3215""
","
","
","""event"",""trial"",""time""
""fullscreenenter"",""1"",""3215""
","
","","","691.2999999523163","","","19","6342","3098","s","elianto","#3366ff99"," "," ","1","+10","[1550.1999999284744]","1","2","","","6342","111","5","1","win","go","0"
"pit-trial","230","1480984","0.0-116.0","battery-v0.2","","""event"",""trial"",""time""
""fullscreenenter"",""1"",""3215""
","
","
","""event"",""trial"",""time""
""fullscreenenter"",""1"",""3215""
","
","","","-1","","","19","6342","3098","w","elianto","#f73b6a7A","-1","-1","1","0","[]","0","2","","","6342","112","6","4","lose","no-go","0"
"pit-trial","231","1485849","0.0-117.0","battery-v0.2","","""event"",""trial"",""time""
""fullscreenenter"",""1"",""3215""
","
","
","""event"",""trial"",""time""
""fullscreenenter"",""1"",""3215""
","
","","","-1","","","19","6342","3098","d","elianto","#3366ff99","-1","-1","1","+10","[]","0","2","","","6342","113","8","2","win","no-go","0"
"pit-trial","232","1490067","0.0-118.0","battery-v0.2","","""event"",""trial"",""time""
""fullscreenenter"",""1"",""3215""
","
","
","""event"",""trial"",""time""
""fullscreenenter"",""1"",""3215""
","
","","","1346.3000000715256","","","19","6342","3098","j","elianto","#3366ff99","-1"," ","0","0","[2203.899999976158]","1","2","","","6342","114","9","2","win","no-go","0"
"pit-trial","233","1494936","0.0-119.0","battery-v0.2","","""event"",""trial"",""time""
""fullscreenenter"",""1"",""3215""
","
","
","""event"",""trial"",""time""
""fullscreenenter"",""1"",""3215""
","
","","","-1","","","19","6342","3098","e","elianto","#f73b6a7A"," ","-1","0","-10","[]","0","2","","","6342","115","7","3","lose","go","0"
"pit-trial","234","1498442","0.0-120.0","battery-v0.2","","""event"",""trial"",""time""
""fullscreenenter"",""1"",""3215""
","
","
","""event"",""trial"",""time""
""fullscreenenter"",""1"",""3215""
","
","","","636.3999999761581","","","19","6342","3098","s","elianto","#3366ff99"," "," ","1","+10","[1496]","1","2","","","6342","116","5","1","win","go","0"
"pit-trial","235","1502105","0.0-121.0","battery-v0.2","","""event"",""trial"",""time""
""fullscreenenter"",""1"",""3215""
","
","
","""event"",""trial"",""time""
""fullscreenenter"",""1"",""3215""
","
","","","794.5999999046326","","","19","6342","3098","s","elianto","#3366ff99"," "," ","1","0","[1648.5]","1","2","","","6342","117","5","1","win","go","1"
"pit-trial","236","1505688","0.0-122.0","battery-v0.2","","""event"",""trial"",""time""
""fullscreenenter"",""1"",""3215""
","
","
","""event"",""trial"",""time""
""fullscreenenter"",""1"",""3215""
","
","","","714.7000000476837","","","19","6342","3098","w","elianto","#f73b6a7A","-1"," ","0","0","[1572.5]","1","2","","","6342","118","6","4","lose","no-go","1"
"pit-trial","237","1509314","0.0-123.0","battery-v0.2","","""event"",""trial"",""time""
""fullscreenenter"",""1"",""3215""
","
","
","""event"",""trial"",""time""
""fullscreenenter"",""1"",""3215""
","
","","","756.5","","","19","6342","3098","d","elianto","#3366ff99","-1"," ","0","0","[1614.6999999284744]","1","2","","","6342","119","8","2","win","no-go","0"
"pit-trial","238","1514183","0.0-124.0","battery-v0.2","","""event"",""trial"",""time""
""fullscreenenter"",""1"",""3215""
","
","
","""event"",""trial"",""time""
""fullscreenenter"",""1"",""3215""
","
","","","-1","","","19","6342","3098","j","elianto","#3366ff99","-1","-1","1","+10","[]","0","2","","","6342","120","9","2","win","no-go","0"
"pit-trial","239","1519057","0.0-125.0","battery-v0.2","","""event"",""trial"",""time""
""fullscreenenter"",""1"",""3215""
","
","
","""event"",""trial"",""time""
""fullscreenenter"",""1"",""3215""
","
","","","-1","","","19","6342","3098","d","elianto","#3366ff99","-1","-1","1","+10","[]","0","2","","","6342","121","8","2","win","no-go","0"
"pit-trial","240","1523927","0.0-126.0","battery-v0.2","","""event"",""trial"",""time""
""fullscreenenter"",""1"",""3215""
","
","
","""event"",""trial"",""time""
""fullscreenenter"",""1"",""3215""
","
","","","-1","","","19","6342","3098","e","elianto","#f73b6a7A"," ","-1","0","-10","[]","0","2","","","6342","122","7","3","lose","go","0"
"pit-trial","241","1528792","0.0-127.0","battery-v0.2","","""event"",""trial"",""time""
""fullscreenenter"",""1"",""3215""
","
","
","""event"",""trial"",""time""
""fullscreenenter"",""1"",""3215""
","
","","","-1","","","19","6342","3098","j","elianto","#3366ff99","-1","-1","1","+10","[]","0","2","","","6342","123","9","2","win","no-go","0"
"pit-trial","242","1532918","0.0-128.0","battery-v0.2","","""event"",""trial"",""time""
""fullscreenenter"",""1"",""3215""
","
","
","""event"",""trial"",""time""
""fullscreenenter"",""1"",""3215""
","
","","","1262.5","","","19","6342","3098","s","elianto","#3366ff99"," "," ","1","+10","[2117.2000000476837]","1","2","","","6342","124","5","1","win","go","0"
"pit-trial","243","1537793","0.0-129.0","battery-v0.2","","""event"",""trial"",""time""
""fullscreenenter"",""1"",""3215""
","
","
","""event"",""trial"",""time""
""fullscreenenter"",""1"",""3215""
","
","","","-1","","","19","6342","3098","j","elianto","#3366ff99","-1","-1","1","+10","[]","0","2","","","6342","125","9","2","win","no-go","0"
"pit-trial","244","1542241","0.0-130.0","battery-v0.2","","""event"",""trial"",""time""
""fullscreenenter"",""1"",""3215""
","
","
","""event"",""trial"",""time""
""fullscreenenter"",""1"",""3215""
","
","","","1579.7999999523163","","","19","6342","3098","w","elianto","#f73b6a7A","-1"," ","0","-10","[2432.2000000476837]","1","2","","","6342","126","6","4","lose","no-go","0"
"pit-trial","245","1546198","0.0-131.0","battery-v0.2","","""event"",""trial"",""time""
""fullscreenenter"",""1"",""3215""
","
","
","""event"",""trial"",""time""
""fullscreenenter"",""1"",""3215""
","
","","","1092.8000000715256","","","19","6342","3098","e","elianto","#f73b6a7A"," "," ","1","-10","[1947.5]","1","2","","","6342","127","7","3","lose","go","1"
"pit-trial","246","1549981","0.0-132.0","battery-v0.2","","""event"",""trial"",""time""
""fullscreenenter"",""1"",""3215""
","
","
","""event"",""trial"",""time""
""fullscreenenter"",""1"",""3215""
","
","","","910.4000000953674","","","19","6342","3098","d","elianto","#3366ff99","-1"," ","0","0","[1772.5]","1","2","","","6342","128","8","2","win","no-go","0"
"pit-trial","247","1554102","0.0-133.0","battery-v0.2","","""event"",""trial"",""time""
""fullscreenenter"",""1"",""3215""
","
","
","""event"",""trial"",""time""
""fullscreenenter"",""1"",""3215""
","
","","","1254.7999999523163","","","19","6342","3098","e","elianto","#f73b6a7A"," "," ","1","0","[2105.5]","1","2","","","6342","129","7","3","lose","go","0"
"pit-trial","248","1558973","0.0-134.0","battery-v0.2","","""event"",""trial"",""time""
""fullscreenenter"",""1"",""3215""
","
","
","""event"",""trial"",""time""
""fullscreenenter"",""1"",""3215""
","
","","","-1","","","19","6342","3098","j","elianto","#3366ff99","-1","-1","1","0","[]","0","2","","","6342","130","9","2","win","no-go","1"
"pit-trial","249","1563847","0.0-135.0","battery-v0.2","","""event"",""trial"",""time""
""fullscreenenter"",""1"",""3215""
","
","
","""event"",""trial"",""time""
""fullscreenenter"",""1"",""3215""
","
","","","-1","","","19","6342","3098","w","elianto","#f73b6a7A","-1","-1","1","0","[]","0","2","","","6342","131","6","4","lose","no-go","0"
"pit-trial","250","1568720","0.0-136.0","battery-v0.2","","""event"",""trial"",""time""
""fullscreenenter"",""1"",""3215""
","
","
","""event"",""trial"",""time""
""fullscreenenter"",""1"",""3215""
","
","","","-1","","","19","6342","3098","d","elianto","#3366ff99","-1","-1","1","+10","[]","0","2","","","6342","132","8","2","win","no-go","0"
"pit-trial","251","1573589","0.0-137.0","battery-v0.2","","""event"",""trial"",""time""
""fullscreenenter"",""1"",""3215""
","
","
","""event"",""trial"",""time""
""fullscreenenter"",""1"",""3215""
","
","","","-1","","","19","6342","3098","w","elianto","#f73b6a7A","-1","-1","1","-10","[]","0","2","","","6342","133","6","4","lose","no-go","1"
"pit-trial","252","1578463","0.0-138.0","battery-v0.2","","""event"",""trial"",""time""
""fullscreenenter"",""1"",""3215""
","
","
","""event"",""trial"",""time""
""fullscreenenter"",""1"",""3215""
","
","","","-1","","","19","6342","3098","d","elianto","#3366ff99","-1","-1","1","+10","[]","0","2","","","6342","134","8","2","win","no-go","0"
"pit-trial","253","1583316","0.0-139.0","battery-v0.2","","""event"",""trial"",""time""
""fullscreenenter"",""1"",""3215""
","
","
","""event"",""trial"",""time""
""fullscreenenter"",""1"",""3215""
","
","","","1993","","","19","6342","3098","j","elianto","#3366ff99","-1"," ","0","0","[2844]","1","2","","","6342","135","9","2","win","no-go","0"
"pit-trial","254","1586879","0.0-140.0","battery-v0.2","","""event"",""trial"",""time""
""fullscreenenter"",""1"",""3215""
","
","
","""event"",""trial"",""time""
""fullscreenenter"",""1"",""3215""
","
","","","684.3999999761581","","","19","6342","3098","e","elianto","#f73b6a7A"," "," ","1","0","[1546.7999999523163]","1","2","","","6342","136","7","3","lose","go","0"
"pit-trial","255","1591749","0.0-141.0","battery-v0.2","","""event"",""trial"",""time""
""fullscreenenter"",""1"",""3215""
","
","
","""event"",""trial"",""time""
""fullscreenenter"",""1"",""3215""
","
","","","-1","","","19","6342","3098","d","elianto","#3366ff99","-1","-1","1","+10","[]","0","2","","","6342","137","8","2","win","no-go","0"
"pit-trial","256","1596206","0.0-142.0","battery-v0.2","","""event"",""trial"",""time""
""fullscreenenter"",""1"",""3215""
","
","
","""event"",""trial"",""time""
""fullscreenenter"",""1"",""3215""
","
","","","1594.4000000953674","","","19","6342","3098","e","elianto","#f73b6a7A"," "," ","1","-10","[2444.600000023842]","1","2","","","6342","138","7","3","lose","go","1"
"pit-trial","257","1601076","0.0-143.0","battery-v0.2","","""event"",""trial"",""time""
""fullscreenenter"",""1"",""3215""
","
","
","""event"",""trial"",""time""
""fullscreenenter"",""1"",""3215""
","
","","","-1","","","19","6342","3098","w","elianto","#f73b6a7A","-1","-1","1","0","[]","0","2","","","6342","139","6","4","lose","no-go","0"
"pit-trial","258","1605950","0.0-144.0","battery-v0.2","","""event"",""trial"",""time""
""fullscreenenter"",""1"",""3215""
","
","
","""event"",""trial"",""time""
""fullscreenenter"",""1"",""3215""
","
","","","-1","","","19","6342","3098","j","elianto","#3366ff99","-1","-1","1","+10","[]","0","2","","","6342","140","9","2","win","no-go","0"
"pit-instructions","259","1639806","0.0-145.0","battery-v0.2","","""event"",""trial"",""time""
""fullscreenenter"",""1"",""3215""
","
","
","""event"",""trial"",""time""
""fullscreenenter"",""1"",""3215""
","
","","[{""page_index"":0,""viewing_time"":24852.200000047684},{""page_index"":1,""viewing_time"":9000.299999952316}]","33853.40000009537","","","","","","","","","","","","","","","","","","","","","","","",""
"pit-trial","260","1642879","0.0-146.0","battery-v0.2","","""event"",""trial"",""time""
""fullscreenenter"",""1"",""3215""
","
","
","""event"",""trial"",""time""
""fullscreenenter"",""1"",""3215""
","
","","","211.39999997615814","","","19","6342","3098","r","elianto","#3366ff99","-1"," ","0","+10","[1063.3000000715256]","1","3","","","6342","141","1","2","win","no-go","1"
"pit-trial","261","1646561","0.0-147.0","battery-v0.2","","""event"",""trial"",""time""
""fullscreenenter"",""1"",""3215""
","
","
","""event"",""trial"",""time""
""fullscreenenter"",""1"",""3215""
","
","","","821","","","19","6342","3098","m","elianto","#f73b6a7A"," "," ","1","-10","[1671.7999999523163]","1","3","","","6342","142","0","3","lose","go","1"
"pit-trial","262","1651436","0.0-148.0","battery-v0.2","","""event"",""trial"",""time""
""fullscreenenter"",""1"",""3215""
","
","
","""event"",""trial"",""time""
""fullscreenenter"",""1"",""3215""
","
","","","-1","","","19","6342","3098","h","elianto","#f73b6a7A","-1","-1","1","0","[]","0","3","","","6342","143","3","4","lose","no-go","0"
"pit-trial","263","1655584","0.0-149.0","battery-v0.2","","""event"",""trial"",""time""
""fullscreenenter"",""1"",""3215""
","
","
","""event"",""trial"",""time""
""fullscreenenter"",""1"",""3215""
","
","","","1280.7999999523163","","","19","6342","3098","y","elianto","#f73b6a7A"," "," ","1","0","[2138.8000000715256]","1","3","","","6342","144","2","3","lose","go","0"
"pit-trial","264","1660460","0.0-150.0","battery-v0.2","","""event"",""trial"",""time""
""fullscreenenter"",""1"",""3215""
","
","
","""event"",""trial"",""time""
""fullscreenenter"",""1"",""3215""
","
","","","-1","","","19","6342","3098","h","elianto","#f73b6a7A","-1","-1","1","0","[]","0","3","","","6342","145","3","4","lose","no-go","0"
"pit-trial","265","1664336","0.0-151.0","battery-v0.2","","""event"",""trial"",""time""
""fullscreenenter"",""1"",""3215""
","
","
","""event"",""trial"",""time""
""fullscreenenter"",""1"",""3215""
","
","","","1015.7999999523163","","","19","6342","3098","y","elianto","#f73b6a7A"," "," ","1","-10","[1867.8999999761581]","1","3","","","6342","146","2","3","lose","go","1"
"pit-trial","266","1667889","0.0-152.0","battery-v0.2","","""event"",""trial"",""time""
""fullscreenenter"",""1"",""3215""
","
","
","""event"",""trial"",""time""
""fullscreenenter"",""1"",""3215""
","
","","","688.9000000953674","","","19","6342","3098","r","elianto","#3366ff99","-1"," ","0","+10","[1539.7000000476837]","1","3","","","6342","147","1","2","win","no-go","1"
