"trial_type","trial_index","time_elapsed","internal_node_id","task_version","subject_id","interactions","blur_events","focus_events","fullscreenenter_events","fullscreenexit_events","success","view_history","rt","responses","num_errors","age","subject","participantId","rune","rune_set","hex","correct","choice","accuracy","outcome","keys","total_keys","block","practice","value","sub","trial","stimulus","robot","valence","action","sham"
"pavlovia","0","9","0.0-0.0","battery-v0.2","","""event"",""trial"",""time""
""focus"",""1"",""52801""
""fullscreenenter"",""1"",""53641""
","
","""event"",""trial"",""time""
""focus"",""1"",""52801""
","""event"",""trial"",""time""
""fullscreenenter"",""1"",""53641""
","
","","","","","","","","","","","","","","","","","","","","","","","","","","",""
"fullscreen","1","54602","0.0-1.0","battery-v0.2","","""event"",""trial"",""time""
""focus"",""1"",""52801""
""fullscreenenter"",""1"",""53641""
""fullscreenexit"",""2"",""55450""
","
","""event"",""trial"",""time""
""focus"",""1"",""52801""
","""event"",""trial"",""time""
""fullscreenenter"",""1"",""53641""
","""event"",""trial"",""time""
""fullscreenexit"",""2"",""55450""
","true","","","","","","","","","","","","","","","","","","","","","","","","","",""
"pit-instructions","2","58651","0.0-2.0-0.0","battery-v0.2","","""event"",""trial"",""time""
""focus"",""1"",""52801""
""fullscreenenter"",""1"",""53641""
""fullscreenexit"",""2"",""55450""
","
","""event"",""trial"",""time""
""focus"",""1"",""52801""
","""event"",""trial"",""time""
""fullscreenenter"",""1"",""53641""
","""event"",""trial"",""time""
""fullscreenexit"",""2"",""55450""
","","[{""page_index"":0,""viewing_time"":4041.7000000476837}]","4043","","","","","","","","","","","","","","","","","","","","","","","",""
"pit-comprehension","3","68649","0.0-2.0-1.0-0.0","battery-v0.2","","""event"",""trial"",""time""
""focus"",""1"",""52801""
""fullscreenenter"",""1"",""53641""
""fullscreenexit"",""2"",""55450""
","
","""event"",""trial"",""time""
""focus"",""1"",""52801""
","""event"",""trial"",""time""
""fullscreenenter"",""1"",""53641""
","""event"",""trial"",""time""
""fullscreenexit"",""2"",""55450""
","","","9991.100000023842","[""turtle""]","1","22","3338","2425","","","","","","","","","","","","","","","","","","",""
"pit-instructions","4","69932","0.0-2.0-1.0-1.0","battery-v0.2","","""event"",""trial"",""time""
""focus"",""1"",""52801""
""fullscreenenter"",""1"",""53641""
""fullscreenexit"",""2"",""55450""
""blur"",""5"",""72322""
""focus"",""5"",""2808432""
""blur"",""5"",""2809527""
""focus"",""5"",""6044737""
","""event"",""trial"",""time""
""blur"",""5"",""72322""
""blur"",""5"",""2809527""
","""event"",""trial"",""time""
""focus"",""1"",""52801""
""focus"",""5"",""2808432""
""focus"",""5"",""6044737""
","""event"",""trial"",""time""
""fullscreenenter"",""1"",""53641""
","""event"",""trial"",""time""
""fullscreenexit"",""2"",""55450""
","","[{""page_index"":0,""viewing_time"":1263.1000000238419}]","1263.5","","","","","","","","","","","","","","","","","","","","","","","",""
"pit-instructions","5","6045840","0.0-2.0-1.0-2.0-0.0","battery-v0.2","","""event"",""trial"",""time""
""focus"",""1"",""52801""
""fullscreenenter"",""1"",""53641""
""fullscreenexit"",""2"",""55450""
""blur"",""5"",""72322""
""focus"",""5"",""2808432""
""blur"",""5"",""2809527""
""focus"",""5"",""6044737""
","""event"",""trial"",""time""
""blur"",""5"",""72322""
""blur"",""5"",""2809527""
","""event"",""trial"",""time""
""focus"",""1"",""52801""
""focus"",""5"",""2808432""
""focus"",""5"",""6044737""
","""event"",""trial"",""time""
""fullscreenenter"",""1"",""53641""
","""event"",""trial"",""time""
""fullscreenexit"",""2"",""55450""
","","[{""page_index"":0,""viewing_time"":5975914.799999952}]","5975914.899999976","","","","","","","","","","","","","","","","","","","","","","","",""
"pit-comprehension","6","6049913","0.0-2.0-1.1-0.1","battery-v0.2","","""event"",""trial"",""time""
""focus"",""1"",""52801""
""fullscreenenter"",""1"",""53641""
""fullscreenexit"",""2"",""55450""
""blur"",""5"",""72322""
""focus"",""5"",""2808432""
""blur"",""5"",""2809527""
""focus"",""5"",""6044737""
","""event"",""trial"",""time""
""blur"",""5"",""72322""
""blur"",""5"",""2809527""
","""event"",""trial"",""time""
""focus"",""1"",""52801""
""focus"",""5"",""2808432""
""focus"",""5"",""6044737""
","""event"",""trial"",""time""
""fullscreenenter"",""1"",""53641""
","""event"",""trial"",""time""
""fullscreenexit"",""2"",""55450""
","","","4069.8000000715256","[""shark""]","0","22","3338","2425","","","","","","","","","","","","","","","","","","",""
"pit-instructions","7","6050870","0.0-2.0-1.1-1.1","battery-v0.2","","""event"",""trial"",""time""
""focus"",""1"",""52801""
""fullscreenenter"",""1"",""53641""
""fullscreenexit"",""2"",""55450""
""blur"",""5"",""72322""
""focus"",""5"",""2808432""
""blur"",""5"",""2809527""
""focus"",""5"",""6044737""
","""event"",""trial"",""time""
""blur"",""5"",""72322""
""blur"",""5"",""2809527""
","""event"",""trial"",""time""
""focus"",""1"",""52801""
""focus"",""5"",""2808432""
""focus"",""5"",""6044737""
","""event"",""trial"",""time""
""fullscreenenter"",""1"",""53641""
","""event"",""trial"",""time""
""fullscreenexit"",""2"",""55450""
","","[{""page_index"":0,""viewing_time"":953.7000000476837}]","954","","","","","","","","","","","","","","","","","","","","","","","",""
"pit-comprehension","8","6054159","0.0-2.0-2.0-0.0","battery-v0.2","","""event"",""trial"",""time""
""focus"",""1"",""52801""
""fullscreenenter"",""1"",""53641""
""fullscreenexit"",""2"",""55450""
""blur"",""5"",""72322""
""focus"",""5"",""2808432""
""blur"",""5"",""2809527""
""focus"",""5"",""6044737""
","""event"",""trial"",""time""
""blur"",""5"",""72322""
""blur"",""5"",""2809527""
","""event"",""trial"",""time""
""focus"",""1"",""52801""
""focus"",""5"",""2808432""
""focus"",""5"",""6044737""
","""event"",""trial"",""time""
""fullscreenenter"",""1"",""53641""
","""event"",""trial"",""time""
""fullscreenexit"",""2"",""55450""
","","","3285.2000000476837","[""tiger""]","0","22","3338","2425","","","","","","","","","","","","","","","","","","",""
"pit-instructions","9","6055092","0.0-2.0-2.0-1.0","battery-v0.2","","""event"",""trial"",""time""
""focus"",""1"",""52801""
""fullscreenenter"",""1"",""53641""
""fullscreenexit"",""2"",""55450""
""blur"",""5"",""72322""
""focus"",""5"",""2808432""
""blur"",""5"",""2809527""
""focus"",""5"",""6044737""
""blur"",""10"",""6101024""
""focus"",""10"",""6118957""
","""event"",""trial"",""time""
""blur"",""5"",""72322""
""blur"",""5"",""2809527""
""blur"",""10"",""6101024""
","""event"",""trial"",""time""
""focus"",""1"",""52801""
""focus"",""5"",""2808432""
""focus"",""5"",""6044737""
""focus"",""10"",""6118957""
","""event"",""trial"",""time""
""fullscreenenter"",""1"",""53641""
","""event"",""trial"",""time""
""fullscreenexit"",""2"",""55450""
","","[{""page_index"":0,""viewing_time"":928.6000000238419}]","928.9000000953674","","","","","","","","","","","","","","","","","","","","","","","",""
"pit-instructions","10","6178595","0.0-2.0-3.0","battery-v0.2","","""event"",""trial"",""time""
""focus"",""1"",""52801""
""fullscreenenter"",""1"",""53641""
""fullscreenexit"",""2"",""55450""
""blur"",""5"",""72322""
""focus"",""5"",""2808432""
""blur"",""5"",""2809527""
""focus"",""5"",""6044737""
""blur"",""10"",""6101024""
""focus"",""10"",""6118957""
","""event"",""trial"",""time""
""blur"",""5"",""72322""
""blur"",""5"",""2809527""
""blur"",""10"",""6101024""
","""event"",""trial"",""time""
""focus"",""1"",""52801""
""focus"",""5"",""2808432""
""focus"",""5"",""6044737""
""focus"",""10"",""6118957""
","""event"",""trial"",""time""
""fullscreenenter"",""1"",""53641""
","""event"",""trial"",""time""
""fullscreenexit"",""2"",""55450""
","","[{""page_index"":0,""viewing_time"":9460.900000095367},{""page_index"":1,""viewing_time"":11273.899999976158},{""page_index"":2,""viewing_time"":8301.299999952316},{""page_index"":3,""viewing_time"":5456.700000047684},{""page_index"":4,""viewing_time"":7202.600000023842},{""page_index"":5,""viewing_time"":23503.5},{""page_index"":6,""viewing_time"":6806.799999952316},{""page_index"":7,""viewing_time"":7044.799999952316},{""page_index"":8,""viewing_time"":6356},{""page_index"":9,""viewing_time"":8208.300000071526},{""page_index"":10,""viewing_time"":8991.899999976158},{""page_index"":11,""viewing_time"":6434.399999976158},{""page_index"":12,""viewing_time"":9375.899999976158},{""page_index"":13,""viewing_time"":5082}]","123499.5","","","","","","","","","","","","","","","","","","","","","","","",""
"pit-trial","11","6181481","0.0-2.0-4.0-0.0","battery-v0.2","","""event"",""trial"",""time""
""focus"",""1"",""52801""
""fullscreenenter"",""1"",""53641""
""fullscreenexit"",""2"",""55450""
""blur"",""5"",""72322""
""focus"",""5"",""2808432""
""blur"",""5"",""2809527""
""focus"",""5"",""6044737""
""blur"",""10"",""6101024""
""focus"",""10"",""6118957""
","""event"",""trial"",""time""
""blur"",""5"",""72322""
""blur"",""5"",""2809527""
""blur"",""10"",""6101024""
","""event"",""trial"",""time""
""focus"",""1"",""52801""
""focus"",""5"",""2808432""
""focus"",""5"",""6044737""
""focus"",""10"",""6118957""
","""event"",""trial"",""time""
""fullscreenenter"",""1"",""53641""
","""event"",""trial"",""time""
""fullscreenexit"",""2"",""55450""
","","","20.899999976158142","","","22","3338","2425","&#9784;","elianto","#FFFFF080"," "," ","1","&#10004","[880.5999999046326]","1","0","0","","","","","","","",""
"pit-trial","12","6186340","0.0-2.0-4.1-0.1","battery-v0.2","","""event"",""trial"",""time""
""focus"",""1"",""52801""
""fullscreenenter"",""1"",""53641""
""fullscreenexit"",""2"",""55450""
""blur"",""5"",""72322""
""focus"",""5"",""2808432""
""blur"",""5"",""2809527""
""focus"",""5"",""6044737""
""blur"",""10"",""6101024""
""focus"",""10"",""6118957""
","""event"",""trial"",""time""
""blur"",""5"",""72322""
""blur"",""5"",""2809527""
""blur"",""10"",""6101024""
","""event"",""trial"",""time""
""focus"",""1"",""52801""
""focus"",""5"",""2808432""
""focus"",""5"",""6044737""
""focus"",""10"",""6118957""
","""event"",""trial"",""time""
""fullscreenenter"",""1"",""53641""
","""event"",""trial"",""time""
""fullscreenexit"",""2"",""55450""
","","","-1","","","22","3338","2425","&#9784;","elianto","#FFFFF080"," ","-1","0","&#10060","[847]","1","0","0","","","","","","","",""
"pit-trial","13","6189592","0.0-2.0-4.2-0.2","battery-v0.2","","""event"",""trial"",""time""
""focus"",""1"",""52801""
""fullscreenenter"",""1"",""53641""
""fullscreenexit"",""2"",""55450""
""blur"",""5"",""72322""
""focus"",""5"",""2808432""
""blur"",""5"",""2809527""
""focus"",""5"",""6044737""
""blur"",""10"",""6101024""
""focus"",""10"",""6118957""
","""event"",""trial"",""time""
""blur"",""5"",""72322""
""blur"",""5"",""2809527""
""blur"",""10"",""6101024""
","""event"",""trial"",""time""
""focus"",""1"",""52801""
""focus"",""5"",""2808432""
""focus"",""5"",""6044737""
""focus"",""10"",""6118957""
","""event"",""trial"",""time""
""fullscreenenter"",""1"",""53641""
","""event"",""trial"",""time""
""fullscreenexit"",""2"",""55450""
","","","399","","","22","3338","2425","&#9784;","elianto","#FFFFF080"," "," ","1","&#10004","[1249.1000000238419]","1","0","0","","","","","","","",""
"pit-trial","14","6192952","0.0-2.0-4.3-0.3","battery-v0.2","","""event"",""trial"",""time""
""focus"",""1"",""52801""
""fullscreenenter"",""1"",""53641""
""fullscreenexit"",""2"",""55450""
""blur"",""5"",""72322""
""focus"",""5"",""2808432""
""blur"",""5"",""2809527""
""focus"",""5"",""6044737""
""blur"",""10"",""6101024""
""focus"",""10"",""6118957""
","""event"",""trial"",""time""
""blur"",""5"",""72322""
""blur"",""5"",""2809527""
""blur"",""10"",""6101024""
","""event"",""trial"",""time""
""focus"",""1"",""52801""
""focus"",""5"",""2808432""
""focus"",""5"",""6044737""
""focus"",""10"",""6118957""
","""event"",""trial"",""time""
""fullscreenenter"",""1"",""53641""
","""event"",""trial"",""time""
""fullscreenexit"",""2"",""55450""
","","","494.3000000715256","","","22","3338","2425","&#9784;","elianto","#FFFFF080"," "," ","1","&#10004","[1356.3999999761581]","1","0","0","","","","","","","",""
"pit-trial","15","6196352","0.0-2.0-4.4-0.4","battery-v0.2","","""event"",""trial"",""time""
""focus"",""1"",""52801""
""fullscreenenter"",""1"",""53641""
""fullscreenexit"",""2"",""55450""
""blur"",""5"",""72322""
""focus"",""5"",""2808432""
""blur"",""5"",""2809527""
""focus"",""5"",""6044737""
""blur"",""10"",""6101024""
""focus"",""10"",""6118957""
","""event"",""trial"",""time""
""blur"",""5"",""72322""
""blur"",""5"",""2809527""
""blur"",""10"",""6101024""
","""event"",""trial"",""time""
""focus"",""1"",""52801""
""focus"",""5"",""2808432""
""focus"",""5"",""6044737""
""focus"",""10"",""6118957""
","""event"",""trial"",""time""
""fullscreenenter"",""1"",""53641""
","""event"",""trial"",""time""
""fullscreenexit"",""2"",""55450""
","","","541.3999999761581","","","22","3338","2425","&#9784;","elianto","#FFFFF080"," "," ","1","&#10004","[1393.5999999046326]","1","0","0","","","","","","","",""
"pit-instructions","16","6219696","0.0-2.0-5.0","battery-v0.2","","""event"",""trial"",""time""
""focus"",""1"",""52801""
""fullscreenenter"",""1"",""53641""
""fullscreenexit"",""2"",""55450""
""blur"",""5"",""72322""
""focus"",""5"",""2808432""
""blur"",""5"",""2809527""
""focus"",""5"",""6044737""
""blur"",""10"",""6101024""
""focus"",""10"",""6118957""
","""event"",""trial"",""time""
""blur"",""5"",""72322""
""blur"",""5"",""2809527""
""blur"",""10"",""6101024""
","""event"",""trial"",""time""
""focus"",""1"",""52801""
""focus"",""5"",""2808432""
""focus"",""5"",""6044737""
""focus"",""10"",""6118957""
","""event"",""trial"",""time""
""fullscreenenter"",""1"",""53641""
","""event"",""trial"",""time""
""fullscreenexit"",""2"",""55450""
","","[{""page_index"":0,""viewing_time"":5646.400000095367},{""page_index"":1,""viewing_time"":6822.099999904633},{""page_index"":2,""viewing_time"":5820.200000047684},{""page_index"":3,""viewing_time"":5050.700000047684}]","23340.200000047684","","","","","","","","","","","","","","","","","","","","","","","",""
"pit-trial","17","6224558","0.0-2.0-6.0-0.0","battery-v0.2","","""event"",""trial"",""time""
""focus"",""1"",""52801""
""fullscreenenter"",""1"",""53641""
""fullscreenexit"",""2"",""55450""
""blur"",""5"",""72322""
""focus"",""5"",""2808432""
""blur"",""5"",""2809527""
""focus"",""5"",""6044737""
""blur"",""10"",""6101024""
""focus"",""10"",""6118957""
","""event"",""trial"",""time""
""blur"",""5"",""72322""
""blur"",""5"",""2809527""
""blur"",""10"",""6101024""
","""event"",""trial"",""time""
""focus"",""1"",""52801""
""focus"",""5"",""2808432""
""focus"",""5"",""6044737""
""focus"",""10"",""6118957""
","""event"",""trial"",""time""
""fullscreenenter"",""1"",""53641""
","""event"",""trial"",""time""
""fullscreenexit"",""2"",""55450""
","","","-1","","","22","3338","2425","&#9854;","elianto","#FFFFF080","-1","-1","1","&#10004","[]","0","0","1","","","","","","","",""
"pit-trial","18","6229424","0.0-2.0-6.1-0.1","battery-v0.2","","""event"",""trial"",""time""
""focus"",""1"",""52801""
""fullscreenenter"",""1"",""53641""
""fullscreenexit"",""2"",""55450""
""blur"",""5"",""72322""
""focus"",""5"",""2808432""
""blur"",""5"",""2809527""
""focus"",""5"",""6044737""
""blur"",""10"",""6101024""
""focus"",""10"",""6118957""
","""event"",""trial"",""time""
""blur"",""5"",""72322""
""blur"",""5"",""2809527""
""blur"",""10"",""6101024""
","""event"",""trial"",""time""
""focus"",""1"",""52801""
""focus"",""5"",""2808432""
""focus"",""5"",""6044737""
""focus"",""10"",""6118957""
","""event"",""trial"",""time""
""fullscreenenter"",""1"",""53641""
","""event"",""trial"",""time""
""fullscreenexit"",""2"",""55450""
","","","-1","","","22","3338","2425","&#9854;","elianto","#FFFFF080","-1","-1","1","&#10004","[]","0","0","1","","","","","","","",""
"pit-trial","19","6234288","0.0-2.0-6.2-0.2","battery-v0.2","","""event"",""trial"",""time""
""focus"",""1"",""52801""
""fullscreenenter"",""1"",""53641""
""fullscreenexit"",""2"",""55450""
""blur"",""5"",""72322""
""focus"",""5"",""2808432""
""blur"",""5"",""2809527""
""focus"",""5"",""6044737""
""blur"",""10"",""6101024""
""focus"",""10"",""6118957""
""blur"",""20"",""6238066""
","""event"",""trial"",""time""
""blur"",""5"",""72322""
""blur"",""5"",""2809527""
""blur"",""10"",""6101024""
""blur"",""20"",""6238066""
","""event"",""trial"",""time""
""focus"",""1"",""52801""
""focus"",""5"",""2808432""
""focus"",""5"",""6044737""
""focus"",""10"",""6118957""
","""event"",""trial"",""time""
""fullscreenenter"",""1"",""53641""
","""event"",""trial"",""time""
""fullscreenexit"",""2"",""55450""
","","","-1","","","22","3338","2425","&#9854;","elianto","#FFFFF080","-1","-1","1","&#10004","[]","0","0","1","","","","","","","",""
"pit-trial","20","6239151","0.0-2.0-6.3-0.3","battery-v0.2","","""event"",""trial"",""time""
""focus"",""1"",""52801""
""fullscreenenter"",""1"",""53641""
""fullscreenexit"",""2"",""55450""
""blur"",""5"",""72322""
""focus"",""5"",""2808432""
""blur"",""5"",""2809527""
""focus"",""5"",""6044737""
""blur"",""10"",""6101024""
""focus"",""10"",""6118957""
""blur"",""20"",""6238066""
""focus"",""21"",""6242608""
","""event"",""trial"",""time""
""blur"",""5"",""72322""
""blur"",""5"",""2809527""
""blur"",""10"",""6101024""
""blur"",""20"",""6238066""
","""event"",""trial"",""time""
""focus"",""1"",""52801""
""focus"",""5"",""2808432""
""focus"",""5"",""6044737""
""focus"",""10"",""6118957""
""focus"",""21"",""6242608""
","""event"",""trial"",""time""
""fullscreenenter"",""1"",""53641""
","""event"",""trial"",""time""
""fullscreenexit"",""2"",""55450""
","","","-1","","","22","3338","2425","&#9854;","elianto","#FFFFF080","-1","-1","1","&#10004","[]","0","0","1","","","","","","","",""
"pit-trial","21","6244025","0.0-2.0-6.4-0.4","battery-v0.2","","""event"",""trial"",""time""
""focus"",""1"",""52801""
""fullscreenenter"",""1"",""53641""
""fullscreenexit"",""2"",""55450""
""blur"",""5"",""72322""
""focus"",""5"",""2808432""
""blur"",""5"",""2809527""
""focus"",""5"",""6044737""
""blur"",""10"",""6101024""
""focus"",""10"",""6118957""
""blur"",""20"",""6238066""
""focus"",""21"",""6242608""
","""event"",""trial"",""time""
""blur"",""5"",""72322""
""blur"",""5"",""2809527""
""blur"",""10"",""6101024""
""blur"",""20"",""6238066""
","""event"",""trial"",""time""
""focus"",""1"",""52801""
""focus"",""5"",""2808432""
""focus"",""5"",""6044737""
""focus"",""10"",""6118957""
""focus"",""21"",""6242608""
","""event"",""trial"",""time""
""fullscreenenter"",""1"",""53641""
","""event"",""trial"",""time""
""fullscreenexit"",""2"",""55450""
","","","-1","","","22","3338","2425","&#9854;","elianto","#FFFFF080","-1","-1","1","&#10004","[]","0","0","1","","","","","","","",""
"pit-instructions","22","6366557","0.0-2.0-7.0","battery-v0.2","","""event"",""trial"",""time""
""focus"",""1"",""52801""
""fullscreenenter"",""1"",""53641""
""fullscreenexit"",""2"",""55450""
""blur"",""5"",""72322""
""focus"",""5"",""2808432""
""blur"",""5"",""2809527""
""focus"",""5"",""6044737""
""blur"",""10"",""6101024""
""focus"",""10"",""6118957""
""blur"",""20"",""6238066""
""focus"",""21"",""6242608""
","""event"",""trial"",""time""
""blur"",""5"",""72322""
""blur"",""5"",""2809527""
""blur"",""10"",""6101024""
""blur"",""20"",""6238066""
","""event"",""trial"",""time""
""focus"",""1"",""52801""
""focus"",""5"",""2808432""
""focus"",""5"",""6044737""
""focus"",""10"",""6118957""
""focus"",""21"",""6242608""
","""event"",""trial"",""time""
""fullscreenenter"",""1"",""53641""
","""event"",""trial"",""time""
""fullscreenexit"",""2"",""55450""
","","[{""page_index"":0,""viewing_time"":5825.900000095367},{""page_index"":1,""viewing_time"":7245.599999904633},{""page_index"":2,""viewing_time"":5623.200000047684},{""page_index"":3,""viewing_time"":6111.399999976158},{""page_index"":4,""viewing_time"":10763.899999976158},{""page_index"":5,""viewing_time"":5446.800000071526},{""page_index"":6,""viewing_time"":4651.899999976158},{""page_index"":7,""viewing_time"":8284.100000023842},{""page_index"":8,""viewing_time"":6733.5},{""page_index"":9,""viewing_time"":8958.199999928474},{""page_index"":10,""viewing_time"":6363.5},{""page_index"":11,""viewing_time"":4553.200000047684},{""page_index"":12,""viewing_time"":6779.700000047684},{""page_index"":13,""viewing_time"":7510.699999928474},{""page_index"":14,""viewing_time"":7175.200000047684},{""page_index"":15,""viewing_time"":6843.899999976158},{""page_index"":16,""viewing_time"":6468.799999952316},{""page_index"":17,""viewing_time"":7189.200000047684}]","122529.70000004768","","","","","","","","","","","","","","","","","","","","","","","",""
"pit-trial","23","6370127","0.0-2.0-8.0-0.0","battery-v0.2","","""event"",""trial"",""time""
""focus"",""1"",""52801""
""fullscreenenter"",""1"",""53641""
""fullscreenexit"",""2"",""55450""
""blur"",""5"",""72322""
""focus"",""5"",""2808432""
""blur"",""5"",""2809527""
""focus"",""5"",""6044737""
""blur"",""10"",""6101024""
""focus"",""10"",""6118957""
""blur"",""20"",""6238066""
""focus"",""21"",""6242608""
","""event"",""trial"",""time""
""blur"",""5"",""72322""
""blur"",""5"",""2809527""
""blur"",""10"",""6101024""
""blur"",""20"",""6238066""
","""event"",""trial"",""time""
""focus"",""1"",""52801""
""focus"",""5"",""2808432""
""focus"",""5"",""6044737""
""focus"",""10"",""6118957""
""focus"",""21"",""6242608""
","""event"",""trial"",""time""
""fullscreenenter"",""1"",""53641""
","""event"",""trial"",""time""
""fullscreenexit"",""2"",""55450""
","","","715.3999999761581","","","22","3338","2425","&#9776;","elianto","#3366ff99"," "," ","1","+10","[1566.9000000953674]","1","0","1","","","","","","","",""
"pit-trial","24","6373527","0.0-2.0-8.0-1.0","battery-v0.2","","""event"",""trial"",""time""
""focus"",""1"",""52801""
""fullscreenenter"",""1"",""53641""
""fullscreenexit"",""2"",""55450""
""blur"",""5"",""72322""
""focus"",""5"",""2808432""
""blur"",""5"",""2809527""
""focus"",""5"",""6044737""
""blur"",""10"",""6101024""
""focus"",""10"",""6118957""
""blur"",""20"",""6238066""
""focus"",""21"",""6242608""
","""event"",""trial"",""time""
""blur"",""5"",""72322""
""blur"",""5"",""2809527""
""blur"",""10"",""6101024""
""blur"",""20"",""6238066""
","""event"",""trial"",""time""
""focus"",""1"",""52801""
""focus"",""5"",""2808432""
""focus"",""5"",""6044737""
""focus"",""10"",""6118957""
""focus"",""21"",""6242608""
","""event"",""trial"",""time""
""fullscreenenter"",""1"",""53641""
","""event"",""trial"",""time""
""fullscreenexit"",""2"",""55450""
","","","542.3999999761581","","","22","3338","2425","&#9776;","elianto","#3366ff99"," "," ","1","+10","[1392.3000000715256]","1","0","1","","","","","","","",""
"pit-trial","25","6376858","0.0-2.0-8.0-2.0","battery-v0.2","","""event"",""trial"",""time""
""focus"",""1"",""52801""
""fullscreenenter"",""1"",""53641""
""fullscreenexit"",""2"",""55450""
""blur"",""5"",""72322""
""focus"",""5"",""2808432""
""blur"",""5"",""2809527""
""focus"",""5"",""6044737""
""blur"",""10"",""6101024""
""focus"",""10"",""6118957""
""blur"",""20"",""6238066""
""focus"",""21"",""6242608""
","""event"",""trial"",""time""
""blur"",""5"",""72322""
""blur"",""5"",""2809527""
""blur"",""10"",""6101024""
""blur"",""20"",""6238066""
","""event"",""trial"",""time""
""focus"",""1"",""52801""
""focus"",""5"",""2808432""
""focus"",""5"",""6044737""
""focus"",""10"",""6118957""
""focus"",""21"",""6242608""
","""event"",""trial"",""time""
""fullscreenenter"",""1"",""53641""
","""event"",""trial"",""time""
""fullscreenexit"",""2"",""55450""
","","","465.60000002384186","","","22","3338","2425","&#9776;","elianto","#3366ff99"," "," ","1","+10","[1324.7000000476837]","1","0","1","","","","","","","",""
"pit-trial","26","6380225","0.0-2.0-8.0-3.0","battery-v0.2","","""event"",""trial"",""time""
""focus"",""1"",""52801""
""fullscreenenter"",""1"",""53641""
""fullscreenexit"",""2"",""55450""
""blur"",""5"",""72322""
""focus"",""5"",""2808432""
""blur"",""5"",""2809527""
""focus"",""5"",""6044737""
""blur"",""10"",""6101024""
""focus"",""10"",""6118957""
""blur"",""20"",""6238066""
""focus"",""21"",""6242608""
","""event"",""trial"",""time""
""blur"",""5"",""72322""
""blur"",""5"",""2809527""
""blur"",""10"",""6101024""
""blur"",""20"",""6238066""
","""event"",""trial"",""time""
""focus"",""1"",""52801""
""focus"",""5"",""2808432""
""focus"",""5"",""6044737""
""focus"",""10"",""6118957""
""focus"",""21"",""6242608""
","""event"",""trial"",""time""
""fullscreenenter"",""1"",""53641""
","""event"",""trial"",""time""
""fullscreenexit"",""2"",""55450""
","","","509.5","","","22","3338","2425","&#9776;","elianto","#3366ff99"," "," ","1","0","[1360.2999999523163]","1","0","1","","","","","","","",""
"pit-trial","27","6383673","0.0-2.0-8.0-4.0","battery-v0.2","","""event"",""trial"",""time""
""focus"",""1"",""52801""
""fullscreenenter"",""1"",""53641""
""fullscreenexit"",""2"",""55450""
""blur"",""5"",""72322""
""focus"",""5"",""2808432""
""blur"",""5"",""2809527""
""focus"",""5"",""6044737""
""blur"",""10"",""6101024""
""focus"",""10"",""6118957""
""blur"",""20"",""6238066""
""focus"",""21"",""6242608""
","""event"",""trial"",""time""
""blur"",""5"",""72322""
""blur"",""5"",""2809527""
""blur"",""10"",""6101024""
""blur"",""20"",""6238066""
","""event"",""trial"",""time""
""focus"",""1"",""52801""
""focus"",""5"",""2808432""
""focus"",""5"",""6044737""
""focus"",""10"",""6118957""
""focus"",""21"",""6242608""
","""event"",""trial"",""time""
""fullscreenenter"",""1"",""53641""
","""event"",""trial"",""time""
""fullscreenexit"",""2"",""55450""
","","","591.4000000953674","","","22","3338","2425","&#9776;","elianto","#3366ff99"," "," ","1","+10","[1441.3999999761581]","1","0","1","","","","","","","",""
"call-function","28","6383675","0.0-2.0-9.0","battery-v0.2","","""event"",""trial"",""time""
""focus"",""1"",""52801""
""fullscreenenter"",""1"",""53641""
""fullscreenexit"",""2"",""55450""
""blur"",""5"",""72322""
""focus"",""5"",""2808432""
""blur"",""5"",""2809527""
""focus"",""5"",""6044737""
""blur"",""10"",""6101024""
""focus"",""10"",""6118957""
""blur"",""20"",""6238066""
""focus"",""21"",""6242608""
","""event"",""trial"",""time""
""blur"",""5"",""72322""
""blur"",""5"",""2809527""
""blur"",""10"",""6101024""
""blur"",""20"",""6238066""
","""event"",""trial"",""time""
""focus"",""1"",""52801""
""focus"",""5"",""2808432""
""focus"",""5"",""6044737""
""focus"",""10"",""6118957""
""focus"",""21"",""6242608""
","""event"",""trial"",""time""
""fullscreenenter"",""1"",""53641""
","""event"",""trial"",""time""
""fullscreenexit"",""2"",""55450""
","","","","","","","","","","","","","","","","","","","","","","","","","","",""
"pit-instructions","29","6422712","0.0-2.0-10.0","battery-v0.2","","""event"",""trial"",""time""
""focus"",""1"",""52801""
""fullscreenenter"",""1"",""53641""
""fullscreenexit"",""2"",""55450""
""blur"",""5"",""72322""
""focus"",""5"",""2808432""
""blur"",""5"",""2809527""
""focus"",""5"",""6044737""
""blur"",""10"",""6101024""
""focus"",""10"",""6118957""
""blur"",""20"",""6238066""
""focus"",""21"",""6242608""
","""event"",""trial"",""time""
""blur"",""5"",""72322""
""blur"",""5"",""2809527""
""blur"",""10"",""6101024""
""blur"",""20"",""6238066""
","""event"",""trial"",""time""
""focus"",""1"",""52801""
""focus"",""5"",""2808432""
""focus"",""5"",""6044737""
""focus"",""10"",""6118957""
""focus"",""21"",""6242608""
","""event"",""trial"",""time""
""fullscreenenter"",""1"",""53641""
","""event"",""trial"",""time""
""fullscreenexit"",""2"",""55450""
","","[{""page_index"":0,""viewing_time"":6101.100000023842},{""page_index"":1,""viewing_time"":6929.600000023842},{""page_index"":2,""viewing_time"":9245.399999976158},{""page_index"":3,""viewing_time"":9302.399999976158},{""page_index"":4,""viewing_time"":7458.399999976158}]","39037.39999997616","","","","","","","","","","","","","","","","","","","","","","","",""
"pit-trial","30","6426536","0.0-2.0-11.0-0.0","battery-v0.2","","""event"",""trial"",""time""
""focus"",""1"",""52801""
""fullscreenenter"",""1"",""53641""
""fullscreenexit"",""2"",""55450""
""blur"",""5"",""72322""
""focus"",""5"",""2808432""
""blur"",""5"",""2809527""
""focus"",""5"",""6044737""
""blur"",""10"",""6101024""
""focus"",""10"",""6118957""
""blur"",""20"",""6238066""
""focus"",""21"",""6242608""
","""event"",""trial"",""time""
""blur"",""5"",""72322""
""blur"",""5"",""2809527""
""blur"",""10"",""6101024""
""blur"",""20"",""6238066""
","""event"",""trial"",""time""
""focus"",""1"",""52801""
""focus"",""5"",""2808432""
""focus"",""5"",""6044737""
""focus"",""10"",""6118957""
""focus"",""21"",""6242608""
","""event"",""trial"",""time""
""fullscreenenter"",""1"",""53641""
","""event"",""trial"",""time""
""fullscreenexit"",""2"",""55450""
","","","958.8999999761581","","","22","3338","2425","&#9761;","elianto","#3366ff99","-1"," ","0","0","[1814.8999999761581]","1","0","2","","","","","","","",""
"pit-trial","31","6430088","0.0-2.0-11.0-1.0","battery-v0.2","","""event"",""trial"",""time""
""focus"",""1"",""52801""
""fullscreenenter"",""1"",""53641""
""fullscreenexit"",""2"",""55450""
""blur"",""5"",""72322""
""focus"",""5"",""2808432""
""blur"",""5"",""2809527""
""focus"",""5"",""6044737""
""blur"",""10"",""6101024""
""focus"",""10"",""6118957""
""blur"",""20"",""6238066""
""focus"",""21"",""6242608""
","""event"",""trial"",""time""
""blur"",""5"",""72322""
""blur"",""5"",""2809527""
""blur"",""10"",""6101024""
""blur"",""20"",""6238066""
","""event"",""trial"",""time""
""focus"",""1"",""52801""
""focus"",""5"",""2808432""
""focus"",""5"",""6044737""
""focus"",""10"",""6118957""
""focus"",""21"",""6242608""
","""event"",""trial"",""time""
""fullscreenenter"",""1"",""53641""
","""event"",""trial"",""time""
""fullscreenexit"",""2"",""55450""
","","","687.5","","","22","3338","2425","&#9761;","elianto","#3366ff99","-1"," ","0","0","[1543.7999999523163]","1","0","2","","","","","","","",""
"pit-trial","32","6434951","0.0-2.0-11.0-2.0","battery-v0.2","","""event"",""trial"",""time""
""focus"",""1"",""52801""
""fullscreenenter"",""1"",""53641""
""fullscreenexit"",""2"",""55450""
""blur"",""5"",""72322""
""focus"",""5"",""2808432""
""blur"",""5"",""2809527""
""focus"",""5"",""6044737""
""blur"",""10"",""6101024""
""focus"",""10"",""6118957""
""blur"",""20"",""6238066""
""focus"",""21"",""6242608""
","""event"",""trial"",""time""
""blur"",""5"",""72322""
""blur"",""5"",""2809527""
""blur"",""10"",""6101024""
""blur"",""20"",""6238066""
","""event"",""trial"",""time""
""focus"",""1"",""52801""
""focus"",""5"",""2808432""
""focus"",""5"",""6044737""
""focus"",""10"",""6118957""
""focus"",""21"",""6242608""
","""event"",""trial"",""time""
""fullscreenenter"",""1"",""53641""
","""event"",""trial"",""time""
""fullscreenexit"",""2"",""55450""
","","","-1","","","22","3338","2425","&#9761;","elianto","#3366ff99","-1","-1","1","+10","[]","0","0","2","","","","","","","",""
"pit-trial","33","6439812","0.0-2.0-11.0-3.0","battery-v0.2","","""event"",""trial"",""time""
""focus"",""1"",""52801""
""fullscreenenter"",""1"",""53641""
""fullscreenexit"",""2"",""55450""
""blur"",""5"",""72322""
""focus"",""5"",""2808432""
""blur"",""5"",""2809527""
""focus"",""5"",""6044737""
""blur"",""10"",""6101024""
""focus"",""10"",""6118957""
""blur"",""20"",""6238066""
""focus"",""21"",""6242608""
","""event"",""trial"",""time""
""blur"",""5"",""72322""
""blur"",""5"",""2809527""
""blur"",""10"",""6101024""
""blur"",""20"",""6238066""
","""event"",""trial"",""time""
""focus"",""1"",""52801""
""focus"",""5"",""2808432""
""focus"",""5"",""6044737""
""focus"",""10"",""6118957""
""focus"",""21"",""6242608""
","""event"",""trial"",""time""
""fullscreenenter"",""1"",""53641""
","""event"",""trial"",""time""
""fullscreenexit"",""2"",""55450""
","","","-1","","","22","3338","2425","&#9761;","elianto","#3366ff99","-1","-1","1","0","[3892.4000000953674]","1","0","2","","","","","","","",""
"pit-trial","34","6443440","0.0-2.0-11.0-4.0","battery-v0.2","","""event"",""trial"",""time""
""focus"",""1"",""52801""
""fullscreenenter"",""1"",""53641""
""fullscreenexit"",""2"",""55450""
""blur"",""5"",""72322""
""focus"",""5"",""2808432""
""blur"",""5"",""2809527""
""focus"",""5"",""6044737""
""blur"",""10"",""6101024""
""focus"",""10"",""6118957""
""blur"",""20"",""6238066""
""focus"",""21"",""6242608""
","""event"",""trial"",""time""
""blur"",""5"",""72322""
""blur"",""5"",""2809527""
""blur"",""10"",""6101024""
""blur"",""20"",""6238066""
","""event"",""trial"",""time""
""focus"",""1"",""52801""
""focus"",""5"",""2808432""
""focus"",""5"",""6044737""
""focus"",""10"",""6118957""
""focus"",""21"",""6242608""
","""event"",""trial"",""time""
""fullscreenenter"",""1"",""53641""
","""event"",""trial"",""time""
""fullscreenexit"",""2"",""55450""
","","","771.7000000476837","","","22","3338","2425","&#9761;","elianto","#3366ff99","-1"," ","0","0","[1621.8000000715256]","1","0","2","","","","","","","",""
"pit-trial","35","6448295","0.0-2.0-11.1-0.1","battery-v0.2","","""event"",""trial"",""time""
""focus"",""1"",""52801""
""fullscreenenter"",""1"",""53641""
""fullscreenexit"",""2"",""55450""
""blur"",""5"",""72322""
""focus"",""5"",""2808432""
""blur"",""5"",""2809527""
""focus"",""5"",""6044737""
""blur"",""10"",""6101024""
""focus"",""10"",""6118957""
""blur"",""20"",""6238066""
""focus"",""21"",""6242608""
","""event"",""trial"",""time""
""blur"",""5"",""72322""
""blur"",""5"",""2809527""
""blur"",""10"",""6101024""
""blur"",""20"",""6238066""
","""event"",""trial"",""time""
""focus"",""1"",""52801""
""focus"",""5"",""2808432""
""focus"",""5"",""6044737""
""focus"",""10"",""6118957""
""focus"",""21"",""6242608""
","""event"",""trial"",""time""
""fullscreenenter"",""1"",""53641""
","""event"",""trial"",""time""
""fullscreenexit"",""2"",""55450""
","","","-1","","","22","3338","2425","&#9761;","elianto","#3366ff99","-1","-1","1","+10","[]","0","0","2","","","","","","","",""
"pit-trial","36","6453160","0.0-2.0-11.1-1.1","battery-v0.2","","""event"",""trial"",""time""
""focus"",""1"",""52801""
""fullscreenenter"",""1"",""53641""
""fullscreenexit"",""2"",""55450""
""blur"",""5"",""72322""
""focus"",""5"",""2808432""
""blur"",""5"",""2809527""
""focus"",""5"",""6044737""
""blur"",""10"",""6101024""
""focus"",""10"",""6118957""
""blur"",""20"",""6238066""
""focus"",""21"",""6242608""
","""event"",""trial"",""time""
""blur"",""5"",""72322""
""blur"",""5"",""2809527""
""blur"",""10"",""6101024""
""blur"",""20"",""6238066""
","""event"",""trial"",""time""
""focus"",""1"",""52801""
""focus"",""5"",""2808432""
""focus"",""5"",""6044737""
""focus"",""10"",""6118957""
""focus"",""21"",""6242608""
","""event"",""trial"",""time""
""fullscreenenter"",""1"",""53641""
","""event"",""trial"",""time""
""fullscreenexit"",""2"",""55450""
","","","-1","","","22","3338","2425","&#9761;","elianto","#3366ff99","-1","-1","1","+10","[]","0","0","2","","","","","","","",""
"pit-trial","37","6458024","0.0-2.0-11.1-2.1","battery-v0.2","","""event"",""trial"",""time""
""focus"",""1"",""52801""
""fullscreenenter"",""1"",""53641""
""fullscreenexit"",""2"",""55450""
""blur"",""5"",""72322""
""focus"",""5"",""2808432""
""blur"",""5"",""2809527""
""focus"",""5"",""6044737""
""blur"",""10"",""6101024""
""focus"",""10"",""6118957""
""blur"",""20"",""6238066""
""focus"",""21"",""6242608""
","""event"",""trial"",""time""
""blur"",""5"",""72322""
""blur"",""5"",""2809527""
""blur"",""10"",""6101024""
""blur"",""20"",""6238066""
","""event"",""trial"",""time""
""focus"",""1"",""52801""
""focus"",""5"",""2808432""
""focus"",""5"",""6044737""
""focus"",""10"",""6118957""
""focus"",""21"",""6242608""
","""event"",""trial"",""time""
""fullscreenenter"",""1"",""53641""
","""event"",""trial"",""time""
""fullscreenexit"",""2"",""55450""
","","","-1","","","22","3338","2425","&#9761;","elianto","#3366ff99","-1","-1","1","+10","[]","0","0","2","","","","","","","",""
"pit-trial","38","6462878","0.0-2.0-11.1-3.1","battery-v0.2","","""event"",""trial"",""time""
""focus"",""1"",""52801""
""fullscreenenter"",""1"",""53641""
""fullscreenexit"",""2"",""55450""
""blur"",""5"",""72322""
""focus"",""5"",""2808432""
""blur"",""5"",""2809527""
""focus"",""5"",""6044737""
""blur"",""10"",""6101024""
""focus"",""10"",""6118957""
""blur"",""20"",""6238066""
""focus"",""21"",""6242608""
","""event"",""trial"",""time""
""blur"",""5"",""72322""
""blur"",""5"",""2809527""
""blur"",""10"",""6101024""
""blur"",""20"",""6238066""
","""event"",""trial"",""time""
""focus"",""1"",""52801""
""focus"",""5"",""2808432""
""focus"",""5"",""6044737""
""focus"",""10"",""6118957""
""focus"",""21"",""6242608""
","""event"",""trial"",""time""
""fullscreenenter"",""1"",""53641""
","""event"",""trial"",""time""
""fullscreenexit"",""2"",""55450""
","","","-1","","","22","3338","2425","&#9761;","elianto","#3366ff99","-1","-1","1","0","[]","0","0","2","","","","","","","",""
"pit-trial","39","6467743","0.0-2.0-11.1-4.1","battery-v0.2","","""event"",""trial"",""time""
""focus"",""1"",""52801""
""fullscreenenter"",""1"",""53641""
""fullscreenexit"",""2"",""55450""
""blur"",""5"",""72322""
""focus"",""5"",""2808432""
""blur"",""5"",""2809527""
""focus"",""5"",""6044737""
""blur"",""10"",""6101024""
""focus"",""10"",""6118957""
""blur"",""20"",""6238066""
""focus"",""21"",""6242608""
","""event"",""trial"",""time""
""blur"",""5"",""72322""
""blur"",""5"",""2809527""
""blur"",""10"",""6101024""
""blur"",""20"",""6238066""
","""event"",""trial"",""time""
""focus"",""1"",""52801""
""focus"",""5"",""2808432""
""focus"",""5"",""6044737""
""focus"",""10"",""6118957""
""focus"",""21"",""6242608""
","""event"",""trial"",""time""
""fullscreenenter"",""1"",""53641""
","""event"",""trial"",""time""
""fullscreenexit"",""2"",""55450""
","","","-1","","","22","3338","2425","&#9761;","elianto","#3366ff99","-1","-1","1","+10","[]","0","0","2","","","","","","","",""
"call-function","40","6467745","0.0-2.0-12.0","battery-v0.2","","""event"",""trial"",""time""
""focus"",""1"",""52801""
""fullscreenenter"",""1"",""53641""
""fullscreenexit"",""2"",""55450""
""blur"",""5"",""72322""
""focus"",""5"",""2808432""
""blur"",""5"",""2809527""
""focus"",""5"",""6044737""
""blur"",""10"",""6101024""
""focus"",""10"",""6118957""
""blur"",""20"",""6238066""
""focus"",""21"",""6242608""
","""event"",""trial"",""time""
""blur"",""5"",""72322""
""blur"",""5"",""2809527""
""blur"",""10"",""6101024""
""blur"",""20"",""6238066""
","""event"",""trial"",""time""
""focus"",""1"",""52801""
""focus"",""5"",""2808432""
""focus"",""5"",""6044737""
""focus"",""10"",""6118957""
""focus"",""21"",""6242608""
","""event"",""trial"",""time""
""fullscreenenter"",""1"",""53641""
","""event"",""trial"",""time""
""fullscreenexit"",""2"",""55450""
","","","","","","","","","","","","","","","","","","","","","","","","","","",""
"pit-instructions","41","6534008","0.0-2.0-13.0","battery-v0.2","","""event"",""trial"",""time""
""focus"",""1"",""52801""
""fullscreenenter"",""1"",""53641""
""fullscreenexit"",""2"",""55450""
""blur"",""5"",""72322""
""focus"",""5"",""2808432""
""blur"",""5"",""2809527""
""focus"",""5"",""6044737""
""blur"",""10"",""6101024""
""focus"",""10"",""6118957""
""blur"",""20"",""6238066""
""focus"",""21"",""6242608""
","""event"",""trial"",""time""
""blur"",""5"",""72322""
""blur"",""5"",""2809527""
""blur"",""10"",""6101024""
""blur"",""20"",""6238066""
","""event"",""trial"",""time""
""focus"",""1"",""52801""
""focus"",""5"",""2808432""
""focus"",""5"",""6044737""
""focus"",""10"",""6118957""
""focus"",""21"",""6242608""
","""event"",""trial"",""time""
""fullscreenenter"",""1"",""53641""
","""event"",""trial"",""time""
""fullscreenexit"",""2"",""55450""
","","[{""page_index"":0,""viewing_time"":25338.5},{""page_index"":1,""viewing_time"":11747.300000071526},{""page_index"":2,""viewing_time"":13474.099999904633},{""page_index"":3,""viewing_time"":10699.700000047684},{""page_index"":4,""viewing_time"":5002.5}]","66262.39999997616","","","","","","","","","","","","","","","","","","","","","","","",""
"pit-trial","42","6538872","0.0-2.0-14.0-0.0","battery-v0.2","","""event"",""trial"",""time""
""focus"",""1"",""52801""
""fullscreenenter"",""1"",""53641""
""fullscreenexit"",""2"",""55450""
""blur"",""5"",""72322""
""focus"",""5"",""2808432""
""blur"",""5"",""2809527""
""focus"",""5"",""6044737""
""blur"",""10"",""6101024""
""focus"",""10"",""6118957""
""blur"",""20"",""6238066""
""focus"",""21"",""6242608""
","""event"",""trial"",""time""
""blur"",""5"",""72322""
""blur"",""5"",""2809527""
""blur"",""10"",""6101024""
""blur"",""20"",""6238066""
","""event"",""trial"",""time""
""focus"",""1"",""52801""
""focus"",""5"",""2808432""
""focus"",""5"",""6044737""
""focus"",""10"",""6118957""
""focus"",""21"",""6242608""
","""event"",""trial"",""time""
""fullscreenenter"",""1"",""53641""
","""event"",""trial"",""time""
""fullscreenexit"",""2"",""55450""
","","","-1","","","22","3338","2425","&#9826;","elianto","#f73b6a7A","-1","-1","1","0","[]","0","0","3","","","","","","","",""
"pit-trial","43","6543231","0.0-2.0-14.0-1.0","battery-v0.2","","""event"",""trial"",""time""
""focus"",""1"",""52801""
""fullscreenenter"",""1"",""53641""
""fullscreenexit"",""2"",""55450""
""blur"",""5"",""72322""
""focus"",""5"",""2808432""
""blur"",""5"",""2809527""
""focus"",""5"",""6044737""
""blur"",""10"",""6101024""
""focus"",""10"",""6118957""
""blur"",""20"",""6238066""
""focus"",""21"",""6242608""
","""event"",""trial"",""time""
""blur"",""5"",""72322""
""blur"",""5"",""2809527""
""blur"",""10"",""6101024""
""blur"",""20"",""6238066""
","""event"",""trial"",""time""
""focus"",""1"",""52801""
""focus"",""5"",""2808432""
""focus"",""5"",""6044737""
""focus"",""10"",""6118957""
""focus"",""21"",""6242608""
","""event"",""trial"",""time""
""fullscreenenter"",""1"",""53641""
","""event"",""trial"",""time""
""fullscreenexit"",""2"",""55450""
","","","1497.5999999046326","","","22","3338","2425","&#9826;","elianto","#f73b6a7A","-1"," ","0","-10","[2354.399999976158]","1","0","3","","","","","","","",""
"pit-trial","44","6548097","0.0-2.0-14.0-2.0","battery-v0.2","","""event"",""trial"",""time""
""focus"",""1"",""52801""
""fullscreenenter"",""1"",""53641""
""fullscreenexit"",""2"",""55450""
""blur"",""5"",""72322""
""focus"",""5"",""2808432""
""blur"",""5"",""2809527""
""focus"",""5"",""6044737""
""blur"",""10"",""6101024""
""focus"",""10"",""6118957""
""blur"",""20"",""6238066""
""focus"",""21"",""6242608""
","""event"",""trial"",""time""
""blur"",""5"",""72322""
""blur"",""5"",""2809527""
""blur"",""10"",""6101024""
""blur"",""20"",""6238066""
","""event"",""trial"",""time""
""focus"",""1"",""52801""
""focus"",""5"",""2808432""
""focus"",""5"",""6044737""
""focus"",""10"",""6118957""
""focus"",""21"",""6242608""
","""event"",""trial"",""time""
""fullscreenenter"",""1"",""53641""
","""event"",""trial"",""time""
""fullscreenexit"",""2"",""55450""
","","","-1","","","22","3338","2425","&#9826;","elianto","#f73b6a7A","-1","-1","1","0","[]","0","0","3","","","","","","","",""
"pit-trial","45","6552960","0.0-2.0-14.0-3.0","battery-v0.2","","""event"",""trial"",""time""
""focus"",""1"",""52801""
""fullscreenenter"",""1"",""53641""
""fullscreenexit"",""2"",""55450""
""blur"",""5"",""72322""
""focus"",""5"",""2808432""
""blur"",""5"",""2809527""
""focus"",""5"",""6044737""
""blur"",""10"",""6101024""
""focus"",""10"",""6118957""
""blur"",""20"",""6238066""
""focus"",""21"",""6242608""
","""event"",""trial"",""time""
""blur"",""5"",""72322""
""blur"",""5"",""2809527""
""blur"",""10"",""6101024""
""blur"",""20"",""6238066""
","""event"",""trial"",""time""
""focus"",""1"",""52801""
""focus"",""5"",""2808432""
""focus"",""5"",""6044737""
""focus"",""10"",""6118957""
""focus"",""21"",""6242608""
","""event"",""trial"",""time""
""fullscreenenter"",""1"",""53641""
","""event"",""trial"",""time""
""fullscreenexit"",""2"",""55450""
","","","-1","","","22","3338","2425","&#9826;","elianto","#f73b6a7A","-1","-1","1","-10","[]","0","0","3","","","","","","","",""
"pit-trial","46","6557814","0.0-2.0-14.0-4.0","battery-v0.2","","""event"",""trial"",""time""
""focus"",""1"",""52801""
""fullscreenenter"",""1"",""53641""
""fullscreenexit"",""2"",""55450""
""blur"",""5"",""72322""
""focus"",""5"",""2808432""
""blur"",""5"",""2809527""
""focus"",""5"",""6044737""
""blur"",""10"",""6101024""
""focus"",""10"",""6118957""
""blur"",""20"",""6238066""
""focus"",""21"",""6242608""
","""event"",""trial"",""time""
""blur"",""5"",""72322""
""blur"",""5"",""2809527""
""blur"",""10"",""6101024""
""blur"",""20"",""6238066""
","""event"",""trial"",""time""
""focus"",""1"",""52801""
""focus"",""5"",""2808432""
""focus"",""5"",""6044737""
""focus"",""10"",""6118957""
""focus"",""21"",""6242608""
","""event"",""trial"",""time""
""fullscreenenter"",""1"",""53641""
","""event"",""trial"",""time""
""fullscreenexit"",""2"",""55450""
","","","-1","","","22","3338","2425","&#9826;","elianto","#f73b6a7A","-1","-1","1","0","[2898]","1","0","3","","","","","","","",""
"pit-trial","47","6561145","0.0-2.0-14.1-0.1","battery-v0.2","","""event"",""trial"",""time""
""focus"",""1"",""52801""
""fullscreenenter"",""1"",""53641""
""fullscreenexit"",""2"",""55450""
""blur"",""5"",""72322""
""focus"",""5"",""2808432""
""blur"",""5"",""2809527""
""focus"",""5"",""6044737""
""blur"",""10"",""6101024""
""focus"",""10"",""6118957""
""blur"",""20"",""6238066""
""focus"",""21"",""6242608""
","""event"",""trial"",""time""
""blur"",""5"",""72322""
""blur"",""5"",""2809527""
""blur"",""10"",""6101024""
""blur"",""20"",""6238066""
","""event"",""trial"",""time""
""focus"",""1"",""52801""
""focus"",""5"",""2808432""
""focus"",""5"",""6044737""
""focus"",""10"",""6118957""
""focus"",""21"",""6242608""
","""event"",""trial"",""time""
""fullscreenenter"",""1"",""53641""
","""event"",""trial"",""time""
""fullscreenexit"",""2"",""55450""
","","","464.1999999284744","","","22","3338","2425","&#9826;","elianto","#f73b6a7A","-1"," ","0","-10","[1320.1999999284744]","1","0","3","","","","","","","",""
"pit-trial","48","6566001","0.0-2.0-14.1-1.1","battery-v0.2","","""event"",""trial"",""time""
""focus"",""1"",""52801""
""fullscreenenter"",""1"",""53641""
""fullscreenexit"",""2"",""55450""
""blur"",""5"",""72322""
""focus"",""5"",""2808432""
""blur"",""5"",""2809527""
""focus"",""5"",""6044737""
""blur"",""10"",""6101024""
""focus"",""10"",""6118957""
""blur"",""20"",""6238066""
""focus"",""21"",""6242608""
""blur"",""49"",""6567468""
","""event"",""trial"",""time""
""blur"",""5"",""72322""
""blur"",""5"",""2809527""
""blur"",""10"",""6101024""
""blur"",""20"",""6238066""
""blur"",""49"",""6567468""
","""event"",""trial"",""time""
""focus"",""1"",""52801""
""focus"",""5"",""2808432""
""focus"",""5"",""6044737""
""focus"",""10"",""6118957""
""focus"",""21"",""6242608""
","""event"",""trial"",""time""
""fullscreenenter"",""1"",""53641""
","""event"",""trial"",""time""
""fullscreenexit"",""2"",""55450""
","","","-1","","","22","3338","2425","&#9826;","elianto","#f73b6a7A","-1","-1","1","0","[]","0","0","3","","","","","","","",""
"pit-trial","49","6571316","0.0-2.0-14.1-2.1","battery-v0.2","","""event"",""trial"",""time""
""focus"",""1"",""52801""
""fullscreenenter"",""1"",""53641""
""fullscreenexit"",""2"",""55450""
""blur"",""5"",""72322""
""focus"",""5"",""2808432""
""blur"",""5"",""2809527""
""focus"",""5"",""6044737""
""blur"",""10"",""6101024""
""focus"",""10"",""6118957""
""blur"",""20"",""6238066""
""focus"",""21"",""6242608""
""blur"",""49"",""6567468""
","""event"",""trial"",""time""
""blur"",""5"",""72322""
""blur"",""5"",""2809527""
""blur"",""10"",""6101024""
""blur"",""20"",""6238066""
""blur"",""49"",""6567468""
","""event"",""trial"",""time""
""focus"",""1"",""52801""
""focus"",""5"",""2808432""
""focus"",""5"",""6044737""
""focus"",""10"",""6118957""
""focus"",""21"",""6242608""
","""event"",""trial"",""time""
""fullscreenenter"",""1"",""53641""
","""event"",""trial"",""time""
""fullscreenexit"",""2"",""55450""
","","","-1","","","22","3338","2425","&#9826;","elianto","#f73b6a7A","-1","-1","1","0","[]","0","0","3","","","","","","","",""
"pit-trial","50","6576314","0.0-2.0-14.1-3.1","battery-v0.2","","""event"",""trial"",""time""
""focus"",""1"",""52801""
""fullscreenenter"",""1"",""53641""
""fullscreenexit"",""2"",""55450""
""blur"",""5"",""72322""
""focus"",""5"",""2808432""
""blur"",""5"",""2809527""
""focus"",""5"",""6044737""
""blur"",""10"",""6101024""
""focus"",""10"",""6118957""
""blur"",""20"",""6238066""
""focus"",""21"",""6242608""
""blur"",""49"",""6567468""
""focus"",""51"",""6581221""
","""event"",""trial"",""time""
""blur"",""5"",""72322""
""blur"",""5"",""2809527""
""blur"",""10"",""6101024""
""blur"",""20"",""6238066""
""blur"",""49"",""6567468""
","""event"",""trial"",""time""
""focus"",""1"",""52801""
""focus"",""5"",""2808432""
""focus"",""5"",""6044737""
""focus"",""10"",""6118957""
""focus"",""21"",""6242608""
""focus"",""51"",""6581221""
","""event"",""trial"",""time""
""fullscreenenter"",""1"",""53641""
","""event"",""trial"",""time""
""fullscreenexit"",""2"",""55450""
","","","-1","","","22","3338","2425","&#9826;","elianto","#f73b6a7A","-1","-1","1","-10","[]","0","0","3","","","","","","","",""
"pit-trial","51","6581314","0.0-2.0-14.1-4.1","battery-v0.2","","""event"",""trial"",""time""
""focus"",""1"",""52801""
""fullscreenenter"",""1"",""53641""
""fullscreenexit"",""2"",""55450""
""blur"",""5"",""72322""
""focus"",""5"",""2808432""
""blur"",""5"",""2809527""
""focus"",""5"",""6044737""
""blur"",""10"",""6101024""
""focus"",""10"",""6118957""
""blur"",""20"",""6238066""
""focus"",""21"",""6242608""
""blur"",""49"",""6567468""
""focus"",""51"",""6581221""
","""event"",""trial"",""time""
""blur"",""5"",""72322""
""blur"",""5"",""2809527""
""blur"",""10"",""6101024""
""blur"",""20"",""6238066""
""blur"",""49"",""6567468""
","""event"",""trial"",""time""
""focus"",""1"",""52801""
""focus"",""5"",""2808432""
""focus"",""5"",""6044737""
""focus"",""10"",""6118957""
""focus"",""21"",""6242608""
""focus"",""51"",""6581221""
","""event"",""trial"",""time""
""fullscreenenter"",""1"",""53641""
","""event"",""trial"",""time""
""fullscreenexit"",""2"",""55450""
","","","-1","","","22","3338","2425","&#9826;","elianto","#f73b6a7A","-1","-1","1","0","[]","0","0","3","","","","","","","",""
"call-function","52","6581317","0.0-2.0-15.0","battery-v0.2","","""event"",""trial"",""time""
""focus"",""1"",""52801""
""fullscreenenter"",""1"",""53641""
""fullscreenexit"",""2"",""55450""
""blur"",""5"",""72322""
""focus"",""5"",""2808432""
""blur"",""5"",""2809527""
""focus"",""5"",""6044737""
""blur"",""10"",""6101024""
""focus"",""10"",""6118957""
""blur"",""20"",""6238066""
""focus"",""21"",""6242608""
""blur"",""49"",""6567468""
""focus"",""51"",""6581221""
""blur"",""53"",""6584464""
""focus"",""53"",""6592119""
""blur"",""53"",""6594891""
""focus"",""53"",""6608999""
","""event"",""trial"",""time""
""blur"",""5"",""72322""
""blur"",""5"",""2809527""
""blur"",""10"",""6101024""
""blur"",""20"",""6238066""
""blur"",""49"",""6567468""
""blur"",""53"",""6584464""
""blur"",""53"",""6594891""
","""event"",""trial"",""time""
""focus"",""1"",""52801""
""focus"",""5"",""2808432""
""focus"",""5"",""6044737""
""focus"",""10"",""6118957""
""focus"",""21"",""6242608""
""focus"",""51"",""6581221""
""focus"",""53"",""6592119""
""focus"",""53"",""6608999""
","""event"",""trial"",""time""
""fullscreenenter"",""1"",""53641""
","""event"",""trial"",""time""
""fullscreenexit"",""2"",""55450""
","","","","","","","","","","","","","","","","","","","","","","","","","","",""
"pit-instructions","53","6620095","0.0-2.0-16.0","battery-v0.2","","""event"",""trial"",""time""
""focus"",""1"",""52801""
""fullscreenenter"",""1"",""53641""
""fullscreenexit"",""2"",""55450""
""blur"",""5"",""72322""
""focus"",""5"",""2808432""
""blur"",""5"",""2809527""
""focus"",""5"",""6044737""
""blur"",""10"",""6101024""
""focus"",""10"",""6118957""
""blur"",""20"",""6238066""
""focus"",""21"",""6242608""
""blur"",""49"",""6567468""
""focus"",""51"",""6581221""
""blur"",""53"",""6584464""
""focus"",""53"",""6592119""
""blur"",""53"",""6594891""
""focus"",""53"",""6608999""
""blur"",""54"",""6623492""
","""event"",""trial"",""time""
""blur"",""5"",""72322""
""blur"",""5"",""2809527""
""blur"",""10"",""6101024""
""blur"",""20"",""6238066""
""blur"",""49"",""6567468""
""blur"",""53"",""6584464""
""blur"",""53"",""6594891""
""blur"",""54"",""6623492""
","""event"",""trial"",""time""
""focus"",""1"",""52801""
""focus"",""5"",""2808432""
""focus"",""5"",""6044737""
""focus"",""10"",""6118957""
""focus"",""21"",""6242608""
""focus"",""51"",""6581221""
""focus"",""53"",""6592119""
""focus"",""53"",""6608999""
","""event"",""trial"",""time""
""fullscreenenter"",""1"",""53641""
","""event"",""trial"",""time""
""fullscreenexit"",""2"",""55450""
","","[{""page_index"":0,""viewing_time"":11953.800000071526},{""page_index"":1,""viewing_time"":17301.199999928474},{""page_index"":2,""viewing_time"":4449},{""page_index"":3,""viewing_time"":5073}]","38777.5","","","","","","","","","","","","","","","","","","","","","","","",""
"pit-trial","54","6624966","0.0-2.0-17.0-0.0","battery-v0.2","","""event"",""trial"",""time""
""focus"",""1"",""52801""
""fullscreenenter"",""1"",""53641""
""fullscreenexit"",""2"",""55450""
""blur"",""5"",""72322""
""focus"",""5"",""2808432""
""blur"",""5"",""2809527""
""focus"",""5"",""6044737""
""blur"",""10"",""6101024""
""focus"",""10"",""6118957""
""blur"",""20"",""6238066""
""focus"",""21"",""6242608""
""blur"",""49"",""6567468""
""focus"",""51"",""6581221""
""blur"",""53"",""6584464""
""focus"",""53"",""6592119""
""blur"",""53"",""6594891""
""focus"",""53"",""6608999""
""blur"",""54"",""6623492""
","""event"",""trial"",""time""
""blur"",""5"",""72322""
""blur"",""5"",""2809527""
""blur"",""10"",""6101024""
""blur"",""20"",""6238066""
""blur"",""49"",""6567468""
""blur"",""53"",""6584464""
""blur"",""53"",""6594891""
""blur"",""54"",""6623492""
","""event"",""trial"",""time""
""focus"",""1"",""52801""
""focus"",""5"",""2808432""
""focus"",""5"",""6044737""
""focus"",""10"",""6118957""
""focus"",""21"",""6242608""
""focus"",""51"",""6581221""
""focus"",""53"",""6592119""
""focus"",""53"",""6608999""
","""event"",""trial"",""time""
""fullscreenenter"",""1"",""53641""
","""event"",""trial"",""time""
""fullscreenexit"",""2"",""55450""
","","","-1","","","22","3338","2425","&#9789;","elianto","#f73b6a7A"," ","-1","0","-10","[]","0","0","4","","","","","","","",""
"pit-trial","55","6629853","0.0-2.0-17.0-1.0","battery-v0.2","","""event"",""trial"",""time""
""focus"",""1"",""52801""
""fullscreenenter"",""1"",""53641""
""fullscreenexit"",""2"",""55450""
""blur"",""5"",""72322""
""focus"",""5"",""2808432""
""blur"",""5"",""2809527""
""focus"",""5"",""6044737""
""blur"",""10"",""6101024""
""focus"",""10"",""6118957""
""blur"",""20"",""6238066""
""focus"",""21"",""6242608""
""blur"",""49"",""6567468""
""focus"",""51"",""6581221""
""blur"",""53"",""6584464""
""focus"",""53"",""6592119""
""blur"",""53"",""6594891""
""focus"",""53"",""6608999""
""blur"",""54"",""6623492""
","""event"",""trial"",""time""
""blur"",""5"",""72322""
""blur"",""5"",""2809527""
""blur"",""10"",""6101024""
""blur"",""20"",""6238066""
""blur"",""49"",""6567468""
""blur"",""53"",""6584464""
""blur"",""53"",""6594891""
""blur"",""54"",""6623492""
","""event"",""trial"",""time""
""focus"",""1"",""52801""
""focus"",""5"",""2808432""
""focus"",""5"",""6044737""
""focus"",""10"",""6118957""
""focus"",""21"",""6242608""
""focus"",""51"",""6581221""
""focus"",""53"",""6592119""
""focus"",""53"",""6608999""
","""event"",""trial"",""time""
""fullscreenenter"",""1"",""53641""
","""event"",""trial"",""time""
""fullscreenexit"",""2"",""55450""
","","","-1","","","22","3338","2425","&#9789;","elianto","#f73b6a7A"," ","-1","0","-10","[]","0","0","4","","","","","","","",""
"pit-trial","56","6634727","0.0-2.0-17.0-2.0","battery-v0.2","","""event"",""trial"",""time""
""focus"",""1"",""52801""
""fullscreenenter"",""1"",""53641""
""fullscreenexit"",""2"",""55450""
""blur"",""5"",""72322""
""focus"",""5"",""2808432""
""blur"",""5"",""2809527""
""focus"",""5"",""6044737""
""blur"",""10"",""6101024""
""focus"",""10"",""6118957""
""blur"",""20"",""6238066""
""focus"",""21"",""6242608""
""blur"",""49"",""6567468""
""focus"",""51"",""6581221""
""blur"",""53"",""6584464""
""focus"",""53"",""6592119""
""blur"",""53"",""6594891""
""focus"",""53"",""6608999""
""blur"",""54"",""6623492""
","""event"",""trial"",""time""
""blur"",""5"",""72322""
""blur"",""5"",""2809527""
""blur"",""10"",""6101024""
""blur"",""20"",""6238066""
""blur"",""49"",""6567468""
""blur"",""53"",""6584464""
""blur"",""53"",""6594891""
""blur"",""54"",""6623492""
","""event"",""trial"",""time""
""focus"",""1"",""52801""
""focus"",""5"",""2808432""
""focus"",""5"",""6044737""
""focus"",""10"",""6118957""
""focus"",""21"",""6242608""
""focus"",""51"",""6581221""
""focus"",""53"",""6592119""
""focus"",""53"",""6608999""
","""event"",""trial"",""time""
""fullscreenenter"",""1"",""53641""
","""event"",""trial"",""time""
""fullscreenexit"",""2"",""55450""
","","","-1","","","22","3338","2425","&#9789;","elianto","#f73b6a7A"," ","-1","0","-10","[]","0","0","4","","","","","","","",""
"pit-trial","57","6639594","0.0-2.0-17.0-3.0","battery-v0.2","","""event"",""trial"",""time""
""focus"",""1"",""52801""
""fullscreenenter"",""1"",""53641""
""fullscreenexit"",""2"",""55450""
""blur"",""5"",""72322""
""focus"",""5"",""2808432""
""blur"",""5"",""2809527""
""focus"",""5"",""6044737""
""blur"",""10"",""6101024""
""focus"",""10"",""6118957""
""blur"",""20"",""6238066""
""focus"",""21"",""6242608""
""blur"",""49"",""6567468""
""focus"",""51"",""6581221""
""blur"",""53"",""6584464""
""focus"",""53"",""6592119""
""blur"",""53"",""6594891""
""focus"",""53"",""6608999""
""blur"",""54"",""6623492""
","""event"",""trial"",""time""
""blur"",""5"",""72322""
""blur"",""5"",""2809527""
""blur"",""10"",""6101024""
""blur"",""20"",""6238066""
""blur"",""49"",""6567468""
""blur"",""53"",""6584464""
""blur"",""53"",""6594891""
""blur"",""54"",""6623492""
","""event"",""trial"",""time""
""focus"",""1"",""52801""
""focus"",""5"",""2808432""
""focus"",""5"",""6044737""
""focus"",""10"",""6118957""
""focus"",""21"",""6242608""
""focus"",""51"",""6581221""
""focus"",""53"",""6592119""
""focus"",""53"",""6608999""
","""event"",""trial"",""time""
""fullscreenenter"",""1"",""53641""
","""event"",""trial"",""time""
""fullscreenexit"",""2"",""55450""
","","","-1","","","22","3338","2425","&#9789;","elianto","#f73b6a7A"," ","-1","0","0","[]","0","0","4","","","","","","","",""
"pit-trial","58","6644460","0.0-2.0-17.0-4.0","battery-v0.2","","""event"",""trial"",""time""
""focus"",""1"",""52801""
""fullscreenenter"",""1"",""53641""
""fullscreenexit"",""2"",""55450""
""blur"",""5"",""72322""
""focus"",""5"",""2808432""
""blur"",""5"",""2809527""
""focus"",""5"",""6044737""
""blur"",""10"",""6101024""
""focus"",""10"",""6118957""
""blur"",""20"",""6238066""
""focus"",""21"",""6242608""
""blur"",""49"",""6567468""
""focus"",""51"",""6581221""
""blur"",""53"",""6584464""
""focus"",""53"",""6592119""
""blur"",""53"",""6594891""
""focus"",""53"",""6608999""
""blur"",""54"",""6623492""
","""event"",""trial"",""time""
""blur"",""5"",""72322""
""blur"",""5"",""2809527""
""blur"",""10"",""6101024""
""blur"",""20"",""6238066""
""blur"",""49"",""6567468""
""blur"",""53"",""6584464""
""blur"",""53"",""6594891""
""blur"",""54"",""6623492""
","""event"",""trial"",""time""
""focus"",""1"",""52801""
""focus"",""5"",""2808432""
""focus"",""5"",""6044737""
""focus"",""10"",""6118957""
""focus"",""21"",""6242608""
""focus"",""51"",""6581221""
""focus"",""53"",""6592119""
""focus"",""53"",""6608999""
","""event"",""trial"",""time""
""fullscreenenter"",""1"",""53641""
","""event"",""trial"",""time""
""fullscreenexit"",""2"",""55450""
","","","-1","","","22","3338","2425","&#9789;","elianto","#f73b6a7A"," ","-1","0","-10","[]","0","0","4","","","","","","","",""
"pit-trial","59","6649337","0.0-2.0-17.1-0.1","battery-v0.2","","""event"",""trial"",""time""
""focus"",""1"",""52801""
""fullscreenenter"",""1"",""53641""
""fullscreenexit"",""2"",""55450""
""blur"",""5"",""72322""
""focus"",""5"",""2808432""
""blur"",""5"",""2809527""
""focus"",""5"",""6044737""
""blur"",""10"",""6101024""
""focus"",""10"",""6118957""
""blur"",""20"",""6238066""
""focus"",""21"",""6242608""
""blur"",""49"",""6567468""
""focus"",""51"",""6581221""
""blur"",""53"",""6584464""
""focus"",""53"",""6592119""
""blur"",""53"",""6594891""
""focus"",""53"",""6608999""
""blur"",""54"",""6623492""
","""event"",""trial"",""time""
""blur"",""5"",""72322""
""blur"",""5"",""2809527""
""blur"",""10"",""6101024""
""blur"",""20"",""6238066""
""blur"",""49"",""6567468""
""blur"",""53"",""6584464""
""blur"",""53"",""6594891""
""blur"",""54"",""6623492""
","""event"",""trial"",""time""
""focus"",""1"",""52801""
""focus"",""5"",""2808432""
""focus"",""5"",""6044737""
""focus"",""10"",""6118957""
""focus"",""21"",""6242608""
""focus"",""51"",""6581221""
""focus"",""53"",""6592119""
""focus"",""53"",""6608999""
","""event"",""trial"",""time""
""fullscreenenter"",""1"",""53641""
","""event"",""trial"",""time""
""fullscreenexit"",""2"",""55450""
","","","-1","","","22","3338","2425","&#9789;","elianto","#f73b6a7A"," ","-1","0","-10","[]","0","0","4","","","","","","","",""
"pit-trial","60","6654322","0.0-2.0-17.1-1.1","battery-v0.2","","""event"",""trial"",""time""
""focus"",""1"",""52801""
""fullscreenenter"",""1"",""53641""
""fullscreenexit"",""2"",""55450""
""blur"",""5"",""72322""
""focus"",""5"",""2808432""
""blur"",""5"",""2809527""
""focus"",""5"",""6044737""
""blur"",""10"",""6101024""
""focus"",""10"",""6118957""
""blur"",""20"",""6238066""
""focus"",""21"",""6242608""
""blur"",""49"",""6567468""
""focus"",""51"",""6581221""
""blur"",""53"",""6584464""
""focus"",""53"",""6592119""
""blur"",""53"",""6594891""
""focus"",""53"",""6608999""
""blur"",""54"",""6623492""
","""event"",""trial"",""time""
""blur"",""5"",""72322""
""blur"",""5"",""2809527""
""blur"",""10"",""6101024""
""blur"",""20"",""6238066""
""blur"",""49"",""6567468""
""blur"",""53"",""6584464""
""blur"",""53"",""6594891""
""blur"",""54"",""6623492""
","""event"",""trial"",""time""
""focus"",""1"",""52801""
""focus"",""5"",""2808432""
""focus"",""5"",""6044737""
""focus"",""10"",""6118957""
""focus"",""21"",""6242608""
""focus"",""51"",""6581221""
""focus"",""53"",""6592119""
""focus"",""53"",""6608999""
","""event"",""trial"",""time""
""fullscreenenter"",""1"",""53641""
","""event"",""trial"",""time""
""fullscreenexit"",""2"",""55450""
","","","-1","","","22","3338","2425","&#9789;","elianto","#f73b6a7A"," ","-1","0","-10","[]","0","0","4","","","","","","","",""
"pit-trial","61","6659315","0.0-2.0-17.1-2.1","battery-v0.2","","""event"",""trial"",""time""
""focus"",""1"",""52801""
""fullscreenenter"",""1"",""53641""
""fullscreenexit"",""2"",""55450""
""blur"",""5"",""72322""
""focus"",""5"",""2808432""
""blur"",""5"",""2809527""
""focus"",""5"",""6044737""
""blur"",""10"",""6101024""
""focus"",""10"",""6118957""
""blur"",""20"",""6238066""
""focus"",""21"",""6242608""
""blur"",""49"",""6567468""
""focus"",""51"",""6581221""
""blur"",""53"",""6584464""
""focus"",""53"",""6592119""
""blur"",""53"",""6594891""
""focus"",""53"",""6608999""
""blur"",""54"",""6623492""
","""event"",""trial"",""time""
""blur"",""5"",""72322""
""blur"",""5"",""2809527""
""blur"",""10"",""6101024""
""blur"",""20"",""6238066""
""blur"",""49"",""6567468""
""blur"",""53"",""6584464""
""blur"",""53"",""6594891""
""blur"",""54"",""6623492""
","""event"",""trial"",""time""
""focus"",""1"",""52801""
""focus"",""5"",""2808432""
""focus"",""5"",""6044737""
""focus"",""10"",""6118957""
""focus"",""21"",""6242608""
""focus"",""51"",""6581221""
""focus"",""53"",""6592119""
""focus"",""53"",""6608999""
","""event"",""trial"",""time""
""fullscreenenter"",""1"",""53641""
","""event"",""trial"",""time""
""fullscreenexit"",""2"",""55450""
","","","-1","","","22","3338","2425","&#9789;","elianto","#f73b6a7A"," ","-1","0","-10","[]","0","0","4","","","","","","","",""
"pit-trial","62","6664320","0.0-2.0-17.1-3.1","battery-v0.2","","""event"",""trial"",""time""
""focus"",""1"",""52801""
""fullscreenenter"",""1"",""53641""
""fullscreenexit"",""2"",""55450""
""blur"",""5"",""72322""
""focus"",""5"",""2808432""
""blur"",""5"",""2809527""
""focus"",""5"",""6044737""
""blur"",""10"",""6101024""
""focus"",""10"",""6118957""
""blur"",""20"",""6238066""
""focus"",""21"",""6242608""
""blur"",""49"",""6567468""
""focus"",""51"",""6581221""
""blur"",""53"",""6584464""
""focus"",""53"",""6592119""
""blur"",""53"",""6594891""
""focus"",""53"",""6608999""
""blur"",""54"",""6623492""
","""event"",""trial"",""time""
""blur"",""5"",""72322""
""blur"",""5"",""2809527""
""blur"",""10"",""6101024""
""blur"",""20"",""6238066""
""blur"",""49"",""6567468""
""blur"",""53"",""6584464""
""blur"",""53"",""6594891""
""blur"",""54"",""6623492""
","""event"",""trial"",""time""
""focus"",""1"",""52801""
""focus"",""5"",""2808432""
""focus"",""5"",""6044737""
""focus"",""10"",""6118957""
""focus"",""21"",""6242608""
""focus"",""51"",""6581221""
""focus"",""53"",""6592119""
""focus"",""53"",""6608999""
","""event"",""trial"",""time""
""fullscreenenter"",""1"",""53641""
","""event"",""trial"",""time""
""fullscreenexit"",""2"",""55450""
","","","-1","","","22","3338","2425","&#9789;","elianto","#f73b6a7A"," ","-1","0","0","[]","0","0","4","","","","","","","",""
"pit-trial","63","6669319","0.0-2.0-17.1-4.1","battery-v0.2","","""event"",""trial"",""time""
""focus"",""1"",""52801""
""fullscreenenter"",""1"",""53641""
""fullscreenexit"",""2"",""55450""
""blur"",""5"",""72322""
""focus"",""5"",""2808432""
""blur"",""5"",""2809527""
""focus"",""5"",""6044737""
""blur"",""10"",""6101024""
""focus"",""10"",""6118957""
""blur"",""20"",""6238066""
""focus"",""21"",""6242608""
""blur"",""49"",""6567468""
""focus"",""51"",""6581221""
""blur"",""53"",""6584464""
""focus"",""53"",""6592119""
""blur"",""53"",""6594891""
""focus"",""53"",""6608999""
""blur"",""54"",""6623492""
","""event"",""trial"",""time""
""blur"",""5"",""72322""
""blur"",""5"",""2809527""
""blur"",""10"",""6101024""
""blur"",""20"",""6238066""
""blur"",""49"",""6567468""
""blur"",""53"",""6584464""
""blur"",""53"",""6594891""
""blur"",""54"",""6623492""
","""event"",""trial"",""time""
""focus"",""1"",""52801""
""focus"",""5"",""2808432""
""focus"",""5"",""6044737""
""focus"",""10"",""6118957""
""focus"",""21"",""6242608""
""focus"",""51"",""6581221""
""focus"",""53"",""6592119""
""focus"",""53"",""6608999""
","""event"",""trial"",""time""
""fullscreenenter"",""1"",""53641""
","""event"",""trial"",""time""
""fullscreenexit"",""2"",""55450""
","","","-1","","","22","3338","2425","&#9789;","elianto","#f73b6a7A"," ","-1","0","-10","[]","0","0","4","","","","","","","",""
"pit-trial","64","6674314","0.0-2.0-17.2-0.2","battery-v0.2","","""event"",""trial"",""time""
""focus"",""1"",""52801""
""fullscreenenter"",""1"",""53641""
""fullscreenexit"",""2"",""55450""
""blur"",""5"",""72322""
""focus"",""5"",""2808432""
""blur"",""5"",""2809527""
""focus"",""5"",""6044737""
""blur"",""10"",""6101024""
""focus"",""10"",""6118957""
""blur"",""20"",""6238066""
""focus"",""21"",""6242608""
""blur"",""49"",""6567468""
""focus"",""51"",""6581221""
""blur"",""53"",""6584464""
""focus"",""53"",""6592119""
""blur"",""53"",""6594891""
""focus"",""53"",""6608999""
""blur"",""54"",""6623492""
","""event"",""trial"",""time""
""blur"",""5"",""72322""
""blur"",""5"",""2809527""
""blur"",""10"",""6101024""
""blur"",""20"",""6238066""
""blur"",""49"",""6567468""
""blur"",""53"",""6584464""
""blur"",""53"",""6594891""
""blur"",""54"",""6623492""
","""event"",""trial"",""time""
""focus"",""1"",""52801""
""focus"",""5"",""2808432""
""focus"",""5"",""6044737""
""focus"",""10"",""6118957""
""focus"",""21"",""6242608""
""focus"",""51"",""6581221""
""focus"",""53"",""6592119""
""focus"",""53"",""6608999""
","""event"",""trial"",""time""
""fullscreenenter"",""1"",""53641""
","""event"",""trial"",""time""
""fullscreenexit"",""2"",""55450""
","","","-1","","","22","3338","2425","&#9789;","elianto","#f73b6a7A"," ","-1","0","-10","[]","0","0","4","","","","","","","",""
"pit-trial","65","6679318","0.0-2.0-17.2-1.2","battery-v0.2","","""event"",""trial"",""time""
""focus"",""1"",""52801""
""fullscreenenter"",""1"",""53641""
""fullscreenexit"",""2"",""55450""
""blur"",""5"",""72322""
""focus"",""5"",""2808432""
""blur"",""5"",""2809527""
""focus"",""5"",""6044737""
""blur"",""10"",""6101024""
""focus"",""10"",""6118957""
""blur"",""20"",""6238066""
""focus"",""21"",""6242608""
""blur"",""49"",""6567468""
""focus"",""51"",""6581221""
""blur"",""53"",""6584464""
""focus"",""53"",""6592119""
""blur"",""53"",""6594891""
""focus"",""53"",""6608999""
""blur"",""54"",""6623492""
","""event"",""trial"",""time""
""blur"",""5"",""72322""
""blur"",""5"",""2809527""
""blur"",""10"",""6101024""
""blur"",""20"",""6238066""
""blur"",""49"",""6567468""
""blur"",""53"",""6584464""
""blur"",""53"",""6594891""
""blur"",""54"",""6623492""
","""event"",""trial"",""time""
""focus"",""1"",""52801""
""focus"",""5"",""2808432""
""focus"",""5"",""6044737""
""focus"",""10"",""6118957""
""focus"",""21"",""6242608""
""focus"",""51"",""6581221""
""focus"",""53"",""6592119""
""focus"",""53"",""6608999""
","""event"",""trial"",""time""
""fullscreenenter"",""1"",""53641""
","""event"",""trial"",""time""
""fullscreenexit"",""2"",""55450""
","","","-1","","","22","3338","2425","&#9789;","elianto","#f73b6a7A"," ","-1","0","-10","[]","0","0","4","","","","","","","",""
"pit-trial","66","6684314","0.0-2.0-17.2-2.2","battery-v0.2","","""event"",""trial"",""time""
""focus"",""1"",""52801""
""fullscreenenter"",""1"",""53641""
""fullscreenexit"",""2"",""55450""
""blur"",""5"",""72322""
""focus"",""5"",""2808432""
""blur"",""5"",""2809527""
""focus"",""5"",""6044737""
""blur"",""10"",""6101024""
""focus"",""10"",""6118957""
""blur"",""20"",""6238066""
""focus"",""21"",""6242608""
""blur"",""49"",""6567468""
""focus"",""51"",""6581221""
""blur"",""53"",""6584464""
""focus"",""53"",""6592119""
""blur"",""53"",""6594891""
""focus"",""53"",""6608999""
""blur"",""54"",""6623492""
""focus"",""67"",""6687849""
""blur"",""67"",""6689209""
","""event"",""trial"",""time""
""blur"",""5"",""72322""
""blur"",""5"",""2809527""
""blur"",""10"",""6101024""
""blur"",""20"",""6238066""
""blur"",""49"",""6567468""
""blur"",""53"",""6584464""
""blur"",""53"",""6594891""
""blur"",""54"",""6623492""
""blur"",""67"",""6689209""
","""event"",""trial"",""time""
""focus"",""1"",""52801""
""focus"",""5"",""2808432""
""focus"",""5"",""6044737""
""focus"",""10"",""6118957""
""focus"",""21"",""6242608""
""focus"",""51"",""6581221""
""focus"",""53"",""6592119""
""focus"",""53"",""6608999""
""focus"",""67"",""6687849""
","""event"",""trial"",""time""
""fullscreenenter"",""1"",""53641""
","""event"",""trial"",""time""
""fullscreenexit"",""2"",""55450""
","","","-1","","","22","3338","2425","&#9789;","elianto","#f73b6a7A"," ","-1","0","-10","[]","0","0","4","","","","","","","",""
"pit-trial","67","6690307","0.0-2.0-17.2-3.2","battery-v0.2","","""event"",""trial"",""time""
""focus"",""1"",""52801""
""fullscreenenter"",""1"",""53641""
""fullscreenexit"",""2"",""55450""
""blur"",""5"",""72322""
""focus"",""5"",""2808432""
""blur"",""5"",""2809527""
""focus"",""5"",""6044737""
""blur"",""10"",""6101024""
""focus"",""10"",""6118957""
""blur"",""20"",""6238066""
""focus"",""21"",""6242608""
""blur"",""49"",""6567468""
""focus"",""51"",""6581221""
""blur"",""53"",""6584464""
""focus"",""53"",""6592119""
""blur"",""53"",""6594891""
""focus"",""53"",""6608999""
""blur"",""54"",""6623492""
""focus"",""67"",""6687849""
""blur"",""67"",""6689209""
","""event"",""trial"",""time""
""blur"",""5"",""72322""
""blur"",""5"",""2809527""
""blur"",""10"",""6101024""
""blur"",""20"",""6238066""
""blur"",""49"",""6567468""
""blur"",""53"",""6584464""
""blur"",""53"",""6594891""
""blur"",""54"",""6623492""
""blur"",""67"",""6689209""
","""event"",""trial"",""time""
""focus"",""1"",""52801""
""focus"",""5"",""2808432""
""focus"",""5"",""6044737""
""focus"",""10"",""6118957""
""focus"",""21"",""6242608""
""focus"",""51"",""6581221""
""focus"",""53"",""6592119""
""focus"",""53"",""6608999""
""focus"",""67"",""6687849""
","""event"",""trial"",""time""
""fullscreenenter"",""1"",""53641""
","""event"",""trial"",""time""
""fullscreenexit"",""2"",""55450""
","","","-1","","","22","3338","2425","&#9789;","elianto","#f73b6a7A"," ","-1","0","0","[]","0","0","4","","","","","","","",""
"pit-trial","68","6696320","0.0-2.0-17.2-4.2","battery-v0.2","","""event"",""trial"",""time""
""focus"",""1"",""52801""
""fullscreenenter"",""1"",""53641""
""fullscreenexit"",""2"",""55450""
""blur"",""5"",""72322""
""focus"",""5"",""2808432""
""blur"",""5"",""2809527""
""focus"",""5"",""6044737""
""blur"",""10"",""6101024""
""focus"",""10"",""6118957""
""blur"",""20"",""6238066""
""focus"",""21"",""6242608""
""blur"",""49"",""6567468""
""focus"",""51"",""6581221""
""blur"",""53"",""6584464""
""focus"",""53"",""6592119""
""blur"",""53"",""6594891""
""focus"",""53"",""6608999""
""blur"",""54"",""6623492""
""focus"",""67"",""6687849""
""blur"",""67"",""6689209""
","""event"",""trial"",""time""
""blur"",""5"",""72322""
""blur"",""5"",""2809527""
""blur"",""10"",""6101024""
""blur"",""20"",""6238066""
""blur"",""49"",""6567468""
""blur"",""53"",""6584464""
""blur"",""53"",""6594891""
""blur"",""54"",""6623492""
""blur"",""67"",""6689209""
","""event"",""trial"",""time""
""focus"",""1"",""52801""
""focus"",""5"",""2808432""
""focus"",""5"",""6044737""
""focus"",""10"",""6118957""
""focus"",""21"",""6242608""
""focus"",""51"",""6581221""
""focus"",""53"",""6592119""
""focus"",""53"",""6608999""
""focus"",""67"",""6687849""
","""event"",""trial"",""time""
""fullscreenenter"",""1"",""53641""
","""event"",""trial"",""time""
""fullscreenexit"",""2"",""55450""
","","","-1","","","22","3338","2425","&#9789;","elianto","#f73b6a7A"," ","-1","0","-10","[]","0","0","4","","","","","","","",""
"pit-trial","69","6701311","0.0-2.0-17.3-0.3","battery-v0.2","","""event"",""trial"",""time""
""focus"",""1"",""52801""
""fullscreenenter"",""1"",""53641""
""fullscreenexit"",""2"",""55450""
""blur"",""5"",""72322""
""focus"",""5"",""2808432""
""blur"",""5"",""2809527""
""focus"",""5"",""6044737""
""blur"",""10"",""6101024""
""focus"",""10"",""6118957""
""blur"",""20"",""6238066""
""focus"",""21"",""6242608""
""blur"",""49"",""6567468""
""focus"",""51"",""6581221""
""blur"",""53"",""6584464""
""focus"",""53"",""6592119""
""blur"",""53"",""6594891""
""focus"",""53"",""6608999""
""blur"",""54"",""6623492""
""focus"",""67"",""6687849""
""blur"",""67"",""6689209""
","""event"",""trial"",""time""
""blur"",""5"",""72322""
""blur"",""5"",""2809527""
""blur"",""10"",""6101024""
""blur"",""20"",""6238066""
""blur"",""49"",""6567468""
""blur"",""53"",""6584464""
""blur"",""53"",""6594891""
""blur"",""54"",""6623492""
""blur"",""67"",""6689209""
","""event"",""trial"",""time""
""focus"",""1"",""52801""
""focus"",""5"",""2808432""
""focus"",""5"",""6044737""
""focus"",""10"",""6118957""
""focus"",""21"",""6242608""
""focus"",""51"",""6581221""
""focus"",""53"",""6592119""
""focus"",""53"",""6608999""
""focus"",""67"",""6687849""
","""event"",""trial"",""time""
""fullscreenenter"",""1"",""53641""
","""event"",""trial"",""time""
""fullscreenexit"",""2"",""55450""
","","","-1","","","22","3338","2425","&#9789;","elianto","#f73b6a7A"," ","-1","0","-10","[]","0","0","4","","","","","","","",""
"pit-trial","70","6706324","0.0-2.0-17.3-1.3","battery-v0.2","","""event"",""trial"",""time""
""focus"",""1"",""52801""
""fullscreenenter"",""1"",""53641""
""fullscreenexit"",""2"",""55450""
""blur"",""5"",""72322""
""focus"",""5"",""2808432""
""blur"",""5"",""2809527""
""focus"",""5"",""6044737""
""blur"",""10"",""6101024""
""focus"",""10"",""6118957""
""blur"",""20"",""6238066""
""focus"",""21"",""6242608""
""blur"",""49"",""6567468""
""focus"",""51"",""6581221""
""blur"",""53"",""6584464""
""focus"",""53"",""6592119""
""blur"",""53"",""6594891""
""focus"",""53"",""6608999""
""blur"",""54"",""6623492""
""focus"",""67"",""6687849""
""blur"",""67"",""6689209""
","""event"",""trial"",""time""
""blur"",""5"",""72322""
""blur"",""5"",""2809527""
""blur"",""10"",""6101024""
""blur"",""20"",""6238066""
""blur"",""49"",""6567468""
""blur"",""53"",""6584464""
""blur"",""53"",""6594891""
""blur"",""54"",""6623492""
""blur"",""67"",""6689209""
","""event"",""trial"",""time""
""focus"",""1"",""52801""
""focus"",""5"",""2808432""
""focus"",""5"",""6044737""
""focus"",""10"",""6118957""
""focus"",""21"",""6242608""
""focus"",""51"",""6581221""
""focus"",""53"",""6592119""
""focus"",""53"",""6608999""
""focus"",""67"",""6687849""
","""event"",""trial"",""time""
""fullscreenenter"",""1"",""53641""
","""event"",""trial"",""time""
""fullscreenexit"",""2"",""55450""
","","","-1","","","22","3338","2425","&#9789;","elianto","#f73b6a7A"," ","-1","0","-10","[]","0","0","4","","","","","","","",""
"pit-trial","71","6711319","0.0-2.0-17.3-2.3","battery-v0.2","","""event"",""trial"",""time""
""focus"",""1"",""52801""
""fullscreenenter"",""1"",""53641""
""fullscreenexit"",""2"",""55450""
""blur"",""5"",""72322""
""focus"",""5"",""2808432""
""blur"",""5"",""2809527""
""focus"",""5"",""6044737""
""blur"",""10"",""6101024""
""focus"",""10"",""6118957""
""blur"",""20"",""6238066""
""focus"",""21"",""6242608""
""blur"",""49"",""6567468""
""focus"",""51"",""6581221""
""blur"",""53"",""6584464""
""focus"",""53"",""6592119""
""blur"",""53"",""6594891""
""focus"",""53"",""6608999""
""blur"",""54"",""6623492""
""focus"",""67"",""6687849""
""blur"",""67"",""6689209""
","""event"",""trial"",""time""
""blur"",""5"",""72322""
""blur"",""5"",""2809527""
""blur"",""10"",""6101024""
""blur"",""20"",""6238066""
""blur"",""49"",""6567468""
""blur"",""53"",""6584464""
""blur"",""53"",""6594891""
""blur"",""54"",""6623492""
""blur"",""67"",""6689209""
","""event"",""trial"",""time""
""focus"",""1"",""52801""
""focus"",""5"",""2808432""
""focus"",""5"",""6044737""
""focus"",""10"",""6118957""
""focus"",""21"",""6242608""
""focus"",""51"",""6581221""
""focus"",""53"",""6592119""
""focus"",""53"",""6608999""
""focus"",""67"",""6687849""
","""event"",""trial"",""time""
""fullscreenenter"",""1"",""53641""
","""event"",""trial"",""time""
""fullscreenexit"",""2"",""55450""
","","","-1","","","22","3338","2425","&#9789;","elianto","#f73b6a7A"," ","-1","0","-10","[]","0","0","4","","","","","","","",""
"pit-trial","72","6717317","0.0-2.0-17.3-3.3","battery-v0.2","","""event"",""trial"",""time""
""focus"",""1"",""52801""
""fullscreenenter"",""1"",""53641""
""fullscreenexit"",""2"",""55450""
""blur"",""5"",""72322""
""focus"",""5"",""2808432""
""blur"",""5"",""2809527""
""focus"",""5"",""6044737""
""blur"",""10"",""6101024""
""focus"",""10"",""6118957""
""blur"",""20"",""6238066""
""focus"",""21"",""6242608""
""blur"",""49"",""6567468""
""focus"",""51"",""6581221""
""blur"",""53"",""6584464""
""focus"",""53"",""6592119""
""blur"",""53"",""6594891""
""focus"",""53"",""6608999""
""blur"",""54"",""6623492""
""focus"",""67"",""6687849""
""blur"",""67"",""6689209""
","""event"",""trial"",""time""
""blur"",""5"",""72322""
""blur"",""5"",""2809527""
""blur"",""10"",""6101024""
""blur"",""20"",""6238066""
""blur"",""49"",""6567468""
""blur"",""53"",""6584464""
""blur"",""53"",""6594891""
""blur"",""54"",""6623492""
""blur"",""67"",""6689209""
","""event"",""trial"",""time""
""focus"",""1"",""52801""
""focus"",""5"",""2808432""
""focus"",""5"",""6044737""
""focus"",""10"",""6118957""
""focus"",""21"",""6242608""
""focus"",""51"",""6581221""
""focus"",""53"",""6592119""
""focus"",""53"",""6608999""
""focus"",""67"",""6687849""
","""event"",""trial"",""time""
""fullscreenenter"",""1"",""53641""
","""event"",""trial"",""time""
""fullscreenexit"",""2"",""55450""
","","","-1","","","22","3338","2425","&#9789;","elianto","#f73b6a7A"," ","-1","0","0","[]","0","0","4","","","","","","","",""
"pit-trial","73","6723307","0.0-2.0-17.3-4.3","battery-v0.2","","""event"",""trial"",""time""
""focus"",""1"",""52801""
""fullscreenenter"",""1"",""53641""
""fullscreenexit"",""2"",""55450""
""blur"",""5"",""72322""
""focus"",""5"",""2808432""
""blur"",""5"",""2809527""
""focus"",""5"",""6044737""
""blur"",""10"",""6101024""
""focus"",""10"",""6118957""
""blur"",""20"",""6238066""
""focus"",""21"",""6242608""
""blur"",""49"",""6567468""
""focus"",""51"",""6581221""
""blur"",""53"",""6584464""
""focus"",""53"",""6592119""
""blur"",""53"",""6594891""
""focus"",""53"",""6608999""
""blur"",""54"",""6623492""
""focus"",""67"",""6687849""
""blur"",""67"",""6689209""
","""event"",""trial"",""time""
""blur"",""5"",""72322""
""blur"",""5"",""2809527""
""blur"",""10"",""6101024""
""blur"",""20"",""6238066""
""blur"",""49"",""6567468""
""blur"",""53"",""6584464""
""blur"",""53"",""6594891""
""blur"",""54"",""6623492""
""blur"",""67"",""6689209""
","""event"",""trial"",""time""
""focus"",""1"",""52801""
""focus"",""5"",""2808432""
""focus"",""5"",""6044737""
""focus"",""10"",""6118957""
""focus"",""21"",""6242608""
""focus"",""51"",""6581221""
""focus"",""53"",""6592119""
""focus"",""53"",""6608999""
""focus"",""67"",""6687849""
","""event"",""trial"",""time""
""fullscreenenter"",""1"",""53641""
","""event"",""trial"",""time""
""fullscreenexit"",""2"",""55450""
","","","-1","","","22","3338","2425","&#9789;","elianto","#f73b6a7A"," ","-1","0","-10","[]","0","0","4","","","","","","","",""
"pit-trial","74","6728311","0.0-2.0-17.4-0.4","battery-v0.2","","""event"",""trial"",""time""
""focus"",""1"",""52801""
""fullscreenenter"",""1"",""53641""
""fullscreenexit"",""2"",""55450""
""blur"",""5"",""72322""
""focus"",""5"",""2808432""
""blur"",""5"",""2809527""
""focus"",""5"",""6044737""
""blur"",""10"",""6101024""
""focus"",""10"",""6118957""
""blur"",""20"",""6238066""
""focus"",""21"",""6242608""
""blur"",""49"",""6567468""
""focus"",""51"",""6581221""
""blur"",""53"",""6584464""
""focus"",""53"",""6592119""
""blur"",""53"",""6594891""
""focus"",""53"",""6608999""
""blur"",""54"",""6623492""
""focus"",""67"",""6687849""
""blur"",""67"",""6689209""
","""event"",""trial"",""time""
""blur"",""5"",""72322""
""blur"",""5"",""2809527""
""blur"",""10"",""6101024""
""blur"",""20"",""6238066""
""blur"",""49"",""6567468""
""blur"",""53"",""6584464""
""blur"",""53"",""6594891""
""blur"",""54"",""6623492""
""blur"",""67"",""6689209""
","""event"",""trial"",""time""
""focus"",""1"",""52801""
""focus"",""5"",""2808432""
""focus"",""5"",""6044737""
""focus"",""10"",""6118957""
""focus"",""21"",""6242608""
""focus"",""51"",""6581221""
""focus"",""53"",""6592119""
""focus"",""53"",""6608999""
""focus"",""67"",""6687849""
","""event"",""trial"",""time""
""fullscreenenter"",""1"",""53641""
","""event"",""trial"",""time""
""fullscreenexit"",""2"",""55450""
","","","-1","","","22","3338","2425","&#9789;","elianto","#f73b6a7A"," ","-1","0","-10","[]","0","0","4","","","","","","","",""
"pit-trial","75","6733318","0.0-2.0-17.4-1.4","battery-v0.2","","""event"",""trial"",""time""
""focus"",""1"",""52801""
""fullscreenenter"",""1"",""53641""
""fullscreenexit"",""2"",""55450""
""blur"",""5"",""72322""
""focus"",""5"",""2808432""
""blur"",""5"",""2809527""
""focus"",""5"",""6044737""
""blur"",""10"",""6101024""
""focus"",""10"",""6118957""
""blur"",""20"",""6238066""
""focus"",""21"",""6242608""
""blur"",""49"",""6567468""
""focus"",""51"",""6581221""
""blur"",""53"",""6584464""
""focus"",""53"",""6592119""
""blur"",""53"",""6594891""
""focus"",""53"",""6608999""
""blur"",""54"",""6623492""
""focus"",""67"",""6687849""
""blur"",""67"",""6689209""
","""event"",""trial"",""time""
""blur"",""5"",""72322""
""blur"",""5"",""2809527""
""blur"",""10"",""6101024""
""blur"",""20"",""6238066""
""blur"",""49"",""6567468""
""blur"",""53"",""6584464""
""blur"",""53"",""6594891""
""blur"",""54"",""6623492""
""blur"",""67"",""6689209""
","""event"",""trial"",""time""
""focus"",""1"",""52801""
""focus"",""5"",""2808432""
""focus"",""5"",""6044737""
""focus"",""10"",""6118957""
""focus"",""21"",""6242608""
""focus"",""51"",""6581221""
""focus"",""53"",""6592119""
""focus"",""53"",""6608999""
""focus"",""67"",""6687849""
","""event"",""trial"",""time""
""fullscreenenter"",""1"",""53641""
","""event"",""trial"",""time""
""fullscreenexit"",""2"",""55450""
","","","-1","","","22","3338","2425","&#9789;","elianto","#f73b6a7A"," ","-1","0","-10","[]","0","0","4","","","","","","","",""
"pit-trial","76","6739319","0.0-2.0-17.4-2.4","battery-v0.2","","""event"",""trial"",""time""
""focus"",""1"",""52801""
""fullscreenenter"",""1"",""53641""
""fullscreenexit"",""2"",""55450""
""blur"",""5"",""72322""
""focus"",""5"",""2808432""
""blur"",""5"",""2809527""
""focus"",""5"",""6044737""
""blur"",""10"",""6101024""
""focus"",""10"",""6118957""
""blur"",""20"",""6238066""
""focus"",""21"",""6242608""
""blur"",""49"",""6567468""
""focus"",""51"",""6581221""
""blur"",""53"",""6584464""
""focus"",""53"",""6592119""
""blur"",""53"",""6594891""
""focus"",""53"",""6608999""
""blur"",""54"",""6623492""
""focus"",""67"",""6687849""
""blur"",""67"",""6689209""
","""event"",""trial"",""time""
""blur"",""5"",""72322""
""blur"",""5"",""2809527""
""blur"",""10"",""6101024""
""blur"",""20"",""6238066""
""blur"",""49"",""6567468""
""blur"",""53"",""6584464""
""blur"",""53"",""6594891""
""blur"",""54"",""6623492""
""blur"",""67"",""6689209""
","""event"",""trial"",""time""
""focus"",""1"",""52801""
""focus"",""5"",""2808432""
""focus"",""5"",""6044737""
""focus"",""10"",""6118957""
""focus"",""21"",""6242608""
""focus"",""51"",""6581221""
""focus"",""53"",""6592119""
""focus"",""53"",""6608999""
""focus"",""67"",""6687849""
","""event"",""trial"",""time""
""fullscreenenter"",""1"",""53641""
","""event"",""trial"",""time""
""fullscreenexit"",""2"",""55450""
","","","-1","","","22","3338","2425","&#9789;","elianto","#f73b6a7A"," ","-1","0","-10","[]","0","0","4","","","","","","","",""
"pit-trial","77","6744329","0.0-2.0-17.4-3.4","battery-v0.2","","""event"",""trial"",""time""
""focus"",""1"",""52801""
""fullscreenenter"",""1"",""53641""
""fullscreenexit"",""2"",""55450""
""blur"",""5"",""72322""
""focus"",""5"",""2808432""
""blur"",""5"",""2809527""
""focus"",""5"",""6044737""
""blur"",""10"",""6101024""
""focus"",""10"",""6118957""
""blur"",""20"",""6238066""
""focus"",""21"",""6242608""
""blur"",""49"",""6567468""
""focus"",""51"",""6581221""
""blur"",""53"",""6584464""
""focus"",""53"",""6592119""
""blur"",""53"",""6594891""
""focus"",""53"",""6608999""
""blur"",""54"",""6623492""
""focus"",""67"",""6687849""
""blur"",""67"",""6689209""
""focus"",""78"",""6747637""
","""event"",""trial"",""time""
""blur"",""5"",""72322""
""blur"",""5"",""2809527""
""blur"",""10"",""6101024""
""blur"",""20"",""6238066""
""blur"",""49"",""6567468""
""blur"",""53"",""6584464""
""blur"",""53"",""6594891""
""blur"",""54"",""6623492""
""blur"",""67"",""6689209""
","""event"",""trial"",""time""
""focus"",""1"",""52801""
""focus"",""5"",""2808432""
""focus"",""5"",""6044737""
""focus"",""10"",""6118957""
""focus"",""21"",""6242608""
""focus"",""51"",""6581221""
""focus"",""53"",""6592119""
""focus"",""53"",""6608999""
""focus"",""67"",""6687849""
""focus"",""78"",""6747637""
","""event"",""trial"",""time""
""fullscreenenter"",""1"",""53641""
","""event"",""trial"",""time""
""fullscreenexit"",""2"",""55450""
","","","-1","","","22","3338","2425","&#9789;","elianto","#f73b6a7A"," ","-1","0","0","[]","0","0","4","","","","","","","",""
"pit-trial","78","6749329","0.0-2.0-17.4-4.4","battery-v0.2","","""event"",""trial"",""time""
""focus"",""1"",""52801""
""fullscreenenter"",""1"",""53641""
""fullscreenexit"",""2"",""55450""
""blur"",""5"",""72322""
""focus"",""5"",""2808432""
""blur"",""5"",""2809527""
""focus"",""5"",""6044737""
""blur"",""10"",""6101024""
""focus"",""10"",""6118957""
""blur"",""20"",""6238066""
""focus"",""21"",""6242608""
""blur"",""49"",""6567468""
""focus"",""51"",""6581221""
""blur"",""53"",""6584464""
""focus"",""53"",""6592119""
""blur"",""53"",""6594891""
""focus"",""53"",""6608999""
""blur"",""54"",""6623492""
""focus"",""67"",""6687849""
""blur"",""67"",""6689209""
""focus"",""78"",""6747637""
","""event"",""trial"",""time""
""blur"",""5"",""72322""
""blur"",""5"",""2809527""
""blur"",""10"",""6101024""
""blur"",""20"",""6238066""
""blur"",""49"",""6567468""
""blur"",""53"",""6584464""
""blur"",""53"",""6594891""
""blur"",""54"",""6623492""
""blur"",""67"",""6689209""
","""event"",""trial"",""time""
""focus"",""1"",""52801""
""focus"",""5"",""2808432""
""focus"",""5"",""6044737""
""focus"",""10"",""6118957""
""focus"",""21"",""6242608""
""focus"",""51"",""6581221""
""focus"",""53"",""6592119""
""focus"",""53"",""6608999""
""focus"",""67"",""6687849""
""focus"",""78"",""6747637""
","""event"",""trial"",""time""
""fullscreenenter"",""1"",""53641""
","""event"",""trial"",""time""
""fullscreenexit"",""2"",""55450""
","","","-1","","","22","3338","2425","&#9789;","elianto","#f73b6a7A"," ","-1","0","-10","[]","0","0","4","","","","","","","",""
"pit-instructions","79","6768443","0.0-2.0-17.4-5.4-0.4","battery-v0.2","","""event"",""trial"",""time""
""focus"",""1"",""52801""
""fullscreenenter"",""1"",""53641""
""fullscreenexit"",""2"",""55450""
""blur"",""5"",""72322""
""focus"",""5"",""2808432""
""blur"",""5"",""2809527""
""focus"",""5"",""6044737""
""blur"",""10"",""6101024""
""focus"",""10"",""6118957""
""blur"",""20"",""6238066""
""focus"",""21"",""6242608""
""blur"",""49"",""6567468""
""focus"",""51"",""6581221""
""blur"",""53"",""6584464""
""focus"",""53"",""6592119""
""blur"",""53"",""6594891""
""focus"",""53"",""6608999""
""blur"",""54"",""6623492""
""focus"",""67"",""6687849""
""blur"",""67"",""6689209""
""focus"",""78"",""6747637""
","""event"",""trial"",""time""
""blur"",""5"",""72322""
""blur"",""5"",""2809527""
""blur"",""10"",""6101024""
""blur"",""20"",""6238066""
""blur"",""49"",""6567468""
""blur"",""53"",""6584464""
""blur"",""53"",""6594891""
""blur"",""54"",""6623492""
""blur"",""67"",""6689209""
","""event"",""trial"",""time""
""focus"",""1"",""52801""
""focus"",""5"",""2808432""
""focus"",""5"",""6044737""
""focus"",""10"",""6118957""
""focus"",""21"",""6242608""
""focus"",""51"",""6581221""
""focus"",""53"",""6592119""
""focus"",""53"",""6608999""
""focus"",""67"",""6687849""
""focus"",""78"",""6747637""
","""event"",""trial"",""time""
""fullscreenenter"",""1"",""53641""
","""event"",""trial"",""time""
""fullscreenexit"",""2"",""55450""
","","[{""page_index"":0,""viewing_time"":5285.799999952316},{""page_index"":1,""viewing_time"":5066.600000023842},{""page_index"":2,""viewing_time"":8760}]","19112.700000047684","","","","","","","","","","","","","","","","","","","","","","","",""
"pit-trial","80","6771569","0.0-2.0-17.5-0.5","battery-v0.2","","""event"",""trial"",""time""
""focus"",""1"",""52801""
""fullscreenenter"",""1"",""53641""
""fullscreenexit"",""2"",""55450""
""blur"",""5"",""72322""
""focus"",""5"",""2808432""
""blur"",""5"",""2809527""
""focus"",""5"",""6044737""
""blur"",""10"",""6101024""
""focus"",""10"",""6118957""
""blur"",""20"",""6238066""
""focus"",""21"",""6242608""
""blur"",""49"",""6567468""
""focus"",""51"",""6581221""
""blur"",""53"",""6584464""
""focus"",""53"",""6592119""
""blur"",""53"",""6594891""
""focus"",""53"",""6608999""
""blur"",""54"",""6623492""
""focus"",""67"",""6687849""
""blur"",""67"",""6689209""
""focus"",""78"",""6747637""
","""event"",""trial"",""time""
""blur"",""5"",""72322""
""blur"",""5"",""2809527""
""blur"",""10"",""6101024""
""blur"",""20"",""6238066""
""blur"",""49"",""6567468""
""blur"",""53"",""6584464""
""blur"",""53"",""6594891""
""blur"",""54"",""6623492""
""blur"",""67"",""6689209""
","""event"",""trial"",""time""
""focus"",""1"",""52801""
""focus"",""5"",""2808432""
""focus"",""5"",""6044737""
""focus"",""10"",""6118957""
""focus"",""21"",""6242608""
""focus"",""51"",""6581221""
""focus"",""53"",""6592119""
""focus"",""53"",""6608999""
""focus"",""67"",""6687849""
""focus"",""78"",""6747637""
","""event"",""trial"",""time""
""fullscreenenter"",""1"",""53641""
","""event"",""trial"",""time""
""fullscreenexit"",""2"",""55450""
","","","260.39999997615814","","","22","3338","2425","&#9789;","elianto","#f73b6a7A"," "," ","1","0","[1116.5]","1","0","4","","","","","","","",""
"pit-trial","81","6774836","0.0-2.0-17.5-1.5","battery-v0.2","","""event"",""trial"",""time""
""focus"",""1"",""52801""
""fullscreenenter"",""1"",""53641""
""fullscreenexit"",""2"",""55450""
""blur"",""5"",""72322""
""focus"",""5"",""2808432""
""blur"",""5"",""2809527""
""focus"",""5"",""6044737""
""blur"",""10"",""6101024""
""focus"",""10"",""6118957""
""blur"",""20"",""6238066""
""focus"",""21"",""6242608""
""blur"",""49"",""6567468""
""focus"",""51"",""6581221""
""blur"",""53"",""6584464""
""focus"",""53"",""6592119""
""blur"",""53"",""6594891""
""focus"",""53"",""6608999""
""blur"",""54"",""6623492""
""focus"",""67"",""6687849""
""blur"",""67"",""6689209""
""focus"",""78"",""6747637""
","""event"",""trial"",""time""
""blur"",""5"",""72322""
""blur"",""5"",""2809527""
""blur"",""10"",""6101024""
""blur"",""20"",""6238066""
""blur"",""49"",""6567468""
""blur"",""53"",""6584464""
""blur"",""53"",""6594891""
""blur"",""54"",""6623492""
""blur"",""67"",""6689209""
","""event"",""trial"",""time""
""focus"",""1"",""52801""
""focus"",""5"",""2808432""
""focus"",""5"",""6044737""
""focus"",""10"",""6118957""
""focus"",""21"",""6242608""
""focus"",""51"",""6581221""
""focus"",""53"",""6592119""
""focus"",""53"",""6608999""
""focus"",""67"",""6687849""
""focus"",""78"",""6747637""
","""event"",""trial"",""time""
""fullscreenenter"",""1"",""53641""
","""event"",""trial"",""time""
""fullscreenexit"",""2"",""55450""
","","","411.7999999523163","","","22","3338","2425","&#9789;","elianto","#f73b6a7A"," "," ","1","0","[1261.8999999761581]","1","0","4","","","","","","","",""
"pit-trial","82","6779697","0.0-2.0-17.5-2.5","battery-v0.2","","""event"",""trial"",""time""
""focus"",""1"",""52801""
""fullscreenenter"",""1"",""53641""
""fullscreenexit"",""2"",""55450""
""blur"",""5"",""72322""
""focus"",""5"",""2808432""
""blur"",""5"",""2809527""
""focus"",""5"",""6044737""
""blur"",""10"",""6101024""
""focus"",""10"",""6118957""
""blur"",""20"",""6238066""
""focus"",""21"",""6242608""
""blur"",""49"",""6567468""
""focus"",""51"",""6581221""
""blur"",""53"",""6584464""
""focus"",""53"",""6592119""
""blur"",""53"",""6594891""
""focus"",""53"",""6608999""
""blur"",""54"",""6623492""
""focus"",""67"",""6687849""
""blur"",""67"",""6689209""
""focus"",""78"",""6747637""
","""event"",""trial"",""time""
""blur"",""5"",""72322""
""blur"",""5"",""2809527""
""blur"",""10"",""6101024""
""blur"",""20"",""6238066""
""blur"",""49"",""6567468""
""blur"",""53"",""6584464""
""blur"",""53"",""6594891""
""blur"",""54"",""6623492""
""blur"",""67"",""6689209""
","""event"",""trial"",""time""
""focus"",""1"",""52801""
""focus"",""5"",""2808432""
""focus"",""5"",""6044737""
""focus"",""10"",""6118957""
""focus"",""21"",""6242608""
""focus"",""51"",""6581221""
""focus"",""53"",""6592119""
""focus"",""53"",""6608999""
""focus"",""67"",""6687849""
""focus"",""78"",""6747637""
","""event"",""trial"",""time""
""fullscreenenter"",""1"",""53641""
","""event"",""trial"",""time""
""fullscreenexit"",""2"",""55450""
","","","-1","","","22","3338","2425","&#9789;","elianto","#f73b6a7A"," ","-1","0","-10","[]","0","0","4","","","","","","","",""
"pit-trial","83","6782986","0.0-2.0-17.5-3.5","battery-v0.2","","""event"",""trial"",""time""
""focus"",""1"",""52801""
""fullscreenenter"",""1"",""53641""
""fullscreenexit"",""2"",""55450""
""blur"",""5"",""72322""
""focus"",""5"",""2808432""
""blur"",""5"",""2809527""
""focus"",""5"",""6044737""
""blur"",""10"",""6101024""
""focus"",""10"",""6118957""
""blur"",""20"",""6238066""
""focus"",""21"",""6242608""
""blur"",""49"",""6567468""
""focus"",""51"",""6581221""
""blur"",""53"",""6584464""
""focus"",""53"",""6592119""
""blur"",""53"",""6594891""
""focus"",""53"",""6608999""
""blur"",""54"",""6623492""
""focus"",""67"",""6687849""
""blur"",""67"",""6689209""
""focus"",""78"",""6747637""
","""event"",""trial"",""time""
""blur"",""5"",""72322""
""blur"",""5"",""2809527""
""blur"",""10"",""6101024""
""blur"",""20"",""6238066""
""blur"",""49"",""6567468""
""blur"",""53"",""6584464""
""blur"",""53"",""6594891""
""blur"",""54"",""6623492""
""blur"",""67"",""6689209""
","""event"",""trial"",""time""
""focus"",""1"",""52801""
""focus"",""5"",""2808432""
""focus"",""5"",""6044737""
""focus"",""10"",""6118957""
""focus"",""21"",""6242608""
