"trial_type","trial_index","time_elapsed","internal_node_id","task_version","subject_id","interactions","blur_events","focus_events","fullscreenenter_events","fullscreenexit_events","success","view_history","rt","responses","num_errors","age","subject","participantId","rune","rune_set","hex","correct","choice","accuracy","outcome","keys","total_keys","block","practice","value","sub","trial","stimulus","robot","valence","action","sham"
"pavlovia","0","7","0.0-0.0","battery-v0.2","","""event"",""trial"",""time""
""fullscreenenter"",""1"",""1729""
","
","
","""event"",""trial"",""time""
""fullscreenenter"",""1"",""1729""
","
","","","","","","","","","","","","","","","","","","","","","","","","","","",""
"fullscreen","1","2714","0.0-1.0","battery-v0.2","","""event"",""trial"",""time""
""fullscreenenter"",""1"",""1729""
","
","
","""event"",""trial"",""time""
""fullscreenenter"",""1"",""1729""
","
","true","","","","","","","","","","","","","","","","","","","","","","","","","",""
"pit-instructions","2","7175","0.0-2.0-0.0","battery-v0.2","","""event"",""trial"",""time""
""fullscreenenter"",""1"",""1729""
","
","
","""event"",""trial"",""time""
""fullscreenenter"",""1"",""1729""
","
","","[{""page_index"":0,""viewing_time"":4454.799999952316}]","4455.199999809265","","","","","","","","","","","","","","","","","","","","","","","",""
"pit-comprehension","3","10264","0.0-2.0-1.0-0.0","battery-v0.2","","""event"",""trial"",""time""
""fullscreenenter"",""1"",""1729""
","
","
","""event"",""trial"",""time""
""fullscreenenter"",""1"",""1729""
","
","","","3086.5","[""shark""]","0","18","12352","5357","","","","","","","","","","","","","","","","","","",""
"pit-instructions","4","11599","0.0-2.0-1.0-1.0","battery-v0.2","","""event"",""trial"",""time""
""fullscreenenter"",""1"",""1729""
","
","
","""event"",""trial"",""time""
""fullscreenenter"",""1"",""1729""
","
","","[{""page_index"":0,""viewing_time"":1324.5}]","1324.7000000476837","","","","","","","","","","","","","","","","","","","","","","","",""
"pit-comprehension","5","15024","0.0-2.0-2.0-0.0","battery-v0.2","","""event"",""trial"",""time""
""fullscreenenter"",""1"",""1729""
","
","
","""event"",""trial"",""time""
""fullscreenenter"",""1"",""1729""
","
","","","3421.2000000476837","[""tiger""]","0","18","12352","5357","","","","","","","","","","","","","","","","","","",""
"pit-instructions","6","15999","0.0-2.0-2.0-1.0","battery-v0.2","","""event"",""trial"",""time""
""fullscreenenter"",""1"",""1729""
","
","
","""event"",""trial"",""time""
""fullscreenenter"",""1"",""1729""
","
","","[{""page_index"":0,""viewing_time"":973.1000001430511}]","973.5","","","","","","","","","","","","","","","","","","","","","","","",""
"pit-instructions","7","116979","0.0-2.0-3.0","battery-v0.2","","""event"",""trial"",""time""
""fullscreenenter"",""1"",""1729""
","
","
","""event"",""trial"",""time""
""fullscreenenter"",""1"",""1729""
","
","","[{""page_index"":0,""viewing_time"":10348.799999952316},{""page_index"":1,""viewing_time"":7081.100000143051},{""page_index"":2,""viewing_time"":7159.899999856949},{""page_index"":3,""viewing_time"":5536.400000095367},{""page_index"":4,""viewing_time"":6015.5},{""page_index"":5,""viewing_time"":5799.5},{""page_index"":6,""viewing_time"":7168.700000047684},{""page_index"":7,""viewing_time"":7335.699999809265},{""page_index"":8,""viewing_time"":6984.200000047684},{""page_index"":9,""viewing_time"":8115.299999952316},{""page_index"":10,""viewing_time"":8317},{""page_index"":11,""viewing_time"":8871.5},{""page_index"":12,""viewing_time"":6342.300000190735},{""page_index"":13,""viewing_time"":5901.099999904633}]","100977.29999995232","","","","","","","","","","","","","","","","","","","","","","","",""
"pit-trial","8","119910","0.0-2.0-4.0-0.0","battery-v0.2","","""event"",""trial"",""time""
""fullscreenenter"",""1"",""1729""
","
","
","""event"",""trial"",""time""
""fullscreenenter"",""1"",""1729""
","
","","","72.40000009536743","","","18","12352","5357","&#9784;","elianto","#FFFFF080"," "," ","1","&#10004","[928.3999998569489,1703.8999998569489]","2","0","0","","","","","","","",""
"pit-trial","9","123457","0.0-2.0-4.1-0.1","battery-v0.2","","""event"",""trial"",""time""
""fullscreenenter"",""1"",""1729""
","
","
","""event"",""trial"",""time""
""fullscreenenter"",""1"",""1729""
","
","","","684.6000001430511","","","18","12352","5357","&#9784;","elianto","#FFFFF080"," "," ","1","&#10004","[1542.1000001430511]","1","0","0","","","","","","","",""
"pit-trial","10","127070","0.0-2.0-4.2-0.2","battery-v0.2","","""event"",""trial"",""time""
""fullscreenenter"",""1"",""1729""
","
","
","""event"",""trial"",""time""
""fullscreenenter"",""1"",""1729""
","
","","","735.7999999523163","","","18","12352","5357","&#9784;","elianto","#FFFFF080"," "," ","1","&#10004","[1595.7000000476837]","1","0","0","","","","","","","",""
"pit-trial","11","130449","0.0-2.0-4.3-0.3","battery-v0.2","","""event"",""trial"",""time""
""fullscreenenter"",""1"",""1729""
","
","
","""event"",""trial"",""time""
""fullscreenenter"",""1"",""1729""
","
","","","513.7999999523163","","","18","12352","5357","&#9784;","elianto","#FFFFF080"," "," ","1","&#10004","[1365.7999999523163]","1","0","0","","","","","","","",""
"pit-trial","12","134017","0.0-2.0-4.4-0.4","battery-v0.2","","""event"",""trial"",""time""
""fullscreenenter"",""1"",""1729""
","
","
","""event"",""trial"",""time""
""fullscreenenter"",""1"",""1729""
","
","","","706.6000001430511","","","18","12352","5357","&#9784;","elianto","#FFFFF080"," "," ","1","&#10004","[1558.0999999046326]","1","0","0","","","","","","","",""
"pit-instructions","13","169216","0.0-2.0-5.0","battery-v0.2","","""event"",""trial"",""time""
""fullscreenenter"",""1"",""1729""
","
","
","""event"",""trial"",""time""
""fullscreenenter"",""1"",""1729""
","
","","[{""page_index"":0,""viewing_time"":11149.399999856949},{""page_index"":1,""viewing_time"":8884.5},{""page_index"":2,""viewing_time"":9438.5},{""page_index"":3,""viewing_time"":5720.400000095367}]","35193.699999809265","","","","","","","","","","","","","","","","","","","","","","","",""
"pit-trial","14","174091","0.0-2.0-6.0-0.0","battery-v0.2","","""event"",""trial"",""time""
""fullscreenenter"",""1"",""1729""
","
","
","""event"",""trial"",""time""
""fullscreenenter"",""1"",""1729""
","
","","","-1","","","18","12352","5357","&#9854;","elianto","#FFFFF080","-1","-1","1","&#10004","[]","0","0","1","","","","","","","",""
"pit-trial","15","178959","0.0-2.0-6.1-0.1","battery-v0.2","","""event"",""trial"",""time""
""fullscreenenter"",""1"",""1729""
","
","
","""event"",""trial"",""time""
""fullscreenenter"",""1"",""1729""
","
","","","-1","","","18","12352","5357","&#9854;","elianto","#FFFFF080","-1","-1","1","&#10004","[]","0","0","1","","","","","","","",""
"pit-trial","16","183820","0.0-2.0-6.2-0.2","battery-v0.2","","""event"",""trial"",""time""
""fullscreenenter"",""1"",""1729""
","
","
","""event"",""trial"",""time""
""fullscreenenter"",""1"",""1729""
","
","","","-1","","","18","12352","5357","&#9854;","elianto","#FFFFF080","-1","-1","1","&#10004","[]","0","0","1","","","","","","","",""
"pit-trial","17","188687","0.0-2.0-6.3-0.3","battery-v0.2","","""event"",""trial"",""time""
""fullscreenenter"",""1"",""1729""
","
","
","""event"",""trial"",""time""
""fullscreenenter"",""1"",""1729""
","
","","","-1","","","18","12352","5357","&#9854;","elianto","#FFFFF080","-1","-1","1","&#10004","[]","0","0","1","","","","","","","",""
"pit-trial","18","193569","0.0-2.0-6.4-0.4","battery-v0.2","","""event"",""trial"",""time""
""fullscreenenter"",""1"",""1729""
","
","
","""event"",""trial"",""time""
""fullscreenenter"",""1"",""1729""
","
","","","-1","","","18","12352","5357","&#9854;","elianto","#FFFFF080","-1","-1","1","&#10004","[]","0","0","1","","","","","","","",""
"pit-instructions","19","314296","0.0-2.0-7.0","battery-v0.2","","""event"",""trial"",""time""
""fullscreenenter"",""1"",""1729""
","
","
","""event"",""trial"",""time""
""fullscreenenter"",""1"",""1729""
","
","","[{""page_index"":0,""viewing_time"":8143.299999952316},{""page_index"":1,""viewing_time"":7884.5},{""page_index"":2,""viewing_time"":6496.300000190735},{""page_index"":3,""viewing_time"":7504.799999952316},{""page_index"":4,""viewing_time"":6948.599999904633},{""page_index"":5,""viewing_time"":5786.799999952316},{""page_index"":6,""viewing_time"":4862.400000095367},{""page_index"":7,""viewing_time"":8321.599999904633},{""page_index"":8,""viewing_time"":6658.400000095367},{""page_index"":9,""viewing_time"":6006.099999904633},{""page_index"":10,""viewing_time"":6926},{""page_index"":11,""viewing_time"":4047.2000000476837},{""page_index"":12,""viewing_time"":7026.100000143051},{""page_index"":13,""viewing_time"":7319.799999952316},{""page_index"":14,""viewing_time"":6715.799999952316},{""page_index"":15,""viewing_time"":6618.099999904633},{""page_index"":16,""viewing_time"":6455.600000143051},{""page_index"":17,""viewing_time"":6998.399999856949}]","120720.40000009537","","","","","","","","","","","","","","","","","","","","","","","",""
"pit-trial","20","317862","0.0-2.0-8.0-0.0","battery-v0.2","","""event"",""trial"",""time""
""fullscreenenter"",""1"",""1729""
","
","
","""event"",""trial"",""time""
""fullscreenenter"",""1"",""1729""
","
","","","702.5","","","18","12352","5357","&#9776;","elianto","#3366ff99"," "," ","1","+10","[1552.2000000476837]","1","0","1","","","","","","","",""
"pit-trial","21","321336","0.0-2.0-8.0-1.0","battery-v0.2","","""event"",""trial"",""time""
""fullscreenenter"",""1"",""1729""
","
","
","""event"",""trial"",""time""
""fullscreenenter"",""1"",""1729""
","
","","","614.2000000476837","","","18","12352","5357","&#9776;","elianto","#3366ff99"," "," ","1","+10","[1467.2000000476837]","1","0","1","","","","","","","",""
"pit-trial","22","324918","0.0-2.0-8.0-2.0","battery-v0.2","","""event"",""trial"",""time""
""fullscreenenter"",""1"",""1729""
","
","
","""event"",""trial"",""time""
""fullscreenenter"",""1"",""1729""
","
","","","704.7000000476837","","","18","12352","5357","&#9776;","elianto","#3366ff99"," "," ","1","+10","[1567.6999998092651]","1","0","1","","","","","","","",""
"pit-trial","23","328411","0.0-2.0-8.0-3.0","battery-v0.2","","""event"",""trial"",""time""
""fullscreenenter"",""1"",""1729""
","
","
","""event"",""trial"",""time""
""fullscreenenter"",""1"",""1729""
","
","","","625.7000000476837","","","18","12352","5357","&#9776;","elianto","#3366ff99"," "," ","1","0","[1489.6000001430511]","1","0","1","","","","","","","",""
"pit-trial","24","331799","0.0-2.0-8.0-4.0","battery-v0.2","","""event"",""trial"",""time""
""fullscreenenter"",""1"",""1729""
","
","
","""event"",""trial"",""time""
""fullscreenenter"",""1"",""1729""
","
","","","525.2999999523163","","","18","12352","5357","&#9776;","elianto","#3366ff99"," "," ","1","+10","[1378.9000000953674]","1","0","1","","","","","","","",""
"pit-trial","25","335233","0.0-2.0-8.1-0.1","battery-v0.2","","""event"",""trial"",""time""
""fullscreenenter"",""1"",""1729""
","
","
","""event"",""trial"",""time""
""fullscreenenter"",""1"",""1729""
","
","","","570.3999998569489","","","18","12352","5357","&#9776;","elianto","#3366ff99"," "," ","1","+10","[1421.7999999523163]","1","0","1","","","","","","","",""
"pit-trial","26","338584","0.0-2.0-8.1-1.1","battery-v0.2","","""event"",""trial"",""time""
""fullscreenenter"",""1"",""1729""
","
","
","""event"",""trial"",""time""
""fullscreenenter"",""1"",""1729""
","
","","","479.89999985694885","","","18","12352","5357","&#9776;","elianto","#3366ff99"," "," ","1","+10","[1333.3999998569489]","1","0","1","","","","","","","",""
"pit-trial","27","342037","0.0-2.0-8.1-2.1","battery-v0.2","","""event"",""trial"",""time""
""fullscreenenter"",""1"",""1729""
","
","
","""event"",""trial"",""time""
""fullscreenenter"",""1"",""1729""
","
","","","586.9000000953674","","","18","12352","5357","&#9776;","elianto","#3366ff99"," "," ","1","+10","[1438.2000000476837]","1","0","1","","","","","","","",""
"pit-trial","28","345376","0.0-2.0-8.1-3.1","battery-v0.2","","""event"",""trial"",""time""
""fullscreenenter"",""1"",""1729""
","
","
","""event"",""trial"",""time""
""fullscreenenter"",""1"",""1729""
","
","","","484.10000014305115","","","18","12352","5357","&#9776;","elianto","#3366ff99"," "," ","1","0","[1335.2000000476837]","1","0","1","","","","","","","",""
"pit-trial","29","348681","0.0-2.0-8.1-4.1","battery-v0.2","","""event"",""trial"",""time""
""fullscreenenter"",""1"",""1729""
","
","
","""event"",""trial"",""time""
""fullscreenenter"",""1"",""1729""
","
","","","451.59999990463257","","","18","12352","5357","&#9776;","elianto","#3366ff99"," "," ","1","+10","[1302.6999998092651]","1","0","1","","","","","","","",""
"pit-trial","30","351945","0.0-2.0-8.2-0.2","battery-v0.2","","""event"",""trial"",""time""
""fullscreenenter"",""1"",""1729""
","
","
","""event"",""trial"",""time""
""fullscreenenter"",""1"",""1729""
","
","","","410.90000009536743","","","18","12352","5357","&#9776;","elianto","#3366ff99"," "," ","1","+10","[1261.4000000953674]","1","0","1","","","","","","","",""
"pit-trial","31","355183","0.0-2.0-8.2-1.2","battery-v0.2","","""event"",""trial"",""time""
""fullscreenenter"",""1"",""1729""
","
","
","""event"",""trial"",""time""
""fullscreenenter"",""1"",""1729""
","
","","","381.40000009536743","","","18","12352","5357","&#9776;","elianto","#3366ff99"," "," ","1","+10","[1231.4000000953674]","1","0","1","","","","","","","",""
"pit-trial","32","358470","0.0-2.0-8.2-2.2","battery-v0.2","","""event"",""trial"",""time""
""fullscreenenter"",""1"",""1729""
","
","
","""event"",""trial"",""time""
""fullscreenenter"",""1"",""1729""
","
","","","433","","","18","12352","5357","&#9776;","elianto","#3366ff99"," "," ","1","+10","[1284.1000001430511]","1","0","1","","","","","","","",""
"pit-trial","33","361892","0.0-2.0-8.2-3.2","battery-v0.2","","""event"",""trial"",""time""
""fullscreenenter"",""1"",""1729""
","
","
","""event"",""trial"",""time""
""fullscreenenter"",""1"",""1729""
","
","","","567.7000000476837","","","18","12352","5357","&#9776;","elianto","#3366ff99"," "," ","1","0","[1419]","1","0","1","","","","","","","",""
"pit-trial","34","365207","0.0-2.0-8.2-4.2","battery-v0.2","","""event"",""trial"",""time""
""fullscreenenter"",""1"",""1729""
","
","
","""event"",""trial"",""time""
""fullscreenenter"",""1"",""1729""
","
","","","448.2999999523163","","","18","12352","5357","&#9776;","elianto","#3366ff99"," "," ","1","+10","[1298.5999999046326]","1","0","1","","","","","","","",""
"call-function","35","365210","0.0-2.0-9.0","battery-v0.2","","""event"",""trial"",""time""
""fullscreenenter"",""1"",""1729""
","
","
","""event"",""trial"",""time""
""fullscreenenter"",""1"",""1729""
","
","","","","","","","","","","","","","","","","","","","","","","","","","","",""
"pit-instructions","36","409530","0.0-2.0-10.0","battery-v0.2","","""event"",""trial"",""time""
""fullscreenenter"",""1"",""1729""
","
","
","""event"",""trial"",""time""
""fullscreenenter"",""1"",""1729""
","
","","[{""page_index"":0,""viewing_time"":6113.5},{""page_index"":1,""viewing_time"":7963},{""page_index"":2,""viewing_time"":9329.600000143051},{""page_index"":3,""viewing_time"":12900.099999904633},{""page_index"":4,""viewing_time"":8012.900000095367}]","44319.5","","","","","","","","","","","","","","","","","","","","","","","",""
"pit-trial","37","414398","0.0-2.0-11.0-0.0","battery-v0.2","","""event"",""trial"",""time""
""fullscreenenter"",""1"",""1729""
","
","
","""event"",""trial"",""time""
""fullscreenenter"",""1"",""1729""
","
","","","-1","","","18","12352","5357","&#9761;","elianto","#3366ff99","-1","-1","1","+10","[]","0","0","2","","","","","","","",""
"pit-trial","38","419273","0.0-2.0-11.0-1.0","battery-v0.2","","""event"",""trial"",""time""
""fullscreenenter"",""1"",""1729""
","
","
","""event"",""trial"",""time""
""fullscreenenter"",""1"",""1729""
","
","","","-1","","","18","12352","5357","&#9761;","elianto","#3366ff99","-1","-1","1","+10","[]","0","0","2","","","","","","","",""
"pit-trial","39","424139","0.0-2.0-11.0-2.0","battery-v0.2","","""event"",""trial"",""time""
""fullscreenenter"",""1"",""1729""
","
","
","""event"",""trial"",""time""
""fullscreenenter"",""1"",""1729""
","
","","","-1","","","18","12352","5357","&#9761;","elianto","#3366ff99","-1","-1","1","+10","[]","0","0","2","","","","","","","",""
"pit-trial","40","428994","0.0-2.0-11.0-3.0","battery-v0.2","","""event"",""trial"",""time""
""fullscreenenter"",""1"",""1729""
","
","
","""event"",""trial"",""time""
""fullscreenenter"",""1"",""1729""
","
","","","-1","","","18","12352","5357","&#9761;","elianto","#3366ff99","-1","-1","1","0","[]","0","0","2","","","","","","","",""
"pit-trial","41","433855","0.0-2.0-11.0-4.0","battery-v0.2","","""event"",""trial"",""time""
""fullscreenenter"",""1"",""1729""
","
","
","""event"",""trial"",""time""
""fullscreenenter"",""1"",""1729""
","
","","","-1","","","18","12352","5357","&#9761;","elianto","#3366ff99","-1","-1","1","+10","[]","0","0","2","","","","","","","",""
"pit-trial","42","438726","0.0-2.0-11.1-0.1","battery-v0.2","","""event"",""trial"",""time""
""fullscreenenter"",""1"",""1729""
","
","
","""event"",""trial"",""time""
""fullscreenenter"",""1"",""1729""
","
","","","-1","","","18","12352","5357","&#9761;","elianto","#3366ff99","-1","-1","1","+10","[]","0","0","2","","","","","","","",""
"pit-trial","43","443580","0.0-2.0-11.1-1.1","battery-v0.2","","""event"",""trial"",""time""
""fullscreenenter"",""1"",""1729""
","
","
","""event"",""trial"",""time""
""fullscreenenter"",""1"",""1729""
","
","","","-1","","","18","12352","5357","&#9761;","elianto","#3366ff99","-1","-1","1","+10","[]","0","0","2","","","","","","","",""
"pit-trial","44","448434","0.0-2.0-11.1-2.1","battery-v0.2","","""event"",""trial"",""time""
""fullscreenenter"",""1"",""1729""
","
","
","""event"",""trial"",""time""
""fullscreenenter"",""1"",""1729""
","
","","","-1","","","18","12352","5357","&#9761;","elianto","#3366ff99","-1","-1","1","+10","[]","0","0","2","","","","","","","",""
"pit-trial","45","453289","0.0-2.0-11.1-3.1","battery-v0.2","","""event"",""trial"",""time""
""fullscreenenter"",""1"",""1729""
","
","
","""event"",""trial"",""time""
""fullscreenenter"",""1"",""1729""
","
","","","-1","","","18","12352","5357","&#9761;","elianto","#3366ff99","-1","-1","1","0","[]","0","0","2","","","","","","","",""
"pit-trial","46","458142","0.0-2.0-11.1-4.1","battery-v0.2","","""event"",""trial"",""time""
""fullscreenenter"",""1"",""1729""
","
","
","""event"",""trial"",""time""
""fullscreenenter"",""1"",""1729""
","
","","","-1","","","18","12352","5357","&#9761;","elianto","#3366ff99","-1","-1","1","+10","[]","0","0","2","","","","","","","",""
"pit-trial","47","462996","0.0-2.0-11.2-0.2","battery-v0.2","","""event"",""trial"",""time""
""fullscreenenter"",""1"",""1729""
","
","
","""event"",""trial"",""time""
""fullscreenenter"",""1"",""1729""
","
","","","-1","","","18","12352","5357","&#9761;","elianto","#3366ff99","-1","-1","1","+10","[]","0","0","2","","","","","","","",""
"pit-trial","48","467850","0.0-2.0-11.2-1.2","battery-v0.2","","""event"",""trial"",""time""
""fullscreenenter"",""1"",""1729""
","
","
","""event"",""trial"",""time""
""fullscreenenter"",""1"",""1729""
","
","","","-1","","","18","12352","5357","&#9761;","elianto","#3366ff99","-1","-1","1","+10","[]","0","0","2","","","","","","","",""
"pit-trial","49","472704","0.0-2.0-11.2-2.2","battery-v0.2","","""event"",""trial"",""time""
""fullscreenenter"",""1"",""1729""
","
","
","""event"",""trial"",""time""
""fullscreenenter"",""1"",""1729""
","
","","","-1","","","18","12352","5357","&#9761;","elianto","#3366ff99","-1","-1","1","+10","[]","0","0","2","","","","","","","",""
"pit-trial","50","477558","0.0-2.0-11.2-3.2","battery-v0.2","","""event"",""trial"",""time""
""fullscreenenter"",""1"",""1729""
","
","
","""event"",""trial"",""time""
""fullscreenenter"",""1"",""1729""
","
","","","-1","","","18","12352","5357","&#9761;","elianto","#3366ff99","-1","-1","1","0","[]","0","0","2","","","","","","","",""
"pit-trial","51","482412","0.0-2.0-11.2-4.2","battery-v0.2","","""event"",""trial"",""time""
""fullscreenenter"",""1"",""1729""
","
","
","""event"",""trial"",""time""
""fullscreenenter"",""1"",""1729""
","
","","","-1","","","18","12352","5357","&#9761;","elianto","#3366ff99","-1","-1","1","+10","[]","0","0","2","","","","","","","",""
"pit-trial","52","487266","0.0-2.0-11.3-0.3","battery-v0.2","","""event"",""trial"",""time""
""fullscreenenter"",""1"",""1729""
","
","
","""event"",""trial"",""time""
""fullscreenenter"",""1"",""1729""
","
","","","-1","","","18","12352","5357","&#9761;","elianto","#3366ff99","-1","-1","1","+10","[]","0","0","2","","","","","","","",""
"pit-trial","53","492122","0.0-2.0-11.3-1.3","battery-v0.2","","""event"",""trial"",""time""
""fullscreenenter"",""1"",""1729""
","
","
","""event"",""trial"",""time""
""fullscreenenter"",""1"",""1729""
","
","","","-1","","","18","12352","5357","&#9761;","elianto","#3366ff99","-1","-1","1","+10","[]","0","0","2","","","","","","","",""
"pit-trial","54","496977","0.0-2.0-11.3-2.3","battery-v0.2","","""event"",""trial"",""time""
""fullscreenenter"",""1"",""1729""
","
","
","""event"",""trial"",""time""
""fullscreenenter"",""1"",""1729""
","
","","","-1","","","18","12352","5357","&#9761;","elianto","#3366ff99","-1","-1","1","+10","[]","0","0","2","","","","","","","",""
"pit-trial","55","501831","0.0-2.0-11.3-3.3","battery-v0.2","","""event"",""trial"",""time""
""fullscreenenter"",""1"",""1729""
","
","
","""event"",""trial"",""time""
""fullscreenenter"",""1"",""1729""
","
","","","-1","","","18","12352","5357","&#9761;","elianto","#3366ff99","-1","-1","1","0","[]","0","0","2","","","","","","","",""
"pit-trial","56","506686","0.0-2.0-11.3-4.3","battery-v0.2","","""event"",""trial"",""time""
""fullscreenenter"",""1"",""1729""
","
","
","""event"",""trial"",""time""
""fullscreenenter"",""1"",""1729""
","
","","","-1","","","18","12352","5357","&#9761;","elianto","#3366ff99","-1","-1","1","+10","[]","0","0","2","","","","","","","",""
"call-function","57","506688","0.0-2.0-12.0","battery-v0.2","","""event"",""trial"",""time""
""fullscreenenter"",""1"",""1729""
","
","
","""event"",""trial"",""time""
""fullscreenenter"",""1"",""1729""
","
","","","","","","","","","","","","","","","","","","","","","","","","","","",""
"pit-instructions","58","548486","0.0-2.0-13.0","battery-v0.2","","""event"",""trial"",""time""
""fullscreenenter"",""1"",""1729""
","
","
","""event"",""trial"",""time""
""fullscreenenter"",""1"",""1729""
","
","","[{""page_index"":0,""viewing_time"":7032.200000047684},{""page_index"":1,""viewing_time"":8814.200000047684},{""page_index"":2,""viewing_time"":4162.599999904633},{""page_index"":3,""viewing_time"":12317.700000047684},{""page_index"":4,""viewing_time"":9469.400000095367}]","41796.5","","","","","","","","","","","","","","","","","","","","","","","",""
"pit-trial","59","553350","0.0-2.0-14.0-0.0","battery-v0.2","","""event"",""trial"",""time""
""fullscreenenter"",""1"",""1729""
","
","
","""event"",""trial"",""time""
""fullscreenenter"",""1"",""1729""
","
","","","-1","","","18","12352","5357","&#9826;","elianto","#f73b6a7A","-1","-1","1","0","[]","0","0","3","","","","","","","",""
"pit-trial","60","558214","0.0-2.0-14.0-1.0","battery-v0.2","","""event"",""trial"",""time""
""fullscreenenter"",""1"",""1729""
","
","
","""event"",""trial"",""time""
""fullscreenenter"",""1"",""1729""
","
","","","-1","","","18","12352","5357","&#9826;","elianto","#f73b6a7A","-1","-1","1","0","[]","0","0","3","","","","","","","",""
"pit-trial","61","563096","0.0-2.0-14.0-2.0","battery-v0.2","","""event"",""trial"",""time""
""fullscreenenter"",""1"",""1729""
","
","
","""event"",""trial"",""time""
""fullscreenenter"",""1"",""1729""
","
","","","-1","","","18","12352","5357","&#9826;","elianto","#f73b6a7A","-1","-1","1","0","[]","0","0","3","","","","","","","",""
"pit-trial","62","567965","0.0-2.0-14.0-3.0","battery-v0.2","","""event"",""trial"",""time""
""fullscreenenter"",""1"",""1729""
","
","
","""event"",""trial"",""time""
""fullscreenenter"",""1"",""1729""
","
","","","-1","","","18","12352","5357","&#9826;","elianto","#f73b6a7A","-1","-1","1","-10","[]","0","0","3","","","","","","","",""
"pit-trial","63","572835","0.0-2.0-14.0-4.0","battery-v0.2","","""event"",""trial"",""time""
""fullscreenenter"",""1"",""1729""
","
","
","""event"",""trial"",""time""
""fullscreenenter"",""1"",""1729""
","
","","","-1","","","18","12352","5357","&#9826;","elianto","#f73b6a7A","-1","-1","1","0","[]","0","0","3","","","","","","","",""
"pit-trial","64","577701","0.0-2.0-14.1-0.1","battery-v0.2","","""event"",""trial"",""time""
""fullscreenenter"",""1"",""1729""
","
","
","""event"",""trial"",""time""
""fullscreenenter"",""1"",""1729""
","
","","","-1","","","18","12352","5357","&#9826;","elianto","#f73b6a7A","-1","-1","1","0","[]","0","0","3","","","","","","","",""
"pit-trial","65","582555","0.0-2.0-14.1-1.1","battery-v0.2","","""event"",""trial"",""time""
""fullscreenenter"",""1"",""1729""
","
","
","""event"",""trial"",""time""
""fullscreenenter"",""1"",""1729""
","
","","","-1","","","18","12352","5357","&#9826;","elianto","#f73b6a7A","-1","-1","1","0","[]","0","0","3","","","","","","","",""
"pit-trial","66","587410","0.0-2.0-14.1-2.1","battery-v0.2","","""event"",""trial"",""time""
""fullscreenenter"",""1"",""1729""
","
","
","""event"",""trial"",""time""
""fullscreenenter"",""1"",""1729""
","
","","","-1","","","18","12352","5357","&#9826;","elianto","#f73b6a7A","-1","-1","1","0","[]","0","0","3","","","","","","","",""
"pit-trial","67","592264","0.0-2.0-14.1-3.1","battery-v0.2","","""event"",""trial"",""time""
""fullscreenenter"",""1"",""1729""
","
","
","""event"",""trial"",""time""
""fullscreenenter"",""1"",""1729""
","
","","","-1","","","18","12352","5357","&#9826;","elianto","#f73b6a7A","-1","-1","1","-10","[]","0","0","3","","","","","","","",""
"pit-trial","68","597122","0.0-2.0-14.1-4.1","battery-v0.2","","""event"",""trial"",""time""
""fullscreenenter"",""1"",""1729""
","
","
","""event"",""trial"",""time""
""fullscreenenter"",""1"",""1729""
","
","","","-1","","","18","12352","5357","&#9826;","elianto","#f73b6a7A","-1","-1","1","0","[]","0","0","3","","","","","","","",""
"pit-trial","69","601976","0.0-2.0-14.2-0.2","battery-v0.2","","""event"",""trial"",""time""
""fullscreenenter"",""1"",""1729""
","
","
","""event"",""trial"",""time""
""fullscreenenter"",""1"",""1729""
","
","","","-1","","","18","12352","5357","&#9826;","elianto","#f73b6a7A","-1","-1","1","0","[]","0","0","3","","","","","","","",""
"pit-trial","70","606830","0.0-2.0-14.2-1.2","battery-v0.2","","""event"",""trial"",""time""
""fullscreenenter"",""1"",""1729""
","
","
","""event"",""trial"",""time""
""fullscreenenter"",""1"",""1729""
","
","","","-1","","","18","12352","5357","&#9826;","elianto","#f73b6a7A","-1","-1","1","0","[]","0","0","3","","","","","","","",""
"pit-trial","71","611684","0.0-2.0-14.2-2.2","battery-v0.2","","""event"",""trial"",""time""
""fullscreenenter"",""1"",""1729""
","
","
","""event"",""trial"",""time""
""fullscreenenter"",""1"",""1729""
","
","","","-1","","","18","12352","5357","&#9826;","elianto","#f73b6a7A","-1","-1","1","0","[]","0","0","3","","","","","","","",""
"pit-trial","72","616539","0.0-2.0-14.2-3.2","battery-v0.2","","""event"",""trial"",""time""
""fullscreenenter"",""1"",""1729""
","
","
","""event"",""trial"",""time""
""fullscreenenter"",""1"",""1729""
","
","","","-1","","","18","12352","5357","&#9826;","elianto","#f73b6a7A","-1","-1","1","-10","[]","0","0","3","","","","","","","",""
"pit-trial","73","621394","0.0-2.0-14.2-4.2","battery-v0.2","","""event"",""trial"",""time""
""fullscreenenter"",""1"",""1729""
","
","
","""event"",""trial"",""time""
""fullscreenenter"",""1"",""1729""
","
","","","-1","","","18","12352","5357","&#9826;","elianto","#f73b6a7A","-1","-1","1","0","[]","0","0","3","","","","","","","",""
"pit-trial","74","626250","0.0-2.0-14.3-0.3","battery-v0.2","","""event"",""trial"",""time""
""fullscreenenter"",""1"",""1729""
","
","
","""event"",""trial"",""time""
""fullscreenenter"",""1"",""1729""
","
","","","-1","","","18","12352","5357","&#9826;","elianto","#f73b6a7A","-1","-1","1","0","[]","0","0","3","","","","","","","",""
"pit-trial","75","631102","0.0-2.0-14.3-1.3","battery-v0.2","","""event"",""trial"",""time""
""fullscreenenter"",""1"",""1729""
","
","
","""event"",""trial"",""time""
""fullscreenenter"",""1"",""1729""
","
","","","-1","","","18","12352","5357","&#9826;","elianto","#f73b6a7A","-1","-1","1","0","[]","0","0","3","","","","","","","",""
"pit-trial","76","635955","0.0-2.0-14.3-2.3","battery-v0.2","","""event"",""trial"",""time""
""fullscreenenter"",""1"",""1729""
","
","
","""event"",""trial"",""time""
""fullscreenenter"",""1"",""1729""
","
","","","-1","","","18","12352","5357","&#9826;","elianto","#f73b6a7A","-1","-1","1","0","[]","0","0","3","","","","","","","",""
"pit-trial","77","640810","0.0-2.0-14.3-3.3","battery-v0.2","","""event"",""trial"",""time""
""fullscreenenter"",""1"",""1729""
","
","
","""event"",""trial"",""time""
""fullscreenenter"",""1"",""1729""
","
","","","-1","","","18","12352","5357","&#9826;","elianto","#f73b6a7A","-1","-1","1","-10","[]","0","0","3","","","","","","","",""
"pit-trial","78","645664","0.0-2.0-14.3-4.3","battery-v0.2","","""event"",""trial"",""time""
""fullscreenenter"",""1"",""1729""
","
","
","""event"",""trial"",""time""
""fullscreenenter"",""1"",""1729""
","
","","","-1","","","18","12352","5357","&#9826;","elianto","#f73b6a7A","-1","-1","1","0","[]","0","0","3","","","","","","","",""
"call-function","79","645667","0.0-2.0-15.0","battery-v0.2","","""event"",""trial"",""time""
""fullscreenenter"",""1"",""1729""
","
","
","""event"",""trial"",""time""
""fullscreenenter"",""1"",""1729""
","
","","","","","","","","","","","","","","","","","","","","","","","","","","",""
"pit-instructions","80","684123","0.0-2.0-16.0","battery-v0.2","","""event"",""trial"",""time""
""fullscreenenter"",""1"",""1729""
","
","
","""event"",""trial"",""time""
""fullscreenenter"",""1"",""1729""
","
","","[{""page_index"":0,""viewing_time"":16675.299999952316},{""page_index"":1,""viewing_time"":9712.400000095367},{""page_index"":2,""viewing_time"":5751.700000047684},{""page_index"":3,""viewing_time"":6320.599999904633}]","38460.40000009537","","","","","","","","","","","","","","","","","","","","","","","",""
"pit-trial","81","687832","0.0-2.0-17.0-0.0","battery-v0.2","","""event"",""trial"",""time""
""fullscreenenter"",""1"",""1729""
","
","
","""event"",""trial"",""time""
""fullscreenenter"",""1"",""1729""
","
","","","843.1999998092651","","","18","12352","5357","&#9789;","elianto","#f73b6a7A"," "," ","1","0","[1705.8999998569489]","1","0","4","","","","","","","",""
"pit-trial","82","690987","0.0-2.0-17.0-1.0","battery-v0.2","","""event"",""trial"",""time""
""fullscreenenter"",""1"",""1729""
","
","
","""event"",""trial"",""time""
""fullscreenenter"",""1"",""1729""
","
","","","284.5","","","18","12352","5357","&#9789;","elianto","#f73b6a7A"," "," ","1","0","[1138.4000000953674]","1","0","4","","","","","","","",""
"pit-trial","83","694306","0.0-2.0-17.0-2.0","battery-v0.2","","""event"",""trial"",""time""
""fullscreenenter"",""1"",""1729""
","
","
","""event"",""trial"",""time""
""fullscreenenter"",""1"",""1729""
","
","","","458.80000019073486","","","18","12352","5357","&#9789;","elianto","#f73b6a7A"," "," ","1","0","[1309.3000001907349]","1","0","4","","","","","","","",""
"pit-trial","84","697663","0.0-2.0-17.0-3.0","battery-v0.2","","""event"",""trial"",""time""
""fullscreenenter"",""1"",""1729""
","
","
","""event"",""trial"",""time""
""fullscreenenter"",""1"",""1729""
","
","","","486","","","18","12352","5357","&#9789;","elianto","#f73b6a7A"," "," ","1","-10","[1347.3000001907349]","1","0","4","","","","","","","",""
"pit-trial","85","700971","0.0-2.0-17.0-4.0","battery-v0.2","","""event"",""trial"",""time""
""fullscreenenter"",""1"",""1729""
","
","
","""event"",""trial"",""time""
""fullscreenenter"",""1"",""1729""
","
","","","439.2999999523163","","","18","12352","5357","&#9789;","elianto","#f73b6a7A"," "," ","1","0","[1295.4000000953674]","1","0","4","","","","","","","",""
"pit-trial","86","704206","0.0-2.0-17.1-0.1","battery-v0.2","","""event"",""trial"",""time""
""fullscreenenter"",""1"",""1729""
","
","
","""event"",""trial"",""time""
""fullscreenenter"",""1"",""1729""
","
","","","375.10000014305115","","","18","12352","5357","&#9789;","elianto","#f73b6a7A"," "," ","1","0","[1225.9000000953674]","1","0","4","","","","","","","",""
"pit-trial","87","707473","0.0-2.0-17.1-1.1","battery-v0.2","","""event"",""trial"",""time""
""fullscreenenter"",""1"",""1729""
","
","
","""event"",""trial"",""time""
""fullscreenenter"",""1"",""1729""
","
","","","403.2999999523163","","","18","12352","5357","&#9789;","elianto","#f73b6a7A"," "," ","1","0","[1253.7999999523163]","1","0","4","","","","","","","",""
"pit-trial","88","710854","0.0-2.0-17.1-2.1","battery-v0.2","","""event"",""trial"",""time""
""fullscreenenter"",""1"",""1729""
","
","
","""event"",""trial"",""time""
""fullscreenenter"",""1"",""1729""
","
","","","503.7999999523163","","","18","12352","5357","&#9789;","elianto","#f73b6a7A"," "," ","1","0","[1366.5]","1","0","4","","","","","","","",""
"pit-trial","89","714062","0.0-2.0-17.1-3.1","battery-v0.2","","""event"",""trial"",""time""
""fullscreenenter"",""1"",""1729""
","
","
","""event"",""trial"",""time""
""fullscreenenter"",""1"",""1729""
","
","","","351.90000009536743","","","18","12352","5357","&#9789;","elianto","#f73b6a7A"," "," ","1","-10","[1204.4000000953674]","1","0","4","","","","","","","",""
"pit-trial","90","717274","0.0-2.0-17.1-4.1","battery-v0.2","","""event"",""trial"",""time""
""fullscreenenter"",""1"",""1729""
","
","
","""event"",""trial"",""time""
""fullscreenenter"",""1"",""1729""
","
","","","352","","","18","12352","5357","&#9789;","elianto","#f73b6a7A"," "," ","1","0","[1209.7999999523163]","1","0","4","","","","","","","",""
"pit-trial","91","720647","0.0-2.0-17.2-0.2","battery-v0.2","","""event"",""trial"",""time""
""fullscreenenter"",""1"",""1729""
","
","
","""event"",""trial"",""time""
""fullscreenenter"",""1"",""1729""
","
","","","517.4000000953674","","","18","12352","5357","&#9789;","elianto","#f73b6a7A"," "," ","1","0","[1367.8999998569489]","1","0","4","","","","","","","",""
"pit-trial","92","723936","0.0-2.0-17.2-1.2","battery-v0.2","","""event"",""trial"",""time""
""fullscreenenter"",""1"",""1729""
","
","
","""event"",""trial"",""time""
""fullscreenenter"",""1"",""1729""
","
","","","431","","","18","12352","5357","&#9789;","elianto","#f73b6a7A"," "," ","1","0","[1281.5999999046326]","1","0","4","","","","","","","",""
"pit-trial","93","727236","0.0-2.0-17.2-2.2","battery-v0.2","","""event"",""trial"",""time""
""fullscreenenter"",""1"",""1729""
","
","
","""event"",""trial"",""time""
""fullscreenenter"",""1"",""1729""
","
","","","445.10000014305115","","","18","12352","5357","&#9789;","elianto","#f73b6a7A"," "," ","1","0","[1296.2000000476837]","1","0","4","","","","","","","",""
"pit-trial","94","730634","0.0-2.0-17.2-3.2","battery-v0.2","","""event"",""trial"",""time""
""fullscreenenter"",""1"",""1729""
","
","
","""event"",""trial"",""time""
""fullscreenenter"",""1"",""1729""
","
","","","530.7999999523163","","","18","12352","5357","&#9789;","elianto","#f73b6a7A"," "," ","1","-10","[1381]","1","0","4","","","","","","","",""
"pit-trial","95","734070","0.0-2.0-17.2-4.2","battery-v0.2","","""event"",""trial"",""time""
""fullscreenenter"",""1"",""1729""
","
","
","""event"",""trial"",""time""
""fullscreenenter"",""1"",""1729""
","
","","","583.2000000476837","","","18","12352","5357","&#9789;","elianto","#f73b6a7A"," "," ","1","0","[1433.7000000476837]","1","0","4","","","","","","","",""
"pit-trial","96","737436","0.0-2.0-17.3-0.3","battery-v0.2","","""event"",""trial"",""time""
""fullscreenenter"",""1"",""1729""
","
","
","""event"",""trial"",""time""
""fullscreenenter"",""1"",""1729""
","
","","","510.59999990463257","","","18","12352","5357","&#9789;","elianto","#f73b6a7A"," "," ","1","0","[1361.9000000953674]","1","0","4","","","","","","","",""
"pit-trial","97","740865","0.0-2.0-17.3-1.3","battery-v0.2","","""event"",""trial"",""time""
""fullscreenenter"",""1"",""1729""
","
","
","""event"",""trial"",""time""
""fullscreenenter"",""1"",""1729""
","
","","","575.7999999523163","","","18","12352","5357","&#9789;","elianto","#f73b6a7A"," "," ","1","0","[1427]","1","0","4","","","","","","","",""
"pit-trial","98","744213","0.0-2.0-17.3-2.3","battery-v0.2","","""event"",""trial"",""time""
""fullscreenenter"",""1"",""1729""
","
","
","""event"",""trial"",""time""
""fullscreenenter"",""1"",""1729""
","
","","","493.5","","","18","12352","5357","&#9789;","elianto","#f73b6a7A"," "," ","1","0","[1344.5]","1","0","4","","","","","","","",""
"pit-trial","99","747725","0.0-2.0-17.3-3.3","battery-v0.2","","""event"",""trial"",""time""
""fullscreenenter"",""1"",""1729""
","
","
","""event"",""trial"",""time""
""fullscreenenter"",""1"",""1729""
","
","","","658.5999999046326","","","18","12352","5357","&#9789;","elianto","#f73b6a7A"," "," ","1","-10","[1508.7999999523163]","1","0","4","","","","","","","",""
"pit-trial","100","751030","0.0-2.0-17.3-4.3","battery-v0.2","","""event"",""trial"",""time""
""fullscreenenter"",""1"",""1729""
","
","
","""event"",""trial"",""time""
""fullscreenenter"",""1"",""1729""
","
","","","452.19999980926514","","","18","12352","5357","&#9789;","elianto","#f73b6a7A"," "," ","1","0","[1302.7999999523163]","1","0","4","","","","","","","",""
"call-function","101","751033","0.0-2.0-18.0","battery-v0.2","","""event"",""trial"",""time""
""fullscreenenter"",""1"",""1729""
","
","
","""event"",""trial"",""time""
""fullscreenenter"",""1"",""1729""
","
","","","","","","","","","","","","","","","","","","","","","","","","","","",""
"pit-instructions","102","831761","0.0-2.0-19.0","battery-v0.2","","""event"",""trial"",""time""
""fullscreenenter"",""1"",""1729""
","
","
","""event"",""trial"",""time""
""fullscreenenter"",""1"",""1729""
","
","","[{""page_index"":0,""viewing_time"":12049.899999856949},{""page_index"":1,""viewing_time"":7426.800000190735},{""page_index"":2,""viewing_time"":15034.399999856949},{""page_index"":3,""viewing_time"":8624.299999952316},{""page_index"":4,""viewing_time"":8743.800000190735},{""page_index"":5,""viewing_time"":9332.899999856949},{""page_index"":6,""viewing_time"":8873.400000095367},{""page_index"":7,""viewing_time"":6216.799999952316},{""page_index"":8,""viewing_time"":4423.900000095367}]","80726.70000004768","","","","","","","","","","","","","","","","","","","","","","","",""
"pit-comprehension","103","836224","0.0-2.0-20.0-0.0","battery-v0.2","","""event"",""trial"",""time""
""fullscreenenter"",""1"",""1729""
","
","
","""event"",""trial"",""time""
""fullscreenenter"",""1"",""1729""
","
","","","4460.600000143051","[""SPACE""]","0","18","12352","5357","","","","","","","","","","","","","","","","","","",""
"pit-instructions","104","846680","0.0-2.0-20.0-1.0","battery-v0.2","","""event"",""trial"",""time""
""fullscreenenter"",""1"",""1729""
","
","
","""event"",""trial"",""time""
""fullscreenenter"",""1"",""1729""
","
","","[{""page_index"":0,""viewing_time"":10427}]","10427.299999952316","","","","","","","","","","","","","","","","","","","","","","","",""
"pit-comprehension","105","853552","0.0-2.0-21.0-0.0","battery-v0.2","","""event"",""trial"",""time""
""fullscreenenter"",""1"",""1729""
","
","
","""event"",""trial"",""time""
""fullscreenenter"",""1"",""1729""
","
","","","6869.600000143051","[""10""]","0","18","12352","5357","","","","","","","","","","","","","","","","","","",""
"pit-instructions","106","855168","0.0-2.0-21.0-1.0","battery-v0.2","","""event"",""trial"",""time""
""fullscreenenter"",""1"",""1729""
","
","
","""event"",""trial"",""time""
""fullscreenenter"",""1"",""1729""
","
","","[{""page_index"":0,""viewing_time"":1589.4000000953674}]","1589.9000000953674","","","","","","","","","","","","","","","","","","","","","","","",""
"pit-comprehension","107","861617","0.0-2.0-22.0-0.0","battery-v0.2","","""event"",""trial"",""time""
""fullscreenenter"",""1"",""1729""
","
","
","""event"",""trial"",""time""
""fullscreenenter"",""1"",""1729""
","
","","","6445.5","[""0""]","0","18","12352","5357","","","","","","","","","","","","","","","","","","",""
"pit-instructions","108","863784","0.0-2.0-22.0-1.0","battery-v0.2","","""event"",""trial"",""time""
""fullscreenenter"",""1"",""1729""
","
","
","""event"",""trial"",""time""
""fullscreenenter"",""1"",""1729""
","
","","[{""page_index"":0,""viewing_time"":2143.7000000476837}]","2144","","","","","","","","","","","","","","","","","","","","","","","",""
"pit-comprehension","109","874039","0.0-2.0-23.0-0.0","battery-v0.2","","""event"",""trial"",""time""
""fullscreenenter"",""1"",""1729""
","
","
","""event"",""trial"",""time""
""fullscreenenter"",""1"",""1729""
","
","","","10252.700000047684","[""True""]","0","18","12352","5357","","","","","","","","","","","","","","","","","","",""
"pit-instructions","110","885703","0.0-2.0-23.0-1.0","battery-v0.2","","""event"",""trial"",""time""
""fullscreenenter"",""1"",""1729""
","
","
","""event"",""trial"",""time""
""fullscreenenter"",""1"",""1729""
","
","","[{""page_index"":0,""viewing_time"":11638.900000095367}]","11639.200000047684","","","","","","","","","","","","","","","","","","","","","","","",""
"pit-comprehension","111","893713","0.0-2.0-24.0-0.0","battery-v0.2","","""event"",""trial"",""time""
""fullscreenenter"",""1"",""1729""
","
","
","""event"",""trial"",""time""
""fullscreenenter"",""1"",""1729""
","
","","","8007.099999904633","[""True""]","0","18","12352","5357","","","","","","","","","","","","","","","","","","",""
"pit-instructions","112","897392","0.0-2.0-24.0-1.0","battery-v0.2","","""event"",""trial"",""time""
""fullscreenenter"",""1"",""1729""
","
","
","""event"",""trial"",""time""
""fullscreenenter"",""1"",""1729""
","
","","[{""page_index"":0,""viewing_time"":3654.899999856949}]","3655.2000000476837","","","","","","","","","","","","","","","","","","","","","","","",""
"pit-comprehension","113","904024","0.0-2.0-25.0-0.0","battery-v0.2","","""event"",""trial"",""time""
""fullscreenenter"",""1"",""1729""
","
","
","""event"",""trial"",""time""
""fullscreenenter"",""1"",""1729""
","
","","","6629.699999809265","[""True""]","0","18","12352","5357","","","","","","","","","","","","","","","","","","",""
"pit-instructions","114","905848","0.0-2.0-25.0-1.0","battery-v0.2","","""event"",""trial"",""time""
""fullscreenenter"",""1"",""1729""
","
","
","""event"",""trial"",""time""
""fullscreenenter"",""1"",""1729""
","
","","[{""page_index"":0,""viewing_time"":1799.2999999523163}]","1799.5","","","","","","","","","","","","","","","","","","","","","","","",""
"pit-comprehension","115","911480","0.0-2.0-26.0-0.0","battery-v0.2","","""event"",""trial"",""time""
""fullscreenenter"",""1"",""1729""
","
","
","""event"",""trial"",""time""
""fullscreenenter"",""1"",""1729""
","
","","","5629.900000095367","[""False""]","0","18","12352","5357","","","","","","","","","","","","","","","","","","",""
"pit-instructions","116","914736","0.0-2.0-26.0-1.0","battery-v0.2","","""event"",""trial"",""time""
""fullscreenenter"",""1"",""1729""
","
","
","""event"",""trial"",""time""
""fullscreenenter"",""1"",""1729""
","
","","[{""page_index"":0,""viewing_time"":3226.7000000476837}]","3227","","","","","","","","","","","","","","","","","","","","","","","",""
"pit-instructions","117","933191","0.0-3.0","battery-v0.2","","""event"",""trial"",""time""
""fullscreenenter"",""1"",""1729""
","
","
","""event"",""trial"",""time""
""fullscreenenter"",""1"",""1729""
","
","","[{""page_index"":0,""viewing_time"":5509.299999952316},{""page_index"":1,""viewing_time"":5104.700000047684},{""page_index"":2,""viewing_time"":7838.5}]","18452.900000095367","","","","","","","","","","","","","","","","","","","","","","","",""
"pit-trial","118","938069","0.0-4.0","battery-v0.2","","""event"",""trial"",""time""
""fullscreenenter"",""1"",""1729""
","
","
","""event"",""trial"",""time""
""fullscreenenter"",""1"",""1729""
","
","","","-1","","","18","12352","5357","&#9752;","elianto","#f73b6a7A"," ","-1","0","0","[]","0","1","","","12352","1","3","3","lose","go","1"
"pit-trial","119","941495","0.0-5.0","battery-v0.2","","""event"",""trial"",""time""
""fullscreenenter"",""1"",""1729""
","
","
","""event"",""trial"",""time""
""fullscreenenter"",""1"",""1729""
","
","","","563.2999999523163","","","18","12352","5357","&#9730;","elianto","#3366ff99"," "," ","1","+10","[1420.1000001430511]","1","1","","","12352","2","1","1","win","go","0"
"pit-trial","120","945445","0.0-6.0","battery-v0.2","","""event"",""trial"",""time""
""fullscreenenter"",""1"",""1729""
","
","
","""event"",""trial"",""time""
""fullscreenenter"",""1"",""1729""
","
","","","1084.0999999046326","","","18","12352","5357","&#9733;","elianto","#3366ff99","-1"," ","0","0","[1939.3999998569489]","1","1","","","12352","3","2","2","win","no-go","0"
"pit-trial","121","950311","0.0-7.0","battery-v0.2","","""event"",""trial"",""time""
""fullscreenenter"",""1"",""1729""
","
","
","""event"",""trial"",""time""
""fullscreenenter"",""1"",""1729""
","
","","","-1","","","18","12352","5357","&#9728;","elianto","#f73b6a7A","-1","-1","1","0","[]","0","1","","","12352","4","0","4","lose","no-go","0"
"pit-trial","122","953992","0.0-8.0","battery-v0.2","","""event"",""trial"",""time""
""fullscreenenter"",""1"",""1729""
","
","
","""event"",""trial"",""time""
""fullscreenenter"",""1"",""1729""
","
","","","824.7000000476837","","","18","12352","5357","&#9733;","elianto","#3366ff99","-1"," ","0","0","[1674.9000000953674]","1","1","","","12352","5","2","2","win","no-go","0"
"pit-trial","123","958861","0.0-9.0","battery-v0.2","","""event"",""trial"",""time""
""fullscreenenter"",""1"",""1729""
","
","
","""event"",""trial"",""time""
""fullscreenenter"",""1"",""1729""
","
","","","-1","","","18","12352","5357","&#9728;","elianto","#f73b6a7A","-1","-1","1","-10","[]","0","1","","","12352","6","0","4","lose","no-go","1"
"pit-trial","124","963722","0.0-10.0","battery-v0.2","","""event"",""trial"",""time""
""fullscreenenter"",""1"",""1729""
","
","
","""event"",""trial"",""time""
""fullscreenenter"",""1"",""1729""
","
","","","-1","","","18","12352","5357","&#9752;","elianto","#f73b6a7A"," ","-1","0","0","[]","0","1","","","12352","7","3","3","lose","go","1"
"pit-trial","125","967779","0.0-11.0","battery-v0.2","","""event"",""trial"",""time""
""fullscreenenter"",""1"",""1729""
","
","
","""event"",""trial"",""time""
""fullscreenenter"",""1"",""1729""
","
","","","1203","","","18","12352","5357","&#9730;","elianto","#3366ff99"," "," ","1","+10","[2053.9000000953674]","1","1","","","12352","8","1","1","win","go","0"
"pit-trial","126","971540","0.0-12.0","battery-v0.2","","""event"",""trial"",""time""
""fullscreenenter"",""1"",""1729""
","
","
","""event"",""trial"",""time""
""fullscreenenter"",""1"",""1729""
","
","","","907.0999999046326","","","18","12352","5357","&#9728;","elianto","#f73b6a7A","-1"," ","0","-10","[1757.2999999523163]","1","1","","","12352","9","0","4","lose","no-go","0"
"pit-trial","127","976395","0.0-13.0","battery-v0.2","","""event"",""trial"",""time""
""fullscreenenter"",""1"",""1729""
","
","
","""event"",""trial"",""time""
""fullscreenenter"",""1"",""1729""
","
","","","-1","","","18","12352","5357","&#9752;","elianto","#f73b6a7A"," ","-1","0","-10","[]","0","1","","","12352","10","3","3","lose","go","0"
"pit-trial","128","979838","0.0-14.0","battery-v0.2","","""event"",""trial"",""time""
""fullscreenenter"",""1"",""1729""
","
","
","""event"",""trial"",""time""
""fullscreenenter"",""1"",""1729""
","
","","","589.5999999046326","","","18","12352","5357","&#9730;","elianto","#3366ff99"," "," ","1","+10","[1439.7999999523163]","1","1","","","12352","11","1","1","win","go","0"
"pit-trial","129","984693","0.0-15.0","battery-v0.2","","""event"",""trial"",""time""
""fullscreenenter"",""1"",""1729""
","
","
","""event"",""trial"",""time""
""fullscreenenter"",""1"",""1729""
","
","","","-1","","","18","12352","5357","&#9733;","elianto","#3366ff99","-1","-1","1","+10","[]","0","1","","","12352","12","2","2","win","no-go","0"
"pit-trial","130","988290","0.0-16.0","battery-v0.2","","""event"",""trial"",""time""
""fullscreenenter"",""1"",""1729""
","
","
","""event"",""trial"",""time""
""fullscreenenter"",""1"",""1729""
","
","","","743.5999999046326","","","18","12352","5357","&#9733;","elianto","#3366ff99","-1"," ","0","0","[1593.8999998569489]","1","1","","","12352","13","2","2","win","no-go","0"
"pit-trial","131","993145","0.0-17.0","battery-v0.2","","""event"",""trial"",""time""
""fullscreenenter"",""1"",""1729""
","
","
","""event"",""trial"",""time""
""fullscreenenter"",""1"",""1729""
","
","","","-1","","","18","12352","5357","&#9752;","elianto","#f73b6a7A"," ","-1","0","-10","[]","0","1","","","12352","14","3","3","lose","go","0"
"pit-trial","132","996702","0.0-18.0","battery-v0.2","","""event"",""trial"",""time""
""fullscreenenter"",""1"",""1729""
","
","
","""event"",""trial"",""time""
""fullscreenenter"",""1"",""1729""
","
","","","703.9000000953674","","","18","12352","5357","&#9730;","elianto","#3366ff99"," "," ","1","+10","[1554.5]","1","1","","","12352","15","1","1","win","go","0"
"pit-trial","133","1001557","0.0-19.0","battery-v0.2","","""event"",""trial"",""time""
""fullscreenenter"",""1"",""1729""
","
","
","""event"",""trial"",""time""
""fullscreenenter"",""1"",""1729""
","
","","","-1","","","18","12352","5357","&#9728;","elianto","#f73b6a7A","-1","-1","1","-10","[]","0","1","","","12352","16","0","4","lose","no-go","1"
"pit-trial","134","1006411","0.0-20.0","battery-v0.2","","""event"",""trial"",""time""
""fullscreenenter"",""1"",""1729""
","
","
","""event"",""trial"",""time""
""fullscreenenter"",""1"",""1729""
","
","","","-1","","","18","12352","5357","&#9733;","elianto","#3366ff99","-1","-1","1","+10","[]","0","1","","","12352","17","2","2","win","no-go","0"
"pit-trial","135","1009756","0.0-21.0","battery-v0.2","","""event"",""trial"",""time""
""fullscreenenter"",""1"",""1729""
","
","
","""event"",""trial"",""time""
""fullscreenenter"",""1"",""1729""
","
","","","491","","","18","12352","5357","&#9752;","elianto","#f73b6a7A"," "," ","1","0","[1341.1999998092651]","1","1","","","12352","18","3","3","lose","go","0"
"pit-trial","136","1013223","0.0-22.0","battery-v0.2","","""event"",""trial"",""time""
""fullscreenenter"",""1"",""1729""
","
","
","""event"",""trial"",""time""
""fullscreenenter"",""1"",""1729""
","
","","","612","","","18","12352","5357","&#9728;","elianto","#f73b6a7A","-1"," ","0","0","[1461.9000000953674]","1","1","","","12352","19","0","4","lose","no-go","1"
"pit-trial","137","1016901","0.0-23.0","battery-v0.2","","""event"",""trial"",""time""
""fullscreenenter"",""1"",""1729""
","
","
","""event"",""trial"",""time""
""fullscreenenter"",""1"",""1729""
","
","","","823.7999999523163","","","18","12352","5357","&#9730;","elianto","#3366ff99"," "," ","1","+10","[1674.1999998092651]","1","1","","","12352","20","1","1","win","go","0"
"pit-instructions","138","1030157","0.0-24.0","battery-v0.2","","""event"",""trial"",""time""
""fullscreenenter"",""1"",""1729""
","
","
","""event"",""trial"",""time""
""fullscreenenter"",""1"",""1729""
","
","","[{""page_index"":0,""viewing_time"":6234.099999904633},{""page_index"":1,""viewing_time"":7017.400000095367}]","13252.399999856949","","","","","","","","","","","","","","","","","","","","","","","",""
"pit-trial","139","1033739","0.0-25.0","battery-v0.2","","""event"",""trial"",""time""
""fullscreenenter"",""1"",""1729""
","
","
","""event"",""trial"",""time""
""fullscreenenter"",""1"",""1729""
","
","","","714.5","","","18","12352","5357","h","elianto","#f73b6a7A"," "," ","1","-10","[1572.7000000476837]","1","2","","","12352","21","3","3","lose","go","1"
"pit-trial","140","1038598","0.0-26.0","battery-v0.2","","""event"",""trial"",""time""
""fullscreenenter"",""1"",""1729""
","
","
","""event"",""trial"",""time""
""fullscreenenter"",""1"",""1729""
","
","","","-1","","","18","12352","5357","y","elianto","#f73b6a7A","-1","-1","1","0","[]","0","2","","","12352","22","2","4","lose","no-go","0"
"pit-trial","141","1043470","0.0-27.0","battery-v0.2","","""event"",""trial"",""time""
""fullscreenenter"",""1"",""1729""
","
","
","""event"",""trial"",""time""
""fullscreenenter"",""1"",""1729""
","
","","","-1","","","18","12352","5357","m","elianto","#f73b6a7A","-1","-1","1","0","[]","0","2","","","12352","23","0","4","lose","no-go","0"
"pit-trial","142","1047031","0.0-28.0","battery-v0.2","","""event"",""trial"",""time""
""fullscreenenter"",""1"",""1729""
","
","
","""event"",""trial"",""time""
""fullscreenenter"",""1"",""1729""
","
","","","683.2999999523163","","","18","12352","5357","r","elianto","#3366ff99"," "," ","1","+10","[1544.5]","1","2","","","12352","24","1","1","win","go","0"
"pit-trial","143","1051903","0.0-29.0","battery-v0.2","","""event"",""trial"",""time""
""fullscreenenter"",""1"",""1729""
","
","
","""event"",""trial"",""time""
""fullscreenenter"",""1"",""1729""
","
","","","-1","","","18","12352","5357","h","elianto","#f73b6a7A"," ","-1","0","-10","[]","0","2","","","12352","25","3","3","lose","go","0"
"pit-trial","144","1056769","0.0-30.0","battery-v0.2","","""event"",""trial"",""time""
""fullscreenenter"",""1"",""1729""
","
","
","""event"",""trial"",""time""
""fullscreenenter"",""1"",""1729""
","
","","","-1","","","18","12352","5357","m","elianto","#f73b6a7A","-1","-1","1","0","[]","0","2","","","12352","26","0","4","lose","no-go","0"
"pit-trial","145","1060415","0.0-31.0","battery-v0.2","","""event"",""trial"",""time""
""fullscreenenter"",""1"",""1729""
","
","
","""event"",""trial"",""time""
""fullscreenenter"",""1"",""1729""
","
","","","777.7000000476837","","","18","12352","5357","r","elianto","#3366ff99"," "," ","1","+10","[1640.7999999523163]","1","2","","","12352","27","1","1","win","go","0"
"pit-trial","146","1065269","0.0-32.0","battery-v0.2","","""event"",""trial"",""time""
""fullscreenenter"",""1"",""1729""
","
","
","""event"",""trial"",""time""
""fullscreenenter"",""1"",""1729""
","
","","","-1","","","18","12352","5357","y","elianto","#f73b6a7A","-1","-1","1","0","[]","0","2","","","12352","28","2","4","lose","no-go","0"
"pit-trial","147","1070124","0.0-33.0","battery-v0.2","","""event"",""trial"",""time""
""fullscreenenter"",""1"",""1729""
","
","
","""event"",""trial"",""time""
""fullscreenenter"",""1"",""1729""
","
","","","-1","","","18","12352","5357","y","elianto","#f73b6a7A","-1","-1","1","0","[]","0","2","","","12352","29","2","4","lose","no-go","0"
"pit-trial","148","1074978","0.0-34.0","battery-v0.2","","""event"",""trial"",""time""
""fullscreenenter"",""1"",""1729""
","
","
","""event"",""trial"",""time""
""fullscreenenter"",""1"",""1729""
","
","","","-1","","","18","12352","5357","m","elianto","#f73b6a7A","-1","-1","1","0","[]","0","2","","","12352","30","0","4","lose","no-go","0"
"pit-trial","149","1079846","0.0-35.0","battery-v0.2","","""event"",""trial"",""time""
""fullscreenenter"",""1"",""1729""
","
","
","""event"",""trial"",""time""
""fullscreenenter"",""1"",""1729""
","
","","","-1","","","18","12352","5357","h","elianto","#f73b6a7A"," ","-1","0","0","[]","0","2","","","12352","31","3","3","lose","go","1"
"pit-trial","150","1083825","0.0-36.0","battery-v0.2","","""event"",""trial"",""time""
""fullscreenenter"",""1"",""1729""
","
","
","""event"",""trial"",""time""
""fullscreenenter"",""1"",""1729""
","
","","","1123.4000000953674","","","18","12352","5357","r","elianto","#3366ff99"," "," ","1","+10","[1974.1000001430511]","1","2","","","12352","32","1","1","win","go","0"
"pit-trial","151","1088679","0.0-37.0","battery-v0.2","","""event"",""trial"",""time""
""fullscreenenter"",""1"",""1729""
","
","
","""event"",""trial"",""time""
""fullscreenenter"",""1"",""1729""
","
","","","-1","","","18","12352","5357","h","elianto","#f73b6a7A"," ","-1","0","-10","[]","0","2","","","12352","33","3","3","lose","go","0"
"pit-trial","152","1093534","0.0-38.0","battery-v0.2","","""event"",""trial"",""time""
""fullscreenenter"",""1"",""1729""
","
","
","""event"",""trial"",""time""
""fullscreenenter"",""1"",""1729""
","
","","","-1","","","18","12352","5357","m","elianto","#f73b6a7A","-1","-1","1","-10","[]","0","2","","","12352","34","0","4","lose","no-go","1"
"pit-trial","153","1097079","0.0-39.0","battery-v0.2","","""event"",""trial"",""time""
""fullscreenenter"",""1"",""1729""
","
","
","""event"",""trial"",""time""
""fullscreenenter"",""1"",""1729""
","
","","","691.7999999523163","","","18","12352","5357","r","elianto","#3366ff99"," "," ","1","+10","[1541.9000000953674]","1","2","","","12352","35","1","1","win","go","0"
"pit-trial","154","1101933","0.0-40.0","battery-v0.2","","""event"",""trial"",""time""
""fullscreenenter"",""1"",""1729""
","
","
","""event"",""trial"",""time""
""fullscreenenter"",""1"",""1729""
","
","","","-1","","","18","12352","5357","y","elianto","#f73b6a7A","-1","-1","1","0","[]","0","2","","","12352","36","2","4","lose","no-go","0"
"pit-trial","155","1105491","0.0-41.0","battery-v0.2","","""event"",""trial"",""time""
""fullscreenenter"",""1"",""1729""
","
","
","""event"",""trial"",""time""
""fullscreenenter"",""1"",""1729""
","
","","","703.1999998092651","","","18","12352","5357","r","elianto","#3366ff99"," "," ","1","+10","[1554]","1","2","","","12352","37","1","1","win","go","0"
"pit-trial","156","1110348","0.0-42.0","battery-v0.2","","""event"",""trial"",""time""
""fullscreenenter"",""1"",""1729""
","
","
","""event"",""trial"",""time""
""fullscreenenter"",""1"",""1729""
","
","","","-1","","","18","12352","5357","y","elianto","#f73b6a7A","-1","-1","1","-10","[]","0","2","","","12352","38","2","4","lose","no-go","1"
"pit-trial","157","1114451","0.0-43.0","battery-v0.2","","""event"",""trial"",""time""
""fullscreenenter"",""1"",""1729""
","
","
","""event"",""trial"",""time""
""fullscreenenter"",""1"",""1729""
","
","","","1250.2999999523163","","","18","12352","5357","h","elianto","#f73b6a7A"," "," ","1","0","[2100.7999999523163]","1","2","","","12352","39","3","3","lose","go","0"
"pit-trial","158","1119305","0.0-44.0","battery-v0.2","","""event"",""trial"",""time""
""fullscreenenter"",""1"",""1729""
","
","
","""event"",""trial"",""time""
""fullscreenenter"",""1"",""1729""
","
","","","-1","","","18","12352","5357","m","elianto","#f73b6a7A","-1","-1","1","0","[]","0","2","","","12352","40","0","4","lose","no-go","0"
"pit-trial","159","1124160","0.0-45.0","battery-v0.2","","""event"",""trial"",""time""
""fullscreenenter"",""1"",""1729""
","
","
","""event"",""trial"",""time""
""fullscreenenter"",""1"",""1729""
","
","","","-1","","","18","12352","5357","y","elianto","#f73b6a7A","-1","-1","1","-10","[]","0","2","","","12352","41","2","4","lose","no-go","1"
"pit-trial","160","1129015","0.0-46.0","battery-v0.2","","""event"",""trial"",""time""
""fullscreenenter"",""1"",""1729""
","
","
","""event"",""trial"",""time""
""fullscreenenter"",""1"",""1729""
","
","","","-1","","","18","12352","5357","m","elianto","#f73b6a7A","-1","-1","1","0","[]","0","2","","","12352","42","0","4","lose","no-go","0"
"pit-trial","161","1133869","0.0-47.0","battery-v0.2","","""event"",""trial"",""time""
""fullscreenenter"",""1"",""1729""
","
","
","""event"",""trial"",""time""
""fullscreenenter"",""1"",""1729""
","
","","","-1","","","18","12352","5357","h","elianto","#f73b6a7A"," ","-1","0","0","[]","0","2","","","12352","43","3","3","lose","go","1"
"pit-trial","162","1137442","0.0-48.0","battery-v0.2","","""event"",""trial"",""time""
""fullscreenenter"",""1"",""1729""
","
","
","""event"",""trial"",""time""
""fullscreenenter"",""1"",""1729""
","
","","","717.3000001907349","","","18","12352","5357","r","elianto","#3366ff99"," "," ","1","+10","[1567.8000001907349]","1","2","","","12352","44","1","1","win","go","0"
"pit-trial","163","1142297","0.0-49.0","battery-v0.2","","""event"",""trial"",""time""
""fullscreenenter"",""1"",""1729""
","
","
","""event"",""trial"",""time""
""fullscreenenter"",""1"",""1729""
","
","","","-1","","","18","12352","5357","h","elianto","#f73b6a7A"," ","-1","0","-10","[]","0","2","","","12352","45","3","3","lose","go","0"
"pit-trial","164","1147152","0.0-50.0","battery-v0.2","","""event"",""trial"",""time""
""fullscreenenter"",""1"",""1729""
","
","
","""event"",""trial"",""time""
""fullscreenenter"",""1"",""1729""
","
","","","-1","","","18","12352","5357","m","elianto","#f73b6a7A","-1","-1","1","0","[]","0","2","","","12352","46","0","4","lose","no-go","0"
"pit-trial","165","1152008","0.0-51.0","battery-v0.2","","""event"",""trial"",""time""
""fullscreenenter"",""1"",""1729""
","
","
","""event"",""trial"",""time""
""fullscreenenter"",""1"",""1729""
","
","","","-1","","","18","12352","5357","y","elianto","#f73b6a7A","-1","-1","1","0","[]","0","2","","","12352","47","2","4","lose","no-go","0"
"pit-trial","166","1155775","0.0-52.0","battery-v0.2","","""event"",""trial"",""time""
""fullscreenenter"",""1"",""1729""
","
","
","""event"",""trial"",""time""
""fullscreenenter"",""1"",""1729""
","
","","","915.0999999046326","","","18","12352","5357","z","elianto","#3366ff99","-1"," ","0","+10","[1765.7000000476837]","1","2","","","12352","48","4","2","win","no-go","1"
"pit-trial","167","1159355","0.0-53.0","battery-v0.2","","""event"",""trial"",""time""
""fullscreenenter"",""1"",""1729""
","
","
","""event"",""trial"",""time""
""fullscreenenter"",""1"",""1729""
","
","","","725.9000000953674","","","18","12352","5357","r","elianto","#3366ff99"," "," ","1","0","[1576.2999999523163]","1","2","","","12352","49","1","1","win","go","1"
"pit-trial","168","1162850","0.0-54.0","battery-v0.2","","""event"",""trial"",""time""
""fullscreenenter"",""1"",""1729""
","
","
","""event"",""trial"",""time""
""fullscreenenter"",""1"",""1729""
","
","","","637.3000001907349","","","18","12352","5357","h","elianto","#f73b6a7A"," "," ","1","0","[1490.4000000953674]","1","2","","","12352","50","3","3","lose","go","0"
"pit-trial","169","1166553","0.0-55.0","battery-v0.2","","""event"",""trial"",""time""
""fullscreenenter"",""1"",""1729""
","
","
","""event"",""trial"",""time""
""fullscreenenter"",""1"",""1729""
","
","","","849.1999998092651","","","18","12352","5357","z","elianto","#3366ff99","-1"," ","0","0","[1699.8999998569489]","1","2","","","12352","51","4","2","win","no-go","0"
"pit-trial","170","1171407","0.0-56.0","battery-v0.2","","""event"",""trial"",""time""
""fullscreenenter"",""1"",""1729""
","
","
","""event"",""trial"",""time""
""fullscreenenter"",""1"",""1729""
","
","","","-1","","","18","12352","5357","m","elianto","#f73b6a7A","-1","-1","1","0","[]","0","2","","","12352","52","0","4","lose","no-go","0"
"pit-trial","171","1176261","0.0-57.0","battery-v0.2","","""event"",""trial"",""time""
""fullscreenenter"",""1"",""1729""
","
","
","""event"",""trial"",""time""
""fullscreenenter"",""1"",""1729""
","
","","","-1","","","18","12352","5357","y","elianto","#f73b6a7A","-1","-1","1","0","[]","0","2","","","12352","53","2","4","lose","no-go","0"
"pit-trial","172","1181115","0.0-58.0","battery-v0.2","","""event"",""trial"",""time""
""fullscreenenter"",""1"",""1729""
","
","
","""event"",""trial"",""time""
""fullscreenenter"",""1"",""1729""
","
","","","-1","","","18","12352","5357","z","elianto","#3366ff99","-1","-1","1","+10","[]","0","2","","","12352","54","4","2","win","no-go","0"
"pit-trial","173","1185969","0.0-59.0","battery-v0.2","","""event"",""trial"",""time""
""fullscreenenter"",""1"",""1729""
","
","
","""event"",""trial"",""time""
""fullscreenenter"",""1"",""1729""
","
","","","-1","","","18","12352","5357","m","elianto","#f73b6a7A","-1","-1","1","0","[]","0","2","","","12352","55","0","4","lose","no-go","0"
"pit-trial","174","1189622","0.0-60.0","battery-v0.2","","""event"",""trial"",""time""
""fullscreenenter"",""1"",""1729""
","
","
","""event"",""trial"",""time""
""fullscreenenter"",""1"",""1729""
","
","","","798.0999999046326","","","18","12352","5357","r","elianto","#3366ff99"," "," ","1","0","[1649.2999999523163]","1","2","","","12352","56","1","1","win","go","1"
"pit-trial","175","1193429","0.0-61.0","battery-v0.2","","""event"",""trial"",""time""
""fullscreenenter"",""1"",""1729""
","
","
","""event"",""trial"",""time""
""fullscreenenter"",""1"",""1729""
","
","","","954.0999999046326","","","18","12352","5357","r","elianto","#3366ff99"," "," ","1","+10","[1804.1999998092651]","1","2","","","12352","57","1","1","win","go","0"
"pit-trial","176","1197045","0.0-62.0","battery-v0.2","","""event"",""trial"",""time""
""fullscreenenter"",""1"",""1729""
","
","
","""event"",""trial"",""time""
""fullscreenenter"",""1"",""1729""
","
","","","763.8999998569489","","","18","12352","5357","h","elianto","#f73b6a7A"," "," ","1","0","[1614.7000000476837]","1","2","","","12352","58","3","3","lose","go","0"
"pit-trial","177","1201899","0.0-63.0","battery-v0.2","","""event"",""trial"",""time""
""fullscreenenter"",""1"",""1729""
","
","
","""event"",""trial"",""time""
""fullscreenenter"",""1"",""1729""
","
","","","-1","","","18","12352","5357","z","elianto","#3366ff99","-1","-1","1","+10","[]","0","2","","","12352","59","4","2","win","no-go","0"
"pit-trial","178","1206752","0.0-64.0","battery-v0.2","","""event"",""trial"",""time""
""fullscreenenter"",""1"",""1729""
","
","
","""event"",""trial"",""time""
""fullscreenenter"",""1"",""1729""
","
","","","-1","","","18","12352","5357","m","elianto","#f73b6a7A","-1","-1","1","0","[]","0","2","","","12352","60","0","4","lose","no-go","0"
"pit-trial","179","1210659","0.0-65.0","battery-v0.2","","""event"",""trial"",""time""
""fullscreenenter"",""1"",""1729""
","
","
","""event"",""trial"",""time""
""fullscreenenter"",""1"",""1729""
","
","","","1052.8000001907349","","","18","12352","5357","h","elianto","#f73b6a7A"," "," ","1","-10","[1903.1000001430511]","1","2","","","12352","61","3","3","lose","go","1"
"pit-trial","180","1215514","0.0-66.0","battery-v0.2","","""event"",""trial"",""time""
""fullscreenenter"",""1"",""1729""
","
","
","""event"",""trial"",""time""
""fullscreenenter"",""1"",""1729""
","
","","","-1","","","18","12352","5357","y","elianto","#f73b6a7A","-1","-1","1","-10","[]","0","2","","","12352","62","2","4","lose","no-go","1"
"pit-trial","181","1219194","0.0-67.0","battery-v0.2","","""event"",""trial"",""time""
""fullscreenenter"",""1"",""1729""
","
","
","""event"",""trial"",""time""
""fullscreenenter"",""1"",""1729""
","
","","","824.5","","","18","12352","5357","r","elianto","#3366ff99"," "," ","1","+10","[1676.4000000953674]","1","2","","","12352","63","1","1","win","go","0"
"pit-trial","182","1224049","0.0-68.0","battery-v0.2","","""event"",""trial"",""time""
""fullscreenenter"",""1"",""1729""
","
","
","""event"",""trial"",""time""
""fullscreenenter"",""1"",""1729""
","
","","","-1","","","18","12352","5357","z","elianto","#3366ff99","-1","-1","1","+10","[]","0","2","","","12352","64","4","2","win","no-go","0"
"pit-trial","183","1228902","0.0-69.0","battery-v0.2","","""event"",""trial"",""time""
""fullscreenenter"",""1"",""1729""
","
","
","""event"",""trial"",""time""
""fullscreenenter"",""1"",""1729""
","
","","","-1","","","18","12352","5357","y","elianto","#f73b6a7A","-1","-1","1","-10","[]","0","2","","","12352","65","2","4","lose","no-go","1"
"pit-trial","184","1233757","0.0-70.0","battery-v0.2","","""event"",""trial"",""time""
""fullscreenenter"",""1"",""1729""
","
","
","""event"",""trial"",""time""
""fullscreenenter"",""1"",""1729""
","
","","","-1","","","18","12352","5357","z","elianto","#3366ff99","-1","-1","1","+10","[]","0","2","","","12352","66","4","2","win","no-go","0"
"pit-trial","185","1237717","0.0-71.0","battery-v0.2","","""event"",""trial"",""time""
""fullscreenenter"",""1"",""1729""
","
","
","""event"",""trial"",""time""
""fullscreenenter"",""1"",""1729""
","
","","","1106.6999998092651","","","18","12352","5357","r","elianto","#3366ff99"," "," ","1","+10","[1956.8999998569489]","1","2","","","12352","67","1","1","win","go","0"
"pit-trial","186","1242301","0.0-72.0","battery-v0.2","","""event"",""trial"",""time""
""fullscreenenter"",""1"",""1729""
","
","
","""event"",""trial"",""time""
""fullscreenenter"",""1"",""1729""
","
","","","1729.9000000953674","","","18","12352","5357","h","elianto","#f73b6a7A"," "," ","1","0","[2580.100000143051]","1","2","","","12352","68","3","3","lose","go","0"
"pit-trial","187","1246344","0.0-73.0","battery-v0.2","","""event"",""trial"",""time""
""fullscreenenter"",""1"",""1729""
","
","
","""event"",""trial"",""time""
""fullscreenenter"",""1"",""1729""
","
","","","1188.0999999046326","","","18","12352","5357","r","elianto","#3366ff99"," "," ","1","+10","[2039]","1","2","","","12352","69","1","1","win","go","0"
"pit-trial","188","1251199","0.0-74.0","battery-v0.2","","""event"",""trial"",""time""
""fullscreenenter"",""1"",""1729""
","
","
","""event"",""trial"",""time""
""fullscreenenter"",""1"",""1729""
","
","","","-1","","","18","12352","5357","h","elianto","#f73b6a7A"," ","-1","0","0","[]","0","2","","","12352","70","3","3","lose","go","1"
"pit-trial","189","1256052","0.0-75.0","battery-v0.2","","""event"",""trial"",""time""
""fullscreenenter"",""1"",""1729""
","
","
","""event"",""trial"",""time""
""fullscreenenter"",""1"",""1729""
","
","","","-1","","","18","12352","5357","z","elianto","#3366ff99","-1","-1","1","0","[]","0","2","","","12352","71","4","2","win","no-go","1"
"pit-trial","190","1260921","0.0-76.0","battery-v0.2","","""event"",""trial"",""time""
""fullscreenenter"",""1"",""1729""
","
","
","""event"",""trial"",""time""
""fullscreenenter"",""1"",""1729""
","
","","","-1","","","18","12352","5357","c","elianto","#3366ff99"," ","-1","0","+10","[]","0","2","","","12352","72","5","1","win","go","1"
"pit-trial","191","1265776","0.0-77.0","battery-v0.2","","""event"",""trial"",""time""
""fullscreenenter"",""1"",""1729""
","
","
","""event"",""trial"",""time""
""fullscreenenter"",""1"",""1729""
","
","","","-1","","","18","12352","5357","c","elianto","#3366ff99"," ","-1","0","0","[]","0","2","","","12352","73","5","1","win","go","0"
"pit-trial","192","1270630","0.0-78.0","battery-v0.2","","""event"",""trial"",""time""
""fullscreenenter"",""1"",""1729""
","
","
","""event"",""trial"",""time""
""fullscreenenter"",""1"",""1729""
","
","","","-1","","","18","12352","5357","z","elianto","#3366ff99","-1","-1","1","+10","[]","0","2","","","12352","74","4","2","win","no-go","0"
"pit-trial","193","1274583","0.0-79.0","battery-v0.2","","""event"",""trial"",""time""
""fullscreenenter"",""1"",""1729""
","
","
","""event"",""trial"",""time""
""fullscreenenter"",""1"",""1729""
","
","","","1096.9000000953674","","","18","12352","5357","h","elianto","#f73b6a7A"," "," ","1","0","[1949.7000000476837]","1","2","","","12352","75","3","3","lose","go","0"
"pit-trial","194","1278200","0.0-80.0","battery-v0.2","","""event"",""trial"",""time""
""fullscreenenter"",""1"",""1729""
","
","
","""event"",""trial"",""time""
""fullscreenenter"",""1"",""1729""
","
","","","764.1999998092651","","","18","12352","5357","r","elianto","#3366ff99"," "," ","1","+10","[1614.5]","1","2","","","12352","76","1","1","win","go","0"
"pit-trial","195","1283053","0.0-81.0","battery-v0.2","","""event"",""trial"",""time""
""fullscreenenter"",""1"",""1729""
","
","
","""event"",""trial"",""time""
""fullscreenenter"",""1"",""1729""
","
","","","-1","","","18","12352","5357","c","elianto","#3366ff99"," ","-1","0","0","[]","0","2","","","12352","77","5","1","win","go","0"
"pit-trial","196","1287908","0.0-82.0","battery-v0.2","","""event"",""trial"",""time""
""fullscreenenter"",""1"",""1729""
","
","
","""event"",""trial"",""time""
""fullscreenenter"",""1"",""1729""
","
","","","-1","","","18","12352","5357","z","elianto","#3366ff99","-1","-1","1","+10","[]","0","2","","","12352","78","4","2","win","no-go","0"
"pit-trial","197","1292762","0.0-83.0","battery-v0.2","","""event"",""trial"",""time""
""fullscreenenter"",""1"",""1729""
","
","
","""event"",""trial"",""time""
""fullscreenenter"",""1"",""1729""
","
","","","-1","","","18","12352","5357","b","elianto","#f73b6a7A","-1","-1","1","0","[]","0","2","","","12352","79","6","4","lose","no-go","0"
"pit-trial","198","1296692","0.0-84.0","battery-v0.2","","""event"",""trial"",""time""
""fullscreenenter"",""1"",""1729""
","
","
","""event"",""trial"",""time""
""fullscreenenter"",""1"",""1729""
","
","","","1077","","","18","12352","5357","h","elianto","#f73b6a7A"," "," ","1","-10","[1927.8000001907349]","1","2","","","12352","80","3","3","lose","go","1"
"pit-trial","199","1301548","0.0-85.0","battery-v0.2","","""event"",""trial"",""time""
""fullscreenenter"",""1"",""1729""
","
","
","""event"",""trial"",""time""
""fullscreenenter"",""1"",""1729""
","
","","","-1","","","18","12352","5357","z","elianto","#3366ff99","-1","-1","1","+10","[]","0","2","","","12352","81","4","2","win","no-go","0"
"pit-trial","200","1306403","0.0-86.0","battery-v0.2","","""event"",""trial"",""time""
""fullscreenenter"",""1"",""1729""
","
","
","""event"",""trial"",""time""
""fullscreenenter"",""1"",""1729""
","
","","","-1","","","18","12352","5357","c","elianto","#3366ff99"," ","-1","0","+10","[]","0","2","","","12352","82","5","1","win","go","1"
"pit-trial","201","1311257","0.0-87.0","battery-v0.2","","""event"",""trial"",""time""
""fullscreenenter"",""1"",""1729""
","
","
","""event"",""trial"",""time""
""fullscreenenter"",""1"",""1729""
","
","","","-1","","","18","12352","5357","b","elianto","#f73b6a7A","-1","-1","1","0","[]","0","2","","","12352","83","6","4","lose","no-go","0"
"pit-trial","202","1316016","0.0-88.0","battery-v0.2","","""event"",""trial"",""time""
""fullscreenenter"",""1"",""1729""
","
","
","""event"",""trial"",""time""
""fullscreenenter"",""1"",""1729""
","
","","","1904.8000001907349","","","18","12352","5357","t","elianto","#f73b6a7A"," "," ","1","0","[2755.2000000476837]","1","2","","","12352","84","7","3","lose","go","0"
"pit-trial","203","1320871","0.0-89.0","battery-v0.2","","""event"",""trial"",""time""
""fullscreenenter"",""1"",""1729""
","
","
","""event"",""trial"",""time""
""fullscreenenter"",""1"",""1729""
","
","","","-1","","","18","12352","5357","z","elianto","#3366ff99","-1","-1","1","+10","[]","0","2","","","12352","85","4","2","win","no-go","0"
"pit-trial","204","1325726","0.0-90.0","battery-v0.2","","""event"",""trial"",""time""
""fullscreenenter"",""1"",""1729""
","
","
","""event"",""trial"",""time""
""fullscreenenter"",""1"",""1729""
","
","","","-1","","","18","12352","5357","b","elianto","#f73b6a7A","-1","-1","1","0","[]","0","2","","","12352","86","6","4","lose","no-go","0"
"pit-trial","205","1329920","0.0-91.0","battery-v0.2","","""event"",""trial"",""time""
""fullscreenenter"",""1"",""1729""
","
","
","""event"",""trial"",""time""
""fullscreenenter"",""1"",""1729""
","
","","","1340.2999999523163","","","18","12352","5357","t","elianto","#f73b6a7A"," "," ","1","-10","[2191.4000000953674]","1","2","","","12352","87","7","3","lose","go","1"
"pit-trial","206","1334285","0.0-92.0","battery-v0.2","","""event"",""trial"",""time""
""fullscreenenter"",""1"",""1729""
","
","
","""event"",""trial"",""time""
""fullscreenenter"",""1"",""1729""
","
","","","1511.3999998569489","","","18","12352","5357","c","elianto","#3366ff99"," "," ","1","+10","[2361.600000143051]","1","2","","","12352","88","5","1","win","go","0"
"pit-trial","207","1339140","0.0-93.0","battery-v0.2","","""event"",""trial"",""time""
""fullscreenenter"",""1"",""1729""
","
","
","""event"",""trial"",""time""
""fullscreenenter"",""1"",""1729""
","
","","","-1","","","18","12352","5357","t","elianto","#f73b6a7A"," ","-1","0","-10","[]","0","2","","","12352","89","7","3","lose","go","0"
"pit-trial","208","1343995","0.0-94.0","battery-v0.2","","""event"",""trial"",""time""
""fullscreenenter"",""1"",""1729""
","
","
","""event"",""trial"",""time""
""fullscreenenter"",""1"",""1729""
","
","","","-1","","","18","12352","5357","b","elianto","#f73b6a7A","-1","-1","1","0","[]","0","2","","","12352","90","6","4","lose","no-go","0"
"pit-trial","209","1348029","0.0-95.0","battery-v0.2","","""event"",""trial"",""time""
""fullscreenenter"",""1"",""1729""
","
","
","""event"",""trial"",""time""
""fullscreenenter"",""1"",""1729""
","
","","","1180.2000000476837","","","18","12352","5357","c","elianto","#3366ff99"," "," ","1","+10","[2030.6000001430511]","1","2","","","12352","91","5","1","win","go","0"
"pit-trial","210","1352883","0.0-96.0","battery-v0.2","","""event"",""trial"",""time""
""fullscreenenter"",""1"",""1729""
","
","
","""event"",""trial"",""time""
""fullscreenenter"",""1"",""1729""
","
","","","-1","","","18","12352","5357","z","elianto","#3366ff99","-1","-1","1","0","[]","0","2","","","12352","92","4","2","win","no-go","1"
"pit-trial","211","1357077","0.0-97.0","battery-v0.2","","""event"",""trial"",""time""
""fullscreenenter"",""1"",""1729""
","
","
","""event"",""trial"",""time""
""fullscreenenter"",""1"",""1729""
","
","","","1339.4000000953674","","","18","12352","5357","c","elianto","#3366ff99"," "," ","1","+10","[2189.9000000953674]","1","2","","","12352","93","5","1","win","go","0"
"pit-trial","212","1360975","0.0-98.0","battery-v0.2","","""event"",""trial"",""time""
""fullscreenenter"",""1"",""1729""
","
","
","""event"",""trial"",""time""
""fullscreenenter"",""1"",""1729""
","
","","","1045.1999998092651","","","18","12352","5357","f","elianto","#3366ff99","-1"," ","0","0","[1895.3999998569489]","1","2","","","12352","94","8","2","win","no-go","0"
"pit-trial","213","1364755","0.0-99.0","battery-v0.2","","""event"",""trial"",""time""
""fullscreenenter"",""1"",""1729""
","
","
","""event"",""trial"",""time""
""fullscreenenter"",""1"",""1729""
","
","","","924.7999999523163","","","18","12352","5357","t","elianto","#f73b6a7A"," "," ","1","0","[1776.5]","1","2","","","12352","95","7","3","lose","go","0"
"pit-trial","214","1369610","0.0-100.0","battery-v0.2","","""event"",""trial"",""time""
""fullscreenenter"",""1"",""1729""
","
","
","""event"",""trial"",""time""
""fullscreenenter"",""1"",""1729""
","
","","","-1","","","18","12352","5357","b","elianto","#f73b6a7A","-1","-1","1","0","[]","0","2","","","12352","96","6","4","lose","no-go","0"
"pit-trial","215","1373259","0.0-101.0","battery-v0.2","","""event"",""trial"",""time""
""fullscreenenter"",""1"",""1729""
","
","
","""event"",""trial"",""time""
""fullscreenenter"",""1"",""1729""
","
","","","795.5999999046326","","","18","12352","5357","f","elianto","#3366ff99","-1"," ","0","0","[1646.1999998092651]","1","2","","","12352","97","8","2","win","no-go","0"
"pit-trial","216","1378112","0.0-102.0","battery-v0.2","","""event"",""trial"",""time""
""fullscreenenter"",""1"",""1729""
","
","
","""event"",""trial"",""time""
""fullscreenenter"",""1"",""1729""
","
","","","-1","","","18","12352","5357","b","elianto","#f73b6a7A","-1","-1","1","0","[]","0","2","","","12352","98","6","4","lose","no-go","0"
"pit-trial","217","1381751","0.0-103.0","battery-v0.2","","""event"",""trial"",""time""
""fullscreenenter"",""1"",""1729""
","
","
","""event"",""trial"",""time""
""fullscreenenter"",""1"",""1729""
","
","","","782.7999999523163","","","18","12352","5357","t","elianto","#f73b6a7A"," "," ","1","0","[1635.2999999523163]","1","2","","","12352","99","7","3","lose","go","0"
"pit-trial","218","1385652","0.0-104.0","battery-v0.2","","""event"",""trial"",""time""
""fullscreenenter"",""1"",""1729""
","
","
","""event"",""trial"",""time""
""fullscreenenter"",""1"",""1729""
","
","","","1046.5","","","18","12352","5357","c","elianto","#3366ff99"," "," ","1","+10","[1898.5]","1","2","","","12352","100","5","1","win","go","0"
"pit-trial","219","1389107","0.0-105.0","battery-v0.2","","""event"",""trial"",""time""
""fullscreenenter"",""1"",""1729""
","
","
","""event"",""trial"",""time""
""fullscreenenter"",""1"",""1729""
","
","","","601.3999998569489","","","18","12352","5357","c","elianto","#3366ff99"," "," ","1","+10","[1452.1999998092651]","1","2","","","12352","101","5","1","win","go","0"
"pit-trial","220","1393961","0.0-106.0","battery-v0.2","","""event"",""trial"",""time""
""fullscreenenter"",""1"",""1729""
","
","
","""event"",""trial"",""time""
""fullscreenenter"",""1"",""1729""
","
","","","-1","","","18","12352","5357","f","elianto","#3366ff99","-1","-1","1","+10","[]","0","2","","","12352","102","8","2","win","no-go","0"
"pit-trial","221","1398813","0.0-107.0","battery-v0.2","","""event"",""trial"",""time""
""fullscreenenter"",""1"",""1729""
","
","
","""event"",""trial"",""time""
""fullscreenenter"",""1"",""1729""
","
","","","-1","","","18","12352","5357","n","elianto","#3366ff99","-1","-1","1","+10","[]","0","2","","","12352","103","9","2","win","no-go","0"
"pit-trial","222","1403668","0.0-108.0","battery-v0.2","","""event"",""trial"",""time""
""fullscreenenter"",""1"",""1729""
","
","
","""event"",""trial"",""time""
""fullscreenenter"",""1"",""1729""
","
","","","-1","","","18","12352","5357","b","elianto","#f73b6a7A","-1","-1","1","0","[]","0","2","","","12352","104","6","4","lose","no-go","0"
"pit-trial","223","1408522","0.0-109.0","battery-v0.2","","""event"",""trial"",""time""
""fullscreenenter"",""1"",""1729""
","
","
","""event"",""trial"",""time""
""fullscreenenter"",""1"",""1729""
","
","","","-1","","","18","12352","5357","b","elianto","#f73b6a7A","-1","-1","1","0","[]","0","2","","","12352","105","6","4","lose","no-go","0"
"pit-trial","224","1412898","0.0-110.0","battery-v0.2","","""event"",""trial"",""time""
""fullscreenenter"",""1"",""1729""
","
","
","""event"",""trial"",""time""
""fullscreenenter"",""1"",""1729""
","
","","","1521.9000000953674","","","18","12352","5357","c","elianto","#3366ff99"," "," ","1","+10","[2372.800000190735]","1","2","","","12352","106","5","1","win","go","0"
"pit-trial","225","1417754","0.0-111.0","battery-v0.2","","""event"",""trial"",""time""
""fullscreenenter"",""1"",""1729""
","
","
","""event"",""trial"",""time""
""fullscreenenter"",""1"",""1729""
","
","","","-1","","","18","12352","5357","f","elianto","#3366ff99","-1","-1","1","+10","[]","0","2","","","12352","107","8","2","win","no-go","0"
"pit-trial","226","1422609","0.0-112.0","battery-v0.2","","""event"",""trial"",""time""
""fullscreenenter"",""1"",""1729""
","
","
","""event"",""trial"",""time""
""fullscreenenter"",""1"",""1729""
","
","","","-1","","","18","12352","5357","n","elianto","#3366ff99","-1","-1","1","+10","[]","0","2","","","12352","108","9","2","win","no-go","0"
"pit-trial","227","1427462","0.0-113.0","battery-v0.2","","""event"",""trial"",""time""
""fullscreenenter"",""1"",""1729""
","
","
","""event"",""trial"",""time""
""fullscreenenter"",""1"",""1729""
","
","","","-1","","","18","12352","5357","b","elianto","#f73b6a7A","-1","-1","1","0","[]","0","2","","","12352","109","6","4","lose","no-go","0"
"pit-trial","228","1432317","0.0-114.0","battery-v0.2","","""event"",""trial"",""time""
""fullscreenenter"",""1"",""1729""
","
","
","""event"",""trial"",""time""
""fullscreenenter"",""1"",""1729""
","
","","","-1","","","18","12352","5357","n","elianto","#3366ff99","-1","-1","1","+10","[]","0","2","","","12352","110","9","2","win","no-go","0"
"pit-trial","229","1436811","0.0-115.0","battery-v0.2","","""event"",""trial"",""time""
""fullscreenenter"",""1"",""1729""
","
","
","""event"",""trial"",""time""
""fullscreenenter"",""1"",""1729""
","
","","","1639.6000001430511","","","18","12352","5357","c","elianto","#3366ff99"," "," ","1","+10","[2490.5999999046326]","1","2","","","12352","111","5","1","win","go","0"
"pit-trial","230","1441664","0.0-116.0","battery-v0.2","","""event"",""trial"",""time""
""fullscreenenter"",""1"",""1729""
","
","
","""event"",""trial"",""time""
""fullscreenenter"",""1"",""1729""
","
","","","-1","","","18","12352","5357","f","elianto","#3366ff99","-1","-1","1","+10","[]","0","2","","","12352","112","8","2","win","no-go","0"
"pit-trial","231","1445243","0.0-117.0","battery-v0.2","","""event"",""trial"",""time""
""fullscreenenter"",""1"",""1729""
","
","
","""event"",""trial"",""time""
""fullscreenenter"",""1"",""1729""
","
","","","725.7999999523163","","","18","12352","5357","t","elianto","#f73b6a7A"," "," ","1","-10","[1575.8000001907349]","1","2","","","12352","113","7","3","lose","go","1"
"pit-trial","232","1449126","0.0-118.0","battery-v0.2","","""event"",""trial"",""time""
""fullscreenenter"",""1"",""1729""
","
","
","""event"",""trial"",""time""
""fullscreenenter"",""1"",""1729""
","
","","","1028.2999999523163","","","18","12352","5357","c","elianto","#3366ff99"," "," ","1","+10","[1879.0999999046326]","1","2","","","12352","114","5","1","win","go","0"
"pit-trial","233","1453979","0.0-119.0","battery-v0.2","","""event"",""trial"",""time""
""fullscreenenter"",""1"",""1729""
","
","
","""event"",""trial"",""time""
""fullscreenenter"",""1"",""1729""
","
","","","-1","","","18","12352","5357","n","elianto","#3366ff99","-1","-1","1","+10","[]","0","2","","","12352","115","9","2","win","no-go","0"
"pit-trial","234","1458833","0.0-120.0","battery-v0.2","","""event"",""trial"",""time""
""fullscreenenter"",""1"",""1729""
","
","
","""event"",""trial"",""time""
""fullscreenenter"",""1"",""1729""
","
","","","-1","","","18","12352","5357","f","elianto","#3366ff99","-1","-1","1","+10","[]","0","2","","","12352","116","8","2","win","no-go","0"
"pit-trial","235","1462766","0.0-121.0","battery-v0.2","","""event"",""trial"",""time""
""fullscreenenter"",""1"",""1729""
","
","
","""event"",""trial"",""time""
""fullscreenenter"",""1"",""1729""
","
","","","1079.0999999046326","","","18","12352","5357","c","elianto","#3366ff99"," "," ","1","+10","[1929.5]","1","2","","","12352","117","5","1","win","go","0"
"pit-trial","236","1467620","0.0-122.0","battery-v0.2","","""event"",""trial"",""time""
""fullscreenenter"",""1"",""1729""
","
","
","""event"",""trial"",""time""
""fullscreenenter"",""1"",""1729""
","
","","","-1","","","18","12352","5357","f","elianto","#3366ff99","-1","-1","1","+10","[]","0","2","","","12352","118","8","2","win","no-go","0"
"pit-trial","237","1472474","0.0-123.0","battery-v0.2","","""event"",""trial"",""time""
""fullscreenenter"",""1"",""1729""
","
","
","""event"",""trial"",""time""
""fullscreenenter"",""1"",""1729""
","
","","","-1","","","18","12352","5357","b","elianto","#f73b6a7A","-1","-1","1","-10","[]","0","2","","","12352","119","6","4","lose","no-go","1"
"pit-trial","238","1477328","0.0-124.0","battery-v0.2","","""event"",""trial"",""time""
""fullscreenenter"",""1"",""1729""
","
","
","""event"",""trial"",""time""
""fullscreenenter"",""1"",""1729""
","
","","","-1","","","18","12352","5357","n","elianto","#3366ff99","-1","-1","1","+10","[]","0","2","","","12352","120","9","2","win","no-go","0"
"pit-trial","239","1482182","0.0-125.0","battery-v0.2","","""event"",""trial"",""time""
""fullscreenenter"",""1"",""1729""
","
","
","""event"",""trial"",""time""
""fullscreenenter"",""1"",""1729""
","
","","","-1","","","18","12352","5357","f","elianto","#3366ff99","-1","-1","1","+10","[]","0","2","","","12352","121","8","2","win","no-go","0"
"pit-trial","240","1485792","0.0-126.0","battery-v0.2","","""event"",""trial"",""time""
""fullscreenenter"",""1"",""1729""
","
","
","""event"",""trial"",""time""
""fullscreenenter"",""1"",""1729""
","
","","","755.5","","","18","12352","5357","c","elianto","#3366ff99"," "," ","1","+10","[1605.8000001907349]","1","2","","","12352","122","5","1","win","go","0"
"pit-trial","241","1489446","0.0-127.0","battery-v0.2","","""event"",""trial"",""time""
""fullscreenenter"",""1"",""1729""
","
","
","""event"",""trial"",""time""
""fullscreenenter"",""1"",""1729""
","
","","","800.7000000476837","","","18","12352","5357","t","elianto","#f73b6a7A"," "," ","1","0","[1651.3000001907349]","1","2","","","12352","123","7","3","lose","go","0"
"pit-trial","242","1494302","0.0-128.0","battery-v0.2","","""event"",""trial"",""time""
""fullscreenenter"",""1"",""1729""
","
","
","""event"",""trial"",""time""
""fullscreenenter"",""1"",""1729""
","
","","","-1","","","18","12352","5357","n","elianto","#3366ff99","-1","-1","1","+10","[]","0","2","","","12352","124","9","2","win","no-go","0"
"pit-trial","243","1499156","0.0-129.0","battery-v0.2","","""event"",""trial"",""time""
""fullscreenenter"",""1"",""1729""
","
","
","""event"",""trial"",""time""
""fullscreenenter"",""1"",""1729""
","
","","","-1","","","18","12352","5357","n","elianto","#3366ff99","-1","-1","1","+10","[]","0","2","","","12352","125","9","2","win","no-go","0"
"pit-trial","244","1502775","0.0-130.0","battery-v0.2","","""event"",""trial"",""time""
""fullscreenenter"",""1"",""1729""
","
","
","""event"",""trial"",""time""
""fullscreenenter"",""1"",""1729""
","
","","","766.7000000476837","","","18","12352","5357","t","elianto","#f73b6a7A"," "," ","1","0","[1616.7000000476837]","1","2","","","12352","126","7","3","lose","go","0"
"pit-trial","245","1507628","0.0-131.0","battery-v0.2","","""event"",""trial"",""time""
""fullscreenenter"",""1"",""1729""
","
","
","""event"",""trial"",""time""
""fullscreenenter"",""1"",""1729""
","
","","","-1","","","18","12352","5357","b","elianto","#f73b6a7A","-1","-1","1","-10","[]","0","2","","","12352","127","6","4","lose","no-go","1"
"pit-trial","246","1512482","0.0-132.0","battery-v0.2","","""event"",""trial"",""time""
""fullscreenenter"",""1"",""1729""
","
","
","""event"",""trial"",""time""
""fullscreenenter"",""1"",""1729""
","
","","","-1","","","18","12352","5357","f","elianto","#3366ff99","-1","-1","1","+10","[]","0","2","","","12352","128","8","2","win","no-go","0"
"pit-trial","247","1517338","0.0-133.0","battery-v0.2","","""event"",""trial"",""time""
""fullscreenenter"",""1"",""1729""
","
","
","""event"",""trial"",""time""
""fullscreenenter"",""1"",""1729""
","
","","","-1","","","18","12352","5357","f","elianto","#3366ff99","-1","-1","1","+10","[]","0","2","","","12352","129","8","2","win","no-go","0"
"pit-trial","248","1521670","0.0-134.0","battery-v0.2","","""event"",""trial"",""time""
""fullscreenenter"",""1"",""1729""
","
","
","""event"",""trial"",""time""
""fullscreenenter"",""1"",""1729""
","
","","","1478.9000000953674","","","18","12352","5357","t","elianto","#f73b6a7A"," "," ","1","0","[2329.0999999046326]","1","2","","","12352","130","7","3","lose","go","0"
"pit-trial","249","1526524","0.0-135.0","battery-v0.2","","""event"",""trial"",""time""
""fullscreenenter"",""1"",""1729""
","
","
","""event"",""trial"",""time""
""fullscreenenter"",""1"",""1729""
","
","","","-1","","","18","12352","5357","b","elianto","#f73b6a7A","-1","-1","1","0","[]","0","2","","","12352","131","6","4","lose","no-go","0"
"pit-trial","250","1531380","0.0-136.0","battery-v0.2","","""event"",""trial"",""time""
""fullscreenenter"",""1"",""1729""
","
","
","""event"",""trial"",""time""
""fullscreenenter"",""1"",""1729""
","
","","","-1","","","18","12352","5357","n","elianto","#3366ff99","-1","-1","1","0","[]","0","2","","","12352","132","9","2","win","no-go","1"
"pit-trial","251","1536235","0.0-137.0","battery-v0.2","","""event"",""trial"",""time""
""fullscreenenter"",""1"",""1729""
","
","
","""event"",""trial"",""time""
""fullscreenenter"",""1"",""1729""
","
","","","-1","","","18","12352","5357","f","elianto","#3366ff99","-1","-1","1","+10","[]","0","2","","","12352","133","8","2","win","no-go","0"
"pit-trial","252","1539880","0.0-138.0","battery-v0.2","","""event"",""trial"",""time""
""fullscreenenter"",""1"",""1729""
","
","
","""event"",""trial"",""time""
""fullscreenenter"",""1"",""1729""
","
","","","791.5","","","18","12352","5357","t","elianto","#f73b6a7A"," "," ","1","0","[1641.9000000953674]","1","2","","","12352","134","7","3","lose","go","0"
"pit-trial","253","1544735","0.0-139.0","battery-v0.2","","""event"",""trial"",""time""
""fullscreenenter"",""1"",""1729""
","
","
","""event"",""trial"",""time""
""fullscreenenter"",""1"",""1729""
","
","","","-1","","","18","12352","5357","n","elianto","#3366ff99","-1","-1","1","+10","[]","0","2","","","12352","135","9","2","win","no-go","0"
"pit-trial","254","1549589","0.0-140.0","battery-v0.2","","""event"",""trial"",""time""
""fullscreenenter"",""1"",""1729""
","
","
","""event"",""trial"",""time""
""fullscreenenter"",""1"",""1729""
","
","","","-1","","","18","12352","5357","b","elianto","#f73b6a7A","-1","-1","1","0","[]","0","2","","","12352","136","6","4","lose","no-go","0"
"pit-trial","255","1553486","0.0-141.0","battery-v0.2","","""event"",""trial"",""time""
""fullscreenenter"",""1"",""1729""
","
","
","""event"",""trial"",""time""
""fullscreenenter"",""1"",""1729""
","
","","","1042.7000000476837","","","18","12352","5357","t","elianto","#f73b6a7A"," "," ","1","0","[1893]","1","2","","","12352","137","7","3","lose","go","0"
"pit-trial","256","1558341","0.0-142.0","battery-v0.2","","""event"",""trial"",""time""
""fullscreenenter"",""1"",""1729""
","
","
","""event"",""trial"",""time""
""fullscreenenter"",""1"",""1729""
","
","","","-1","","","18","12352","5357","n","elianto","#3366ff99","-1","-1","1","+10","[]","0","2","","","12352","138","9","2","win","no-go","0"
"pit-trial","257","1563195","0.0-143.0","battery-v0.2","","""event"",""trial"",""time""
""fullscreenenter"",""1"",""1729""
","
","
","""event"",""trial"",""time""
""fullscreenenter"",""1"",""1729""
","
","","","-1","","","18","12352","5357","f","elianto","#3366ff99","-1","-1","1","0","[]","0","2","","","12352","139","8","2","win","no-go","1"
"pit-trial","258","1568050","0.0-144.0","battery-v0.2","","""event"",""trial"",""time""
""fullscreenenter"",""1"",""1729""
","
","
","""event"",""trial"",""time""
""fullscreenenter"",""1"",""1729""
","
","","","-1","","","18","12352","5357","b","elianto","#f73b6a7A","-1","-1","1","0","[]","0","2","","","12352","140","6","4","lose","no-go","0"
"pit-instructions","259","1674784","0.0-145.0","battery-v0.2","","""event"",""trial"",""time""
""fullscreenenter"",""1"",""1729""
","
","
","""event"",""trial"",""time""
""fullscreenenter"",""1"",""1729""
","
","","[{""page_index"":0,""viewing_time"":67811.5},{""page_index"":1,""viewing_time"":38919.09999990463}]","106731.09999990463","","","","","","","","","","","","","","","","","","","","","","","",""
"pit-trial","260","1679640","0.0-146.0","battery-v0.2","","""event"",""trial"",""time""
""fullscreenenter"",""1"",""1729""
","
","
","""event"",""trial"",""time""
""fullscreenenter"",""1"",""1729""
","
","","","-1","","","18","12352","5357","w","elianto","#f73b6a7A","-1","-1","1","0","[]","0","3","","","12352","141","3","4","lose","no-go","0"
"pit-trial","261","1683155","0.0-147.0","battery-v0.2","","""event"",""trial"",""time""
""fullscreenenter"",""1"",""1729""
","
","
","""event"",""trial"",""time""
""fullscreenenter"",""1"",""1729""
","
","","","661.5","","","18","12352","5357","d","elianto","#3366ff99","-1"," ","0","0","[1511.9000000953674]","1","3","","","12352","142","1","2","win","no-go","0"
"pit-trial","262","1688011","0.0-148.0","battery-v0.2","","""event"",""trial"",""time""
""fullscreenenter"",""1"",""1729""
","
","
","""event"",""trial"",""time""
""fullscreenenter"",""1"",""1729""
","
","","","-1","","","18","12352","5357","e","elianto","#f73b6a7A"," ","-1","0","-10","[]","0","3","","","12352","143","2","3","lose","go","0"
"pit-trial","263","1692865","0.0-149.0","battery-v0.2","","""event"",""trial"",""time""
""fullscreenenter"",""1"",""1729""
","
","
","""event"",""trial"",""time""
""fullscreenenter"",""1"",""1729""
","
","","","-1","","","18","12352","5357","j","elianto","#f73b6a7A"," ","-1","0","-10","[]","0","3","","","12352","144","0","3","lose","go","0"
"pit-trial","264","1697718","0.0-150.0","battery-v0.2","","""event"",""trial"",""time""
""fullscreenenter"",""1"",""1729""
","
","
","""event"",""trial"",""time""
""fullscreenenter"",""1"",""1729""
","
","","","-1","","","18","12352","5357","w","elianto","#f73b6a7A","-1","-1","1","0","[]","0","3","","","12352","145","3","4","lose","no-go","0"
"pit-trial","265","1701511","0.0-151.0","battery-v0.2","","""event"",""trial"",""time""
""fullscreenenter"",""1"",""1729""
","
","
","""event"",""trial"",""time""
""fullscreenenter"",""1"",""1729""
","
","","","937.5999999046326","","","18","12352","5357","e","elianto","#f73b6a7A"," "," ","1","0","[1787.7999999523163]","1","3","","","12352","146","2","3","lose","go","0"
"pit-trial","266","1704915","0.0-152.0","battery-v0.2","","""event"",""trial"",""time""
""fullscreenenter"",""1"",""1729""
","
","
","""event"",""trial"",""time""
""fullscreenenter"",""1"",""1729""
","
","","","550.5999999046326","","","18","12352","5357","j","elianto","#f73b6a7A"," "," ","1","0","[1400.5]","1","3","","","12352","147","0","3","lose","go","0"
"pit-trial","267","1708465","0.0-153.0","battery-v0.2","","""event"",""trial"",""time""
""fullscreenenter"",""1"",""1729""
","
","
","""event"",""trial"",""time""
""fullscreenenter"",""1"",""1729""
","
","","","695.3999998569489","","","18","12352","5357","d","elianto","#3366ff99","-1"," ","0","+10","[1546.8999998569489]","1","3","","","12352","148","1","2","win","no-go","1"
"pit-trial","268","1713319","0.0-154.0","battery-v0.2","","""event"",""trial"",""time""
""fullscreenenter"",""1"",""1729""
","
","
","""event"",""trial"",""time""
""fullscreenenter"",""1"",""1729""