"trial_type","trial_index","time_elapsed","internal_node_id","task_version","subject_id","interactions","blur_events","focus_events","fullscreenenter_events","fullscreenexit_events","success","view_history","rt","responses","num_errors","age","subject","participantId","rune","rune_set","hex","correct","choice","accuracy","outcome","keys","total_keys","block","practice","value","sub","trial","stimulus","robot","valence","action","sham"
"pavlovia","0","6","0.0-0.0","battery-v0.2","","""event"",""trial"",""time""
""fullscreenenter"",""1"",""3599""
","
","
","""event"",""trial"",""time""
""fullscreenenter"",""1"",""3599""
","
","","","","","","","","","","","","","","","","","","","","","","","","","","",""
"fullscreen","1","4596","0.0-1.0","battery-v0.2","","""event"",""trial"",""time""
""fullscreenenter"",""1"",""3599""
","
","
","""event"",""trial"",""time""
""fullscreenenter"",""1"",""3599""
","
","true","","","","","","","","","","","","","","","","","","","","","","","","","",""
"pit-instructions","2","13141","0.0-2.0-0.0","battery-v0.2","","""event"",""trial"",""time""
""fullscreenenter"",""1"",""3599""
","
","
","""event"",""trial"",""time""
""fullscreenenter"",""1"",""3599""
","
","","[{""page_index"":0,""viewing_time"":8537}]","8538.39999999851","","","","","","","","","","","","","","","","","","","","","","","",""
"pit-comprehension","3","30058","0.0-2.0-1.0-0.0","battery-v0.2","","""event"",""trial"",""time""
""fullscreenenter"",""1"",""3599""
","
","
","""event"",""trial"",""time""
""fullscreenenter"",""1"",""3599""
","
","","","16911.199999999255","[""tiger""]","1","20","3515","1328","","","","","","","","","","","","","","","","","","",""
"pit-instructions","4","34923","0.0-2.0-1.0-1.0","battery-v0.2","","""event"",""trial"",""time""
""fullscreenenter"",""1"",""3599""
","
","
","""event"",""trial"",""time""
""fullscreenenter"",""1"",""3599""
","
","","[{""page_index"":0,""viewing_time"":4855.5}]","4856.29999999702","","","","","","","","","","","","","","","","","","","","","","","",""
"pit-instructions","5","36373","0.0-2.0-1.0-2.0-0.0","battery-v0.2","","""event"",""trial"",""time""
""fullscreenenter"",""1"",""3599""
","
","
","""event"",""trial"",""time""
""fullscreenenter"",""1"",""3599""
","
","","[{""page_index"":0,""viewing_time"":1445.699999999255}]","1446.5","","","","","","","","","","","","","","","","","","","","","","","",""
"pit-comprehension","6","52558","0.0-2.0-1.1-0.1","battery-v0.2","","""event"",""trial"",""time""
""fullscreenenter"",""1"",""3599""
","
","
","""event"",""trial"",""time""
""fullscreenenter"",""1"",""3599""
","
","","","16178.699999999255","[""turtle""]","1","20","3515","1328","","","","","","","","","","","","","","","","","","",""
"pit-instructions","7","55156","0.0-2.0-1.1-1.1","battery-v0.2","","""event"",""trial"",""time""
""fullscreenenter"",""1"",""3599""
","
","
","""event"",""trial"",""time""
""fullscreenenter"",""1"",""3599""
","
","","[{""page_index"":0,""viewing_time"":2592.699999999255}]","2593.599999997765","","","","","","","","","","","","","","","","","","","","","","","",""
"pit-instructions","8","56239","0.0-2.0-1.1-2.1-0.1","battery-v0.2","","""event"",""trial"",""time""
""fullscreenenter"",""1"",""3599""
","
","
","""event"",""trial"",""time""
""fullscreenenter"",""1"",""3599""
","
","","[{""page_index"":0,""viewing_time"":1079}]","1079.6000000014901","","","","","","","","","","","","","","","","","","","","","","","",""
"pit-comprehension","9","60274","0.0-2.0-1.2-0.2","battery-v0.2","","""event"",""trial"",""time""
""fullscreenenter"",""1"",""3599""
","
","
","""event"",""trial"",""time""
""fullscreenenter"",""1"",""3599""
","
","","","4029.7000000029802","[""fish""]","1","20","3515","1328","","","","","","","","","","","","","","","","","","",""
"pit-instructions","10","61356","0.0-2.0-1.2-1.2","battery-v0.2","","""event"",""trial"",""time""
""fullscreenenter"",""1"",""3599""
","
","
","""event"",""trial"",""time""
""fullscreenenter"",""1"",""3599""
","
","","[{""page_index"":0,""viewing_time"":1076.199999999255}]","1077.1000000014901","","","","","","","","","","","","","","","","","","","","","","","",""
"pit-instructions","11","63106","0.0-2.0-1.2-2.2-0.2","battery-v0.2","","""event"",""trial"",""time""
""fullscreenenter"",""1"",""3599""
","
","
","""event"",""trial"",""time""
""fullscreenenter"",""1"",""3599""
","
","","[{""page_index"":0,""viewing_time"":1745.800000000745}]","1746.7000000029802","","","","","","","","","","","","","","","","","","","","","","","",""
"pit-comprehension","12","65340","0.0-2.0-1.3-0.3","battery-v0.2","","""event"",""trial"",""time""
""fullscreenenter"",""1"",""3599""
","
","
","""event"",""trial"",""time""
""fullscreenenter"",""1"",""3599""
","
","","","2229.7000000029802","[""shark""]","0","20","3515","1328","","","","","","","","","","","","","","","","","","",""
"pit-instructions","13","66572","0.0-2.0-1.3-1.3","battery-v0.2","","""event"",""trial"",""time""
""fullscreenenter"",""1"",""3599""
","
","
","""event"",""trial"",""time""
""fullscreenenter"",""1"",""3599""
","
","","[{""page_index"":0,""viewing_time"":1225.800000000745}]","1226.5999999977648","","","","","","","","","","","","","","","","","","","","","","","",""
"pit-comprehension","14","71190","0.0-2.0-2.0-0.0","battery-v0.2","","""event"",""trial"",""time""
""fullscreenenter"",""1"",""3599""
","
","
","""event"",""trial"",""time""
""fullscreenenter"",""1"",""3599""
","
","","","4614.199999999255","[""shark""]","1","20","3515","1328","","","","","","","","","","","","","","","","","","",""
"pit-instructions","15","72523","0.0-2.0-2.0-1.0","battery-v0.2","","""event"",""trial"",""time""
""fullscreenenter"",""1"",""3599""
","
","
","""event"",""trial"",""time""
""fullscreenenter"",""1"",""3599""
","
","","[{""page_index"":0,""viewing_time"":1324.5}]","1325.6000000014901","","","","","","","","","","","","","","","","","","","","","","","",""
"pit-instructions","16","74190","0.0-2.0-2.0-2.0-0.0","battery-v0.2","","""event"",""trial"",""time""
""fullscreenenter"",""1"",""3599""
","
","
","""event"",""trial"",""time""
""fullscreenenter"",""1"",""3599""
","
","","[{""page_index"":0,""viewing_time"":1662.5}]","1663.5999999977648","","","","","","","","","","","","","","","","","","","","","","","",""
"pit-comprehension","17","76607","0.0-2.0-2.1-0.1","battery-v0.2","","""event"",""trial"",""time""
""fullscreenenter"",""1"",""3599""
","
","
","""event"",""trial"",""time""
""fullscreenenter"",""1"",""3599""
","
","","","2412.699999999255","[""tiger""]","0","20","3515","1328","","","","","","","","","","","","","","","","","","",""
"pit-instructions","18","77540","0.0-2.0-2.1-1.1","battery-v0.2","","""event"",""trial"",""time""
""fullscreenenter"",""1"",""3599""
""blur"",""19"",""163532""
""focus"",""19"",""169248""
","""event"",""trial"",""time""
""blur"",""19"",""163532""
","""event"",""trial"",""time""
""focus"",""19"",""169248""
","""event"",""trial"",""time""
""fullscreenenter"",""1"",""3599""
","
","","[{""page_index"":0,""viewing_time"":925.1000000014901}]","926.2000000029802","","","","","","","","","","","","","","","","","","","","","","","",""
"pit-instructions","19","185939","0.0-2.0-3.0","battery-v0.2","","""event"",""trial"",""time""
""fullscreenenter"",""1"",""3599""
""blur"",""19"",""163532""
""focus"",""19"",""169248""
","""event"",""trial"",""time""
""blur"",""19"",""163532""
","""event"",""trial"",""time""
""focus"",""19"",""169248""
","""event"",""trial"",""time""
""fullscreenenter"",""1"",""3599""
","
","","[{""page_index"":0,""viewing_time"":9243.300000000745},{""page_index"":1,""viewing_time"":7267.400000002235},{""page_index"":2,""viewing_time"":9983.099999997765},{""page_index"":3,""viewing_time"":5083.199999999255},{""page_index"":4,""viewing_time"":5533.400000002235},{""page_index"":5,""viewing_time"":5617.300000000745},{""page_index"":6,""viewing_time"":6217.099999997765},{""page_index"":7,""viewing_time"":6864.900000002235},{""page_index"":8,""viewing_time"":7351.5},{""page_index"":9,""viewing_time"":5539.599999997765},{""page_index"":10,""viewing_time"":7210.300000000745},{""page_index"":11,""viewing_time"":4773.10000000149},{""page_index"":12,""viewing_time"":21277.599999997765},{""page_index"":13,""viewing_time"":6433.699999999255}]","108396.30000000075","","","","","","","","","","","","","","","","","","","","","","","",""
"pit-trial","20","190294","0.0-2.0-4.0-0.0","battery-v0.2","","""event"",""trial"",""time""
""fullscreenenter"",""1"",""3599""
""blur"",""19"",""163532""
""focus"",""19"",""169248""
","""event"",""trial"",""time""
""blur"",""19"",""163532""
","""event"",""trial"",""time""
""focus"",""19"",""169248""
","""event"",""trial"",""time""
""fullscreenenter"",""1"",""3599""
","
","","","1496.2000000029802","","","20","3515","1328","&#9784;","elianto","#FFFFF080"," "," ","1","&#10004","[2347.10000000149]","1","0","0","","","","","","","",""
"pit-trial","21","193913","0.0-2.0-4.1-0.1","battery-v0.2","","""event"",""trial"",""time""
""fullscreenenter"",""1"",""3599""
""blur"",""19"",""163532""
""focus"",""19"",""169248""
","""event"",""trial"",""time""
""blur"",""19"",""163532""
","""event"",""trial"",""time""
""focus"",""19"",""169248""
","""event"",""trial"",""time""
""fullscreenenter"",""1"",""3599""
","
","","","758","","","20","3515","1328","&#9784;","elianto","#FFFFF080"," "," ","1","&#10004","[1608.699999999255]","1","0","0","","","","","","","",""
"pit-trial","22","197431","0.0-2.0-4.2-0.2","battery-v0.2","","""event"",""trial"",""time""
""fullscreenenter"",""1"",""3599""
""blur"",""19"",""163532""
""focus"",""19"",""169248""
","""event"",""trial"",""time""
""blur"",""19"",""163532""
","""event"",""trial"",""time""
""focus"",""19"",""169248""
","""event"",""trial"",""time""
""fullscreenenter"",""1"",""3599""
","
","","","656.2000000029802","","","20","3515","1328","&#9784;","elianto","#FFFFF080"," "," ","1","&#10004","[1507.2999999970198]","1","0","0","","","","","","","",""
"pit-trial","23","201098","0.0-2.0-4.3-0.3","battery-v0.2","","""event"",""trial"",""time""
""fullscreenenter"",""1"",""3599""
""blur"",""19"",""163532""
""focus"",""19"",""169248""
","""event"",""trial"",""time""
""blur"",""19"",""163532""
","""event"",""trial"",""time""
""focus"",""19"",""169248""
","""event"",""trial"",""time""
""fullscreenenter"",""1"",""3599""
","
","","","810.8999999985099","","","20","3515","1328","&#9784;","elianto","#FFFFF080"," "," ","1","&#10004","[1661.1000000014901]","1","0","0","","","","","","","",""
"pit-trial","24","204601","0.0-2.0-4.4-0.4","battery-v0.2","","""event"",""trial"",""time""
""fullscreenenter"",""1"",""3599""
""blur"",""19"",""163532""
""focus"",""19"",""169248""
","""event"",""trial"",""time""
""blur"",""19"",""163532""
","""event"",""trial"",""time""
""focus"",""19"",""169248""
","""event"",""trial"",""time""
""fullscreenenter"",""1"",""3599""
","
","","","642.6999999992549","","","20","3515","1328","&#9784;","elianto","#FFFFF080"," "," ","1","&#10004","[1493.0999999977648,2241.39999999851]","2","0","0","","","","","","","",""
"pit-instructions","25","237239","0.0-2.0-5.0","battery-v0.2","","""event"",""trial"",""time""
""fullscreenenter"",""1"",""3599""
""blur"",""19"",""163532""
""focus"",""19"",""169248""
","""event"",""trial"",""time""
""blur"",""19"",""163532""
","""event"",""trial"",""time""
""focus"",""19"",""169248""
","""event"",""trial"",""time""
""fullscreenenter"",""1"",""3599""
","
","","[{""page_index"":0,""viewing_time"":5565.699999999255},{""page_index"":1,""viewing_time"":6267},{""page_index"":2,""viewing_time"":6566.39999999851},{""page_index"":3,""viewing_time"":14233.60000000149}]","32633.79999999702","","","","","","","","","","","","","","","","","","","","","","","",""
"pit-trial","26","241945","0.0-2.0-6.0-0.0","battery-v0.2","","""event"",""trial"",""time""
""fullscreenenter"",""1"",""3599""
""blur"",""19"",""163532""
""focus"",""19"",""169248""
","""event"",""trial"",""time""
""blur"",""19"",""163532""
","""event"",""trial"",""time""
""focus"",""19"",""169248""
","""event"",""trial"",""time""
""fullscreenenter"",""1"",""3599""
","
","","","1848.0999999977648","","","20","3515","1328","&#9854;","elianto","#FFFFF080","-1"," ","0","&#10060","[2698.5]","1","0","1","","","","","","","",""
"pit-trial","27","246807","0.0-2.0-6.1-0.1","battery-v0.2","","""event"",""trial"",""time""
""fullscreenenter"",""1"",""3599""
""blur"",""19"",""163532""
""focus"",""19"",""169248""
","""event"",""trial"",""time""
""blur"",""19"",""163532""
","""event"",""trial"",""time""
""focus"",""19"",""169248""
","""event"",""trial"",""time""
""fullscreenenter"",""1"",""3599""
","
","","","-1","","","20","3515","1328","&#9854;","elianto","#FFFFF080","-1","-1","1","&#10004","[]","0","0","1","","","","","","","",""
"pit-trial","28","251670","0.0-2.0-6.2-0.2","battery-v0.2","","""event"",""trial"",""time""
""fullscreenenter"",""1"",""3599""
""blur"",""19"",""163532""
""focus"",""19"",""169248""
","""event"",""trial"",""time""
""blur"",""19"",""163532""
","""event"",""trial"",""time""
""focus"",""19"",""169248""
","""event"",""trial"",""time""
""fullscreenenter"",""1"",""3599""
","
","","","-1","","","20","3515","1328","&#9854;","elianto","#FFFFF080","-1","-1","1","&#10004","[]","0","0","1","","","","","","","",""
"pit-trial","29","256527","0.0-2.0-6.3-0.3","battery-v0.2","","""event"",""trial"",""time""
""fullscreenenter"",""1"",""3599""
""blur"",""19"",""163532""
""focus"",""19"",""169248""
","""event"",""trial"",""time""
""blur"",""19"",""163532""
","""event"",""trial"",""time""
""focus"",""19"",""169248""
","""event"",""trial"",""time""
""fullscreenenter"",""1"",""3599""
","
","","","-1","","","20","3515","1328","&#9854;","elianto","#FFFFF080","-1","-1","1","&#10004","[]","0","0","1","","","","","","","",""
"pit-trial","30","261391","0.0-2.0-6.4-0.4","battery-v0.2","","""event"",""trial"",""time""
""fullscreenenter"",""1"",""3599""
""blur"",""19"",""163532""
""focus"",""19"",""169248""
""blur"",""31"",""419526""
""focus"",""31"",""423241""
","""event"",""trial"",""time""
""blur"",""19"",""163532""
""blur"",""31"",""419526""
","""event"",""trial"",""time""
""focus"",""19"",""169248""
""focus"",""31"",""423241""
","""event"",""trial"",""time""
""fullscreenenter"",""1"",""3599""
","
","","","-1","","","20","3515","1328","&#9854;","elianto","#FFFFF080","-1","-1","1","&#10004","[]","0","0","1","","","","","","","",""
"pit-instructions","31","436289","0.0-2.0-7.0","battery-v0.2","","""event"",""trial"",""time""
""fullscreenenter"",""1"",""3599""
""blur"",""19"",""163532""
""focus"",""19"",""169248""
""blur"",""31"",""419526""
""focus"",""31"",""423241""
","""event"",""trial"",""time""
""blur"",""19"",""163532""
""blur"",""31"",""419526""
","""event"",""trial"",""time""
""focus"",""19"",""169248""
""focus"",""31"",""423241""
","""event"",""trial"",""time""
""fullscreenenter"",""1"",""3599""
","
","","[{""page_index"":0,""viewing_time"":10425.29999999702},{""page_index"":1,""viewing_time"":6673.400000002235},{""page_index"":2,""viewing_time"":6126.89999999851},{""page_index"":3,""viewing_time"":6116.900000002235},{""page_index"":4,""viewing_time"":6833.5},{""page_index"":5,""viewing_time"":11800.39999999851},{""page_index"":6,""viewing_time"":4999.89999999851},{""page_index"":7,""viewing_time"":14016.60000000149},{""page_index"":8,""viewing_time"":7382.699999999255},{""page_index"":9,""viewing_time"":14701.199999999255},{""page_index"":10,""viewing_time"":27466.900000002235},{""page_index"":11,""viewing_time"":4616.599999997765},{""page_index"":12,""viewing_time"":6283.800000000745},{""page_index"":13,""viewing_time"":7150.199999999255},{""page_index"":14,""viewing_time"":6433.300000000745},{""page_index"":15,""viewing_time"":8048.300000000745},{""page_index"":16,""viewing_time"":13919},{""page_index"":17,""viewing_time"":11899.60000000149}]","174895.19999999925","","","","","","","","","","","","","","","","","","","","","","","",""
"pit-trial","32","441149","0.0-2.0-8.0-0.0","battery-v0.2","","""event"",""trial"",""time""
""fullscreenenter"",""1"",""3599""
""blur"",""19"",""163532""
""focus"",""19"",""169248""
""blur"",""31"",""419526""
""focus"",""31"",""423241""
","""event"",""trial"",""time""
""blur"",""19"",""163532""
""blur"",""31"",""419526""
","""event"",""trial"",""time""
""focus"",""19"",""169248""
""focus"",""31"",""423241""
","""event"",""trial"",""time""
""fullscreenenter"",""1"",""3599""
","
","","","-1","","","20","3515","1328","&#9776;","elianto","#3366ff99"," ","-1","0","0","[]","0","0","1","","","","","","","",""
"pit-trial","33","446008","0.0-2.0-8.0-1.0","battery-v0.2","","""event"",""trial"",""time""
""fullscreenenter"",""1"",""3599""
""blur"",""19"",""163532""
""focus"",""19"",""169248""
""blur"",""31"",""419526""
""focus"",""31"",""423241""
","""event"",""trial"",""time""
""blur"",""19"",""163532""
""blur"",""31"",""419526""
","""event"",""trial"",""time""
""focus"",""19"",""169248""
""focus"",""31"",""423241""
","""event"",""trial"",""time""
""fullscreenenter"",""1"",""3599""
","
","","","-1","","","20","3515","1328","&#9776;","elianto","#3366ff99"," ","-1","0","0","[]","0","0","1","","","","","","","",""
"pit-trial","34","449487","0.0-2.0-8.0-2.0","battery-v0.2","","""event"",""trial"",""time""
""fullscreenenter"",""1"",""3599""
""blur"",""19"",""163532""
""focus"",""19"",""169248""
""blur"",""31"",""419526""
""focus"",""31"",""423241""
","""event"",""trial"",""time""
""blur"",""19"",""163532""
""blur"",""31"",""419526""
","""event"",""trial"",""time""
""focus"",""19"",""169248""
""focus"",""31"",""423241""
","""event"",""trial"",""time""
""fullscreenenter"",""1"",""3599""
","
","","","616.4000000022352","","","20","3515","1328","&#9776;","elianto","#3366ff99"," "," ","1","+10","[1469.199999999255]","1","0","1","","","","","","","",""
"pit-trial","35","452733","0.0-2.0-8.0-3.0","battery-v0.2","","""event"",""trial"",""time""
""fullscreenenter"",""1"",""3599""
""blur"",""19"",""163532""
""focus"",""19"",""169248""
""blur"",""31"",""419526""
""focus"",""31"",""423241""
","""event"",""trial"",""time""
""blur"",""19"",""163532""
""blur"",""31"",""419526""
","""event"",""trial"",""time""
""focus"",""19"",""169248""
""focus"",""31"",""423241""
","""event"",""trial"",""time""
""fullscreenenter"",""1"",""3599""
","
","","","388.8999999985099","","","20","3515","1328","&#9776;","elianto","#3366ff99"," "," ","1","0","[1240.5]","1","0","1","","","","","","","",""
"pit-trial","36","456103","0.0-2.0-8.0-4.0","battery-v0.2","","""event"",""trial"",""time""
""fullscreenenter"",""1"",""3599""
""blur"",""19"",""163532""
""focus"",""19"",""169248""
""blur"",""31"",""419526""
""focus"",""31"",""423241""
","""event"",""trial"",""time""
""blur"",""19"",""163532""
""blur"",""31"",""419526""
","""event"",""trial"",""time""
""focus"",""19"",""169248""
""focus"",""31"",""423241""
","""event"",""trial"",""time""
""fullscreenenter"",""1"",""3599""
","
","","","510.1000000014901","","","20","3515","1328","&#9776;","elianto","#3366ff99"," "," ","1","+10","[1360.0999999977648,2466.099999997765]","2","0","1","","","","","","","",""
"pit-trial","37","459569","0.0-2.0-8.1-0.1","battery-v0.2","","""event"",""trial"",""time""
""fullscreenenter"",""1"",""3599""
""blur"",""19"",""163532""
""focus"",""19"",""169248""
""blur"",""31"",""419526""
""focus"",""31"",""423241""
","""event"",""trial"",""time""
""blur"",""19"",""163532""
""blur"",""31"",""419526""
","""event"",""trial"",""time""
""focus"",""19"",""169248""
""focus"",""31"",""423241""
","""event"",""trial"",""time""
""fullscreenenter"",""1"",""3599""
","
","","","608.0999999977648","","","20","3515","1328","&#9776;","elianto","#3366ff99"," "," ","1","+10","[1459.300000000745]","1","0","1","","","","","","","",""
"pit-trial","38","462843","0.0-2.0-8.1-1.1","battery-v0.2","","""event"",""trial"",""time""
""fullscreenenter"",""1"",""3599""
""blur"",""19"",""163532""
""focus"",""19"",""169248""
""blur"",""31"",""419526""
""focus"",""31"",""423241""
","""event"",""trial"",""time""
""blur"",""19"",""163532""
""blur"",""31"",""419526""
","""event"",""trial"",""time""
""focus"",""19"",""169248""
""focus"",""31"",""423241""
","""event"",""trial"",""time""
""fullscreenenter"",""1"",""3599""
","
","","","415.69999999925494","","","20","3515","1328","&#9776;","elianto","#3366ff99"," "," ","1","+10","[1266.7999999970198]","1","0","1","","","","","","","",""
"pit-trial","39","466109","0.0-2.0-8.1-2.1","battery-v0.2","","""event"",""trial"",""time""
""fullscreenenter"",""1"",""3599""
""blur"",""19"",""163532""
""focus"",""19"",""169248""
""blur"",""31"",""419526""
""focus"",""31"",""423241""
","""event"",""trial"",""time""
""blur"",""19"",""163532""
""blur"",""31"",""419526""
","""event"",""trial"",""time""
""focus"",""19"",""169248""
""focus"",""31"",""423241""
","""event"",""trial"",""time""
""fullscreenenter"",""1"",""3599""
","
","","","404","","","20","3515","1328","&#9776;","elianto","#3366ff99"," "," ","1","+10","[102.59999999776483,1256.0999999977648]","2","0","1","","","","","","","",""
"pit-trial","40","469308","0.0-2.0-8.1-3.1","battery-v0.2","","""event"",""trial"",""time""
""fullscreenenter"",""1"",""3599""
""blur"",""19"",""163532""
""focus"",""19"",""169248""
""blur"",""31"",""419526""
""focus"",""31"",""423241""
","""event"",""trial"",""time""
""blur"",""19"",""163532""
""blur"",""31"",""419526""
","""event"",""trial"",""time""
""focus"",""19"",""169248""
""focus"",""31"",""423241""
","""event"",""trial"",""time""
""fullscreenenter"",""1"",""3599""
","
","","","339.69999999925494","","","20","3515","1328","&#9776;","elianto","#3366ff99"," "," ","1","0","[1192.5,1925.199999999255]","2","0","1","","","","","","","",""
"pit-trial","41","472610","0.0-2.0-8.1-4.1","battery-v0.2","","""event"",""trial"",""time""
""fullscreenenter"",""1"",""3599""
""blur"",""19"",""163532""
""focus"",""19"",""169248""
""blur"",""31"",""419526""
""focus"",""31"",""423241""
","""event"",""trial"",""time""
""blur"",""19"",""163532""
""blur"",""31"",""419526""
","""event"",""trial"",""time""
""focus"",""19"",""169248""
""focus"",""31"",""423241""
","""event"",""trial"",""time""
""fullscreenenter"",""1"",""3599""
","
","","","444.19999999925494","","","20","3515","1328","&#9776;","elianto","#3366ff99"," "," ","1","+10","[1294.5]","1","0","1","","","","","","","",""
"call-function","42","472614","0.0-2.0-9.0","battery-v0.2","","""event"",""trial"",""time""
""fullscreenenter"",""1"",""3599""
""blur"",""19"",""163532""
""focus"",""19"",""169248""
""blur"",""31"",""419526""
""focus"",""31"",""423241""
","""event"",""trial"",""time""
""blur"",""19"",""163532""
""blur"",""31"",""419526""
","""event"",""trial"",""time""
""focus"",""19"",""169248""
""focus"",""31"",""423241""
","""event"",""trial"",""time""
""fullscreenenter"",""1"",""3599""
","
","","","","","","","","","","","","","","","","","","","","","","","","","","",""
"pit-instructions","43","664689","0.0-2.0-10.0","battery-v0.2","","""event"",""trial"",""time""
""fullscreenenter"",""1"",""3599""
""blur"",""19"",""163532""
""focus"",""19"",""169248""
""blur"",""31"",""419526""
""focus"",""31"",""423241""
","""event"",""trial"",""time""
""blur"",""19"",""163532""
""blur"",""31"",""419526""
","""event"",""trial"",""time""
""focus"",""19"",""169248""
""focus"",""31"",""423241""
","""event"",""trial"",""time""
""fullscreenenter"",""1"",""3599""
","
","","[{""page_index"":0,""viewing_time"":7356.900000002235},{""page_index"":1,""viewing_time"":124534.89999999851},{""page_index"":2,""viewing_time"":44634.10000000149},{""page_index"":3,""viewing_time"":8467},{""page_index"":4,""viewing_time"":7083.300000000745}]","192076.80000000075","","","","","","","","","","","","","","","","","","","","","","","",""
"pit-trial","44","668316","0.0-2.0-11.0-0.0","battery-v0.2","","""event"",""trial"",""time""
""fullscreenenter"",""1"",""3599""
""blur"",""19"",""163532""
""focus"",""19"",""169248""
""blur"",""31"",""419526""
""focus"",""31"",""423241""
","""event"",""trial"",""time""
""blur"",""19"",""163532""
""blur"",""31"",""419526""
","""event"",""trial"",""time""
""focus"",""19"",""169248""
""focus"",""31"",""423241""
","""event"",""trial"",""time""
""fullscreenenter"",""1"",""3599""
","
","","","768.3000000007451","","","20","3515","1328","&#9761;","elianto","#3366ff99","-1"," ","0","0","[1619.3999999985099]","1","0","2","","","","","","","",""
"pit-trial","45","673180","0.0-2.0-11.0-1.0","battery-v0.2","","""event"",""trial"",""time""
""fullscreenenter"",""1"",""3599""
""blur"",""19"",""163532""
""focus"",""19"",""169248""
""blur"",""31"",""419526""
""focus"",""31"",""423241""
","""event"",""trial"",""time""
""blur"",""19"",""163532""
""blur"",""31"",""419526""
","""event"",""trial"",""time""
""focus"",""19"",""169248""
""focus"",""31"",""423241""
","""event"",""trial"",""time""
""fullscreenenter"",""1"",""3599""
","
","","","-1","","","20","3515","1328","&#9761;","elianto","#3366ff99","-1","-1","1","+10","[]","0","0","2","","","","","","","",""
"pit-trial","46","678038","0.0-2.0-11.0-2.0","battery-v0.2","","""event"",""trial"",""time""
""fullscreenenter"",""1"",""3599""
""blur"",""19"",""163532""
""focus"",""19"",""169248""
""blur"",""31"",""419526""
""focus"",""31"",""423241""
","""event"",""trial"",""time""
""blur"",""19"",""163532""
""blur"",""31"",""419526""
","""event"",""trial"",""time""
""focus"",""19"",""169248""
""focus"",""31"",""423241""
","""event"",""trial"",""time""
""fullscreenenter"",""1"",""3599""
","
","","","-1","","","20","3515","1328","&#9761;","elianto","#3366ff99","-1","-1","1","+10","[]","0","0","2","","","","","","","",""
"pit-trial","47","682899","0.0-2.0-11.0-3.0","battery-v0.2","","""event"",""trial"",""time""
""fullscreenenter"",""1"",""3599""
""blur"",""19"",""163532""
""focus"",""19"",""169248""
""blur"",""31"",""419526""
""focus"",""31"",""423241""
","""event"",""trial"",""time""
""blur"",""19"",""163532""
""blur"",""31"",""419526""
","""event"",""trial"",""time""
""focus"",""19"",""169248""
""focus"",""31"",""423241""
","""event"",""trial"",""time""
""fullscreenenter"",""1"",""3599""
","
","","","-1","","","20","3515","1328","&#9761;","elianto","#3366ff99","-1","-1","1","0","[]","0","0","2","","","","","","","",""
"pit-trial","48","686483","0.0-2.0-11.0-4.0","battery-v0.2","","""event"",""trial"",""time""
""fullscreenenter"",""1"",""3599""
""blur"",""19"",""163532""
""focus"",""19"",""169248""
""blur"",""31"",""419526""
""focus"",""31"",""423241""
","""event"",""trial"",""time""
""blur"",""19"",""163532""
""blur"",""31"",""419526""
","""event"",""trial"",""time""
""focus"",""19"",""169248""
""focus"",""31"",""423241""
","""event"",""trial"",""time""
""fullscreenenter"",""1"",""3599""
","
","","","725.1999999992549","","","20","3515","1328","&#9761;","elianto","#3366ff99","-1"," ","0","0","[1575.5,1826.699999999255]","2","0","2","","","","","","","",""
"pit-trial","49","691342","0.0-2.0-11.1-0.1","battery-v0.2","","""event"",""trial"",""time""
""fullscreenenter"",""1"",""3599""
""blur"",""19"",""163532""
""focus"",""19"",""169248""
""blur"",""31"",""419526""
""focus"",""31"",""423241""
","""event"",""trial"",""time""
""blur"",""19"",""163532""
""blur"",""31"",""419526""
","""event"",""trial"",""time""
""focus"",""19"",""169248""
""focus"",""31"",""423241""
","""event"",""trial"",""time""
""fullscreenenter"",""1"",""3599""
","
","","","-1","","","20","3515","1328","&#9761;","elianto","#3366ff99","-1","-1","1","+10","[]","0","0","2","","","","","","","",""
"pit-trial","50","694676","0.0-2.0-11.1-1.1","battery-v0.2","","""event"",""trial"",""time""
""fullscreenenter"",""1"",""3599""
""blur"",""19"",""163532""
""focus"",""19"",""169248""
""blur"",""31"",""419526""
""focus"",""31"",""423241""
","""event"",""trial"",""time""
""blur"",""19"",""163532""
""blur"",""31"",""419526""
","""event"",""trial"",""time""
""focus"",""19"",""169248""
""focus"",""31"",""423241""
","""event"",""trial"",""time""
""fullscreenenter"",""1"",""3599""
","
","","","475.5","","","20","3515","1328","&#9761;","elianto","#3366ff99","-1"," ","0","0","[1328]","1","0","2","","","","","","","",""
"pit-trial","51","699532","0.0-2.0-11.1-2.1","battery-v0.2","","""event"",""trial"",""time""
""fullscreenenter"",""1"",""3599""
""blur"",""19"",""163532""
""focus"",""19"",""169248""
""blur"",""31"",""419526""
""focus"",""31"",""423241""
","""event"",""trial"",""time""
""blur"",""19"",""163532""
""blur"",""31"",""419526""
","""event"",""trial"",""time""
""focus"",""19"",""169248""
""focus"",""31"",""423241""
","""event"",""trial"",""time""
""fullscreenenter"",""1"",""3599""
","
","","","-1","","","20","3515","1328","&#9761;","elianto","#3366ff99","-1","-1","1","+10","[]","0","0","2","","","","","","","",""
"pit-trial","52","702729","0.0-2.0-11.1-3.1","battery-v0.2","","""event"",""trial"",""time""
""fullscreenenter"",""1"",""3599""
""blur"",""19"",""163532""
""focus"",""19"",""169248""
""blur"",""31"",""419526""
""focus"",""31"",""423241""
","""event"",""trial"",""time""
""blur"",""19"",""163532""
""blur"",""31"",""419526""
","""event"",""trial"",""time""
""focus"",""19"",""169248""
""focus"",""31"",""423241""
","""event"",""trial"",""time""
""fullscreenenter"",""1"",""3599""
","
","","","341","","","20","3515","1328","&#9761;","elianto","#3366ff99","-1"," ","0","+10","[1191.5]","1","0","2","","","","","","","",""
"pit-trial","53","707589","0.0-2.0-11.1-4.1","battery-v0.2","","""event"",""trial"",""time""
""fullscreenenter"",""1"",""3599""
""blur"",""19"",""163532""
""focus"",""19"",""169248""
""blur"",""31"",""419526""
""focus"",""31"",""423241""
","""event"",""trial"",""time""
""blur"",""19"",""163532""
""blur"",""31"",""419526""
","""event"",""trial"",""time""
""focus"",""19"",""169248""
""focus"",""31"",""423241""
","""event"",""trial"",""time""
""fullscreenenter"",""1"",""3599""
","
","","","-1","","","20","3515","1328","&#9761;","elianto","#3366ff99","-1","-1","1","+10","[]","0","0","2","","","","","","","",""
"pit-trial","54","712410","0.0-2.0-11.2-0.2","battery-v0.2","","""event"",""trial"",""time""
""fullscreenenter"",""1"",""3599""
""blur"",""19"",""163532""
""focus"",""19"",""169248""
""blur"",""31"",""419526""
""focus"",""31"",""423241""
","""event"",""trial"",""time""
""blur"",""19"",""163532""
""blur"",""31"",""419526""
","""event"",""trial"",""time""
""focus"",""19"",""169248""
""focus"",""31"",""423241""
","""event"",""trial"",""time""
""fullscreenenter"",""1"",""3599""
","
","","","1962","","","20","3515","1328","&#9761;","elianto","#3366ff99","-1"," ","0","0","[2813.800000000745]","1","0","2","","","","","","","",""
"pit-trial","55","717274","0.0-2.0-11.2-1.2","battery-v0.2","","""event"",""trial"",""time""
""fullscreenenter"",""1"",""3599""
""blur"",""19"",""163532""
""focus"",""19"",""169248""
""blur"",""31"",""419526""
""focus"",""31"",""423241""
","""event"",""trial"",""time""
""blur"",""19"",""163532""
""blur"",""31"",""419526""
","""event"",""trial"",""time""
""focus"",""19"",""169248""
""focus"",""31"",""423241""
","""event"",""trial"",""time""
""fullscreenenter"",""1"",""3599""
","
","","","-1","","","20","3515","1328","&#9761;","elianto","#3366ff99","-1","-1","1","+10","[]","0","0","2","","","","","","","",""
"pit-trial","56","722133","0.0-2.0-11.2-2.2","battery-v0.2","","""event"",""trial"",""time""
""fullscreenenter"",""1"",""3599""
""blur"",""19"",""163532""
""focus"",""19"",""169248""
""blur"",""31"",""419526""
""focus"",""31"",""423241""
","""event"",""trial"",""time""
""blur"",""19"",""163532""
""blur"",""31"",""419526""
","""event"",""trial"",""time""
""focus"",""19"",""169248""
""focus"",""31"",""423241""
","""event"",""trial"",""time""
""fullscreenenter"",""1"",""3599""
","
","","","-1","","","20","3515","1328","&#9761;","elianto","#3366ff99","-1","-1","1","+10","[3193.5]","1","0","2","","","","","","","",""
"pit-trial","57","726965","0.0-2.0-11.2-3.2","battery-v0.2","","""event"",""trial"",""time""
""fullscreenenter"",""1"",""3599""
""blur"",""19"",""163532""
""focus"",""19"",""169248""
""blur"",""31"",""419526""
""focus"",""31"",""423241""
","""event"",""trial"",""time""
""blur"",""19"",""163532""
""blur"",""31"",""419526""
","""event"",""trial"",""time""
""focus"",""19"",""169248""
""focus"",""31"",""423241""
","""event"",""trial"",""time""
""fullscreenenter"",""1"",""3599""
","
","","","1973.7999999970198","","","20","3515","1328","&#9761;","elianto","#3366ff99","-1"," ","0","+10","[2824.39999999851]","1","0","2","","","","","","","",""
"pit-trial","58","731826","0.0-2.0-11.2-4.2","battery-v0.2","","""event"",""trial"",""time""
""fullscreenenter"",""1"",""3599""
""blur"",""19"",""163532""
""focus"",""19"",""169248""
""blur"",""31"",""419526""
""focus"",""31"",""423241""
","""event"",""trial"",""time""
""blur"",""19"",""163532""
""blur"",""31"",""419526""
","""event"",""trial"",""time""
""focus"",""19"",""169248""
""focus"",""31"",""423241""
","""event"",""trial"",""time""
""fullscreenenter"",""1"",""3599""
","
","","","-1","","","20","3515","1328","&#9761;","elianto","#3366ff99","-1","-1","1","+10","[3743.7999999970198]","1","0","2","","","","","","","",""
"pit-trial","59","736687","0.0-2.0-11.3-0.3","battery-v0.2","","""event"",""trial"",""time""
""fullscreenenter"",""1"",""3599""
""blur"",""19"",""163532""
""focus"",""19"",""169248""
""blur"",""31"",""419526""
""focus"",""31"",""423241""
","""event"",""trial"",""time""
""blur"",""19"",""163532""
""blur"",""31"",""419526""
","""event"",""trial"",""time""
""focus"",""19"",""169248""
""focus"",""31"",""423241""
","""event"",""trial"",""time""
""fullscreenenter"",""1"",""3599""
","
","","","-1","","","20","3515","1328","&#9761;","elianto","#3366ff99","-1","-1","1","+10","[]","0","0","2","","","","","","","",""
"pit-trial","60","739898","0.0-2.0-11.3-1.3","battery-v0.2","","""event"",""trial"",""time""
""fullscreenenter"",""1"",""3599""
""blur"",""19"",""163532""
""focus"",""19"",""169248""
""blur"",""31"",""419526""
""focus"",""31"",""423241""
","""event"",""trial"",""time""
""blur"",""19"",""163532""
""blur"",""31"",""419526""
","""event"",""trial"",""time""
""focus"",""19"",""169248""
""focus"",""31"",""423241""
","""event"",""trial"",""time""
""fullscreenenter"",""1"",""3599""
","
","","","353.19999999925494","","","20","3515","1328","&#9761;","elianto","#3366ff99","-1"," ","0","0","[1205.0999999977648]","1","0","2","","","","","","","",""
"pit-trial","61","743025","0.0-2.0-11.3-2.3","battery-v0.2","","""event"",""trial"",""time""
""fullscreenenter"",""1"",""3599""
""blur"",""19"",""163532""
""focus"",""19"",""169248""
""blur"",""31"",""419526""
""focus"",""31"",""423241""
","""event"",""trial"",""time""
""blur"",""19"",""163532""
""blur"",""31"",""419526""
","""event"",""trial"",""time""
""focus"",""19"",""169248""
""focus"",""31"",""423241""
","""event"",""trial"",""time""
""fullscreenenter"",""1"",""3599""
","
","","","271.19999999925494","","","20","3515","1328","&#9761;","elianto","#3366ff99","-1"," ","0","0","[1121.199999999255]","1","0","2","","","","","","","",""
"pit-trial","62","747887","0.0-2.0-11.3-3.3","battery-v0.2","","""event"",""trial"",""time""
""fullscreenenter"",""1"",""3599""
""blur"",""19"",""163532""
""focus"",""19"",""169248""
""blur"",""31"",""419526""
""focus"",""31"",""423241""
","""event"",""trial"",""time""
""blur"",""19"",""163532""
""blur"",""31"",""419526""
","""event"",""trial"",""time""
""focus"",""19"",""169248""
""focus"",""31"",""423241""
","""event"",""trial"",""time""
""fullscreenenter"",""1"",""3599""
","
","","","-1","","","20","3515","1328","&#9761;","elianto","#3366ff99","-1","-1","1","0","[]","0","0","2","","","","","","","",""
"pit-trial","63","752132","0.0-2.0-11.3-4.3","battery-v0.2","","""event"",""trial"",""time""
""fullscreenenter"",""1"",""3599""
""blur"",""19"",""163532""
""focus"",""19"",""169248""
""blur"",""31"",""419526""
""focus"",""31"",""423241""
","""event"",""trial"",""time""
""blur"",""19"",""163532""
""blur"",""31"",""419526""
","""event"",""trial"",""time""
""focus"",""19"",""169248""
""focus"",""31"",""423241""
","""event"",""trial"",""time""
""fullscreenenter"",""1"",""3599""
","
","","","1388.5999999977648","","","20","3515","1328","&#9761;","elianto","#3366ff99","-1"," ","0","0","[2240.10000000149]","1","0","2","","","","","","","",""
"pit-trial","64","756996","0.0-2.0-11.4-0.4","battery-v0.2","","""event"",""trial"",""time""
""fullscreenenter"",""1"",""3599""
""blur"",""19"",""163532""
""focus"",""19"",""169248""
""blur"",""31"",""419526""
""focus"",""31"",""423241""
","""event"",""trial"",""time""
""blur"",""19"",""163532""
""blur"",""31"",""419526""
","""event"",""trial"",""time""
""focus"",""19"",""169248""
""focus"",""31"",""423241""
","""event"",""trial"",""time""
""fullscreenenter"",""1"",""3599""
","
","","","-1","","","20","3515","1328","&#9761;","elianto","#3366ff99","-1","-1","1","+10","[]","0","0","2","","","","","","","",""
"pit-trial","65","761860","0.0-2.0-11.4-1.4","battery-v0.2","","""event"",""trial"",""time""
""fullscreenenter"",""1"",""3599""
""blur"",""19"",""163532""
""focus"",""19"",""169248""
""blur"",""31"",""419526""
""focus"",""31"",""423241""
","""event"",""trial"",""time""
""blur"",""19"",""163532""
""blur"",""31"",""419526""
","""event"",""trial"",""time""
""focus"",""19"",""169248""
""focus"",""31"",""423241""
","""event"",""trial"",""time""
""fullscreenenter"",""1"",""3599""
","
","","","-1","","","20","3515","1328","&#9761;","elianto","#3366ff99","-1","-1","1","+10","[]","0","0","2","","","","","","","",""
"pit-trial","66","766724","0.0-2.0-11.4-2.4","battery-v0.2","","""event"",""trial"",""time""
""fullscreenenter"",""1"",""3599""
""blur"",""19"",""163532""
""focus"",""19"",""169248""
""blur"",""31"",""419526""
""focus"",""31"",""423241""
","""event"",""trial"",""time""
""blur"",""19"",""163532""
""blur"",""31"",""419526""
","""event"",""trial"",""time""
""focus"",""19"",""169248""
""focus"",""31"",""423241""
","""event"",""trial"",""time""
""fullscreenenter"",""1"",""3599""
","
","","","-1","","","20","3515","1328","&#9761;","elianto","#3366ff99","-1","-1","1","+10","[]","0","0","2","","","","","","","",""
"pit-trial","67","771587","0.0-2.0-11.4-3.4","battery-v0.2","","""event"",""trial"",""time""
""fullscreenenter"",""1"",""3599""
""blur"",""19"",""163532""
""focus"",""19"",""169248""
""blur"",""31"",""419526""
""focus"",""31"",""423241""
","""event"",""trial"",""time""
""blur"",""19"",""163532""
""blur"",""31"",""419526""
","""event"",""trial"",""time""
""focus"",""19"",""169248""
""focus"",""31"",""423241""
","""event"",""trial"",""time""
""fullscreenenter"",""1"",""3599""
","
","","","-1","","","20","3515","1328","&#9761;","elianto","#3366ff99","-1","-1","1","0","[]","0","0","2","","","","","","","",""
"pit-trial","68","776446","0.0-2.0-11.4-4.4","battery-v0.2","","""event"",""trial"",""time""
""fullscreenenter"",""1"",""3599""
""blur"",""19"",""163532""
""focus"",""19"",""169248""
""blur"",""31"",""419526""
""focus"",""31"",""423241""
","""event"",""trial"",""time""
""blur"",""19"",""163532""
""blur"",""31"",""419526""
","""event"",""trial"",""time""
""focus"",""19"",""169248""
""focus"",""31"",""423241""
","""event"",""trial"",""time""
""fullscreenenter"",""1"",""3599""
","
","","","-1","","","20","3515","1328","&#9761;","elianto","#3366ff99","-1","-1","1","+10","[]","0","0","2","","","","","","","",""
"pit-instructions","69","797472","0.0-2.0-11.4-5.4-0.4","battery-v0.2","","""event"",""trial"",""time""
""fullscreenenter"",""1"",""3599""
""blur"",""19"",""163532""
""focus"",""19"",""169248""
""blur"",""31"",""419526""
""focus"",""31"",""423241""
","""event"",""trial"",""time""
""blur"",""19"",""163532""
""blur"",""31"",""419526""
","""event"",""trial"",""time""
""focus"",""19"",""169248""
""focus"",""31"",""423241""
","""event"",""trial"",""time""
""fullscreenenter"",""1"",""3599""
","
","","[{""page_index"":0,""viewing_time"":7555.400000002235},{""page_index"":1,""viewing_time"":7750.699999999255},{""page_index"":2,""viewing_time"":5716.5}]","21023.60000000149","","","","","","","","","","","","","","","","","","","","","","","",""
"call-function","70","797475","0.0-2.0-12.0","battery-v0.2","","""event"",""trial"",""time""
""fullscreenenter"",""1"",""3599""
""blur"",""19"",""163532""
""focus"",""19"",""169248""
""blur"",""31"",""419526""
""focus"",""31"",""423241""
","""event"",""trial"",""time""
""blur"",""19"",""163532""
""blur"",""31"",""419526""
","""event"",""trial"",""time""
""focus"",""19"",""169248""
""focus"",""31"",""423241""
","""event"",""trial"",""time""
""fullscreenenter"",""1"",""3599""
","
","","","","","","","","","","","","","","","","","","","","","","","","","","",""
"pit-instructions","71","833289","0.0-2.0-13.0","battery-v0.2","","""event"",""trial"",""time""
""fullscreenenter"",""1"",""3599""
""blur"",""19"",""163532""
""focus"",""19"",""169248""
""blur"",""31"",""419526""
""focus"",""31"",""423241""
","""event"",""trial"",""time""
""blur"",""19"",""163532""
""blur"",""31"",""419526""
","""event"",""trial"",""time""
""focus"",""19"",""169248""
""focus"",""31"",""423241""
","""event"",""trial"",""time""
""fullscreenenter"",""1"",""3599""
","
","","[{""page_index"":0,""viewing_time"":5345.5},{""page_index"":1,""viewing_time"":6900.099999997765},{""page_index"":2,""viewing_time"":6066.60000000149},{""page_index"":3,""viewing_time"":11549.800000000745},{""page_index"":4,""viewing_time"":5950.39999999851}]","35813.199999999255","","","","","","","","","","","","","","","","","","","","","","","",""
"pit-trial","72","838150","0.0-2.0-14.0-0.0","battery-v0.2","","""event"",""trial"",""time""
""fullscreenenter"",""1"",""3599""
""blur"",""19"",""163532""
""focus"",""19"",""169248""
""blur"",""31"",""419526""
""focus"",""31"",""423241""
","""event"",""trial"",""time""
""blur"",""19"",""163532""
""blur"",""31"",""419526""
","""event"",""trial"",""time""
""focus"",""19"",""169248""
""focus"",""31"",""423241""
","""event"",""trial"",""time""
""fullscreenenter"",""1"",""3599""
","
","","","-1","","","20","3515","1328","&#9826;","elianto","#f73b6a7A","-1","-1","1","0","[]","0","0","3","","","","","","","",""
"pit-trial","73","841448","0.0-2.0-14.0-1.0","battery-v0.2","","""event"",""trial"",""time""
""fullscreenenter"",""1"",""3599""
""blur"",""19"",""163532""
""focus"",""19"",""169248""
""blur"",""31"",""419526""
""focus"",""31"",""423241""
","""event"",""trial"",""time""
""blur"",""19"",""163532""
""blur"",""31"",""419526""
","""event"",""trial"",""time""
""focus"",""19"",""169248""
""focus"",""31"",""423241""
","""event"",""trial"",""time""
""fullscreenenter"",""1"",""3599""
","
","","","440.3999999985099","","","20","3515","1328","&#9826;","elianto","#f73b6a7A","-1"," ","0","-10","[1291.1000000014901]","1","0","3","","","","","","","",""
"pit-trial","74","846305","0.0-2.0-14.0-2.0","battery-v0.2","","""event"",""trial"",""time""
""fullscreenenter"",""1"",""3599""
""blur"",""19"",""163532""
""focus"",""19"",""169248""
""blur"",""31"",""419526""
""focus"",""31"",""423241""
","""event"",""trial"",""time""
""blur"",""19"",""163532""
""blur"",""31"",""419526""
","""event"",""trial"",""time""
""focus"",""19"",""169248""
""focus"",""31"",""423241""
","""event"",""trial"",""time""
""fullscreenenter"",""1"",""3599""
","
","","","-1","","","20","3515","1328","&#9826;","elianto","#f73b6a7A","-1","-1","1","0","[]","0","0","3","","","","","","","",""
"pit-trial","75","851170","0.0-2.0-14.0-3.0","battery-v0.2","","""event"",""trial"",""time""
""fullscreenenter"",""1"",""3599""
""blur"",""19"",""163532""
""focus"",""19"",""169248""
""blur"",""31"",""419526""
""focus"",""31"",""423241""
","""event"",""trial"",""time""
""blur"",""19"",""163532""
""blur"",""31"",""419526""
","""event"",""trial"",""time""
""focus"",""19"",""169248""
""focus"",""31"",""423241""
","""event"",""trial"",""time""
""fullscreenenter"",""1"",""3599""
","
","","","-1","","","20","3515","1328","&#9826;","elianto","#f73b6a7A","-1","-1","1","-10","[]","0","0","3","","","","","","","",""
"pit-trial","76","854610","0.0-2.0-14.0-4.0","battery-v0.2","","""event"",""trial"",""time""
""fullscreenenter"",""1"",""3599""
""blur"",""19"",""163532""
""focus"",""19"",""169248""
""blur"",""31"",""419526""
""focus"",""31"",""423241""
","""event"",""trial"",""time""
""blur"",""19"",""163532""
""blur"",""31"",""419526""
","""event"",""trial"",""time""
""focus"",""19"",""169248""
""focus"",""31"",""423241""
","""event"",""trial"",""time""
""fullscreenenter"",""1"",""3599""
","
","","","584.6000000014901","","","20","3515","1328","&#9826;","elianto","#f73b6a7A","-1"," ","0","-10","[1434.699999999255]","1","0","3","","","","","","","",""
"pit-trial","77","858674","0.0-2.0-14.1-0.1","battery-v0.2","","""event"",""trial"",""time""
""fullscreenenter"",""1"",""3599""
""blur"",""19"",""163532""
""focus"",""19"",""169248""
""blur"",""31"",""419526""
""focus"",""31"",""423241""
","""event"",""trial"",""time""
""blur"",""19"",""163532""
""blur"",""31"",""419526""
","""event"",""trial"",""time""
""focus"",""19"",""169248""
""focus"",""31"",""423241""
","""event"",""trial"",""time""
""fullscreenenter"",""1"",""3599""
","
","","","1203.6000000014901","","","20","3515","1328","&#9826;","elianto","#f73b6a7A","-1"," ","0","-10","[2054.60000000149]","1","0","3","","","","","","","",""
"pit-trial","78","862362","0.0-2.0-14.1-1.1","battery-v0.2","","""event"",""trial"",""time""
""fullscreenenter"",""1"",""3599""
""blur"",""19"",""163532""
""focus"",""19"",""169248""
""blur"",""31"",""419526""
""focus"",""31"",""423241""
","""event"",""trial"",""time""
""blur"",""19"",""163532""
""blur"",""31"",""419526""
","""event"",""trial"",""time""
""focus"",""19"",""169248""
""focus"",""31"",""423241""
","""event"",""trial"",""time""
""fullscreenenter"",""1"",""3599""
","
","","","829.6999999992549","","","20","3515","1328","&#9826;","elianto","#f73b6a7A","-1"," ","0","-10","[1681.5]","1","0","3","","","","","","","",""
"pit-trial","79","867220","0.0-2.0-14.1-2.1","battery-v0.2","","""event"",""trial"",""time""
""fullscreenenter"",""1"",""3599""
""blur"",""19"",""163532""
""focus"",""19"",""169248""
""blur"",""31"",""419526""
""focus"",""31"",""423241""
","""event"",""trial"",""time""
""blur"",""19"",""163532""
""blur"",""31"",""419526""
","""event"",""trial"",""time""
""focus"",""19"",""169248""
""focus"",""31"",""423241""
","""event"",""trial"",""time""
""fullscreenenter"",""1"",""3599""
","
","","","-1","","","20","3515","1328","&#9826;","elianto","#f73b6a7A","-1","-1","1","0","[]","0","0","3","","","","","","","",""
"pit-trial","80","872084","0.0-2.0-14.1-3.1","battery-v0.2","","""event"",""trial"",""time""
""fullscreenenter"",""1"",""3599""
""blur"",""19"",""163532""
""focus"",""19"",""169248""
""blur"",""31"",""419526""
""focus"",""31"",""423241""
","""event"",""trial"",""time""
""blur"",""19"",""163532""
""blur"",""31"",""419526""
","""event"",""trial"",""time""
""focus"",""19"",""169248""
""focus"",""31"",""423241""
","""event"",""trial"",""time""
""fullscreenenter"",""1"",""3599""
","
","","","-1","","","20","3515","1328","&#9826;","elianto","#f73b6a7A","-1","-1","1","-10","[]","0","0","3","","","","","","","",""
"pit-trial","81","876489","0.0-2.0-14.1-4.1","battery-v0.2","","""event"",""trial"",""time""
""fullscreenenter"",""1"",""3599""
""blur"",""19"",""163532""
""focus"",""19"",""169248""
""blur"",""31"",""419526""
""focus"",""31"",""423241""
","""event"",""trial"",""time""
""blur"",""19"",""163532""
""blur"",""31"",""419526""
","""event"",""trial"",""time""
""focus"",""19"",""169248""
""focus"",""31"",""423241""
","""event"",""trial"",""time""
""fullscreenenter"",""1"",""3599""
","
","","","1546.1000000014901","","","20","3515","1328","&#9826;","elianto","#f73b6a7A","-1"," ","0","-10","[2396.89999999851]","1","0","3","","","","","","","",""
"pit-trial","82","881353","0.0-2.0-14.2-0.2","battery-v0.2","","""event"",""trial"",""time""
""fullscreenenter"",""1"",""3599""
""blur"",""19"",""163532""
""focus"",""19"",""169248""
""blur"",""31"",""419526""
""focus"",""31"",""423241""
","""event"",""trial"",""time""
""blur"",""19"",""163532""
""blur"",""31"",""419526""
","""event"",""trial"",""time""
""focus"",""19"",""169248""
""focus"",""31"",""423241""
","""event"",""trial"",""time""
""fullscreenenter"",""1"",""3599""
","
","","","-1","","","20","3515","1328","&#9826;","elianto","#f73b6a7A","-1","-1","1","0","[]","0","0","3","","","","","","","",""
"pit-trial","83","886208","0.0-2.0-14.2-1.2","battery-v0.2","","""event"",""trial"",""time""
""fullscreenenter"",""1"",""3599""
""blur"",""19"",""163532""
""focus"",""19"",""169248""
""blur"",""31"",""419526""
""focus"",""31"",""423241""
","""event"",""trial"",""time""
""blur"",""19"",""163532""
""blur"",""31"",""419526""
","""event"",""trial"",""time""
""focus"",""19"",""169248""
""focus"",""31"",""423241""
","""event"",""trial"",""time""
""fullscreenenter"",""1"",""3599""
","
","","","-1","","","20","3515","1328","&#9826;","elianto","#f73b6a7A","-1","-1","1","0","[]","0","0","3","","","","","","","",""
"pit-trial","84","891070","0.0-2.0-14.2-2.2","battery-v0.2","","""event"",""trial"",""time""
""fullscreenenter"",""1"",""3599""
""blur"",""19"",""163532""
""focus"",""19"",""169248""
""blur"",""31"",""419526""
""focus"",""31"",""423241""
","""event"",""trial"",""time""
""blur"",""19"",""163532""
""blur"",""31"",""419526""
","""event"",""trial"",""time""
""focus"",""19"",""169248""
""focus"",""31"",""423241""
","""event"",""trial"",""time""
""fullscreenenter"",""1"",""3599""
","
","","","-1","","","20","3515","1328","&#9826;","elianto","#f73b6a7A","-1","-1","1","0","[]","0","0","3","","","","","","","",""
"pit-trial","85","894713","0.0-2.0-14.2-3.2","battery-v0.2","","""event"",""trial"",""time""
""fullscreenenter"",""1"",""3599""
""blur"",""19"",""163532""
""focus"",""19"",""169248""
""blur"",""31"",""419526""
""focus"",""31"",""423241""
","""event"",""trial"",""time""
""blur"",""19"",""163532""
""blur"",""31"",""419526""
","""event"",""trial"",""time""
""focus"",""19"",""169248""
""focus"",""31"",""423241""
","""event"",""trial"",""time""
""fullscreenenter"",""1"",""3599""
","
","","","782.3000000007451","","","20","3515","1328","&#9826;","elianto","#f73b6a7A","-1"," ","0","0","[1633.5]","1","0","3","","","","","","","",""
"pit-trial","86","897961","0.0-2.0-14.2-4.2","battery-v0.2","","""event"",""trial"",""time""
""fullscreenenter"",""1"",""3599""
""blur"",""19"",""163532""
""focus"",""19"",""169248""
""blur"",""31"",""419526""
""focus"",""31"",""423241""
","""event"",""trial"",""time""
""blur"",""19"",""163532""
""blur"",""31"",""419526""
","""event"",""trial"",""time""
""focus"",""19"",""169248""
""focus"",""31"",""423241""
","""event"",""trial"",""time""
""fullscreenenter"",""1"",""3599""
","
","","","391.19999999925494","","","20","3515","1328","&#9826;","elianto","#f73b6a7A","-1"," ","0","-10","[1241.5]","1","0","3","","","","","","","",""
"pit-trial","87","901682","0.0-2.0-14.3-0.3","battery-v0.2","","""event"",""trial"",""time""
""fullscreenenter"",""1"",""3599""
""blur"",""19"",""163532""
""focus"",""19"",""169248""
""blur"",""31"",""419526""
""focus"",""31"",""423241""
","""event"",""trial"",""time""
""blur"",""19"",""163532""
""blur"",""31"",""419526""
","""event"",""trial"",""time""
""focus"",""19"",""169248""
""focus"",""31"",""423241""
","""event"",""trial"",""time""
""fullscreenenter"",""1"",""3599""
","
","","","861","","","20","3515","1328","&#9826;","elianto","#f73b6a7A","-1"," ","0","-10","[1711.199999999255]","1","0","3","","","","","","","",""
"pit-trial","88","906540","0.0-2.0-14.3-1.3","battery-v0.2","","""event"",""trial"",""time""
""fullscreenenter"",""1"",""3599""
""blur"",""19"",""163532""
""focus"",""19"",""169248""
""blur"",""31"",""419526""
""focus"",""31"",""423241""
","""event"",""trial"",""time""
""blur"",""19"",""163532""
""blur"",""31"",""419526""
","""event"",""trial"",""time""
""focus"",""19"",""169248""
""focus"",""31"",""423241""
","""event"",""trial"",""time""
""fullscreenenter"",""1"",""3599""
","
","","","-1","","","20","3515","1328","&#9826;","elianto","#f73b6a7A","-1","-1","1","0","[]","0","0","3","","","","","","","",""
"pit-trial","89","911401","0.0-2.0-14.3-2.3","battery-v0.2","","""event"",""trial"",""time""
""fullscreenenter"",""1"",""3599""
""blur"",""19"",""163532""
""focus"",""19"",""169248""
""blur"",""31"",""419526""
""focus"",""31"",""423241""
","""event"",""trial"",""time""
""blur"",""19"",""163532""
""blur"",""31"",""419526""
","""event"",""trial"",""time""
""focus"",""19"",""169248""
""focus"",""31"",""423241""
","""event"",""trial"",""time""
""fullscreenenter"",""1"",""3599""
","
","","","-1","","","20","3515","1328","&#9826;","elianto","#f73b6a7A","-1","-1","1","0","[4123.699999999255]","1","0","3","","","","","","","",""
"pit-trial","90","914441","0.0-2.0-14.3-3.3","battery-v0.2","","""event"",""trial"",""time""
""fullscreenenter"",""1"",""3599""
""blur"",""19"",""163532""
""focus"",""19"",""169248""
""blur"",""31"",""419526""
""focus"",""31"",""423241""
","""event"",""trial"",""time""
""blur"",""19"",""163532""
""blur"",""31"",""419526""
","""event"",""trial"",""time""
""focus"",""19"",""169248""
""focus"",""31"",""423241""
","""event"",""trial"",""time""
""fullscreenenter"",""1"",""3599""
","
","","","184.69999999925494","","","20","3515","1328","&#9826;","elianto","#f73b6a7A","-1"," ","0","0","[1035.699999999255]","1","0","3","","","","","","","",""
"pit-trial","91","917369","0.0-2.0-14.3-4.3","battery-v0.2","","""event"",""trial"",""time""
""fullscreenenter"",""1"",""3599""
""blur"",""19"",""163532""
""focus"",""19"",""169248""
""blur"",""31"",""419526""
""focus"",""31"",""423241""
","""event"",""trial"",""time""
""blur"",""19"",""163532""
""blur"",""31"",""419526""
","""event"",""trial"",""time""
""focus"",""19"",""169248""
""focus"",""31"",""423241""
","""event"",""trial"",""time""
""fullscreenenter"",""1"",""3599""
","
","","","68.19999999925494","","","20","3515","1328","&#9826;","elianto","#f73b6a7A","-1"," ","0","-10","[921.3999999985099]","1","0","3","","","","","","","",""
"pit-trial","92","922225","0.0-2.0-14.4-0.4","battery-v0.2","","""event"",""trial"",""time""
""fullscreenenter"",""1"",""3599""
""blur"",""19"",""163532""
""focus"",""19"",""169248""
""blur"",""31"",""419526""
""focus"",""31"",""423241""
","""event"",""trial"",""time""
""blur"",""19"",""163532""
""blur"",""31"",""419526""
","""event"",""trial"",""time""
""focus"",""19"",""169248""
""focus"",""31"",""423241""
","""event"",""trial"",""time""
""fullscreenenter"",""1"",""3599""
","
","","","-1","","","20","3515","1328","&#9826;","elianto","#f73b6a7A","-1","-1","1","0","[]","0","0","3","","","","","","","",""
"pit-trial","93","925470","0.0-2.0-14.4-1.4","battery-v0.2","","""event"",""trial"",""time""
""fullscreenenter"",""1"",""3599""
""blur"",""19"",""163532""
""focus"",""19"",""169248""
""blur"",""31"",""419526""
""focus"",""31"",""423241""
","""event"",""trial"",""time""
""blur"",""19"",""163532""
""blur"",""31"",""419526""
","""event"",""trial"",""time""
""focus"",""19"",""169248""
""focus"",""31"",""423241""
","""event"",""trial"",""time""
""fullscreenenter"",""1"",""3599""
","
","","","384.19999999925494","","","20","3515","1328","&#9826;","elianto","#f73b6a7A","-1"," ","0","-10","[1235.6000000014901]","1","0","3","","","","","","","",""
"pit-trial","94","930328","0.0-2.0-14.4-2.4","battery-v0.2","","""event"",""trial"",""time""
""fullscreenenter"",""1"",""3599""
""blur"",""19"",""163532""
""focus"",""19"",""169248""
""blur"",""31"",""419526""
""focus"",""31"",""423241""
","""event"",""trial"",""time""
""blur"",""19"",""163532""
""blur"",""31"",""419526""
","""event"",""trial"",""time""
""focus"",""19"",""169248""
""focus"",""31"",""423241""
","""event"",""trial"",""time""
""fullscreenenter"",""1"",""3599""
","
","","","-1","","","20","3515","1328","&#9826;","elianto","#f73b6a7A","-1","-1","1","0","[]","0","0","3","","","","","","","",""
"pit-trial","95","933497","0.0-2.0-14.4-3.4","battery-v0.2","","""event"",""trial"",""time""
""fullscreenenter"",""1"",""3599""
""blur"",""19"",""163532""
""focus"",""19"",""169248""
""blur"",""31"",""419526""
""focus"",""31"",""423241""
","""event"",""trial"",""time""
""blur"",""19"",""163532""
""blur"",""31"",""419526""
","""event"",""trial"",""time""
""focus"",""19"",""169248""
""focus"",""31"",""423241""
","""event"",""trial"",""time""
""fullscreenenter"",""1"",""3599""
","
","","","309.19999999925494","","","20","3515","1328","&#9826;","elianto","#f73b6a7A","-1"," ","0","0","[1159.8999999985099]","1","0","3","","","","","","","",""
"pit-trial","96","938355","0.0-2.0-14.4-4.4","battery-v0.2","","""event"",""trial"",""time""
""fullscreenenter"",""1"",""3599""
""blur"",""19"",""163532""
""focus"",""19"",""169248""
""blur"",""31"",""419526""
""focus"",""31"",""423241""
","""event"",""trial"",""time""
""blur"",""19"",""163532""
""blur"",""31"",""419526""
","""event"",""trial"",""time""
""focus"",""19"",""169248""
""focus"",""31"",""423241""
","""event"",""trial"",""time""
""fullscreenenter"",""1"",""3599""
","
","","","-1","","","20","3515","1328","&#9826;","elianto","#f73b6a7A","-1","-1","1","0","[]","0","0","3","","","","","","","",""
"pit-instructions","97","964072","0.0-2.0-14.4-5.4-0.4","battery-v0.2","","""event"",""trial"",""time""
""fullscreenenter"",""1"",""3599""
""blur"",""19"",""163532""
""focus"",""19"",""169248""
""blur"",""31"",""419526""
""focus"",""31"",""423241""
","""event"",""trial"",""time""
""blur"",""19"",""163532""
""blur"",""31"",""419526""
","""event"",""trial"",""time""
""focus"",""19"",""169248""
""focus"",""31"",""423241""
","""event"",""trial"",""time""
""fullscreenenter"",""1"",""3599""
","
","","[{""page_index"":0,""viewing_time"":5662.300000000745},{""page_index"":1,""viewing_time"":6983.599999997765},{""page_index"":2,""viewing_time"":13066.60000000149}]","25713.10000000149","","","","","","","","","","","","","","","","","","","","","","","",""
"pit-trial","98","967981","0.0-2.0-14.5-0.5","battery-v0.2","","""event"",""trial"",""time""
""fullscreenenter"",""1"",""3599""
""blur"",""19"",""163532""
""focus"",""19"",""169248""
""blur"",""31"",""419526""
""focus"",""31"",""423241""
","""event"",""trial"",""time""
""blur"",""19"",""163532""
""blur"",""31"",""419526""
","""event"",""trial"",""time""
""focus"",""19"",""169248""
""focus"",""31"",""423241""
","""event"",""trial"",""time""
""fullscreenenter"",""1"",""3599""
","
","","","1055","","","20","3515","1328","&#9826;","elianto","#f73b6a7A","-1"," ","0","-10","[1905.300000000745]","1","0","3","","","","","","","",""
"pit-trial","99","972363","0.0-2.0-14.5-1.5","battery-v0.2","","""event"",""trial"",""time""
""fullscreenenter"",""1"",""3599""
""blur"",""19"",""163532""
""focus"",""19"",""169248""
""blur"",""31"",""419526""
""focus"",""31"",""423241""
","""event"",""trial"",""time""
""blur"",""19"",""163532""
""blur"",""31"",""419526""
","""event"",""trial"",""time""
""focus"",""19"",""169248""
""focus"",""31"",""423241""
","""event"",""trial"",""time""
""fullscreenenter"",""1"",""3599""
","
","","","1523.5999999977648","","","20","3515","1328","&#9826;","elianto","#f73b6a7A","-1"," ","0","-10","[2373.699999999255]","1","0","3","","","","","","","",""
"pit-trial","100","977223","0.0-2.0-14.5-2.5","battery-v0.2","","""event"",""trial"",""time""
""fullscreenenter"",""1"",""3599""
""blur"",""19"",""163532""
""focus"",""19"",""169248""
""blur"",""31"",""419526""
""focus"",""31"",""423241""
","""event"",""trial"",""time""
""blur"",""19"",""163532""
""blur"",""31"",""419526""
","""event"",""trial"",""time""
""focus"",""19"",""169248""
""focus"",""31"",""423241""
","""event"",""trial"",""time""
""fullscreenenter"",""1"",""3599""
","
","","","-1","","","20","3515","1328","&#9826;","elianto","#f73b6a7A","-1","-1","1","0","[]","0","0","3","","","","","","","",""
"pit-trial","101","982082","0.0-2.0-14.5-3.5","battery-v0.2","","""event"",""trial"",""time""
""fullscreenenter"",""1"",""3599""
""blur"",""19"",""163532""
""focus"",""19"",""169248""
""blur"",""31"",""419526""
""focus"",""31"",""423241""
","""event"",""trial"",""time""
""blur"",""19"",""163532""
""blur"",""31"",""419526""
","""event"",""trial"",""time""
""focus"",""19"",""169248""
""focus"",""31"",""423241""
","""event"",""trial"",""time""
""fullscreenenter"",""1"",""3599""
","
","","","-1","","","20","3515","1328","&#9826;","elianto","#f73b6a7A","-1","-1","1","-10","[]","0","0","3","","","","","","","",""
"pit-trial","102","986066","0.0-2.0-14.5-4.5","battery-v0.2","","""event"",""trial"",""time""
""fullscreenenter"",""1"",""3599""
""blur"",""19"",""163532""
""focus"",""19"",""169248""
""blur"",""31"",""419526""
""focus"",""31"",""423241""
","""event"",""trial"",""time""
""blur"",""19"",""163532""
""blur"",""31"",""419526""
","""event"",""trial"",""time""
""focus"",""19"",""169248""
""focus"",""31"",""423241""
","""event"",""trial"",""time""
""fullscreenenter"",""1"",""3599""
","
","","","1127.5","","","20","3515","1328","&#9826;","elianto","#f73b6a7A","-1"," ","0","-10","[1977.699999999255]","1","0","3","","","","","","","",""
"pit-trial","103","990923","0.0-2.0-14.6-0.6","battery-v0.2","","""event"",""trial"",""time""
""fullscreenenter"",""1"",""3599""
""blur"",""19"",""163532""
""focus"",""19"",""169248""
""blur"",""31"",""419526""
""focus"",""31"",""423241""
","""event"",""trial"",""time""
""blur"",""19"",""163532""
""blur"",""31"",""419526""
","""event"",""trial"",""time""
""focus"",""19"",""169248""
""focus"",""31"",""423241""
","""event"",""trial"",""time""
""fullscreenenter"",""1"",""3599""
","
","","","-1","","","20","3515","1328","&#9826;","elianto","#f73b6a7A","-1","-1","1","0","[]","0","0","3","","","","","","","",""
"pit-trial","104","995785","0.0-2.0-14.6-1.6","battery-v0.2","","""event"",""trial"",""time""
""fullscreenenter"",""1"",""3599""
""blur"",""19"",""163532""
""focus"",""19"",""169248""
""blur"",""31"",""419526""
""focus"",""31"",""423241""
","""event"",""trial"",""time""
""blur"",""19"",""163532""
""blur"",""31"",""419526""
","""event"",""trial"",""time""
""focus"",""19"",""169248""
""focus"",""31"",""423241""
","""event"",""trial"",""time""
""fullscreenenter"",""1"",""3599""
","
","","","-1","","","20","3515","1328","&#9826;","elianto","#f73b6a7A","-1","-1","1","0","[]","0","0","3","","","","","","","",""
"pit-trial","105","1000649","0.0-2.0-14.6-2.6","battery-v0.2","","""event"",""trial"",""time""
""fullscreenenter"",""1"",""3599""
""blur"",""19"",""163532""
""focus"",""19"",""169248""
""blur"",""31"",""419526""
""focus"",""31"",""423241""
","""event"",""trial"",""time""
""blur"",""19"",""163532""
""blur"",""31"",""419526""
","""event"",""trial"",""time""
""focus"",""19"",""169248""
""focus"",""31"",""423241""
","""event"",""trial"",""time""
""fullscreenenter"",""1"",""3599""
","
","","","-1","","","20","3515","1328","&#9826;","elianto","#f73b6a7A","-1","-1","1","0","[]","0","0","3","","","","","","","",""
"pit-trial","106","1005513","0.0-2.0-14.6-3.6","battery-v0.2","","""event"",""trial"",""time""
""fullscreenenter"",""1"",""3599""
""blur"",""19"",""163532""
""focus"",""19"",""169248""
""blur"",""31"",""419526""
""focus"",""31"",""423241""
","""event"",""trial"",""time""
""blur"",""19"",""163532""
""blur"",""31"",""419526""
","""event"",""trial"",""time""
""focus"",""19"",""169248""
""focus"",""31"",""423241""
","""event"",""trial"",""time""
""fullscreenenter"",""1"",""3599""
","
","","","-1","","","20","3515","1328","&#9826;","elianto","#f73b6a7A","-1","-1","1","-10","[]","0","0","3","","","","","","","",""
"pit-trial","107","1010377","0.0-2.0-14.6-4.6","battery-v0.2","","""event"",""trial"",""time""
""fullscreenenter"",""1"",""3599""
""blur"",""19"",""163532""
""focus"",""19"",""169248""
""blur"",""31"",""419526""
""focus"",""31"",""423241""
","""event"",""trial"",""time""
""blur"",""19"",""163532""
""blur"",""31"",""419526""
","""event"",""trial"",""time""
""focus"",""19"",""169248""
""focus"",""31"",""423241""
","""event"",""trial"",""time""
""fullscreenenter"",""1"",""3599""
","
","","","-1","","","20","3515","1328","&#9826;","elianto","#f73b6a7A","-1","-1","1","0","[]","0","0","3","","","","","","","",""
"call-function","108","1010380","0.0-2.0-15.0","battery-v0.2","","""event"",""trial"",""time""
""fullscreenenter"",""1"",""3599""
""blur"",""19"",""163532""
""focus"",""19"",""169248""
""blur"",""31"",""419526""
""focus"",""31"",""423241""
","""event"",""trial"",""time""
""blur"",""19"",""163532""
""blur"",""31"",""419526""
","""event"",""trial"",""time""
""focus"",""19"",""169248""
""focus"",""31"",""423241""
","""event"",""trial"",""time""
""fullscreenenter"",""1"",""3599""
","
","","","","","","","","","","","","","","","","","","","","","","","","","","",""
"pit-instructions","109","1067189","0.0-2.0-16.0","battery-v0.2","","""event"",""trial"",""time""
""fullscreenenter"",""1"",""3599""
""blur"",""19"",""163532""
""focus"",""19"",""169248""
""blur"",""31"",""419526""
""focus"",""31"",""423241""
","""event"",""trial"",""time""
""blur"",""19"",""163532""
""blur"",""31"",""419526""
","""event"",""trial"",""time""
""focus"",""19"",""169248""
""focus"",""31"",""423241""
","""event"",""trial"",""time""
""fullscreenenter"",""1"",""3599""
","
","","[{""page_index"":0,""viewing_time"":13657},{""page_index"":1,""viewing_time"":31999.599999997765},{""page_index"":2,""viewing_time"":6350.60000000149},{""page_index"":3,""viewing_time"":4800.39999999851}]","56808.5","","","","","","","","","","","","","","","","","","","","","","","",""
"pit-trial","110","1072050","0.0-2.0-17.0-0.0","battery-v0.2","","""event"",""trial"",""time""
""fullscreenenter"",""1"",""3599""
""blur"",""19"",""163532""
""focus"",""19"",""169248""
""blur"",""31"",""419526""
""focus"",""31"",""423241""
","""event"",""trial"",""time""
""blur"",""19"",""163532""
""blur"",""31"",""419526""
","""event"",""trial"",""time""
""focus"",""19"",""169248""
""focus"",""31"",""423241""
","""event"",""trial"",""time""
""fullscreenenter"",""1"",""3599""
","
","","","-1","","","20","3515","1328","&#9789;","elianto","#f73b6a7A"," ","-1","0","-10","[]","0","0","4","","","","","","","",""
"pit-trial","111","1075437","0.0-2.0-17.0-1.0","battery-v0.2","","""event"",""trial"",""time""
""fullscreenenter"",""1"",""3599""
""blur"",""19"",""163532""
""focus"",""19"",""169248""
""blur"",""31"",""419526""
""focus"",""31"",""423241""
","""event"",""trial"",""time""
""blur"",""19"",""163532""
""blur"",""31"",""419526""
","""event"",""trial"",""time""
""focus"",""19"",""169248""
""focus"",""31"",""423241""
","""event"",""trial"",""time""
""fullscreenenter"",""1"",""3599""
","
","","","527.8000000007451","","","20","3515","1328","&#9789;","elianto","#f73b6a7A"," "," ","1","0","[1378]","1","0","4","","","","","","","",""
"pit-trial","112","1079017","0.0-2.0-17.0-2.0","battery-v0.2","","""event"",""trial"",""time""
""fullscreenenter"",""1"",""3599""
""blur"",""19"",""163532""
""focus"",""19"",""169248""
""blur"",""31"",""419526""
""focus"",""31"",""423241""
","""event"",""trial"",""time""
""blur"",""19"",""163532""
""blur"",""31"",""419526""
","""event"",""trial"",""time""
""focus"",""19"",""169248""
""focus"",""31"",""423241""
","""event"",""trial"",""time""
""fullscreenenter"",""1"",""3599""
","
","","","717.8999999985099","","","20","3515","1328","&#9789;","elianto","#f73b6a7A"," "," ","1","0","[1569.7999999970198]","1","0","4","","","","","","","",""
"pit-trial","113","1082472","0.0-2.0-17.0-3.0","battery-v0.2","","""event"",""trial"",""time""
""fullscreenenter"",""1"",""3599""
""blur"",""19"",""163532""
""focus"",""19"",""169248""
""blur"",""31"",""419526""
""focus"",""31"",""423241""
","""event"",""trial"",""time""
""blur"",""19"",""163532""
""blur"",""31"",""419526""
","""event"",""trial"",""time""
""focus"",""19"",""169248""
""focus"",""31"",""423241""
","""event"",""trial"",""time""
""fullscreenenter"",""1"",""3599""
","
","","","596.3000000007451","","","20","3515","1328","&#9789;","elianto","#f73b6a7A"," "," ","1","-10","[1446.8999999985099]","1","0","4","","","","","","","",""
"pit-trial","114","1086433","0.0-2.0-17.0-4.0","battery-v0.2","","""event"",""trial"",""time""
""fullscreenenter"",""1"",""3599""
""blur"",""19"",""163532""
""focus"",""19"",""169248""
""blur"",""31"",""419526""
""focus"",""31"",""423241""
","""event"",""trial"",""time""
""blur"",""19"",""163532""
""blur"",""31"",""419526""
","""event"",""trial"",""time""
""focus"",""19"",""169248""
""focus"",""31"",""423241""
","""event"",""trial"",""time""
""fullscreenenter"",""1"",""3599""
","
","","","1100.699999999255","","","20","3515","1328","&#9789;","elianto","#f73b6a7A"," "," ","1","0","[1952.5]","1","0","4","","","","","","","",""
"call-function","115","1086437","0.0-2.0-18.0","battery-v0.2","","""event"",""trial"",""time""
""fullscreenenter"",""1"",""3599""
""blur"",""19"",""163532""
""focus"",""19"",""169248""
""blur"",""31"",""419526""
""focus"",""31"",""423241""
","""event"",""trial"",""time""
""blur"",""19"",""163532""
""blur"",""31"",""419526""
","""event"",""trial"",""time""
""focus"",""19"",""169248""
""focus"",""31"",""423241""
","""event"",""trial"",""time""
""fullscreenenter"",""1"",""3599""
","
","","","","","","","","","","","","","","","","","","","","","","","","","","",""
"pit-instructions","116","1146955","0.0-2.0-19.0","battery-v0.2","","""event"",""trial"",""time""
""fullscreenenter"",""1"",""3599""
""blur"",""19"",""163532""
""focus"",""19"",""169248""
""blur"",""31"",""419526""
""focus"",""31"",""423241""
","""event"",""trial"",""time""
""blur"",""19"",""163532""
""blur"",""31"",""419526""
","""event"",""trial"",""time""
""focus"",""19"",""169248""
""focus"",""31"",""423241""
","""event"",""trial"",""time""
""fullscreenenter"",""1"",""3599""
","
","","[{""page_index"":0,""viewing_time"":7950.29999999702},{""page_index"":1,""viewing_time"":6183.400000002235},{""page_index"":2,""viewing_time"":12016.39999999851},{""page_index"":3,""viewing_time"":4850.300000000745},{""page_index"":4,""viewing_time"":6033.10000000149},{""page_index"":5,""viewing_time"":8299.79999999702},{""page_index"":6,""viewing_time"":6233.60000000149},{""page_index"":7,""viewing_time"":5750.300000000745},{""page_index"":8,""viewing_time"":3200.199999999255}]","60518.199999999255","","","","","","","","","","","","","","","","","","","","","","","",""
"pit-comprehension","117","1153657","0.0-2.0-20.0-0.0","battery-v0.2","","""event"",""trial"",""time""
""fullscreenenter"",""1"",""3599""
""blur"",""19"",""163532""
""focus"",""19"",""169248""
""blur"",""31"",""419526""
""focus"",""31"",""423241""
","""event"",""trial"",""time""
""blur"",""19"",""163532""
""blur"",""31"",""419526""
","""event"",""trial"",""time""
""focus"",""19"",""169248""
""focus"",""31"",""423241""
","""event"",""trial"",""time""
""fullscreenenter"",""1"",""3599""
","
","","","6695.900000002235","[""SPACE""]","0","20","3515","1328","","","","","","","","","","","","","","","","","","",""
"pit-instructions","118","1156405","0.0-2.0-20.0-1.0","battery-v0.2","","""event"",""trial"",""time""
""fullscreenenter"",""1"",""3599""
""blur"",""19"",""163532""
""focus"",""19"",""169248""
""blur"",""31"",""419526""
""focus"",""31"",""423241""
","""event"",""trial"",""time""
""blur"",""19"",""163532""
""blur"",""31"",""419526""
","""event"",""trial"",""time""
""focus"",""19"",""169248""
""focus"",""31"",""423241""
","""event"",""trial"",""time""
""fullscreenenter"",""1"",""3599""
","
","","[{""page_index"":0,""viewing_time"":2715.5}]","2716.5","","","","","","","","","","","","","","","","","","","","","","","",""
"pit-comprehension","119","1161656","0.0-2.0-21.0-0.0","battery-v0.2","","""event"",""trial"",""time""
""fullscreenenter"",""1"",""3599""
""blur"",""19"",""163532""
""focus"",""19"",""169248""
""blur"",""31"",""419526""
""focus"",""31"",""423241""
","""event"",""trial"",""time""
""blur"",""19"",""163532""
""blur"",""31"",""419526""
","""event"",""trial"",""time""
""focus"",""19"",""169248""
""focus"",""31"",""423241""
","""event"",""trial"",""time""
""fullscreenenter"",""1"",""3599""
","
","","","5245.300000000745","[""10""]","0","20","3515","1328","","","","","","","","","","","","","","","","","","",""
"pit-instructions","120","1164122","0.0-2.0-21.0-1.0","battery-v0.2","","""event"",""trial"",""time""
""fullscreenenter"",""1"",""3599""
""blur"",""19"",""163532""
""focus"",""19"",""169248""
""blur"",""31"",""419526""
""focus"",""31"",""423241""
","""event"",""trial"",""time""
""blur"",""19"",""163532""
""blur"",""31"",""419526""
","""event"",""trial"",""time""
""focus"",""19"",""169248""
""focus"",""31"",""423241""
","""event"",""trial"",""time""
""fullscreenenter"",""1"",""3599""
","
","","[{""page_index"":0,""viewing_time"":2431.800000000745}]","2432.5","","","","","","","","","","","","","","","","","","","","","","","",""
"pit-comprehension","121","1171688","0.0-2.0-22.0-0.0","battery-v0.2","","""event"",""trial"",""time""
""fullscreenenter"",""1"",""3599""
""blur"",""19"",""163532""
""focus"",""19"",""169248""
""blur"",""31"",""419526""
""focus"",""31"",""423241""
","""event"",""trial"",""time""
""blur"",""19"",""163532""
""blur"",""31"",""419526""
","""event"",""trial"",""time""
""focus"",""19"",""169248""
""focus"",""31"",""423241""
","""event"",""trial"",""time""
""fullscreenenter"",""1"",""3599""
","
","","","7560.5","[""0""]","0","20","3515","1328","","","","","","","","","","","","","","","","","","",""
"pit-instructions","122","1174155","0.0-2.0-22.0-1.0","battery-v0.2","","""event"",""trial"",""time""
""fullscreenenter"",""1"",""3599""
""blur"",""19"",""163532""
""focus"",""19"",""169248""
""blur"",""31"",""419526""
""focus"",""31"",""423241""
","""event"",""trial"",""time""
""blur"",""19"",""163532""
""blur"",""31"",""419526""
","""event"",""trial"",""time""
""focus"",""19"",""169248""
""focus"",""31"",""423241""
","""event"",""trial"",""time""
""fullscreenenter"",""1"",""3599""
","
","","[{""page_index"":0,""viewing_time"":2431.800000000745}]","2432.60000000149","","","","","","","","","","","","","","","","","","","","","","","",""
"pit-comprehension","123","1183389","0.0-2.0-23.0-0.0","battery-v0.2","","""event"",""trial"",""time""
""fullscreenenter"",""1"",""3599""
""blur"",""19"",""163532""
""focus"",""19"",""169248""
""blur"",""31"",""419526""
""focus"",""31"",""423241""
","""event"",""trial"",""time""
""blur"",""19"",""163532""
""blur"",""31"",""419526""
","""event"",""trial"",""time""
""focus"",""19"",""169248""
""focus"",""31"",""423241""
","""event"",""trial"",""time""
""fullscreenenter"",""1"",""3599""
","
","","","9228.800000000745","[""True""]","0","20","3515","1328","","","","","","","","","","","","","","","","","","",""
"pit-instructions","124","1186839","0.0-2.0-23.0-1.0","battery-v0.2","","""event"",""trial"",""time""
""fullscreenenter"",""1"",""3599""
""blur"",""19"",""163532""
""focus"",""19"",""169248""
""blur"",""31"",""419526""
""focus"",""31"",""423241""
","""event"",""trial"",""time""
""blur"",""19"",""163532""
""blur"",""31"",""419526""
","""event"",""trial"",""time""
""focus"",""19"",""169248""
""focus"",""31"",""423241""
","""event"",""trial"",""time""
""fullscreenenter"",""1"",""3599""
","
","","[{""page_index"":0,""viewing_time"":3416.10000000149}]","3417","","","","","","","","","","","","","","","","","","","","","","","",""
"pit-comprehension","125","1194406","0.0-2.0-24.0-0.0","battery-v0.2","","""event"",""trial"",""time""
""fullscreenenter"",""1"",""3599""
""blur"",""19"",""163532""
""focus"",""19"",""169248""
""blur"",""31"",""419526""
""focus"",""31"",""423241""
","""event"",""trial"",""time""
""blur"",""19"",""163532""
""blur"",""31"",""419526""
","""event"",""trial"",""time""
""focus"",""19"",""169248""
""focus"",""31"",""423241""
","""event"",""trial"",""time""
""fullscreenenter"",""1"",""3599""
","
","","","7561.800000000745","[""True""]","0","20","3515","1328","","","","","","","","","","","","","","","","","","",""
"pit-instructions","126","1197788","0.0-2.0-24.0-1.0","battery-v0.2","","""event"",""trial"",""time""
""fullscreenenter"",""1"",""3599""
""blur"",""19"",""163532""
""focus"",""19"",""169248""
""blur"",""31"",""419526""
""focus"",""31"",""423241""
","""event"",""trial"",""time""
""blur"",""19"",""163532""
""blur"",""31"",""419526""
","""event"",""trial"",""time""
""focus"",""19"",""169248""
""focus"",""31"",""423241""
","""event"",""trial"",""time""
""fullscreenenter"",""1"",""3599""
","
","","[{""page_index"":0,""viewing_time"":3344.89999999851}]","3345.5","","","","","","","","","","","","","","","","","","","","","","","",""
"pit-comprehension","127","1204504","0.0-2.0-25.0-0.0","battery-v0.2","","""event"",""trial"",""time""
""fullscreenenter"",""1"",""3599""
""blur"",""19"",""163532""
""focus"",""19"",""169248""
""blur"",""31"",""419526""
""focus"",""31"",""423241""
","""event"",""trial"",""time""
""blur"",""19"",""163532""
""blur"",""31"",""419526""
","""event"",""trial"",""time""
""focus"",""19"",""169248""
""focus"",""31"",""423241""
","""event"",""trial"",""time""
""fullscreenenter"",""1"",""3599""
","
","","","6711.300000000745","[""True""]","0","20","3515","1328","","","","","","","","","","","","","","","","","","",""
"pit-instructions","128","1208055","0.0-2.0-25.0-1.0","battery-v0.2","","""event"",""trial"",""time""
""fullscreenenter"",""1"",""3599""
""blur"",""19"",""163532""
""focus"",""19"",""169248""
""blur"",""31"",""419526""
""focus"",""31"",""423241""
","""event"",""trial"",""time""
""blur"",""19"",""163532""
""blur"",""31"",""419526""
","""event"",""trial"",""time""
""focus"",""19"",""169248""
""focus"",""31"",""423241""
","""event"",""trial"",""time""
""fullscreenenter"",""1"",""3599""
","
","","[{""page_index"":0,""viewing_time"":3513.2000000029802}]","3514","","","","","","","","","","","","","","","","","","","","","","","",""
"pit-comprehension","129","1213838","0.0-2.0-26.0-0.0","battery-v0.2","","""event"",""trial"",""time""
""fullscreenenter"",""1"",""3599""
""blur"",""19"",""163532""
""focus"",""19"",""169248""
""blur"",""31"",""419526""
""focus"",""31"",""423241""
","""event"",""trial"",""time""
""blur"",""19"",""163532""
""blur"",""31"",""419526""
","""event"",""trial"",""time""
""focus"",""19"",""169248""
""focus"",""31"",""423241""
","""event"",""trial"",""time""
""fullscreenenter"",""1"",""3599""
","
","","","5777.39999999851","[""False""]","0","20","3515","1328","","","","","","","","","","","","","","","","","","",""
"pit-instructions","130","1218155","0.0-2.0-26.0-1.0","battery-v0.2","","""event"",""trial"",""time""
""fullscreenenter"",""1"",""3599""
""blur"",""19"",""163532""
""focus"",""19"",""169248""
""blur"",""31"",""419526""
""focus"",""31"",""423241""
","""event"",""trial"",""time""
""blur"",""19"",""163532""
""blur"",""31"",""419526""
","""event"",""trial"",""time""
""focus"",""19"",""169248""
""focus"",""31"",""423241""
","""event"",""trial"",""time""
""fullscreenenter"",""1"",""3599""
","
","","[{""page_index"":0,""viewing_time"":4285.199999999255}]","4285.89999999851","","","","","","","","","","","","","","","","","","","","","","","",""
"pit-instructions","131","1234355","0.0-3.0","battery-v0.2","","""event"",""trial"",""time""
""fullscreenenter"",""1"",""3599""
""blur"",""19"",""163532""
""focus"",""19"",""169248""
""blur"",""31"",""419526""
""focus"",""31"",""423241""
","""event"",""trial"",""time""
""blur"",""19"",""163532""
""blur"",""31"",""419526""
","""event"",""trial"",""time""
""focus"",""19"",""169248""
""focus"",""31"",""423241""
","""event"",""trial"",""time""
""fullscreenenter"",""1"",""3599""
","
","","[{""page_index"":0,""viewing_time"":3695.800000000745},{""page_index"":1,""viewing_time"":5866.199999999255},{""page_index"":2,""viewing_time"":6634.10000000149}]","16196.800000000745","","","","","","","","","","","","","","","","","","","","","","","",""
"pit-trial","132","1237790","0.0-4.0","battery-v0.2","","""event"",""trial"",""time""
""fullscreenenter"",""1"",""3599""
""blur"",""19"",""163532""
""focus"",""19"",""169248""
""blur"",""31"",""419526""
""focus"",""31"",""423241""
","""event"",""trial"",""time""
""blur"",""19"",""163532""
""blur"",""31"",""419526""
","""event"",""trial"",""time""
""focus"",""19"",""169248""
""focus"",""31"",""423241""
","""event"",""trial"",""time""
""fullscreenenter"",""1"",""3599""
","
","","","572.6999999992549","","","20","3515","1328","&#9730;","elianto","#3366ff99"," "," ","1","+10","[1423.699999999255]","1","1","","","3515","1","1","1","win","go","0"
"pit-trial","133","1241096","0.0-5.0","battery-v0.2","","""event"",""trial"",""time""
""fullscreenenter"",""1"",""3599""
""blur"",""19"",""163532""
""focus"",""19"",""169248""
""blur"",""31"",""419526""
""focus"",""31"",""423241""
","""event"",""trial"",""time""
""blur"",""19"",""163532""
""blur"",""31"",""419526""
","""event"",""trial"",""time""
""focus"",""19"",""169248""
""focus"",""31"",""423241""
","""event"",""trial"",""time""
""fullscreenenter"",""1"",""3599""
","
","","","447.5999999977648","","","20","3515","1328","&#9728;","elianto","#f73b6a7A","-1"," ","0","-10","[1299.699999999255]","1","1","","","3515","2","0","4","lose","no-go","0"
"pit-trial","134","1244299","0.0-6.0","battery-v0.2","","""event"",""trial"",""time""
""fullscreenenter"",""1"",""3599""
""blur"",""19"",""163532""
""focus"",""19"",""169248""
""blur"",""31"",""419526""
""focus"",""31"",""423241""
","""event"",""trial"",""time""
""blur"",""19"",""163532""
""blur"",""31"",""419526""
","""event"",""trial"",""time""
""focus"",""19"",""169248""
""focus"",""31"",""423241""
","""event"",""trial"",""time""
""fullscreenenter"",""1"",""3599""
","
","","","342","","","20","3515","1328","&#9752;","elianto","#f73b6a7A"," "," ","1","0","[1193.300000000745]","1","1","","","3515","3","3","3","lose","go","0"
"pit-trial","135","1247739","0.0-7.0","battery-v0.2","","""event"",""trial"",""time""
""fullscreenenter"",""1"",""3599""
""blur"",""19"",""163532""
""focus"",""19"",""169248""
""blur"",""31"",""419526""
""focus"",""31"",""423241""
","""event"",""trial"",""time""
""blur"",""19"",""163532""
""blur"",""31"",""419526""
","""event"",""trial"",""time""
""focus"",""19"",""169248""
""focus"",""31"",""423241""
","""event"",""trial"",""time""
""fullscreenenter"",""1"",""3599""
","
","","","585.1999999992549","","","20","3515","1328","&#9733;","elianto","#3366ff99","-1"," ","0","0","[1435.3999999985099]","1","1","","","3515","4","2","2","win","no-go","0"
"pit-trial","136","1252599","0.0-8.0","battery-v0.2","","""event"",""trial"",""time""
""fullscreenenter"",""1"",""3599""
""blur"",""19"",""163532""
""focus"",""19"",""169248""
""blur"",""31"",""419526""
""focus"",""31"",""423241""
","""event"",""trial"",""time""
""blur"",""19"",""163532""
""blur"",""31"",""419526""
","""event"",""trial"",""time""
""focus"",""19"",""169248""
""focus"",""31"",""423241""
","""event"",""trial"",""time""
""fullscreenenter"",""1"",""3599""
","
","","","-1","","","20","3515","1328","&#9728;","elianto","#f73b6a7A","-1","-1","1","0","[]","0","1","","","3515","5","0","4","lose","no-go","0"
"pit-trial","137","1256031","0.0-9.0","battery-v0.2","","""event"",""trial"",""time""
""fullscreenenter"",""1"",""3599""
""blur"",""19"",""163532""
""focus"",""19"",""169248""
""blur"",""31"",""419526""
""focus"",""31"",""423241""
","""event"",""trial"",""time""
""blur"",""19"",""163532""
""blur"",""31"",""419526""
","""event"",""trial"",""time""
""focus"",""19"",""169248""
""focus"",""31"",""423241""
","""event"",""trial"",""time""
""fullscreenenter"",""1"",""3599""
","
","","","576","","","20","3515","1328","&#9752;","elianto","#f73b6a7A"," "," ","1","0","[1426.3999999985099]","1","1","","","3515","6","3","3","lose","go","0"
"pit-trial","138","1260895","0.0-10.0","battery-v0.2","","""event"",""trial"",""time""
""fullscreenenter"",""1"",""3599""
""blur"",""19"",""163532""
""focus"",""19"",""169248""
""blur"",""31"",""419526""
""focus"",""31"",""423241""
","""event"",""trial"",""time""
""blur"",""19"",""163532""
""blur"",""31"",""419526""
","""event"",""trial"",""time""
""focus"",""19"",""169248""
""focus"",""31"",""423241""
","""event"",""trial"",""time""
""fullscreenenter"",""1"",""3599""
","
","","","-1","","","20","3515","1328","&#9733;","elianto","#3366ff99","-1","-1","1","+10","[3046.400000002235]","1","1","","","3515","7","2","2","win","no-go","0"
"pit-trial","139","1264347","0.0-11.0","battery-v0.2","","""event"",""trial"",""time""
""fullscreenenter"",""1"",""3599""
""blur"",""19"",""163532""
""focus"",""19"",""169248""
""blur"",""31"",""419526""
""focus"",""31"",""423241""
","""event"",""trial"",""time""
""blur"",""19"",""163532""
""blur"",""31"",""419526""
","""event"",""trial"",""time""
""focus"",""19"",""169248""
""focus"",""31"",""423241""
","""event"",""trial"",""time""
""fullscreenenter"",""1"",""3599""
","
","","","591.5999999977648","","","20","3515","1328","&#9730;","elianto","#3366ff99"," "," ","1","+10","[1441.699999999255]","1","1","","","3515","8","1","1","win","go","0"
"pit-trial","140","1267826","0.0-12.0","battery-v0.2","","""event"",""trial"",""time""
""fullscreenenter"",""1"",""3599""
""blur"",""19"",""163532""
""focus"",""19"",""169248""
""blur"",""31"",""419526""
""focus"",""31"",""423241""
","""event"",""trial"",""time""
""blur"",""19"",""163532""
""blur"",""31"",""419526""
","""event"",""trial"",""time""
""focus"",""19"",""169248""
""focus"",""31"",""423241""
","""event"",""trial"",""time""
""fullscreenenter"",""1"",""3599""
","
","","","623.2999999970198","","","20","3515","1328","&#9733;","elianto","#3366ff99","-1"," ","0","0","[1474.199999999255]","1","1","","","3515","9","2","2","win","no-go","0"
"pit-trial","141","1272690","0.0-13.0","battery-v0.2","","""event"",""trial"",""time""
""fullscreenenter"",""1"",""3599""
""blur"",""19"",""163532""
""focus"",""19"",""169248""
""blur"",""31"",""419526""
""focus"",""31"",""423241""
","""event"",""trial"",""time""
""blur"",""19"",""163532""
""blur"",""31"",""419526""
","""event"",""trial"",""time""
""focus"",""19"",""169248""
""focus"",""31"",""423241""
","""event"",""trial"",""time""
""fullscreenenter"",""1"",""3599""
","
","","","-1","","","20","3515","1328","&#9728;","elianto","#f73b6a7A","-1","-1","1","0","[]","0","1","","","3515","10","0","4","lose","no-go","0"
"pit-trial","142","1276061","0.0-14.0","battery-v0.2","","""event"",""trial"",""time""
""fullscreenenter"",""1"",""3599""
""blur"",""19"",""163532""
""focus"",""19"",""169248""
""blur"",""31"",""419526""
""focus"",""31"",""423241""
","""event"",""trial"",""time""
""blur"",""19"",""163532""
""blur"",""31"",""419526""
","""event"",""trial"",""time""
""focus"",""19"",""169248""
""focus"",""31"",""423241""
","""event"",""trial"",""time""
""fullscreenenter"",""1"",""3599""
","
","","","511.19999999925494","","","20","3515","1328","&#9730;","elianto","#3366ff99"," "," ","1","+10","[1363.8999999985099]","1","1","","","3515","11","1","1","win","go","0"
"pit-trial","143","1280917","0.0-15.0","battery-v0.2","","""event"",""trial"",""time""
""fullscreenenter"",""1"",""3599""
""blur"",""19"",""163532""
""focus"",""19"",""169248""
""blur"",""31"",""419526""
""focus"",""31"",""423241""
","""event"",""trial"",""time""
""blur"",""19"",""163532""
""blur"",""31"",""419526""
","""event"",""trial"",""time""
""focus"",""19"",""169248""
""focus"",""31"",""423241""
","""event"",""trial"",""time""
""fullscreenenter"",""1"",""3599""
","
","","","-1","","","20","3515","1328","&#9752;","elianto","#f73b6a7A"," ","-1","0","-10","[]","0","1","","","3515","12","3","3","lose","go","0"
"pit-trial","144","1284216","0.0-16.0","battery-v0.2","","""event"",""trial"",""time""
""fullscreenenter"",""1"",""3599""
""blur"",""19"",""163532""
""focus"",""19"",""169248""
""blur"",""31"",""419526""
""focus"",""31"",""423241""
","""event"",""trial"",""time""
""blur"",""19"",""163532""
""blur"",""31"",""419526""
","""event"",""trial"",""time""
""focus"",""19"",""169248""
""focus"",""31"",""423241""
","""event"",""trial"",""time""
""fullscreenenter"",""1"",""3599""
","
","","","440.9000000022352","","","20","3515","1328","&#9733;","elianto","#3366ff99","-1"," ","0","0","[1291.8999999985099]","1","1","","","3515","13","2","2","win","no-go","0"
"pit-trial","145","1287575","0.0-17.0","battery-v0.2","","""event"",""trial"",""time""
""fullscreenenter"",""1"",""3599""
""blur"",""19"",""163532""
""focus"",""19"",""169248""
""blur"",""31"",""419526""
""focus"",""31"",""423241""
","""event"",""trial"",""time""
""blur"",""19"",""163532""
""blur"",""31"",""419526""
","""event"",""trial"",""time""
""focus"",""19"",""169248""
""focus"",""31"",""423241""
","""event"",""trial"",""time""
""fullscreenenter"",""1"",""3599""
","
","","","503.1000000014901","","","20","3515","1328","&#9730;","elianto","#3366ff99"," "," ","1","0","[1353.9000000022352]","1","1","","","3515","14","1","1","win","go","1"
"pit-trial","146","1292439","0.0-18.0","battery-v0.2","","""event"",""trial"",""time""
""fullscreenenter"",""1"",""3599""
""blur"",""19"",""163532""
""focus"",""19"",""169248""
""blur"",""31"",""419526""
""focus"",""31"",""423241""
","""event"",""trial"",""time""
""blur"",""19"",""163532""
""blur"",""31"",""419526""
","""event"",""trial"",""time""
""focus"",""19"",""169248""
""focus"",""31"",""423241""
","""event"",""trial"",""time""
""fullscreenenter"",""1"",""3599""
","
","","","-1","","","20","3515","1328","&#9752;","elianto","#f73b6a7A"," ","-1","0","-10","[]","0","1","","","3515","15","3","3","lose","go","0"
"pit-trial","147","1295869","0.0-19.0","battery-v0.2","","""event"",""trial"",""time""
""fullscreenenter"",""1"",""3599""
""blur"",""19"",""163532""
""focus"",""19"",""169248""
""blur"",""31"",""419526""
""focus"",""31"",""423241""
","""event"",""trial"",""time""
""blur"",""19"",""163532""
""blur"",""31"",""419526""
","""event"",""trial"",""time""
""focus"",""19"",""169248""
""focus"",""31"",""423241""
","""event"",""trial"",""time""
""fullscreenenter"",""1"",""3599""
","
","","","568.8000000007451","","","20","3515","1328","&#9728;","elianto","#f73b6a7A","-1"," ","0","-10","[1421.300000000745]","1","1","","","3515","16","0","4","lose","no-go","0"
"pit-trial","148","1300727","0.0-20.0","battery-v0.2","","""event"",""trial"",""time""
""fullscreenenter"",""1"",""3599""
""blur"",""19"",""163532""
""focus"",""19"",""169248""
""blur"",""31"",""419526""
""focus"",""31"",""423241""
","""event"",""trial"",""time""
""blur"",""19"",""163532""
""blur"",""31"",""419526""
","""event"",""trial"",""time""
""focus"",""19"",""169248""
""focus"",""31"",""423241""
","""event"",""trial"",""time""
""fullscreenenter"",""1"",""3599""
","
","","","-1","","","20","3515","1328","&#9728;","elianto","#f73b6a7A","-1","-1","1","0","[]","0","1","","","3515","17","0","4","lose","no-go","0"
"pit-trial","149","1304279","0.0-21.0","battery-v0.2","","""event"",""trial"",""time""
""fullscreenenter"",""1"",""3599""
""blur"",""19"",""163532""
""focus"",""19"",""169248""
""blur"",""31"",""419526""
""focus"",""31"",""423241""
","""event"",""trial"",""time""
""blur"",""19"",""163532""
""blur"",""31"",""419526""
","""event"",""trial"",""time""
""focus"",""19"",""169248""
""focus"",""31"",""423241""
","""event"",""trial"",""time""
""fullscreenenter"",""1"",""3599""
","
","","","689.9000000022352","","","20","3515","1328","&#9733;","elianto","#3366ff99","-1"," ","0","0","[1541.6000000014901]","1","1","","","3515","18","2","2","win","no-go","0"
"pit-trial","150","1309143","0.0-22.0","battery-v0.2","","""event"",""trial"",""time""
""fullscreenenter"",""1"",""3599""
""blur"",""19"",""163532""
""focus"",""19"",""169248""
""blur"",""31"",""419526""
""focus"",""31"",""423241""
","""event"",""trial"",""time""
""blur"",""19"",""163532""
""blur"",""31"",""419526""
","""event"",""trial"",""time""
""focus"",""19"",""169248""
""focus"",""31"",""423241""
","""event"",""trial"",""time""
""fullscreenenter"",""1"",""3599""
","
","","","-1","","","20","3515","1328","&#9752;","elianto","#f73b6a7A"," ","-1","0","-10","[]","0","1","","","3515","19","3","3","lose","go","0"
"pit-trial","151","1312497","0.0-23.0","battery-v0.2","","""event"",""trial"",""time""
""fullscreenenter"",""1"",""3599""
""blur"",""19"",""163532""
""focus"",""19"",""169248""
""blur"",""31"",""419526""
""focus"",""31"",""423241""
","""event"",""trial"",""time""
""blur"",""19"",""163532""
""blur"",""31"",""419526""
","""event"",""trial"",""time""
""focus"",""19"",""169248""
""focus"",""31"",""423241""
","""event"",""trial"",""time""
""fullscreenenter"",""1"",""3599""
","
","","","496.29999999701977","","","20","3515","1328","&#9730;","elianto","#3366ff99"," "," ","1","+10","[1347.699999999255]","1","1","","","3515","20","1","1","win","go","0"
"pit-instructions","152","1334772","0.0-24.0","battery-v0.2","","""event"",""trial"",""time""
""fullscreenenter"",""1"",""3599""
""blur"",""19"",""163532""
""focus"",""19"",""169248""
""blur"",""31"",""419526""
""focus"",""31"",""423241""
","""event"",""trial"",""time""
""blur"",""19"",""163532""
""blur"",""31"",""419526""
","""event"",""trial"",""time""
""focus"",""19"",""169248""
""focus"",""31"",""423241""
","""event"",""trial"",""time""
""fullscreenenter"",""1"",""3599""
","
","","[{""page_index"":0,""viewing_time"":10036.800000000745},{""page_index"":1,""viewing_time"":12233.800000000745}]","22271.20000000298","","","","","","","","","","","","","","","","","","","","","","","",""
"pit-trial","153","1339633","0.0-25.0","battery-v0.2","","""event"",""trial"",""time""
""fullscreenenter"",""1"",""3599""
""blur"",""19"",""163532""
""focus"",""19"",""169248""
""blur"",""31"",""419526""
""focus"",""31"",""423241""
","""event"",""trial"",""time""
""blur"",""19"",""163532""
""blur"",""31"",""419526""
","""event"",""trial"",""time""
""focus"",""19"",""169248""
""focus"",""31"",""423241""
","""event"",""trial"",""time""
""fullscreenenter"",""1"",""3599""
","
","","","-1","","","20","3515","1328","t","elianto","#f73b6a7A","-1","-1","1","0","[]","0","2","","","3515","21","2","4","lose","no-go","0"
"pit-trial","154","1343038","0.0-26.0","battery-v0.2","","""event"",""trial"",""time""
""fullscreenenter"",""1"",""3599""
""blur"",""19"",""163532""
""focus"",""19"",""169248""
""blur"",""31"",""419526""
""focus"",""31"",""423241""
","""event"",""trial"",""time""
""blur"",""19"",""163532""
""blur"",""31"",""419526""
","""event"",""trial"",""time""
""focus"",""19"",""169248""
""focus"",""31"",""423241""
","""event"",""trial"",""time""
""fullscreenenter"",""1"",""3599""
","
","","","545.5","","","20","3515","1328","f","elianto","#3366ff99"," "," ","1","+10","[1395.800000000745]","1","2","","","3515","22","1","1","win","go","0"
"pit-trial","155","1347902","0.0-27.0","battery-v0.2","","""event"",""trial"",""time""
""fullscreenenter"",""1"",""3599""
""blur"",""19"",""163532""
""focus"",""19"",""169248""
""blur"",""31"",""419526""
""focus"",""31"",""423241""
","""event"",""trial"",""time""
""blur"",""19"",""163532""
""blur"",""31"",""419526""
","""event"",""trial"",""time""
""focus"",""19"",""169248""
""focus"",""31"",""423241""
","""event"",""trial"",""time""
""fullscreenenter"",""1"",""3599""
","
","","","-1","","","20","3515","1328","b","elianto","#f73b6a7A"," ","-1","0","-10","[]","0","2","","","3515","23","3","3","lose","go","0"
"pit-trial","156","1351378","0.0-28.0","battery-v0.2","","""event"",""trial"",""time""
""fullscreenenter"",""1"",""3599""
""blur"",""19"",""163532""
""focus"",""19"",""169248""
""blur"",""31"",""419526""
""focus"",""31"",""423241""
","""event"",""trial"",""time""
""blur"",""19"",""163532""
""blur"",""31"",""419526""
","""event"",""trial"",""time""
""focus"",""19"",""169248""
""focus"",""31"",""423241""
","""event"",""trial"",""time""
""fullscreenenter"",""1"",""3599""
","
","","","615.8999999985099","","","20","3515","1328","n","elianto","#f73b6a7A","-1"," ","0","0","[1466.3999999985099]","1","2","","","3515","24","0","4","lose","no-go","1"
"pit-trial","157","1356238","0.0-29.0","battery-v0.2","","""event"",""trial"",""time""
""fullscreenenter"",""1"",""3599""
""blur"",""19"",""163532""
""focus"",""19"",""169248""
""blur"",""31"",""419526""
""focus"",""31"",""423241""
","""event"",""trial"",""time""
""blur"",""19"",""163532""
""blur"",""31"",""419526""
","""event"",""trial"",""time""
""focus"",""19"",""169248""
""focus"",""31"",""423241""
","""event"",""trial"",""time""
""fullscreenenter"",""1"",""3599""
","
","","","-1","","","20","3515","1328","n","elianto","#f73b6a7A","-1","-1","1","0","[2918.2999999970198]","1","2","","","3515","25","0","4","lose","no-go","0"
"pit-trial","158","1360359","0.0-30.0","battery-v0.2","","""event"",""trial"",""time""
""fullscreenenter"",""1"",""3599""
""blur"",""19"",""163532""
""focus"",""19"",""169248""
""blur"",""31"",""419526""
""focus"",""31"",""423241""
","""event"",""trial"",""time""
""blur"",""19"",""163532""
""blur"",""31"",""419526""
","""event"",""trial"",""time""
""focus"",""19"",""169248""
""focus"",""31"",""423241""
","""event"",""trial"",""time""
""fullscreenenter"",""1"",""3599""
","
","","","1262.1000000014901","","","20","3515","1328","t","elianto","#f73b6a7A","-1"," ","0","-10","[2114.199999999255]","1","2","","","3515","26","2","4","lose","no-go","0"
"pit-trial","159","1364017","0.0-31.0","battery-v0.2","","""event"",""trial"",""time""
""fullscreenenter"",""1"",""3599""
""blur"",""19"",""163532""
""focus"",""19"",""169248""
""blur"",""31"",""419526""
""focus"",""31"",""423241""
","""event"",""trial"",""time""
""blur"",""19"",""163532""
""blur"",""31"",""419526""
","""event"",""trial"",""time""
""focus"",""19"",""169248""
""focus"",""31"",""423241""
","""event"",""trial"",""time""
""fullscreenenter"",""1"",""3599""
","
