"trial_type","trial_index","time_elapsed","internal_node_id","task_version","subject_id","interactions","blur_events","focus_events","fullscreenenter_events","fullscreenexit_events","success","view_history","rt","responses","num_errors","age","subject","participantId","rune","rune_set","hex","correct","choice","accuracy","outcome","keys","total_keys","block","practice","value","sub","trial","stimulus","robot","valence","action","sham"
"pavlovia","0","7","0.0-0.0","battery-v0.2","","""event"",""trial"",""time""
""fullscreenenter"",""1"",""1644""
","
","
","""event"",""trial"",""time""
""fullscreenenter"",""1"",""1644""
","
","","","","","","","","","","","","","","","","","","","","","","","","","","",""
"fullscreen","1","2636","0.0-1.0","battery-v0.2","","""event"",""trial"",""time""
""fullscreenenter"",""1"",""1644""
","
","
","""event"",""trial"",""time""
""fullscreenenter"",""1"",""1644""
","
","true","","","","","","","","","","","","","","","","","","","","","","","","","",""
"pit-instructions","2","6850","0.0-2.0-0.0","battery-v0.2","","""event"",""trial"",""time""
""fullscreenenter"",""1"",""1644""
","
","
","""event"",""trial"",""time""
""fullscreenenter"",""1"",""1644""
","
","","[{""page_index"":0,""viewing_time"":4206.699999999255}]","4207.599999997765","","","","","","","","","","","","","","","","","","","","","","","",""
"pit-comprehension","3","10568","0.0-2.0-1.0-0.0","battery-v0.2","","""event"",""trial"",""time""
""fullscreenenter"",""1"",""1644""
","
","
","""event"",""trial"",""time""
""fullscreenenter"",""1"",""1644""
","
","","","3712.099999997765","[""shark""]","0","20","3515","1328","","","","","","","","","","","","","","","","","","",""
"pit-instructions","4","11866","0.0-2.0-1.0-1.0","battery-v0.2","","""event"",""trial"",""time""
""fullscreenenter"",""1"",""1644""
","
","
","""event"",""trial"",""time""
""fullscreenenter"",""1"",""1644""
","
","","[{""page_index"":0,""viewing_time"":1289}]","1289.5","","","","","","","","","","","","","","","","","","","","","","","",""
"pit-comprehension","5","14552","0.0-2.0-2.0-0.0","battery-v0.2","","""event"",""trial"",""time""
""fullscreenenter"",""1"",""1644""
","
","
","""event"",""trial"",""time""
""fullscreenenter"",""1"",""1644""
","
","","","2680.10000000149","[""shark""]","1","20","3515","1328","","","","","","","","","","","","","","","","","","",""
"pit-instructions","6","16050","0.0-2.0-2.0-1.0","battery-v0.2","","""event"",""trial"",""time""
""fullscreenenter"",""1"",""1644""
","
","
","""event"",""trial"",""time""
""fullscreenenter"",""1"",""1644""
","
","","[{""page_index"":0,""viewing_time"":1492.5999999977648}]","1493.2999999970198","","","","","","","","","","","","","","","","","","","","","","","",""
"pit-instructions","7","17400","0.0-2.0-2.0-2.0-0.0","battery-v0.2","","""event"",""trial"",""time""
""fullscreenenter"",""1"",""1644""
","
","
","""event"",""trial"",""time""
""fullscreenenter"",""1"",""1644""
","
","","[{""page_index"":0,""viewing_time"":1346.5}]","1347.1000000014901","","","","","","","","","","","","","","","","","","","","","","","",""
"pit-comprehension","8","19535","0.0-2.0-2.1-0.1","battery-v0.2","","""event"",""trial"",""time""
""fullscreenenter"",""1"",""1644""
","
","
","""event"",""trial"",""time""
""fullscreenenter"",""1"",""1644""
","
","","","2129.60000000149","[""tiger""]","0","20","3515","1328","","","","","","","","","","","","","","","","","","",""
"pit-instructions","9","21034","0.0-2.0-2.1-1.1","battery-v0.2","","""event"",""trial"",""time""
""fullscreenenter"",""1"",""1644""
","
","
","""event"",""trial"",""time""
""fullscreenenter"",""1"",""1644""
","
","","[{""page_index"":0,""viewing_time"":1493.3999999985099}]","1494.300000000745","","","","","","","","","","","","","","","","","","","","","","","",""
"pit-instructions","10","123583","0.0-2.0-3.0","battery-v0.2","","""event"",""trial"",""time""
""fullscreenenter"",""1"",""1644""
","
","
","""event"",""trial"",""time""
""fullscreenenter"",""1"",""1644""
","
","","[{""page_index"":0,""viewing_time"":7628.199999999255},{""page_index"":1,""viewing_time"":5316.300000000745},{""page_index"":2,""viewing_time"":7400.39999999851},{""page_index"":3,""viewing_time"":5083.5},{""page_index"":4,""viewing_time"":6032.900000002235},{""page_index"":5,""viewing_time"":6467.29999999702},{""page_index"":6,""viewing_time"":7533.10000000149},{""page_index"":7,""viewing_time"":7683.5},{""page_index"":8,""viewing_time"":9233.39999999851},{""page_index"":9,""viewing_time"":6450},{""page_index"":10,""viewing_time"":8834.300000000745},{""page_index"":11,""viewing_time"":10616.5},{""page_index"":12,""viewing_time"":7516.800000000745},{""page_index"":13,""viewing_time"":6749.60000000149}]","102546.69999999925","","","","","","","","","","","","","","","","","","","","","","","",""
"pit-trial","11","128442","0.0-2.0-4.0-0.0","battery-v0.2","","""event"",""trial"",""time""
""fullscreenenter"",""1"",""1644""
","
","
","""event"",""trial"",""time""
""fullscreenenter"",""1"",""1644""
","
","","","-1","","","20","3515","1328","&#9784;","elianto","#FFFFF080"," ","-1","0","&#10060","[]","0","0","0","","","","","","","",""
"pit-trial","12","131970","0.0-2.0-4.1-0.1","battery-v0.2","","""event"",""trial"",""time""
""fullscreenenter"",""1"",""1644""
","
","
","""event"",""trial"",""time""
""fullscreenenter"",""1"",""1644""
","
","","","671.5","","","20","3515","1328","&#9784;","elianto","#FFFFF080"," "," ","1","&#10004","[1522.0999999977648]","1","0","0","","","","","","","",""
"pit-trial","13","135176","0.0-2.0-4.2-0.2","battery-v0.2","","""event"",""trial"",""time""
""fullscreenenter"",""1"",""1644""
","
","
","""event"",""trial"",""time""
""fullscreenenter"",""1"",""1644""
","
","","","345.30000000074506","","","20","3515","1328","&#9784;","elianto","#FFFFF080"," "," ","1","&#10004","[1197.4000000022352]","1","0","0","","","","","","","",""
"pit-trial","14","138218","0.0-2.0-4.3-0.3","battery-v0.2","","""event"",""trial"",""time""
""fullscreenenter"",""1"",""1644""
","
","
","""event"",""trial"",""time""
""fullscreenenter"",""1"",""1644""
","
","","","184.69999999925494","","","20","3515","1328","&#9784;","elianto","#FFFFF080"," "," ","1","&#10004","[1034.800000000745]","1","0","0","","","","","","","",""
"pit-trial","15","141090","0.0-2.0-4.4-0.4","battery-v0.2","","""event"",""trial"",""time""
""fullscreenenter"",""1"",""1644""
","
","
","""event"",""trial"",""time""
""fullscreenenter"",""1"",""1644""
","
","","","9.700000002980232","","","20","3515","1328","&#9784;","elianto","#FFFFF080"," "," ","1","&#10004","[862.1000000014901]","1","0","0","","","","","","","",""
"pit-instructions","16","161782","0.0-2.0-5.0","battery-v0.2","","""event"",""trial"",""time""
""fullscreenenter"",""1"",""1644""
","
","
","""event"",""trial"",""time""
""fullscreenenter"",""1"",""1644""
","
","","[{""page_index"":0,""viewing_time"":5070.099999997765},{""page_index"":1,""viewing_time"":5083.10000000149},{""page_index"":2,""viewing_time"":4883.099999997765},{""page_index"":3,""viewing_time"":5650.400000002235}]","20687.5","","","","","","","","","","","","","","","","","","","","","","","",""
"pit-trial","17","166647","0.0-2.0-6.0-0.0","battery-v0.2","","""event"",""trial"",""time""
""fullscreenenter"",""1"",""1644""
","
","
","""event"",""trial"",""time""
""fullscreenenter"",""1"",""1644""
","
","","","-1","","","20","3515","1328","&#9854;","elianto","#FFFFF080","-1","-1","1","&#10004","[]","0","0","1","","","","","","","",""
"pit-trial","18","171509","0.0-2.0-6.1-0.1","battery-v0.2","","""event"",""trial"",""time""
""fullscreenenter"",""1"",""1644""
","
","
","""event"",""trial"",""time""
""fullscreenenter"",""1"",""1644""
","
","","","-1","","","20","3515","1328","&#9854;","elianto","#FFFFF080","-1","-1","1","&#10004","[]","0","0","1","","","","","","","",""
"pit-trial","19","176366","0.0-2.0-6.2-0.2","battery-v0.2","","""event"",""trial"",""time""
""fullscreenenter"",""1"",""1644""
","
","
","""event"",""trial"",""time""
""fullscreenenter"",""1"",""1644""
","
","","","-1","","","20","3515","1328","&#9854;","elianto","#FFFFF080","-1","-1","1","&#10004","[]","0","0","1","","","","","","","",""
"pit-trial","20","181231","0.0-2.0-6.3-0.3","battery-v0.2","","""event"",""trial"",""time""
""fullscreenenter"",""1"",""1644""
","
","
","""event"",""trial"",""time""
""fullscreenenter"",""1"",""1644""
","
","","","-1","","","20","3515","1328","&#9854;","elianto","#FFFFF080","-1","-1","1","&#10004","[]","0","0","1","","","","","","","",""
"pit-trial","21","186097","0.0-2.0-6.4-0.4","battery-v0.2","","""event"",""trial"",""time""
""fullscreenenter"",""1"",""1644""
","
","
","""event"",""trial"",""time""
""fullscreenenter"",""1"",""1644""
","
","","","-1","","","20","3515","1328","&#9854;","elianto","#FFFFF080","-1","-1","1","&#10004","[]","0","0","1","","","","","","","",""
"pit-instructions","22","330356","0.0-2.0-7.0","battery-v0.2","","""event"",""trial"",""time""
""fullscreenenter"",""1"",""1644""
","
","
","""event"",""trial"",""time""
""fullscreenenter"",""1"",""1644""
","
","","[{""page_index"":0,""viewing_time"":8398.10000000149},{""page_index"":1,""viewing_time"":8065.5},{""page_index"":2,""viewing_time"":7283.699999999255},{""page_index"":3,""viewing_time"":6182.39999999851},{""page_index"":4,""viewing_time"":8301},{""page_index"":5,""viewing_time"":6616.400000002235},{""page_index"":6,""viewing_time"":4984},{""page_index"":7,""viewing_time"":18505.599999997765},{""page_index"":8,""viewing_time"":10279.20000000298},{""page_index"":9,""viewing_time"":7201},{""page_index"":10,""viewing_time"":6174.29999999702},{""page_index"":11,""viewing_time"":6596},{""page_index"":12,""viewing_time"":11164.20000000298},{""page_index"":13,""viewing_time"":6176.599999997765},{""page_index"":14,""viewing_time"":6353.300000000745},{""page_index"":15,""viewing_time"":9866.60000000149},{""page_index"":16,""viewing_time"":6024.5},{""page_index"":17,""viewing_time"":6083.29999999702}]","144256.90000000224","","","","","","","","","","","","","","","","","","","","","","","",""
"pit-trial","23","335216","0.0-2.0-8.0-0.0","battery-v0.2","","""event"",""trial"",""time""
""fullscreenenter"",""1"",""1644""
","
","
","""event"",""trial"",""time""
""fullscreenenter"",""1"",""1644""
","
","","","-1","","","20","3515","1328","&#9776;","elianto","#3366ff99"," ","-1","0","0","[]","0","0","1","","","","","","","",""
"pit-trial","24","338763","0.0-2.0-8.0-1.0","battery-v0.2","","""event"",""trial"",""time""
""fullscreenenter"",""1"",""1644""
","
","
","""event"",""trial"",""time""
""fullscreenenter"",""1"",""1644""
","
","","","688.4000000022352","","","20","3515","1328","&#9776;","elianto","#3366ff99"," "," ","1","+10","[1540.7999999970198]","1","0","1","","","","","","","",""
"pit-trial","25","342267","0.0-2.0-8.0-2.0","battery-v0.2","","""event"",""trial"",""time""
""fullscreenenter"",""1"",""1644""
","
","
","""event"",""trial"",""time""
""fullscreenenter"",""1"",""1644""
","
","","","645.8999999985099","","","20","3515","1328","&#9776;","elianto","#3366ff99"," "," ","1","+10","[1497.0999999977648]","1","0","1","","","","","","","",""
"pit-trial","26","345554","0.0-2.0-8.0-3.0","battery-v0.2","","""event"",""trial"",""time""
""fullscreenenter"",""1"",""1644""
","
","
","""event"",""trial"",""time""
""fullscreenenter"",""1"",""1644""
","
","","","430.20000000298023","","","20","3515","1328","&#9776;","elianto","#3366ff99"," "," ","1","0","[1282.8999999985099]","1","0","1","","","","","","","",""
"pit-trial","27","349191","0.0-2.0-8.0-4.0","battery-v0.2","","""event"",""trial"",""time""
""fullscreenenter"",""1"",""1644""
","
","
","""event"",""trial"",""time""
""fullscreenenter"",""1"",""1644""
","
","","","777.5","","","20","3515","1328","&#9776;","elianto","#3366ff99"," "," ","1","+10","[1627.9000000022352]","1","0","1","","","","","","","",""
"call-function","28","349195","0.0-2.0-9.0","battery-v0.2","","""event"",""trial"",""time""
""fullscreenenter"",""1"",""1644""
","
","
","""event"",""trial"",""time""
""fullscreenenter"",""1"",""1644""
","
","","","","","","","","","","","","","","","","","","","","","","","","","","",""
"pit-instructions","29","412481","0.0-2.0-10.0","battery-v0.2","","""event"",""trial"",""time""
""fullscreenenter"",""1"",""1644""
","
","
","""event"",""trial"",""time""
""fullscreenenter"",""1"",""1644""
","
","","[{""page_index"":0,""viewing_time"":21168.300000000745},{""page_index"":1,""viewing_time"":9233.099999997765},{""page_index"":2,""viewing_time"":12834.20000000298},{""page_index"":3,""viewing_time"":8334.599999997765},{""page_index"":4,""viewing_time"":11715.400000002235}]","63286.5","","","","","","","","","","","","","","","","","","","","","","","",""
"pit-trial","30","416263","0.0-2.0-11.0-0.0","battery-v0.2","","""event"",""trial"",""time""
""fullscreenenter"",""1"",""1644""
","
","
","""event"",""trial"",""time""
""fullscreenenter"",""1"",""1644""
","
","","","924.6999999992549","","","20","3515","1328","&#9761;","elianto","#3366ff99","-1"," ","0","0","[1776.300000000745]","1","0","2","","","","","","","",""
"pit-trial","31","419409","0.0-2.0-11.0-1.0","battery-v0.2","","""event"",""trial"",""time""
""fullscreenenter"",""1"",""1644""
","
","
","""event"",""trial"",""time""
""fullscreenenter"",""1"",""1644""
","
","","","285.19999999925494","","","20","3515","1328","&#9761;","elianto","#3366ff99","-1"," ","0","0","[767.5999999977648,1136.5]","2","0","2","","","","","","","",""
"pit-trial","32","424265","0.0-2.0-11.0-2.0","battery-v0.2","","""event"",""trial"",""time""
""fullscreenenter"",""1"",""1644""
","
","
","""event"",""trial"",""time""
""fullscreenenter"",""1"",""1644""
","
","","","-1","","","20","3515","1328","&#9761;","elianto","#3366ff99","-1","-1","1","+10","[]","0","0","2","","","","","","","",""
"pit-trial","33","429123","0.0-2.0-11.0-3.0","battery-v0.2","","""event"",""trial"",""time""
""fullscreenenter"",""1"",""1644""
","
","
","""event"",""trial"",""time""
""fullscreenenter"",""1"",""1644""
","
","","","-1","","","20","3515","1328","&#9761;","elianto","#3366ff99","-1","-1","1","0","[]","0","0","2","","","","","","","",""
"pit-trial","34","433983","0.0-2.0-11.0-4.0","battery-v0.2","","""event"",""trial"",""time""
""fullscreenenter"",""1"",""1644""
","
","
","""event"",""trial"",""time""
""fullscreenenter"",""1"",""1644""
","
","","","-1","","","20","3515","1328","&#9761;","elianto","#3366ff99","-1","-1","1","+10","[]","0","0","2","","","","","","","",""
"pit-trial","35","437302","0.0-2.0-11.1-0.1","battery-v0.2","","""event"",""trial"",""time""
""fullscreenenter"",""1"",""1644""
","
","
","""event"",""trial"",""time""
""fullscreenenter"",""1"",""1644""
","
","","","460.5","","","20","3515","1328","&#9761;","elianto","#3366ff99","-1"," ","0","0","[1313.5]","1","0","2","","","","","","","",""
"pit-trial","36","440640","0.0-2.0-11.1-1.1","battery-v0.2","","""event"",""trial"",""time""
""fullscreenenter"",""1"",""1644""
","
","
","""event"",""trial"",""time""
""fullscreenenter"",""1"",""1644""
","
","","","480.8999999985099","","","20","3515","1328","&#9761;","elianto","#3366ff99","-1"," ","0","0","[1331.800000000745]","1","0","2","","","","","","","",""
"pit-trial","37","445504","0.0-2.0-11.1-2.1","battery-v0.2","","""event"",""trial"",""time""
""fullscreenenter"",""1"",""1644""
","
","
","""event"",""trial"",""time""
""fullscreenenter"",""1"",""1644""
","
","","","-1","","","20","3515","1328","&#9761;","elianto","#3366ff99","-1","-1","1","+10","[]","0","0","2","","","","","","","",""
"pit-trial","38","448822","0.0-2.0-11.1-3.1","battery-v0.2","","""event"",""trial"",""time""
""fullscreenenter"",""1"",""1644""
","
","
","""event"",""trial"",""time""
""fullscreenenter"",""1"",""1644""
","
","","","460","","","20","3515","1328","&#9761;","elianto","#3366ff99","-1"," ","0","+10","[1310.2999999970198]","1","0","2","","","","","","","",""
"pit-trial","39","451947","0.0-2.0-11.1-4.1","battery-v0.2","","""event"",""trial"",""time""
""fullscreenenter"",""1"",""1644""
","
","
","""event"",""trial"",""time""
""fullscreenenter"",""1"",""1644""
","
","","","268.69999999925494","","","20","3515","1328","&#9761;","elianto","#3366ff99","-1"," ","0","0","[1118.699999999255]","1","0","2","","","","","","","",""
"pit-trial","40","456811","0.0-2.0-11.2-0.2","battery-v0.2","","""event"",""trial"",""time""
""fullscreenenter"",""1"",""1644""
","
","
","""event"",""trial"",""time""
""fullscreenenter"",""1"",""1644""
","
","","","-1","","","20","3515","1328","&#9761;","elianto","#3366ff99","-1","-1","1","+10","[]","0","0","2","","","","","","","",""
"pit-trial","41","460874","0.0-2.0-11.2-1.2","battery-v0.2","","""event"",""trial"",""time""
""fullscreenenter"",""1"",""1644""
","
","
","""event"",""trial"",""time""
""fullscreenenter"",""1"",""1644""
","
","","","1206.300000000745","","","20","3515","1328","&#9761;","elianto","#3366ff99","-1"," ","0","0","[2056.599999997765]","1","0","2","","","","","","","",""
"pit-trial","42","464138","0.0-2.0-11.2-2.2","battery-v0.2","","""event"",""trial"",""time""
""fullscreenenter"",""1"",""1644""
","
","
","""event"",""trial"",""time""
""fullscreenenter"",""1"",""1644""
","
","","","405","","","20","3515","1328","&#9761;","elianto","#3366ff99","-1"," ","0","0","[1255.300000000745]","1","0","2","","","","","","","",""
"pit-trial","43","468997","0.0-2.0-11.2-3.2","battery-v0.2","","""event"",""trial"",""time""
""fullscreenenter"",""1"",""1644""
","
","
","""event"",""trial"",""time""
""fullscreenenter"",""1"",""1644""
","
","","","-1","","","20","3515","1328","&#9761;","elianto","#3366ff99","-1","-1","1","0","[]","0","0","2","","","","","","","",""
"pit-trial","44","473851","0.0-2.0-11.2-4.2","battery-v0.2","","""event"",""trial"",""time""
""fullscreenenter"",""1"",""1644""
","
","
","""event"",""trial"",""time""
""fullscreenenter"",""1"",""1644""
","
","","","-1","","","20","3515","1328","&#9761;","elianto","#3366ff99","-1","-1","1","+10","[]","0","0","2","","","","","","","",""
"pit-trial","45","477018","0.0-2.0-11.3-0.3","battery-v0.2","","""event"",""trial"",""time""
""fullscreenenter"",""1"",""1644""
","
","
","""event"",""trial"",""time""
""fullscreenenter"",""1"",""1644""
","
","","","309.0999999977648","","","20","3515","1328","&#9761;","elianto","#3366ff99","-1"," ","0","0","[1161.1000000014901]","1","0","2","","","","","","","",""
"pit-trial","46","481877","0.0-2.0-11.3-1.3","battery-v0.2","","""event"",""trial"",""time""
""fullscreenenter"",""1"",""1644""
","
","
","""event"",""trial"",""time""
""fullscreenenter"",""1"",""1644""
","
","","","-1","","","20","3515","1328","&#9761;","elianto","#3366ff99","-1","-1","1","+10","[]","0","0","2","","","","","","","",""
"pit-trial","47","485098","0.0-2.0-11.3-2.3","battery-v0.2","","""event"",""trial"",""time""
""fullscreenenter"",""1"",""1644""
","
","
","""event"",""trial"",""time""
""fullscreenenter"",""1"",""1644""
","
","","","362","","","20","3515","1328","&#9761;","elianto","#3366ff99","-1"," ","0","0","[1212.8999999985099]","1","0","2","","","","","","","",""
"pit-trial","48","488309","0.0-2.0-11.3-3.3","battery-v0.2","","""event"",""trial"",""time""
""fullscreenenter"",""1"",""1644""
","
","
","""event"",""trial"",""time""
""fullscreenenter"",""1"",""1644""
","
","","","353.79999999701977","","","20","3515","1328","&#9761;","elianto","#3366ff99","-1"," ","0","+10","[1204]","1","0","2","","","","","","","",""
"pit-trial","49","493167","0.0-2.0-11.3-4.3","battery-v0.2","","""event"",""trial"",""time""
""fullscreenenter"",""1"",""1644""
","
","
","""event"",""trial"",""time""
""fullscreenenter"",""1"",""1644""
","
","","","-1","","","20","3515","1328","&#9761;","elianto","#3366ff99","-1","-1","1","+10","[]","0","0","2","","","","","","","",""
"pit-trial","50","496437","0.0-2.0-11.4-0.4","battery-v0.2","","""event"",""trial"",""time""
""fullscreenenter"",""1"",""1644""
","
","
","""event"",""trial"",""time""
""fullscreenenter"",""1"",""1644""
","
","","","409.70000000298023","","","20","3515","1328","&#9761;","elianto","#3366ff99","-1"," ","0","0","[1262.5]","1","0","2","","","","","","","",""
"pit-trial","51","499653","0.0-2.0-11.4-1.4","battery-v0.2","","""event"",""trial"",""time""
""fullscreenenter"",""1"",""1644""
","
","
","""event"",""trial"",""time""
""fullscreenenter"",""1"",""1644""
","
","","","360.29999999701977","","","20","3515","1328","&#9761;","elianto","#3366ff99","-1"," ","0","0","[1211.199999999255]","1","0","2","","","","","","","",""
"pit-trial","52","503082","0.0-2.0-11.4-2.4","battery-v0.2","","""event"",""trial"",""time""
""fullscreenenter"",""1"",""1644""
","
","
","""event"",""trial"",""time""
""fullscreenenter"",""1"",""1644""
","
","","","569.6000000014901","","","20","3515","1328","&#9761;","elianto","#3366ff99","-1"," ","0","0","[1420.2999999970198]","1","0","2","","","","","","","",""
"pit-trial","53","507946","0.0-2.0-11.4-3.4","battery-v0.2","","""event"",""trial"",""time""
""fullscreenenter"",""1"",""1644""
","
","
","""event"",""trial"",""time""
""fullscreenenter"",""1"",""1644""
","
","","","-1","","","20","3515","1328","&#9761;","elianto","#3366ff99","-1","-1","1","0","[]","0","0","2","","","","","","","",""
"pit-trial","54","511370","0.0-2.0-11.4-4.4","battery-v0.2","","""event"",""trial"",""time""
""fullscreenenter"",""1"",""1644""
","
","
","""event"",""trial"",""time""
""fullscreenenter"",""1"",""1644""
","
","","","566.3999999985099","","","20","3515","1328","&#9761;","elianto","#3366ff99","-1"," ","0","0","[1418]","1","0","2","","","","","","","",""
"pit-instructions","55","574581","0.0-2.0-11.4-5.4-0.4","battery-v0.2","","""event"",""trial"",""time""
""fullscreenenter"",""1"",""1644""
","
","
","""event"",""trial"",""time""
""fullscreenenter"",""1"",""1644""
","
","","[{""page_index"":0,""viewing_time"":48106.60000000149},{""page_index"":1,""viewing_time"":7683.39999999851},{""page_index"":2,""viewing_time"":7416.900000002235}]","63208.10000000149","","","","","","","","","","","","","","","","","","","","","","","",""
"pit-trial","56","578131","0.0-2.0-11.5-0.5","battery-v0.2","","""event"",""trial"",""time""
""fullscreenenter"",""1"",""1644""
","
","
","""event"",""trial"",""time""
""fullscreenenter"",""1"",""1644""
","
","","","690.6999999992549","","","20","3515","1328","&#9761;","elianto","#3366ff99","-1"," ","0","0","[1542.699999999255]","1","0","2","","","","","","","",""
"pit-trial","57","582992","0.0-2.0-11.5-1.5","battery-v0.2","","""event"",""trial"",""time""
""fullscreenenter"",""1"",""1644""
","
","
","""event"",""trial"",""time""
""fullscreenenter"",""1"",""1644""
","
","","","-1","","","20","3515","1328","&#9761;","elianto","#3366ff99","-1","-1","1","+10","[]","0","0","2","","","","","","","",""
"pit-trial","58","587853","0.0-2.0-11.5-2.5","battery-v0.2","","""event"",""trial"",""time""
""fullscreenenter"",""1"",""1644""
","
","
","""event"",""trial"",""time""
""fullscreenenter"",""1"",""1644""
","
","","","-1","","","20","3515","1328","&#9761;","elianto","#3366ff99","-1","-1","1","+10","[]","0","0","2","","","","","","","",""
"pit-trial","59","592712","0.0-2.0-11.5-3.5","battery-v0.2","","""event"",""trial"",""time""
""fullscreenenter"",""1"",""1644""
","
","
","""event"",""trial"",""time""
""fullscreenenter"",""1"",""1644""
","
","","","-1","","","20","3515","1328","&#9761;","elianto","#3366ff99","-1","-1","1","0","[]","0","0","2","","","","","","","",""
"pit-trial","60","595848","0.0-2.0-11.5-4.5","battery-v0.2","","""event"",""trial"",""time""
""fullscreenenter"",""1"",""1644""
","
","
","""event"",""trial"",""time""
""fullscreenenter"",""1"",""1644""
","
","","","279.0999999977648","","","20","3515","1328","&#9761;","elianto","#3366ff99","-1"," ","0","0","[1130.300000000745]","1","0","2","","","","","","","",""
"pit-trial","61","600713","0.0-2.0-11.6-0.6","battery-v0.2","","""event"",""trial"",""time""
""fullscreenenter"",""1"",""1644""
","
","
","""event"",""trial"",""time""
""fullscreenenter"",""1"",""1644""
","
","","","-1","","","20","3515","1328","&#9761;","elianto","#3366ff99","-1","-1","1","+10","[]","0","0","2","","","","","","","",""
"pit-trial","62","604063","0.0-2.0-11.6-1.6","battery-v0.2","","""event"",""trial"",""time""
""fullscreenenter"",""1"",""1644""
","
","
","""event"",""trial"",""time""
""fullscreenenter"",""1"",""1644""
","
","","","490.6000000014901","","","20","3515","1328","&#9761;","elianto","#3366ff99","-1"," ","0","0","[1342.699999999255]","1","0","2","","","","","","","",""
"pit-trial","63","608927","0.0-2.0-11.6-2.6","battery-v0.2","","""event"",""trial"",""time""
""fullscreenenter"",""1"",""1644""
","
","
","""event"",""trial"",""time""
""fullscreenenter"",""1"",""1644""
","
","","","-1","","","20","3515","1328","&#9761;","elianto","#3366ff99","-1","-1","1","+10","[]","0","0","2","","","","","","","",""
"pit-trial","64","612554","0.0-2.0-11.6-3.6","battery-v0.2","","""event"",""trial"",""time""
""fullscreenenter"",""1"",""1644""
","
","
","""event"",""trial"",""time""
""fullscreenenter"",""1"",""1644""
","
","","","771.0999999977648","","","20","3515","1328","&#9761;","elianto","#3366ff99","-1"," ","0","+10","[1622.3999999985099]","1","0","2","","","","","","","",""
"pit-trial","65","617417","0.0-2.0-11.6-4.6","battery-v0.2","","""event"",""trial"",""time""
""fullscreenenter"",""1"",""1644""
","
","
","""event"",""trial"",""time""
""fullscreenenter"",""1"",""1644""
","
","","","-1","","","20","3515","1328","&#9761;","elianto","#3366ff99","-1","-1","1","+10","[]","0","0","2","","","","","","","",""
"pit-trial","66","621284","0.0-2.0-11.7-0.7","battery-v0.2","","""event"",""trial"",""time""
""fullscreenenter"",""1"",""1644""
","
","
","""event"",""trial"",""time""
""fullscreenenter"",""1"",""1644""
","
","","","1008.6999999992549","","","20","3515","1328","&#9761;","elianto","#3366ff99","-1"," ","0","0","[1861.199999999255]","1","0","2","","","","","","","",""
"pit-trial","67","624319","0.0-2.0-11.7-1.7","battery-v0.2","","""event"",""trial"",""time""
""fullscreenenter"",""1"",""1644""
","
","
","""event"",""trial"",""time""
""fullscreenenter"",""1"",""1644""
","
","","","176.40000000223517","","","20","3515","1328","&#9761;","elianto","#3366ff99","-1"," ","0","0","[1029.300000000745]","1","0","2","","","","","","","",""
"pit-trial","68","629183","0.0-2.0-11.7-2.7","battery-v0.2","","""event"",""trial"",""time""
""fullscreenenter"",""1"",""1644""
","
","
","""event"",""trial"",""time""
""fullscreenenter"",""1"",""1644""
","
","","","-1","","","20","3515","1328","&#9761;","elianto","#3366ff99","-1","-1","1","+10","[]","0","0","2","","","","","","","",""
"pit-trial","69","634047","0.0-2.0-11.7-3.7","battery-v0.2","","""event"",""trial"",""time""
""fullscreenenter"",""1"",""1644""
","
","
","""event"",""trial"",""time""
""fullscreenenter"",""1"",""1644""
","
","","","-1","","","20","3515","1328","&#9761;","elianto","#3366ff99","-1","-1","1","0","[]","0","0","2","","","","","","","",""
"pit-trial","70","638324","0.0-2.0-11.7-4.7","battery-v0.2","","""event"",""trial"",""time""
""fullscreenenter"",""1"",""1644""
","
","
","""event"",""trial"",""time""
""fullscreenenter"",""1"",""1644""
","
","","","1418.3999999985099","","","20","3515","1328","&#9761;","elianto","#3366ff99","-1"," ","0","0","[2270.400000002235]","1","0","2","","","","","","","",""
"pit-trial","71","643188","0.0-2.0-11.8-0.8","battery-v0.2","","""event"",""trial"",""time""
""fullscreenenter"",""1"",""1644""
","
","
","""event"",""trial"",""time""
""fullscreenenter"",""1"",""1644""
","
","","","-1","","","20","3515","1328","&#9761;","elianto","#3366ff99","-1","-1","1","+10","[]","0","0","2","","","","","","","",""
"pit-trial","72","648052","0.0-2.0-11.8-1.8","battery-v0.2","","""event"",""trial"",""time""
""fullscreenenter"",""1"",""1644""
","
","
","""event"",""trial"",""time""
""fullscreenenter"",""1"",""1644""
","
","","","-1","","","20","3515","1328","&#9761;","elianto","#3366ff99","-1","-1","1","+10","[]","0","0","2","","","","","","","",""
"pit-trial","73","652916","0.0-2.0-11.8-2.8","battery-v0.2","","""event"",""trial"",""time""
""fullscreenenter"",""1"",""1644""
","
","
","""event"",""trial"",""time""
""fullscreenenter"",""1"",""1644""
","
","","","-1","","","20","3515","1328","&#9761;","elianto","#3366ff99","-1","-1","1","+10","[]","0","0","2","","","","","","","",""
"pit-trial","74","657780","0.0-2.0-11.8-3.8","battery-v0.2","","""event"",""trial"",""time""
""fullscreenenter"",""1"",""1644""
","
","
","""event"",""trial"",""time""
""fullscreenenter"",""1"",""1644""
","
","","","-1","","","20","3515","1328","&#9761;","elianto","#3366ff99","-1","-1","1","0","[]","0","0","2","","","","","","","",""
"pit-trial","75","661145","0.0-2.0-11.8-4.8","battery-v0.2","","""event"",""trial"",""time""
""fullscreenenter"",""1"",""1644""
","
","
","""event"",""trial"",""time""
""fullscreenenter"",""1"",""1644""
","
","","","507.0999999977648","","","20","3515","1328","&#9761;","elianto","#3366ff99","-1"," ","0","0","[1359.1000000014901]","1","0","2","","","","","","","",""
"pit-trial","76","666004","0.0-2.0-11.9-0.9","battery-v0.2","","""event"",""trial"",""time""
""fullscreenenter"",""1"",""1644""
","
","
","""event"",""trial"",""time""
""fullscreenenter"",""1"",""1644""
","
","","","-1","","","20","3515","1328","&#9761;","elianto","#3366ff99","-1","-1","1","+10","[]","0","0","2","","","","","","","",""
"pit-trial","77","669477","0.0-2.0-11.9-1.9","battery-v0.2","","""event"",""trial"",""time""
""fullscreenenter"",""1"",""1644""
","
","
","""event"",""trial"",""time""
""fullscreenenter"",""1"",""1644""
","
","","","613.7999999970198","","","20","3515","1328","&#9761;","elianto","#3366ff99","-1"," ","0","0","[1464.199999999255]","1","0","2","","","","","","","",""
"pit-trial","78","674339","0.0-2.0-11.9-2.9","battery-v0.2","","""event"",""trial"",""time""
""fullscreenenter"",""1"",""1644""
","
","
","""event"",""trial"",""time""
""fullscreenenter"",""1"",""1644""
","
","","","-1","","","20","3515","1328","&#9761;","elianto","#3366ff99","-1","-1","1","+10","[]","0","0","2","","","","","","","",""
"pit-trial","79","679203","0.0-2.0-11.9-3.9","battery-v0.2","","""event"",""trial"",""time""
""fullscreenenter"",""1"",""1644""
","
","
","""event"",""trial"",""time""
""fullscreenenter"",""1"",""1644""
","
","","","-1","","","20","3515","1328","&#9761;","elianto","#3366ff99","-1","-1","1","0","[]","0","0","2","","","","","","","",""
"pit-trial","80","682627","0.0-2.0-11.9-4.9","battery-v0.2","","""event"",""trial"",""time""
""fullscreenenter"",""1"",""1644""
","
","
","""event"",""trial"",""time""
""fullscreenenter"",""1"",""1644""
","
","","","568.1999999992549","","","20","3515","1328","&#9761;","elianto","#3366ff99","-1"," ","0","0","[1419.1000000014901]","1","0","2","","","","","","","",""
"pit-trial","81","687491","0.0-2.0-11.10-0.10","battery-v0.2","","""event"",""trial"",""time""
""fullscreenenter"",""1"",""1644""
","
","
","""event"",""trial"",""time""
""fullscreenenter"",""1"",""1644""
","
","","","-1","","","20","3515","1328","&#9761;","elianto","#3366ff99","-1","-1","1","+10","[]","0","0","2","","","","","","","",""
"pit-trial","82","692350","0.0-2.0-11.10-1.10","battery-v0.2","","""event"",""trial"",""time""
""fullscreenenter"",""1"",""1644""
","
","
","""event"",""trial"",""time""
""fullscreenenter"",""1"",""1644""
","
","","","-1","","","20","3515","1328","&#9761;","elianto","#3366ff99","-1","-1","1","+10","[]","0","0","2","","","","","","","",""
"pit-trial","83","697213","0.0-2.0-11.10-2.10","battery-v0.2","","""event"",""trial"",""time""
""fullscreenenter"",""1"",""1644""
","
","
","""event"",""trial"",""time""
""fullscreenenter"",""1"",""1644""
","
","","","-1","","","20","3515","1328","&#9761;","elianto","#3366ff99","-1","-1","1","+10","[]","0","0","2","","","","","","","",""
"pit-trial","84","702077","0.0-2.0-11.10-3.10","battery-v0.2","","""event"",""trial"",""time""
""fullscreenenter"",""1"",""1644""
","
","
","""event"",""trial"",""time""
""fullscreenenter"",""1"",""1644""
","
","","","-1","","","20","3515","1328","&#9761;","elianto","#3366ff99","-1","-1","1","0","[]","0","0","2","","","","","","","",""
"pit-trial","85","705496","0.0-2.0-11.10-4.10","battery-v0.2","","""event"",""trial"",""time""
""fullscreenenter"",""1"",""1644""
","
","
","""event"",""trial"",""time""
""fullscreenenter"",""1"",""1644""
","
","","","559.8000000007451","","","20","3515","1328","&#9761;","elianto","#3366ff99","-1"," ","0","0","[1410.1000000014901]","1","0","2","","","","","","","",""
"pit-trial","86","708851","0.0-2.0-11.11-0.11","battery-v0.2","","""event"",""trial"",""time""
""fullscreenenter"",""1"",""1644""
","
","
","""event"",""trial"",""time""
""fullscreenenter"",""1"",""1644""
","
","","","498","","","20","3515","1328","&#9761;","elianto","#3366ff99","-1"," ","0","0","[1349]","1","0","2","","","","","","","",""
"pit-trial","87","713714","0.0-2.0-11.11-1.11","battery-v0.2","","""event"",""trial"",""time""
""fullscreenenter"",""1"",""1644""
","
","
","""event"",""trial"",""time""
""fullscreenenter"",""1"",""1644""
","
","","","-1","","","20","3515","1328","&#9761;","elianto","#3366ff99","-1","-1","1","+10","[]","0","0","2","","","","","","","",""
"pit-trial","88","718578","0.0-2.0-11.11-2.11","battery-v0.2","","""event"",""trial"",""time""
""fullscreenenter"",""1"",""1644""
","
","
","""event"",""trial"",""time""
""fullscreenenter"",""1"",""1644""
","
","","","-1","","","20","3515","1328","&#9761;","elianto","#3366ff99","-1","-1","1","+10","[]","0","0","2","","","","","","","",""
"pit-trial","89","723442","0.0-2.0-11.11-3.11","battery-v0.2","","""event"",""trial"",""time""
""fullscreenenter"",""1"",""1644""
","
","
","""event"",""trial"",""time""
""fullscreenenter"",""1"",""1644""
","
","","","-1","","","20","3515","1328","&#9761;","elianto","#3366ff99","-1","-1","1","0","[]","0","0","2","","","","","","","",""
"pit-trial","90","728306","0.0-2.0-11.11-4.11","battery-v0.2","","""event"",""trial"",""time""
""fullscreenenter"",""1"",""1644""
","
","
","""event"",""trial"",""time""
""fullscreenenter"",""1"",""1644""
","
","","","-1","","","20","3515","1328","&#9761;","elianto","#3366ff99","-1","-1","1","+10","[]","0","0","2","","","","","","","",""
"call-function","91","728310","0.0-2.0-12.0","battery-v0.2","","""event"",""trial"",""time""
""fullscreenenter"",""1"",""1644""
","
","
","""event"",""trial"",""time""
""fullscreenenter"",""1"",""1644""
","
","","","","","","","","","","","","","","","","","","","","","","","","","","",""
"pit-instructions","92","854196","0.0-2.0-13.0","battery-v0.2","","""event"",""trial"",""time""
""fullscreenenter"",""1"",""1644""
","
","
","""event"",""trial"",""time""
""fullscreenenter"",""1"",""1644""
","
","","[{""page_index"":0,""viewing_time"":53619.099999997765},{""page_index"":1,""viewing_time"":45583.400000002235},{""page_index"":2,""viewing_time"":9284.099999997765},{""page_index"":3,""viewing_time"":11050.20000000298},{""page_index"":4,""viewing_time"":6349.5}]","125887.30000000075","","","","","","","","","","","","","","","","","","","","","","","",""
"pit-trial","93","859051","0.0-2.0-14.0-0.0","battery-v0.2","","""event"",""trial"",""time""
""fullscreenenter"",""1"",""1644""
","
","
","""event"",""trial"",""time""
""fullscreenenter"",""1"",""1644""
","
","","","-1","","","20","3515","1328","&#9826;","elianto","#f73b6a7A","-1","-1","1","0","[]","0","0","3","","","","","","","",""
"pit-trial","94","863916","0.0-2.0-14.0-1.0","battery-v0.2","","""event"",""trial"",""time""
""fullscreenenter"",""1"",""1644""
","
","
","""event"",""trial"",""time""
""fullscreenenter"",""1"",""1644""
","
","","","-1","","","20","3515","1328","&#9826;","elianto","#f73b6a7A","-1","-1","1","0","[]","0","0","3","","","","","","","",""
"pit-trial","95","868778","0.0-2.0-14.0-2.0","battery-v0.2","","""event"",""trial"",""time""
""fullscreenenter"",""1"",""1644""
","
","
","""event"",""trial"",""time""
""fullscreenenter"",""1"",""1644""
","
","","","-1","","","20","3515","1328","&#9826;","elianto","#f73b6a7A","-1","-1","1","0","[]","0","0","3","","","","","","","",""
"pit-trial","96","873642","0.0-2.0-14.0-3.0","battery-v0.2","","""event"",""trial"",""time""
""fullscreenenter"",""1"",""1644""
","
","
","""event"",""trial"",""time""
""fullscreenenter"",""1"",""1644""
","
","","","-1","","","20","3515","1328","&#9826;","elianto","#f73b6a7A","-1","-1","1","-10","[]","0","0","3","","","","","","","",""
"pit-trial","97","878503","0.0-2.0-14.0-4.0","battery-v0.2","","""event"",""trial"",""time""
""fullscreenenter"",""1"",""1644""
","
","
","""event"",""trial"",""time""
""fullscreenenter"",""1"",""1644""
","
","","","-1","","","20","3515","1328","&#9826;","elianto","#f73b6a7A","-1","-1","1","0","[]","0","0","3","","","","","","","",""
"call-function","98","878507","0.0-2.0-15.0","battery-v0.2","","""event"",""trial"",""time""
""fullscreenenter"",""1"",""1644""
","
","
","""event"",""trial"",""time""
""fullscreenenter"",""1"",""1644""
","
","","","","","","","","","","","","","","","","","","","","","","","","","","",""
"pit-instructions","99","925579","0.0-2.0-16.0","battery-v0.2","","""event"",""trial"",""time""
""fullscreenenter"",""1"",""1644""
","
","
","""event"",""trial"",""time""
""fullscreenenter"",""1"",""1644""
","
","","[{""page_index"":0,""viewing_time"":22354.60000000149},{""page_index"":1,""viewing_time"":10716.699999999255},{""page_index"":2,""viewing_time"":6700.10000000149},{""page_index"":3,""viewing_time"":7300.300000000745}]","47072.400000002235","","","","","","","","","","","","","","","","","","","","","","","",""
"pit-trial","100","930439","0.0-2.0-17.0-0.0","battery-v0.2","","""event"",""trial"",""time""
""fullscreenenter"",""1"",""1644""
","
","
","""event"",""trial"",""time""
""fullscreenenter"",""1"",""1644""
","
","","","-1","","","20","3515","1328","&#9789;","elianto","#f73b6a7A"," ","-1","0","-10","[]","0","0","4","","","","","","","",""
"pit-trial","101","935300","0.0-2.0-17.0-1.0","battery-v0.2","","""event"",""trial"",""time""
""fullscreenenter"",""1"",""1644""
","
","
","""event"",""trial"",""time""
""fullscreenenter"",""1"",""1644""
","
","","","-1","","","20","3515","1328","&#9789;","elianto","#f73b6a7A"," ","-1","0","-10","[]","0","0","4","","","","","","","",""
"pit-trial","102","940161","0.0-2.0-17.0-2.0","battery-v0.2","","""event"",""trial"",""time""
""fullscreenenter"",""1"",""1644""
","
","
","""event"",""trial"",""time""
""fullscreenenter"",""1"",""1644""
","
","","","-1","","","20","3515","1328","&#9789;","elianto","#f73b6a7A"," ","-1","0","-10","[]","0","0","4","","","","","","","",""
"pit-trial","103","944658","0.0-2.0-17.0-3.0","battery-v0.2","","""event"",""trial"",""time""
""fullscreenenter"",""1"",""1644""
","
","
","""event"",""trial"",""time""
""fullscreenenter"",""1"",""1644""
","
","","","1640.2000000029802","","","20","3515","1328","&#9789;","elianto","#f73b6a7A"," "," ","1","-10","[2492.10000000149]","1","0","4","","","","","","","",""
"pit-trial","104","949523","0.0-2.0-17.0-4.0","battery-v0.2","","""event"",""trial"",""time""
""fullscreenenter"",""1"",""1644""
","
","
","""event"",""trial"",""time""
""fullscreenenter"",""1"",""1644""
","
","","","-1","","","20","3515","1328","&#9789;","elianto","#f73b6a7A"," ","-1","0","-10","[]","0","0","4","","","","","","","",""
"pit-trial","105","952767","0.0-2.0-17.1-0.1","battery-v0.2","","""event"",""trial"",""time""
""fullscreenenter"",""1"",""1644""
","
","
","""event"",""trial"",""time""
""fullscreenenter"",""1"",""1644""
","
","","","387.3999999985099","","","20","3515","1328","&#9789;","elianto","#f73b6a7A"," "," ","1","0","[1238.1000000014901]","1","0","4","","","","","","","",""
"pit-trial","106","956288","0.0-2.0-17.1-1.1","battery-v0.2","","""event"",""trial"",""time""
""fullscreenenter"",""1"",""1644""
","
","
","""event"",""trial"",""time""
""fullscreenenter"",""1"",""1644""
","
","","","663.3999999985099","","","20","3515","1328","&#9789;","elianto","#f73b6a7A"," "," ","1","0","[1514.5]","1","0","4","","","","","","","",""
"pit-trial","107","961061","0.0-2.0-17.1-2.1","battery-v0.2","","""event"",""trial"",""time""
""fullscreenenter"",""1"",""1644""
","
","
","""event"",""trial"",""time""
""fullscreenenter"",""1"",""1644""
","
","","","1918","","","20","3515","1328","&#9789;","elianto","#f73b6a7A"," "," ","1","0","[2768.10000000149]","1","0","4","","","","","","","",""
"pit-trial","108","965215","0.0-2.0-17.1-3.1","battery-v0.2","","""event"",""trial"",""time""
""fullscreenenter"",""1"",""1644""
","
","
","""event"",""trial"",""time""
""fullscreenenter"",""1"",""1644""
","
","","","1295.8999999985099","","","20","3515","1328","&#9789;","elianto","#f73b6a7A"," "," ","1","-10","[2146.800000000745]","1","0","4","","","","","","","",""
"pit-trial","109","970079","0.0-2.0-17.1-4.1","battery-v0.2","","""event"",""trial"",""time""
""fullscreenenter"",""1"",""1644""
","
","
","""event"",""trial"",""time""
""fullscreenenter"",""1"",""1644""
","
","","","-1","","","20","3515","1328","&#9789;","elianto","#f73b6a7A"," ","-1","0","-10","[]","0","0","4","","","","","","","",""
"pit-trial","110","973194","0.0-2.0-17.2-0.2","battery-v0.2","","""event"",""trial"",""time""
""fullscreenenter"",""1"",""1644""
","
","
","""event"",""trial"",""time""
""fullscreenenter"",""1"",""1644""
","
","","","251.60000000149012","","","20","3515","1328","&#9789;","elianto","#f73b6a7A"," "," ","1","0","[313.6000000014901,1104]","2","0","4","","","","","","","",""
"pit-trial","111","976623","0.0-2.0-17.2-1.2","battery-v0.2","","""event"",""trial"",""time""
""fullscreenenter"",""1"",""1644""
","
","
","""event"",""trial"",""time""
""fullscreenenter"",""1"",""1644""
","
","","","570.5999999977648","","","20","3515","1328","&#9789;","elianto","#f73b6a7A"," "," ","1","0","[1422.199999999255]","1","0","4","","","","","","","",""
"pit-trial","112","979882","0.0-2.0-17.2-2.2","battery-v0.2","","""event"",""trial"",""time""
""fullscreenenter"",""1"",""1644""
","
","
","""event"",""trial"",""time""
""fullscreenenter"",""1"",""1644""
","
","","","401.8999999985099","","","20","3515","1328","&#9789;","elianto","#f73b6a7A"," "," ","1","0","[1252.5]","1","0","4","","","","","","","",""
"pit-trial","113","984340","0.0-2.0-17.2-3.2","battery-v0.2","","""event"",""trial"",""time""
""fullscreenenter"",""1"",""1644""
","
","
","""event"",""trial"",""time""
""fullscreenenter"",""1"",""1644""
","
","","","1598.2999999970198","","","20","3515","1328","&#9789;","elianto","#f73b6a7A"," "," ","1","-10","[2448.699999999255]","1","0","4","","","","","","","",""
"pit-trial","114","989204","0.0-2.0-17.2-4.2","battery-v0.2","","""event"",""trial"",""time""
""fullscreenenter"",""1"",""1644""
","
","
","""event"",""trial"",""time""
""fullscreenenter"",""1"",""1644""
","
","","","-1","","","20","3515","1328","&#9789;","elianto","#f73b6a7A"," ","-1","0","-10","[3998.2000000029802]","1","0","4","","","","","","","",""
"pit-trial","115","992579","0.0-2.0-17.3-0.3","battery-v0.2","","""event"",""trial"",""time""
""fullscreenenter"",""1"",""1644""
","
","
","""event"",""trial"",""time""
""fullscreenenter"",""1"",""1644""
","
","","","516.4000000022352","","","20","3515","1328","&#9789;","elianto","#f73b6a7A"," "," ","1","0","[1366.5]","1","0","4","","","","","","","",""
"pit-trial","116","995982","0.0-2.0-17.3-1.3","battery-v0.2","","""event"",""trial"",""time""
""fullscreenenter"",""1"",""1644""
","
","
","""event"",""trial"",""time""
""fullscreenenter"",""1"",""1644""
","
","","","544.3000000007451","","","20","3515","1328","&#9789;","elianto","#f73b6a7A"," "," ","1","0","[1395.9000000022352]","1","0","4","","","","","","","",""
"pit-trial","117","1000185","0.0-2.0-17.3-2.3","battery-v0.2","","""event"",""trial"",""time""
""fullscreenenter"",""1"",""1644""
","
","
","""event"",""trial"",""time""
""fullscreenenter"",""1"",""1644""
","
","","","1342.5","","","20","3515","1328","&#9789;","elianto","#f73b6a7A"," "," ","1","0","[2195.10000000149]","1","0","4","","","","","","","",""
"pit-trial","118","1004422","0.0-2.0-17.3-3.3","battery-v0.2","","""event"",""trial"",""time""
""fullscreenenter"",""1"",""1644""
","
","
","""event"",""trial"",""time""
""fullscreenenter"",""1"",""1644""
","
","","","1381.7000000029802","","","20","3515","1328","&#9789;","elianto","#f73b6a7A"," "," ","1","-10","[2232.5]","1","0","4","","","","","","","",""
"pit-trial","119","1009284","0.0-2.0-17.3-4.3","battery-v0.2","","""event"",""trial"",""time""
""fullscreenenter"",""1"",""1644""
","
","
","""event"",""trial"",""time""
""fullscreenenter"",""1"",""1644""
","
","","","-1","","","20","3515","1328","&#9789;","elianto","#f73b6a7A"," ","-1","0","-10","[]","0","0","4","","","","","","","",""
"pit-trial","120","1012473","0.0-2.0-17.4-0.4","battery-v0.2","","""event"",""trial"",""time""
""fullscreenenter"",""1"",""1644""
","
","
","""event"",""trial"",""time""
""fullscreenenter"",""1"",""1644""
","
","","","330.29999999701977","","","20","3515","1328","&#9789;","elianto","#f73b6a7A"," "," ","1","0","[1180.8999999985099]","1","0","4","","","","","","","",""
"pit-trial","121","1015742","0.0-2.0-17.4-1.4","battery-v0.2","","""event"",""trial"",""time""
""fullscreenenter"",""1"",""1644""
","
","
","""event"",""trial"",""time""
""fullscreenenter"",""1"",""1644""
","
","","","409.0999999977648","","","20","3515","1328","&#9789;","elianto","#f73b6a7A"," "," ","1","0","[1259.800000000745]","1","0","4","","","","","","","",""
"pit-trial","122","1018905","0.0-2.0-17.4-2.4","battery-v0.2","","""event"",""trial"",""time""
""fullscreenenter"",""1"",""1644""
","
","
","""event"",""trial"",""time""
""fullscreenenter"",""1"",""1644""
","
","","","302.8999999985099","","","20","3515","1328","&#9789;","elianto","#f73b6a7A"," "," ","1","0","[1152.9000000022352]","1","0","4","","","","","","","",""
"pit-trial","123","1023769","0.0-2.0-17.4-3.4","battery-v0.2","","""event"",""trial"",""time""
""fullscreenenter"",""1"",""1644""
","
","
","""event"",""trial"",""time""
""fullscreenenter"",""1"",""1644""
","
","","","-1","","","20","3515","1328","&#9789;","elianto","#f73b6a7A"," ","-1","0","0","[]","0","0","4","","","","","","","",""
"pit-trial","124","1028633","0.0-2.0-17.4-4.4","battery-v0.2","","""event"",""trial"",""time""
""fullscreenenter"",""1"",""1644""
","
","
","""event"",""trial"",""time""
""fullscreenenter"",""1"",""1644""
","
","","","-1","","","20","3515","1328","&#9789;","elianto","#f73b6a7A"," ","-1","0","-10","[3111]","1","0","4","","","","","","","",""
"pit-instructions","125","1094478","0.0-2.0-17.4-5.4-0.4","battery-v0.2","","""event"",""trial"",""time""
""fullscreenenter"",""1"",""1644""
","
","
","""event"",""trial"",""time""
""fullscreenenter"",""1"",""1644""
","
","","[{""page_index"":0,""viewing_time"":44291.29999999702},{""page_index"":1,""viewing_time"":15234.5},{""page_index"":2,""viewing_time"":6316.400000002235}]","65843.19999999925","","","","","","","","","","","","","","","","","","","","","","","",""
"pit-trial","126","1099343","0.0-2.0-17.5-0.5","battery-v0.2","","""event"",""trial"",""time""
""fullscreenenter"",""1"",""1644""
","
","
","""event"",""trial"",""time""
""fullscreenenter"",""1"",""1644""
","
","","","-1","","","20","3515","1328","&#9789;","elianto","#f73b6a7A"," ","-1","0","-10","[]","0","0","4","","","","","","","",""
"pit-trial","127","1102425","0.0-2.0-17.5-1.5","battery-v0.2","","""event"",""trial"",""time""
""fullscreenenter"",""1"",""1644""
","
","
","""event"",""trial"",""time""
""fullscreenenter"",""1"",""1644""
","
","","","220.09999999776483","","","20","3515","1328","&#9789;","elianto","#f73b6a7A"," "," ","1","0","[1071.7999999970198]","1","0","4","","","","","","","",""
"pit-trial","128","1106047","0.0-2.0-17.5-2.5","battery-v0.2","","""event"",""trial"",""time""
""fullscreenenter"",""1"",""1644""
","
","
","""event"",""trial"",""time""
""fullscreenenter"",""1"",""1644""
","
","","","765.1000000014901","","","20","3515","1328","&#9789;","elianto","#f73b6a7A"," "," ","1","0","[1615.6000000014901]","1","0","4","","","","","","","",""
"pit-trial","129","1110908","0.0-2.0-17.5-3.5","battery-v0.2","","""event"",""trial"",""time""
""fullscreenenter"",""1"",""1644""
","
","
","""event"",""trial"",""time""
""fullscreenenter"",""1"",""1644""
","
","","","-1","","","20","3515","1328","&#9789;","elianto","#f73b6a7A"," ","-1","0","0","[]","0","0","4","","","","","","","",""
"pit-trial","130","1114173","0.0-2.0-17.5-4.5","battery-v0.2","","""event"",""trial"",""time""
""fullscreenenter"",""1"",""1644""
","
","
","""event"",""trial"",""time""
""fullscreenenter"",""1"",""1644""
","
","","","405.6000000014901","","","20","3515","1328","&#9789;","elianto","#f73b6a7A"," "," ","1","0","[1256.5]","1","0","4","","","","","","","",""
"pit-trial","131","1119037","0.0-2.0-17.6-0.6","battery-v0.2","","""event"",""trial"",""time""
""fullscreenenter"",""1"",""1644""
","
","
","""event"",""trial"",""time""
""fullscreenenter"",""1"",""1644""
","
","","","-1","","","20","3515","1328","&#9789;","elianto","#f73b6a7A"," ","-1","0","-10","[]","0","0","4","","","","","","","",""
"pit-trial","132","1123902","0.0-2.0-17.6-1.6","battery-v0.2","","""event"",""trial"",""time""
""fullscreenenter"",""1"",""1644""
","
","
","""event"",""trial"",""time""
""fullscreenenter"",""1"",""1644""
","
","","","-1","","","20","3515","1328","&#9789;","elianto","#f73b6a7A"," ","-1","0","-10","[]","0","0","4","","","","","","","",""
"pit-trial","133","1127138","0.0-2.0-17.6-2.6","battery-v0.2","","""event"",""trial"",""time""
""fullscreenenter"",""1"",""1644""
","
","
","""event"",""trial"",""time""
""fullscreenenter"",""1"",""1644""
","
","","","379.29999999701977","","","20","3515","1328","&#9789;","elianto","#f73b6a7A"," "," ","1","0","[1229.5]","1","0","4","","","","","","","",""
"pit-trial","134","1130519","0.0-2.0-17.6-3.6","battery-v0.2","","""event"",""trial"",""time""
""fullscreenenter"",""1"",""1644""
","
","
","""event"",""trial"",""time""
""fullscreenenter"",""1"",""1644""
","
","","","525.3000000007451","","","20","3515","1328","&#9789;","elianto","#f73b6a7A"," "," ","1","-10","[1375.5999999977648]","1","0","4","","","","","","","",""
"pit-trial","135","1133884","0.0-2.0-17.6-4.6","battery-v0.2","","""event"",""trial"",""time""
""fullscreenenter"",""1"",""1644""
","
","
","""event"",""trial"",""time""
""fullscreenenter"",""1"",""1644""
","
","","","507.3999999985099","","","20","3515","1328","&#9789;","elianto","#f73b6a7A"," "," ","1","0","[1357.6000000014901]","1","0","4","","","","","","","",""
"pit-trial","136","1138743","0.0-2.0-17.7-0.7","battery-v0.2","","""event"",""trial"",""time""
""fullscreenenter"",""1"",""1644""
","
","
","""event"",""trial"",""time""
""fullscreenenter"",""1"",""1644""
","
","","","-1","","","20","3515","1328","&#9789;","elianto","#f73b6a7A"," ","-1","0","-10","[]","0","0","4","","","","","","","",""
"pit-trial","137","1141889","0.0-2.0-17.7-1.7","battery-v0.2","","""event"",""trial"",""time""
""fullscreenenter"",""1"",""1644""
","
","
","""event"",""trial"",""time""
""fullscreenenter"",""1"",""1644""
","
","","","287.80000000074506","","","20","3515","1328","&#9789;","elianto","#f73b6a7A"," "," ","1","0","[1139.5]","1","0","4","","","","","","","",""
"pit-trial","138","1145505","0.0-2.0-17.7-2.7","battery-v0.2","","""event"",""trial"",""time""
""fullscreenenter"",""1"",""1644""
","
","
","""event"",""trial"",""time""
""fullscreenenter"",""1"",""1644""
","
","","","760.5","","","20","3515","1328","&#9789;","elianto","#f73b6a7A"," "," ","1","0","[1611.199999999255]","1","0","4","","","","","","","",""
"pit-trial","139","1149068","0.0-2.0-17.7-3.7","battery-v0.2","","""event"",""trial"",""time""
""fullscreenenter"",""1"",""1644""
","
","
","""event"",""trial"",""time""
""fullscreenenter"",""1"",""1644""
","
","","","703.8000000007451","","","20","3515","1328","&#9789;","elianto","#f73b6a7A"," "," ","1","-10","[1554.9000000022352]","1","0","4","","","","","","","",""
"pit-trial","140","1153932","0.0-2.0-17.7-4.7","battery-v0.2","","""event"",""trial"",""time""
""fullscreenenter"",""1"",""1644""
","
","
","""event"",""trial"",""time""
""fullscreenenter"",""1"",""1644""
","
","","","-1","","","20","3515","1328","&#9789;","elianto","#f73b6a7A"," ","-1","0","-10","[]","0","0","4","","","","","","","",""
"pit-trial","141","1157527","0.0-2.0-17.8-0.8","battery-v0.2","","""event"",""trial"",""time""
""fullscreenenter"",""1"",""1644""
","
","
","""event"",""trial"",""time""
""fullscreenenter"",""1"",""1644""
","
","","","736.1999999992549","","","20","3515","1328","&#9789;","elianto","#f73b6a7A"," "," ","1","0","[1587.699999999255]","1","0","4","","","","","","","",""
"pit-trial","142","1160887","0.0-2.0-17.8-1.8","battery-v0.2","","""event"",""trial"",""time""
""fullscreenenter"",""1"",""1644""
","
","
","""event"",""trial"",""time""
""fullscreenenter"",""1"",""1644""
","
","","","502.8999999985099","","","20","3515","1328","&#9789;","elianto","#f73b6a7A"," "," ","1","0","[1354.5999999977648]","1","0","4","","","","","","","",""
"pit-trial","143","1164428","0.0-2.0-17.8-2.8","battery-v0.2","","""event"",""trial"",""time""
""fullscreenenter"",""1"",""1644""
","
","
","""event"",""trial"",""time""
""fullscreenenter"",""1"",""1644""
","
","","","682.5","","","20","3515","1328","&#9789;","elianto","#f73b6a7A"," "," ","1","0","[1532.5999999977648]","1","0","4","","","","","","","",""
"pit-trial","144","1168241","0.0-2.0-17.8-3.8","battery-v0.2","","""event"",""trial"",""time""
""fullscreenenter"",""1"",""1644""
","
","
","""event"",""trial"",""time""
""fullscreenenter"",""1"",""1644""
","
","","","951.5999999977648","","","20","3515","1328","&#9789;","elianto","#f73b6a7A"," "," ","1","-10","[1804]","1","0","4","","","","","","","",""
"pit-trial","145","1171809","0.0-2.0-17.8-4.8","battery-v0.2","","""event"",""trial"",""time""
""fullscreenenter"",""1"",""1644""
","
","
","""event"",""trial"",""time""
""fullscreenenter"",""1"",""1644""
","
","","","711.5","","","20","3515","1328","&#9789;","elianto","#f73b6a7A"," "," ","1","0","[1561.800000000745]","1","0","4","","","","","","","",""
"call-function","146","1171813","0.0-2.0-18.0","battery-v0.2","","""event"",""trial"",""time""
""fullscreenenter"",""1"",""1644""
","
","
","""event"",""trial"",""time""
""fullscreenenter"",""1"",""1644""
","
","","","","","","","","","","","","","","","","","","","","","","","","","","",""
"pit-instructions","147","1475326","0.0-2.0-19.0","battery-v0.2","","""event"",""trial"",""time""
""fullscreenenter"",""1"",""1644""
","
","
","""event"",""trial"",""time""
""fullscreenenter"",""1"",""1644""
","
","","[{""page_index"":0,""viewing_time"":93698.39999999851},{""page_index"":1,""viewing_time"":5132.20000000298},{""page_index"":2,""viewing_time"":24200.599999997765},{""page_index"":3,""viewing_time"":25750.400000002235},{""page_index"":4,""viewing_time"":7999.79999999702},{""page_index"":5,""viewing_time"":19899.5},{""page_index"":6,""viewing_time"":22117.5},{""page_index"":7,""viewing_time"":49134.400000002235},{""page_index"":8,""viewing_time"":55583.800000000745}]","303517.3999999985","","","","","","","","","","","","","","","","","","","","","","","",""
"pit-comprehension","148","1480410","0.0-2.0-20.0-0.0","battery-v0.2","","""event"",""trial"",""time""
""fullscreenenter"",""1"",""1644""
","
","
","""event"",""trial"",""time""
""fullscreenenter"",""1"",""1644""
","
","","","5077.800000000745","[""SPACE""]","0","20","3515","1328","","","","","","","","","","","","","","","","","","",""
"pit-instructions","149","1551542","0.0-2.0-20.0-1.0","battery-v0.2","","""event"",""trial"",""time""
""fullscreenenter"",""1"",""1644""
","
","
","""event"",""trial"",""time""
""fullscreenenter"",""1"",""1644""
","
","","[{""page_index"":0,""viewing_time"":71098.59999999776}]","71099.39999999851","","","","","","","","","","","","","","","","","","","","","","","",""
"pit-comprehension","150","1556376","0.0-2.0-21.0-0.0","battery-v0.2","","""event"",""trial"",""time""
""fullscreenenter"",""1"",""1644""
","
","
","""event"",""trial"",""time""
""fullscreenenter"",""1"",""1644""
","
","","","4828.699999999255","[""10""]","0","20","3515","1328","","","","","","","","","","","","","","","","","","",""
"pit-instructions","151","1968840","0.0-2.0-21.0-1.0","battery-v0.2","","""event"",""trial"",""time""
""fullscreenenter"",""1"",""1644""
","
","
","""event"",""trial"",""time""
""fullscreenenter"",""1"",""1644""
","
","","[{""page_index"":0,""viewing_time"":412435.09999999776}]","412435.8999999985","","","","","","","","","","","","","","","","","","","","","","","",""
"pit-comprehension","152","1976908","0.0-2.0-22.0-0.0","battery-v0.2","","""event"",""trial"",""time""
""fullscreenenter"",""1"",""1644""
""blur"",""153"",""2110345""
""focus"",""153"",""2689993""
","""event"",""trial"",""time""
""blur"",""153"",""2110345""
","""event"",""trial"",""time""
""focus"",""153"",""2689993""
","""event"",""trial"",""time""
""fullscreenenter"",""1"",""1644""
","
","","","8062","[""0""]","0","20","3515","1328","","","","","","","","","","","","","","","","","","",""
"pit-instructions","153","2691090","0.0-2.0-22.0-1.0","battery-v0.2","","""event"",""trial"",""time""
""fullscreenenter"",""1"",""1644""
""blur"",""153"",""2110345""
""focus"",""153"",""2689993""
","""event"",""trial"",""time""
""blur"",""153"",""2110345""
","""event"",""trial"",""time""
""focus"",""153"",""2689993""
","""event"",""trial"",""time""
""fullscreenenter"",""1"",""1644""
","
","","[{""page_index"":0,""viewing_time"":241279.6000000015}]","241280.1000000015","","","","","","","","","","","","","","","","","","","","","","","",""
"pit-comprehension","154","2741165","0.0-2.0-23.0-0.0","battery-v0.2","","""event"",""trial"",""time""
""fullscreenenter"",""1"",""1644""
""blur"",""153"",""2110345""
""focus"",""153"",""2689993""
""blur"",""155"",""3149967""
""focus"",""155"",""3158774""
","""event"",""trial"",""time""
""blur"",""153"",""2110345""
""blur"",""155"",""3149967""
","""event"",""trial"",""time""
""focus"",""153"",""2689993""
""focus"",""155"",""3158774""
","""event"",""trial"",""time""
""fullscreenenter"",""1"",""1644""
","
","","","50060.70000000298","[""True""]","0","20","3515","1328","","","","","","","","","","","","","","","","","","",""
"pit-instructions","155","3213761","0.0-2.0-23.0-1.0","battery-v0.2","","""event"",""trial"",""time""
""fullscreenenter"",""1"",""1644""
""blur"",""153"",""2110345""
""focus"",""153"",""2689993""
""blur"",""155"",""3149967""
""focus"",""155"",""3158774""
""blur"",""156"",""3393881""
""focus"",""156"",""4820962""
","""event"",""trial"",""time""
""blur"",""153"",""2110345""
""blur"",""155"",""3149967""
""blur"",""156"",""3393881""
","""event"",""trial"",""time""
""focus"",""153"",""2689993""
""focus"",""155"",""3158774""
""focus"",""156"",""4820962""
","""event"",""trial"",""time""
""fullscreenenter"",""1"",""1644""
","
","","[{""page_index"":0,""viewing_time"":472549.80000000075}]","472550.40000000224","","","","","","","","","","","","","","","","","","","","","","","",""
"pit-comprehension","156","4827956","0.0-2.0-24.0-0.0","battery-v0.2","","""event"",""trial"",""time""
""fullscreenenter"",""1"",""1644""
""blur"",""153"",""2110345""
""focus"",""153"",""2689993""
""blur"",""155"",""3149967""
""focus"",""155"",""3158774""
""blur"",""156"",""3393881""
""focus"",""156"",""4820962""
","""event"",""trial"",""time""
""blur"",""153"",""2110345""
""blur"",""155"",""3149967""
""blur"",""156"",""3393881""
","""event"",""trial"",""time""
""focus"",""153"",""2689993""
""focus"",""155"",""3158774""
""focus"",""156"",""4820962""
","""event"",""trial"",""time""
""fullscreenenter"",""1"",""1644""
","
","","","206624.30000000075","[""True""]","0","20","3515","1328","","","","","","","","","","","","","","","","","","",""
"pit-instructions","157","4829904","0.0-2.0-24.0-1.0","battery-v0.2","","""event"",""trial"",""time""
""fullscreenenter"",""1"",""1644""
""blur"",""153"",""2110345""
""focus"",""153"",""2689993""
""blur"",""155"",""3149967""
""focus"",""155"",""3158774""
""blur"",""156"",""3393881""
""focus"",""156"",""4820962""
","""event"",""trial"",""time""
""blur"",""153"",""2110345""
""blur"",""155"",""3149967""
""blur"",""156"",""3393881""
","""event"",""trial"",""time""
""focus"",""153"",""2689993""
""focus"",""155"",""3158774""
""focus"",""156"",""4820962""
","""event"",""trial"",""time""
""fullscreenenter"",""1"",""1644""
","
","","[{""page_index"":0,""viewing_time"":1900.300000000745}]","1900.9000000022352","","","","","","","","","","","","","","","","","","","","","","","",""
"pit-comprehension","158","4836474","0.0-2.0-25.0-0.0","battery-v0.2","","""event"",""trial"",""time""
""fullscreenenter"",""1"",""1644""
""blur"",""153"",""2110345""
""focus"",""153"",""2689993""
""blur"",""155"",""3149967""
""focus"",""155"",""3158774""
""blur"",""156"",""3393881""
""focus"",""156"",""4820962""
","""event"",""trial"",""time""
""blur"",""153"",""2110345""
""blur"",""155"",""3149967""
""blur"",""156"",""3393881""
","""event"",""trial"",""time""
""focus"",""153"",""2689993""
""focus"",""155"",""3158774""
""focus"",""156"",""4820962""
","""event"",""trial"",""time""
""fullscreenenter"",""1"",""1644""
","
","","","6562.900000002235","[""True""]","0","20","3515","1328","","","","","","","","","","","","","","","","","","",""
"pit-instructions","159","4838156","0.0-2.0-25.0-1.0","battery-v0.2","","""event"",""trial"",""time""
""fullscreenenter"",""1"",""1644""
""blur"",""153"",""2110345""
""focus"",""153"",""2689993""
""blur"",""155"",""3149967""
""focus"",""155"",""3158774""
""blur"",""156"",""3393881""
""focus"",""156"",""4820962""
","""event"",""trial"",""time""
""blur"",""153"",""2110345""
""blur"",""155"",""3149967""
""blur"",""156"",""3393881""
","""event"",""trial"",""time""
""focus"",""153"",""2689993""
""focus"",""155"",""3158774""
""focus"",""156"",""4820962""
","""event"",""trial"",""time""
""fullscreenenter"",""1"",""1644""
","
","","[{""page_index"":0,""viewing_time"":1645.5}]","1646.199999999255","","","","","","","","","","","","","","","","","","","","","","","",""
"pit-comprehension","160","4844323","0.0-2.0-26.0-0.0","battery-v0.2","","""event"",""trial"",""time""
""fullscreenenter"",""1"",""1644""
""blur"",""153"",""2110345""
""focus"",""153"",""2689993""
""blur"",""155"",""3149967""
""focus"",""155"",""3158774""
""blur"",""156"",""3393881""
""focus"",""156"",""4820962""
","""event"",""trial"",""time""
""blur"",""153"",""2110345""
""blur"",""155"",""3149967""
""blur"",""156"",""3393881""
","""event"",""trial"",""time""
""focus"",""153"",""2689993""
""focus"",""155"",""3158774""
""focus"",""156"",""4820962""
","""event"",""trial"",""time""
""fullscreenenter"",""1"",""1644""
","
","","","6160.5","[""True""]","1","20","3515","1328","","","","","","","","","","","","","","","","","","",""
"pit-instructions","161","4847090","0.0-2.0-26.0-1.0","battery-v0.2","","""event"",""trial"",""time""
""fullscreenenter"",""1"",""1644""
""blur"",""153"",""2110345""
""focus"",""153"",""2689993""
""blur"",""155"",""3149967""
""focus"",""155"",""3158774""
""blur"",""156"",""3393881""
""focus"",""156"",""4820962""
","""event"",""trial"",""time""
""blur"",""153"",""2110345""
""blur"",""155"",""3149967""
""blur"",""156"",""3393881""
","""event"",""trial"",""time""
""focus"",""153"",""2689993""
""focus"",""155"",""3158774""
""focus"",""156"",""4820962""
","""event"",""trial"",""time""
""fullscreenenter"",""1"",""1644""
","
","","[{""page_index"":0,""viewing_time"":2728}]","2728.800000000745","","","","","","","","","","","","","","","","","","","","","","","",""
"pit-instructions","162","4848457","0.0-2.0-26.0-2.0-0.0","battery-v0.2","","""event"",""trial"",""time""
""fullscreenenter"",""1"",""1644""
""blur"",""153"",""2110345""
""focus"",""153"",""2689993""
""blur"",""155"",""3149967""
""focus"",""155"",""3158774""
""blur"",""156"",""3393881""
""focus"",""156"",""4820962""
","""event"",""trial"",""time""
""blur"",""153"",""2110345""
""blur"",""155"",""3149967""
""blur"",""156"",""3393881""
","""event"",""trial"",""time""
""focus"",""153"",""2689993""
""focus"",""155"",""3158774""
""focus"",""156"",""4820962""
","""event"",""trial"",""time""
""fullscreenenter"",""1"",""1644""
","
","","[{""page_index"":0,""viewing_time"":1363.199999999255}]","1364","","","","","","","","","","","","","","","","","","","","","","","",""
"pit-comprehension","163","4853009","0.0-2.0-26.1-0.1","battery-v0.2","","""event"",""trial"",""time""
""fullscreenenter"",""1"",""1644""
""blur"",""153"",""2110345""
""focus"",""153"",""2689993""
""blur"",""155"",""3149967""
""focus"",""155"",""3158774""
""blur"",""156"",""3393881""
""focus"",""156"",""4820962""
","""event"",""trial"",""time""
""blur"",""153"",""2110345""
""blur"",""155"",""3149967""
""blur"",""156"",""3393881""
","""event"",""trial"",""time""
""focus"",""153"",""2689993""
""focus"",""155"",""3158774""
""focus"",""156"",""4820962""
","""event"",""trial"",""time""
""fullscreenenter"",""1"",""1644""
","
","","","4546.900000002235","[""False""]","0","20","3515","1328","","","","","","","","","","","","","","","","","","",""
"pit-instructions","164","4855891","0.0-2.0-26.1-1.1","battery-v0.2","","""event"",""trial"",""time""
""fullscreenenter"",""1"",""1644""
""blur"",""153"",""2110345""
""focus"",""153"",""2689993""
""blur"",""155"",""3149967""
""focus"",""155"",""3158774""
""blur"",""156"",""3393881""
""focus"",""156"",""4820962""
","""event"",""trial"",""time""
""blur"",""153"",""2110345""
""blur"",""155"",""3149967""
""blur"",""156"",""3393881""
","""event"",""trial"",""time""
""focus"",""153"",""2689993""
""focus"",""155"",""3158774""
""focus"",""156"",""4820962""
","""event"",""trial"",""time""
""fullscreenenter"",""1"",""1644""
","
","","[{""page_index"":0,""viewing_time"":2845.5}]","2846.300000000745","","","","","","","","","","","","","","","","","","","","","","","",""
"pit-instructions","165","4871425","0.0-3.0","battery-v0.2","","""event"",""trial"",""time""
""fullscreenenter"",""1"",""1644""
""blur"",""153"",""2110345""
""focus"",""153"",""2689993""
""blur"",""155"",""3149967""
""focus"",""155"",""3158774""
""blur"",""156"",""3393881""
""focus"",""156"",""4820962""
","""event"",""trial"",""time""
""blur"",""153"",""2110345""
""blur"",""155"",""3149967""
""blur"",""156"",""3393881""
","""event"",""trial"",""time""
""focus"",""153"",""2689993""
""focus"",""155"",""3158774""
""focus"",""156"",""4820962""
","""event"",""trial"",""time""
""fullscreenenter"",""1"",""1644""
","
","","[{""page_index"":0,""viewing_time"":3546.099999997765},{""page_index"":1,""viewing_time"":5215.800000000745},{""page_index"":2,""viewing_time"":6767.300000000745}]","15530.099999997765","","","","","","","","","","","","","","","","","","","","","","","",""
"pit-trial","166","4875183","0.0-4.0","battery-v0.2","","""event"",""trial"",""time""
""fullscreenenter"",""1"",""1644""
""blur"",""153"",""2110345""
""focus"",""153"",""2689993""
""blur"",""155"",""3149967""
""focus"",""155"",""3158774""
""blur"",""156"",""3393881""
""focus"",""156"",""4820962""
","""event"",""trial"",""time""
""blur"",""153"",""2110345""
""blur"",""155"",""3149967""
""blur"",""156"",""3393881""
","""event"",""trial"",""time""
""focus"",""153"",""2689993""
""focus"",""155"",""3158774""
""focus"",""156"",""4820962""
","""event"",""trial"",""time""
""fullscreenenter"",""1"",""1644""
","
","","","895.6000000014901","","","20","3515","1328","&#9733;","elianto","#3366ff99","-1"," ","0","0","[1748.0999999977648]","1","1","","","3515","1","2","2","win","no-go","0"
"pit-trial","167","4878677","0.0-5.0","battery-v0.2","","""event"",""trial"",""time""
""fullscreenenter"",""1"",""1644""
""blur"",""153"",""2110345""
""focus"",""153"",""2689993""
""blur"",""155"",""3149967""
""focus"",""155"",""3158774""
""blur"",""156"",""3393881""
""focus"",""156"",""4820962""
","""event"",""trial"",""time""
""blur"",""153"",""2110345""
""blur"",""155"",""3149967""
""blur"",""156"",""3393881""
","""event"",""trial"",""time""
""focus"",""153"",""2689993""
""focus"",""155"",""3158774""
""focus"",""156"",""4820962""
","""event"",""trial"",""time""
""fullscreenenter"",""1"",""1644""
","
","","","636","","","20","3515","1328","&#9730;","elianto","#3366ff99"," "," ","1","+10","[1486.300000000745]","1","1","","","3515","2","1","1","win","go","0"
"pit-trial","168","4883539","0.0-6.0","battery-v0.2","","""event"",""trial"",""time""
""fullscreenenter"",""1"",""1644""
""blur"",""153"",""2110345""
""focus"",""153"",""2689993""
""blur"",""155"",""3149967""
""focus"",""155"",""3158774""
""blur"",""156"",""3393881""
""focus"",""156"",""4820962""
","""event"",""trial"",""time""
""blur"",""153"",""2110345""
""blur"",""155"",""3149967""
""blur"",""156"",""3393881""
","""event"",""trial"",""time""
""focus"",""153"",""2689993""
""focus"",""155"",""3158774""
""focus"",""156"",""4820962""
","""event"",""trial"",""time""
""fullscreenenter"",""1"",""1644""
","
","","","-1","","","20","3515","1328","&#9728;","elianto","#f73b6a7A","-1","-1","1","0","[]","0","1","","","3515","3","0","4","lose","no-go","0"
"pit-trial","169","4887549","0.0-7.0","battery-v0.2","","""event"",""trial"",""time""
""fullscreenenter"",""1"",""1644""
""blur"",""153"",""2110345""
""focus"",""153"",""2689993""
""blur"",""155"",""3149967""
""focus"",""155"",""3158774""
""blur"",""156"",""3393881""
""focus"",""156"",""4820962""
","""event"",""trial"",""time""
""blur"",""153"",""2110345""
""blur"",""155"",""3149967""
""blur"",""156"",""3393881""
","""event"",""trial"",""time""
""focus"",""153"",""2689993""
""focus"",""155"",""3158774""
""focus"",""156"",""4820962""
","""event"",""trial"",""time""
""fullscreenenter"",""1"",""1644""
","
","","","1152.800000000745","","","20","3515","1328","&#9752;","elianto","#f73b6a7A"," "," ","1","-10","[2002.8999999985099]","1","1","","","3515","4","3","3","lose","go","1"
"pit-trial","170","4891414","0.0-8.0","battery-v0.2","","""event"",""trial"",""time""
""fullscreenenter"",""1"",""1644""
""blur"",""153"",""2110345""
""focus"",""153"",""2689993""
""blur"",""155"",""3149967""
""focus"",""155"",""3158774""
""blur"",""156"",""3393881""
""focus"",""156"",""4820962""
","""event"",""trial"",""time""
""blur"",""153"",""2110345""
""blur"",""155"",""3149967""
""blur"",""156"",""3393881""
","""event"",""trial"",""time""
""focus"",""153"",""2689993""
""focus"",""155"",""3158774""
""focus"",""156"",""4820962""
","""event"",""trial"",""time""
""fullscreenenter"",""1"",""1644""
","
","","","1005.5","","","20","3515","1328","&#9733;","elianto","#3366ff99","-1"," ","0","0","[1855.5]","1","1","","","3515","5","2","2","win","no-go","0"
"pit-trial","171","4896162","0.0-9.0","battery-v0.2","","""event"",""trial"",""time""
""fullscreenenter"",""1"",""1644""
""blur"",""153"",""2110345""
""focus"",""153"",""2689993""
""blur"",""155"",""3149967""
""focus"",""155"",""3158774""
""blur"",""156"",""3393881""
""focus"",""156"",""4820962""
","""event"",""trial"",""time""
""blur"",""153"",""2110345""
""blur"",""155"",""3149967""
""blur"",""156"",""3393881""
","""event"",""trial"",""time""
""focus"",""153"",""2689993""
""focus"",""155"",""3158774""
""focus"",""156"",""4820962""
","""event"",""trial"",""time""
""fullscreenenter"",""1"",""1644""
","
","","","1887.8999999985099","","","20","3515","1328","&#9752;","elianto","#f73b6a7A"," "," ","1","0","[2738]","1","1","","","3515","6","3","3","lose","go","0"
"pit-trial","172","4900466","0.0-10.0","battery-v0.2","","""event"",""trial"",""time""
""fullscreenenter"",""1"",""1644""
""blur"",""153"",""2110345""
""focus"",""153"",""2689993""
""blur"",""155"",""3149967""
""focus"",""155"",""3158774""
""blur"",""156"",""3393881""
""focus"",""156"",""4820962""
","""event"",""trial"",""time""
""blur"",""153"",""2110345""
""blur"",""155"",""3149967""
""blur"",""156"",""3393881""
","""event"",""trial"",""time""
""focus"",""153"",""2689993""
""focus"",""155"",""3158774""
""focus"",""156"",""4820962""
","""event"",""trial"",""time""
""fullscreenenter"",""1"",""1644""
","
","","","1445.5","","","20","3515","1328","&#9728;","elianto","#f73b6a7A","-1"," ","0","-10","[2298.099999997765]","1","1","","","3515","7","0","4","lose","no-go","0"
"pit-trial","173","4904052","0.0-11.0","battery-v0.2","","""event"",""trial"",""time""
""fullscreenenter"",""1"",""1644""
""blur"",""153"",""2110345""
""focus"",""153"",""2689993""
""blur"",""155"",""3149967""
""focus"",""155"",""3158774""
""blur"",""156"",""3393881""
""focus"",""156"",""4820962""
","""event"",""trial"",""time""
""blur"",""153"",""2110345""
""blur"",""155"",""3149967""
""blur"",""156"",""3393881""
","""event"",""trial"",""time""
""focus"",""153"",""2689993""
""focus"",""155"",""3158774""
""focus"",""156"",""4820962""
","""event"",""trial"",""time""
""fullscreenenter"",""1"",""1644""
","
","","","726.8000000007451","","","20","3515","1328","&#9730;","elianto","#3366ff99"," "," ","1","+10","[1578.4000000022352]","1","1","","","3515","8","1","1","win","go","0"
"pit-trial","174","4908836","0.0-12.0","battery-v0.2","","""event"",""trial"",""time""
""fullscreenenter"",""1"",""1644""
""blur"",""153"",""2110345""
""focus"",""153"",""2689993""
""blur"",""155"",""3149967""
""focus"",""155"",""3158774""
""blur"",""156"",""3393881""
""focus"",""156"",""4820962""
","""event"",""trial"",""time""
""blur"",""153"",""2110345""
""blur"",""155"",""3149967""
""blur"",""156"",""3393881""
","""event"",""trial"",""time""
""focus"",""153"",""2689993""
""focus"",""155"",""3158774""
""focus"",""156"",""4820962""
","""event"",""trial"",""time""
""fullscreenenter"",""1"",""1644""
","
","","","1926.1000000014901","","","20","3515","1328","&#9752;","elianto","#f73b6a7A"," "," ","1","0","[2776.10000000149]","1","1","","","3515","9","3","3","lose","go","0"
"pit-trial","175","4912367","0.0-13.0","battery-v0.2","","""event"",""trial"",""time""
""fullscreenenter"",""1"",""1644""
""blur"",""153"",""2110345""
""focus"",""153"",""2689993""
""blur"",""155"",""3149967""
""focus"",""155"",""3158774""
""blur"",""156"",""3393881""
""focus"",""156"",""4820962""
","""event"",""trial"",""time""
""blur"",""153"",""2110345""
""blur"",""155"",""3149967""
""blur"",""156"",""3393881""
","""event"",""trial"",""time""
""focus"",""153"",""2689993""
""focus"",""155"",""3158774""
""focus"",""156"",""4820962""
","""event"",""trial"",""time""
""fullscreenenter"",""1"",""1644""
","
","","","673.6000000014901","","","20","3515","1328","&#9730;","elianto","#3366ff99"," "," ","1","+10","[1524.5,2064.60000000149,2154]","3","1","","","3515","10","1","1","win","go","0"
"pit-trial","176","4916127","0.0-14.0","battery-v0.2","","""event"",""trial"",""time""
""fullscreenenter"",""1"",""1644""
""blur"",""153"",""2110345""
""focus"",""153"",""2689993""
""blur"",""155"",""3149967""
""focus"",""155"",""3158774""
""blur"",""156"",""3393881""
""focus"",""156"",""4820962""
","""event"",""trial"",""time""
""blur"",""153"",""2110345""
""blur"",""155"",""3149967""
""blur"",""156"",""3393881""
","""event"",""trial"",""time""
""focus"",""153"",""2689993""
""focus"",""155"",""3158774""
""focus"",""156"",""4820962""
","""event"",""trial"",""time""
""fullscreenenter"",""1"",""1644""
","
","","","900.5","","","20","3515","1328","&#9733;","elianto","#3366ff99","-1"," ","0","0","[1750.699999999255,2366.89999999851,2471.39999999851]","3","1","","","3515","11","2","2","win","no-go","0"
"pit-trial","177","4920986","0.0-15.0","battery-v0.2","","""event"",""trial"",""time""
""fullscreenenter"",""1"",""1644""
""blur"",""153"",""2110345""
""focus"",""153"",""2689993""
""blur"",""155"",""3149967""
""focus"",""155"",""3158774""
""blur"",""156"",""3393881""
""focus"",""156"",""4820962""
","""event"",""trial"",""time""
""blur"",""153"",""2110345""
""blur"",""155"",""3149967""
""blur"",""156"",""3393881""
","""event"",""trial"",""time""
""focus"",""153"",""2689993""
""focus"",""155"",""3158774""
""focus"",""156"",""4820962""
","""event"",""trial"",""time""
""fullscreenenter"",""1"",""1644""
","
","","","-1","","","20","3515","1328","&#9728;","elianto","#f73b6a7A","-1","-1","1","-10","[]","0","1","","","3515","12","0","4","lose","no-go","1"
"pit-trial","178","4924521","0.0-16.0","battery-v0.2","","""event"",""trial"",""time""
""fullscreenenter"",""1"",""1644""
""blur"",""153"",""2110345""
""focus"",""153"",""2689993""
""blur"",""155"",""3149967""
""focus"",""155"",""3158774""
""blur"",""156"",""3393881""
""focus"",""156"",""4820962""
","""event"",""trial"",""time""
""blur"",""153"",""2110345""
""blur"",""155"",""3149967""
""blur"",""156"",""3393881""
","""event"",""trial"",""time""
""focus"",""153"",""2689993""
""focus"",""155"",""3158774""
""focus"",""156"",""4820962""
","""event"",""trial"",""time""
""fullscreenenter"",""1"",""1644""
","
","","","674.9000000022352","","","20","3515","1328","&#9733;","elianto","#3366ff99","-1"," ","0","0","[1525.300000000745]","1","1","","","3515","13","2","2","win","no-go","0"
"pit-trial","179","4929380","0.0-17.0","battery-v0.2","","""event"",""trial"",""time""
""fullscreenenter"",""1"",""1644""
""blur"",""153"",""2110345""
""focus"",""153"",""2689993""
""blur"",""155"",""3149967""
""focus"",""155"",""3158774""
""blur"",""156"",""3393881""
""focus"",""156"",""4820962""
","""event"",""trial"",""time""
""blur"",""153"",""2110345""
""blur"",""155"",""3149967""
""blur"",""156"",""3393881""
","""event"",""trial"",""time""
""focus"",""153"",""2689993""
""focus"",""155"",""3158774""
""focus"",""156"",""4820962""
","""event"",""trial"",""time""
""fullscreenenter"",""1"",""1644""
","
","","","-1","","","20","3515","1328","&#9752;","elianto","#f73b6a7A"," ","-1","0","-10","[]","0","1","","","3515","14","3","3","lose","go","0"
"pit-trial","180","4934239","0.0-18.0","battery-v0.2","","""event"",""trial"",""time""
""fullscreenenter"",""1"",""1644""
""blur"",""153"",""2110345""
""focus"",""153"",""2689993""
""blur"",""155"",""3149967""
""focus"",""155"",""3158774""
""blur"",""156"",""3393881""
""focus"",""156"",""4820962""
","""event"",""trial"",""time""
""blur"",""153"",""2110345""
""blur"",""155"",""3149967""
""blur"",""156"",""3393881""
","""event"",""trial"",""time""
""focus"",""153"",""2689993""
""focus"",""155"",""3158774""
""focus"",""156"",""4820962""
","""event"",""trial"",""time""
""fullscreenenter"",""1"",""1644""
","
","","","-1","","","20","3515","1328","&#9728;","elianto","#f73b6a7A","-1","-1","1","0","[]","0","1","","","3515","15","0","4","lose","no-go","0"
"pit-trial","181","4937812","0.0-19.0","battery-v0.2","","""event"",""trial"",""time""
""fullscreenenter"",""1"",""1644""
""blur"",""153"",""2110345""
""focus"",""153"",""2689993""
""blur"",""155"",""3149967""
""focus"",""155"",""3158774""
""blur"",""156"",""3393881""
""focus"",""156"",""4820962""
","""event"",""trial"",""time""
""blur"",""153"",""2110345""
""blur"",""155"",""3149967""
""blur"",""156"",""3393881""
","""event"",""trial"",""time""
""focus"",""153"",""2689993""
""focus"",""155"",""3158774""
""focus"",""156"",""4820962""
","""event"",""trial"",""time""
""fullscreenenter"",""1"",""1644""
","
","","","715.1000000014901","","","20","3515","1328","&#9730;","elianto","#3366ff99"," "," ","1","0","[1565.2999999970198]","1","1","","","3515","16","1","1","win","go","1"
"pit-trial","182","4940847","0.0-20.0","battery-v0.2","","""event"",""trial"",""time""
""fullscreenenter"",""1"",""1644""
""blur"",""153"",""2110345""
""focus"",""153"",""2689993""
""blur"",""155"",""3149967""
""focus"",""155"",""3158774""
""blur"",""156"",""3393881""
""focus"",""156"",""4820962""
","""event"",""trial"",""time""
""blur"",""153"",""2110345""
""blur"",""155"",""3149967""
""blur"",""156"",""3393881""
","""event"",""trial"",""time""
""focus"",""153"",""2689993""
""focus"",""155"",""3158774""
""focus"",""156"",""4820962""
","""event"",""trial"",""time""
""fullscreenenter"",""1"",""1644""
","
","","","176.19999999925494","","","20","3515","1328","&#9728;","elianto","#f73b6a7A","-1"," ","0","0","[1026.6000000014901]","1","1","","","3515","17","0","4","lose","no-go","1"
"pit-trial","183","4945290","0.0-21.0","battery-v0.2","","""event"",""trial"",""time""
""fullscreenenter"",""1"",""1644""
""blur"",""153"",""2110345""
""focus"",""153"",""2689993""
""blur"",""155"",""3149967""
""focus"",""155"",""3158774""
""blur"",""156"",""3393881""
""focus"",""156"",""4820962""
","""event"",""trial"",""time""
""blur"",""153"",""2110345""
""blur"",""155"",""3149967""
""blur"",""156"",""3393881""
","""event"",""trial"",""time""
""focus"",""153"",""2689993""
""focus"",""155"",""3158774""
""focus"",""156"",""4820962""
","""event"",""trial"",""time""
""fullscreenenter"",""1"",""1644""
","
","","","1583.1000000014901","","","20","3515","1328","&#9752;","elianto","#f73b6a7A"," "," ","1","0","[2434.5]","1","1","","","3515","18","3","3","lose","go","0"
"pit-trial","184","4948996","0.0-22.0","battery-v0.2","","""event"",""trial"",""time""
""fullscreenenter"",""1"",""1644""
""blur"",""153"",""2110345""
""focus"",""153"",""2689993""
""blur"",""155"",""3149967""
""focus"",""155"",""3158774""
""blur"",""156"",""3393881""
""focus"",""156"",""4820962""
","""event"",""trial"",""time""
""blur"",""153"",""2110345""
""blur"",""155"",""3149967""
""blur"",""156"",""3393881""
","""event"",""trial"",""time""
""focus"",""153"",""2689993""
""focus"",""155"",""3158774""
""focus"",""156"",""4820962""
","""event"",""trial"",""time""
""fullscreenenter"",""1"",""1644""
","
","","","844.7999999970198","","","20","3515","1328","&#9730;","elianto","#3366ff99"," "," ","1","0","[1696.5]","1","1","","","3515","19","1","1","win","go","1"
"pit-trial","185","4952458","0.0-23.0","battery-v0.2","","""event"",""trial"",""time""
""fullscreenenter"",""1"",""1644""
""blur"",""153"",""2110345""
""focus"",""153"",""2689993""
""blur"",""155"",""3149967""
""focus"",""155"",""3158774""
""blur"",""156"",""3393881""
""focus"",""156"",""4820962""
","""event"",""trial"",""time""
""blur"",""153"",""2110345""
""blur"",""155"",""3149967""
""blur"",""156"",""3393881""
","""event"",""trial"",""time""
""focus"",""153"",""2689993""
""focus"",""155"",""3158774""
""focus"",""156"",""4820962""
","""event"",""trial"",""time""
""fullscreenenter"",""1"",""1644""
","
","","","600.5","","","20","3515","1328","&#9733;","elianto","#3366ff99","-1"," ","0","0","[1452.800000000745]","1","1","","","3515","20","2","2","win","no-go","0"
"pit-instructions","186","4969392","0.0-24.0","battery-v0.2","","""event"",""trial"",""time""
""fullscreenenter"",""1"",""1644""
""blur"",""153"",""2110345""
""focus"",""153"",""2689993""
""blur"",""155"",""3149967""
""focus"",""155"",""3158774""
""blur"",""156"",""3393881""
""focus"",""156"",""4820962""
","""event"",""trial"",""time""
""blur"",""153"",""2110345""
""blur"",""155"",""3149967""
""blur"",""156"",""3393881""
","""event"",""trial"",""time""
""focus"",""153"",""2689993""
""focus"",""155"",""3158774""
""focus"",""156"",""4820962""
","""event"",""trial"",""time""
""fullscreenenter"",""1"",""1644""
","
","","[{""page_index"":0,""viewing_time"":5546.599999997765},{""page_index"":1,""viewing_time"":11383.199999999255}]","16930.89999999851","","","","","","","","","","","","","","","","","","","","","","","",""
"pit-trial","187","4974253","0.0-25.0","battery-v0.2","","""event"",""trial"",""time""
""fullscreenenter"",""1"",""1644""
""blur"",""153"",""2110345""
""focus"",""153"",""2689993""
""blur"",""155"",""3149967""
""focus"",""155"",""3158774""
""blur"",""156"",""3393881""
""focus"",""156"",""4820962""
","""event"",""trial"",""time""
""blur"",""153"",""2110345""
""blur"",""155"",""3149967""
""blur"",""156"",""3393881""
","""event"",""trial"",""time""
""focus"",""153"",""2689993""
""focus"",""155"",""3158774""
""focus"",""156"",""4820962""
","""event"",""trial"",""time""
""fullscreenenter"",""1"",""1644""
","
","","","-1","","","20","3515","1328","d","elianto","#3366ff99","-1","-1","1","+10","[]","0","2","","","3515","21","1","2","win","no-go","0"
"pit-trial","188","4978692","0.0-26.0","battery-v0.2","","""event"",""trial"",""time""
""fullscreenenter"",""1"",""1644""
""blur"",""153"",""2110345""
""focus"",""153"",""2689993""
""blur"",""155"",""3149967""
""focus"",""155"",""3158774""
""blur"",""156"",""3393881""
""focus"",""156"",""4820962""
","""event"",""trial"",""time""
""blur"",""153"",""2110345""
""blur"",""155"",""3149967""
""blur"",""156"",""3393881""
","""event"",""trial"",""time""
""focus"",""153"",""2689993""
""focus"",""155"",""3158774""
""focus"",""156"",""4820962""
","""event"",""trial"",""time""
""fullscreenenter"",""1"",""1644""
","
","","","1577.5","","","20","3515","1328","e","elianto","#f73b6a7A"," "," ","1","0","[2428.400000002235]","1","2","","","3515","22","2","3","lose","go","0"
"pit-trial","189","4983552","0.0-27.0","battery-v0.2","","""event"",""trial"",""time""
""fullscreenenter"",""1"",""1644""
""blur"",""153"",""2110345""
""focus"",""153"",""2689993""
""blur"",""155"",""3149967""
""focus"",""155"",""3158774""
""blur"",""156"",""3393881""
""focus"",""156"",""4820962""
","""event"",""trial"",""time""
""blur"",""153"",""2110345""
""blur"",""155"",""3149967""
""blur"",""156"",""3393881""
","""event"",""trial"",""time""
""focus"",""153"",""2689993""
""focus"",""155"",""3158774""
""focus"",""156"",""4820962""
","""event"",""trial"",""time""
""fullscreenenter"",""1"",""1644""
","
","","","-1","","","20","3515","1328","w","elianto","#f73b6a7A","-1","-1","1","0","[]","0","2","","","3515","23","3","4","lose","no-go","0"
"pit-trial","190","4987796","0.0-28.0","battery-v0.2","","""event"",""trial"",""time""
""fullscreenenter"",""1"",""1644""
""blur"",""153"",""2110345""
""focus"",""153"",""2689993""
""blur"",""155"",""3149967""
""focus"",""155"",""3158774""
""blur"",""156"",""3393881""
""focus"",""156"",""4820962""
","""event"",""trial"",""time""
""blur"",""153"",""2110345""
""blur"",""155"",""3149967""
""blur"",""156"",""3393881""
","""event"",""trial"",""time""
""focus"",""153"",""2689993""
""focus"",""155"",""3158774""
""focus"",""156"",""4820962""
","""event"",""trial"",""time""
""fullscreenenter"",""1"",""1644""
","
","","","1387.6000000014901","","","20","3515","1328","j","elianto","#f73b6a7A"," "," ","1","0","[2237.5]","1","2","","","3515","24","0","3","lose","go","0"
"pit-trial","191","4992652","0.0-29.0","battery-v0.2","","""event"",""trial"",""time""
""fullscreenenter"",""1"",""1644""
""blur"",""153"",""2110345""
""focus"",""153"",""2689993""
""blur"",""155"",""3149967""
""focus"",""155"",""3158774""
""blur"",""156"",""3393881""
""focus"",""156"",""4820962""
","""event"",""trial"",""time""
""blur"",""153"",""2110345""
""blur"",""155"",""3149967""
""blur"",""156"",""3393881""
","""event"",""trial"",""time""
""focus"",""153"",""2689993""
""focus"",""155"",""3158774""
""focus"",""156"",""4820962""
","""event"",""trial"",""time""
""fullscreenenter"",""1"",""1644""
","
","","","-1","","","20","3515","1328","e","elianto","#f73b6a7A"," ","-1","0","-10","[]","0","2","","","3515","25","2","3","lose","go","0"
"pit-trial","192","4996373","0.0-30.0","battery-v0.2","","""event"",""trial"",""time""
""fullscreenenter"",""1"",""1644""
""blur"",""153"",""2110345""
""focus"",""153"",""2689993""
""blur"",""155"",""3149967""
""focus"",""155"",""3158774""
""blur"",""156"",""3393881""
""focus"",""156"",""4820962""
","""event"",""trial"",""time""
""blur"",""153"",""2110345""
""blur"",""155"",""3149967""
""blur"",""156"",""3393881""
","""event"",""trial"",""time""
""focus"",""153"",""2689993""
""focus"",""155"",""3158774""
""focus"",""156"",""4820962""
","""event"",""trial"",""time""
""fullscreenenter"",""1"",""1644""
","
","","","864.1000000014901","","","20","3515","1328","j","elianto","#f73b6a7A"," "," ","1","-10","[1714.699999999255]","1","2","","","3515","26","0","3","lose","go","1"
"pit-trial","193","5000876","0.0-31.0","battery-v0.2","","""event"",""trial"",""time""
""fullscreenenter"",""1"",""1644""
""blur"",""153"",""2110345""
""focus"",""153"",""2689993""
""blur"",""155"",""3149967""
""focus"",""155"",""3158774""
""blur"",""156"",""3393881""
""focus"",""156"",""4820962""
","""event"",""trial"",""time""
""blur"",""153"",""2110345""
""blur"",""155"",""3149967""
""blur"",""156"",""3393881""
","""event"",""trial"",""time""
""focus"",""153"",""2689993""
""focus"",""155"",""3158774""
""focus"",""156"",""4820962""
","""event"",""trial"",""time""
""fullscreenenter"",""1"",""1644""
","
","","","1644.699999999255","","","20","3515","1328","d","elianto","#3366ff99","-1"," ","0","0","[2496.099999997765]","1","2","","","3515","27","1","2","win","no-go","0"
"pit-trial","194","5005736","0.0-32.0","battery-v0.2","","""event"",""trial"",""time""
""fullscreenenter"",""1"",""1644""
""blur"",""153"",""2110345""
""focus"",""153"",""2689993""
""blur"",""155"",""3149967""
""focus"",""155"",""3158774""
""blur"",""156"",""3393881""
""focus"",""156"",""4820962""
","""event"",""trial"",""time""
""blur"",""153"",""2110345""
""blur"",""155"",""3149967""
""blur"",""156"",""3393881""
","""event"",""trial"",""time""
""focus"",""153"",""2689993""
""focus"",""155"",""3158774""
""focus"",""156"",""4820962""
","""event"",""trial"",""time""
""fullscreenenter"",""1"",""1644""
","
","","","-1","","","20","3515","1328","w","elianto","#f73b6a7A","-1","-1","1","0","[]","0","2","","","3515","28","3","4","lose","no-go","0"
"pit-trial","195","5009864","0.0-33.0","battery-v0.2","","""event"",""trial"",""time""
""fullscreenenter"",""1"",""1644""
""blur"",""153"",""2110345""
""focus"",""153"",""2689993""
""blur"",""155"",""3149967""
""focus"",""155"",""3158774""
""blur"",""156"",""3393881""
""focus"",""156"",""4820962""
","""event"",""trial"",""time""
""blur"",""153"",""2110345""
""blur"",""155"",""3149967""
""blur"",""156"",""3393881""
","""event"",""trial"",""time""
""focus"",""153"",""2689993""
""focus"",""155"",""3158774""
""focus"",""156"",""4820962""
","""event"",""trial"",""time""
""fullscreenenter"",""1"",""1644""
","
","","","1271.199999999255","","","20","3515","1328","w","elianto","#f73b6a7A","-1"," ","0","0","[2121.39999999851]","1","2","","","3515","29","3","4","lose","no-go","1"
"pit-trial","196","5014728","0.0-34.0","battery-v0.2","","""event"",""trial"",""time""
""fullscreenenter"",""1"",""1644""
""blur"",""153"",""2110345""
""focus"",""153"",""2689993""
""blur"",""155"",""3149967""
""focus"",""155"",""3158774""
""blur"",""156"",""3393881""
""focus"",""156"",""4820962""
","""event"",""trial"",""time""
""blur"",""153"",""2110345""
""blur"",""155"",""3149967""
""blur"",""156"",""3393881""
","""event"",""trial"",""time""
""focus"",""153"",""2689993""
""focus"",""155"",""3158774""
""focus"",""156"",""4820962""
","""event"",""trial"",""time""
""fullscreenenter"",""1"",""1644""
","
","","","-1","","","20","3515","1328","d","elianto","#3366ff99","-1","-1","1","+10","[]","0","2","","","3515","30","1","2","win","no-go","0"
"pit-trial","197","5019591","0.0-35.0","battery-v0.2","","""event"",""trial"",""time""
""fullscreenenter"",""1"",""1644""
""blur"",""153"",""2110345""
""focus"",""153"",""2689993""
""blur"",""155"",""3149967""
""focus"",""155"",""3158774""
""blur"",""156"",""3393881""
""focus"",""156"",""4820962""
","""event"",""trial"",""time""
""blur"",""153"",""2110345""
""blur"",""155"",""3149967""
""blur"",""156"",""3393881""
","""event"",""trial"",""time""
""focus"",""153"",""2689993""
""focus"",""155"",""3158774""
""focus"",""156"",""4820962""
","""event"",""trial"",""time""
""fullscreenenter"",""1"",""1644""
","
","","","-1","","","20","3515","1328","j","elianto","#f73b6a7A"," ","-1","0","-10","[3062.699999999255]","1","2","","","3515","31","0","3","lose","go","0"
"pit-trial","198","5023635","0.0-36.0","battery-v0.2","","""event"",""trial"",""time""
""fullscreenenter"",""1"",""1644""
""blur"",""153"",""2110345""
""focus"",""153"",""2689993""
""blur"",""155"",""3149967""
""focus"",""155"",""3158774""
""blur"",""156"",""3393881""
""focus"",""156"",""4820962""
","""event"",""trial"",""time""
""blur"",""153"",""2110345""
""blur"",""155"",""3149967""
""blur"",""156"",""3393881""
","""event"",""trial"",""time""
""focus"",""153"",""2689993""
""focus"",""155"",""3158774""
""focus"",""156"",""4820962""
","""event"",""trial"",""time""
""fullscreenenter"",""1"",""1644""
","
","","","1186.5","","","20","3515","1328","e","elianto","#f73b6a7A"," "," ","1","-10","[2038.2000000029802]","1","2","","","3515","32","2","3","lose","go","1"
"pit-trial","199","5028499","0.0-37.0","battery-v0.2","","""event"",""trial"",""time""
""fullscreenenter"",""1"",""1644""
""blur"",""153"",""2110345""
""focus"",""153"",""2689993""
""blur"",""155"",""3149967""
""focus"",""155"",""3158774""
""blur"",""156"",""3393881""
""focus"",""156"",""4820962""
","""event"",""trial"",""time""
""blur"",""153"",""2110345""
""blur"",""155"",""3149967""
""blur"",""156"",""3393881""
","""event"",""trial"",""time""
""focus"",""153"",""2689993""
""focus"",""155"",""3158774""
""focus"",""156"",""4820962""
","""event"",""trial"",""time""
""fullscreenenter"",""1"",""1644""
","
","","","-1","","","20","3515","1328","w","elianto","#f73b6a7A","-1","-1","1","0","[4803.800000000745]","1","2","","","3515","33","3","4","lose","no-go","0"
"pit-trial","200","5033363","0.0-38.0","battery-v0.2","","""event"",""trial"",""time""
""fullscreenenter"",""1"",""1644""
""blur"",""153"",""2110345""
""focus"",""153"",""2689993""
""blur"",""155"",""3149967""
""focus"",""155"",""3158774""
""blur"",""156"",""3393881""
""focus"",""156"",""4820962""
","""event"",""trial"",""time""
""blur"",""153"",""2110345""
""blur"",""155"",""3149967""
""blur"",""156"",""3393881""
","""event"",""trial"",""time""
""focus"",""153"",""2689993""
""focus"",""155"",""3158774""
""focus"",""156"",""4820962""
","""event"",""trial"",""time""
""fullscreenenter"",""1"",""1644""
","
","","","-1","","","20","3515","1328","e","elianto","#f73b6a7A"," ","-1","0","-10","[4357.699999999255]","1","2","","","3515","34","2","3","lose","go","0"
"pit-trial","201","5036557","0.0-39.0","battery-v0.2","","""event"",""trial"",""time""
""fullscreenenter"",""1"",""1644""
""blur"",""153"",""2110345""
""focus"",""153"",""2689993""
""blur"",""155"",""3149967""
""focus"",""155"",""3158774""
""blur"",""156"",""3393881""
""focus"",""156"",""4820962""
","""event"",""trial"",""time""
""blur"",""153"",""2110345""
""blur"",""155"",""3149967""
""blur"",""156"",""3393881""
","""event"",""trial"",""time""
""focus"",""153"",""2689993""
""focus"",""155"",""3158774""
""focus"",""156"",""4820962""
","""event"",""trial"",""time""
""fullscreenenter"",""1"",""1644""
","
","","","333.29999999701977","","","20","3515","1328","d","elianto","#3366ff99","-1"," ","0","0","[1185.5999999977648]","1","2","","","3515","35","1","2","win","no-go","0"
"pit-trial","202","5041421","0.0-40.0","battery-v0.2","","""event"",""trial"",""time""
""fullscreenenter"",""1"",""1644""
""blur"",""153"",""2110345""
""focus"",""153"",""2689993""
""blur"",""155"",""3149967""
""focus"",""155"",""3158774""
""blur"",""156"",""3393881""
""focus"",""156"",""4820962""
","""event"",""trial"",""time""
""blur"",""153"",""2110345""
""blur"",""155"",""3149967""
""blur"",""156"",""3393881""
","""event"",""trial"",""time""
""focus"",""153"",""2689993""
""focus"",""155"",""3158774""
""focus"",""156"",""4820962""
","""event"",""trial"",""time""
""fullscreenenter"",""1"",""1644""
","
","","","-1","","","20","3515","1328","j","elianto","#f73b6a7A"," ","-1","0","0","[]","0","2","","","3515","36","0","3","lose","go","1"
"pit-trial","203","5046280","0.0-41.0","battery-v0.2","","""event"",""trial"",""time""
""fullscreenenter"",""1"",""1644""
""blur"",""153"",""2110345""
""focus"",""153"",""2689993""
""blur"",""155"",""3149967""
""focus"",""155"",""3158774""
""blur"",""156"",""3393881""
""focus"",""156"",""4820962""
","""event"",""trial"",""time""
""blur"",""153"",""2110345""
""blur"",""155"",""3149967""
""blur"",""156"",""3393881""
","""event"",""trial"",""time""
""focus"",""153"",""2689993""
""focus"",""155"",""3158774""
""focus"",""156"",""4820962""
","""event"",""trial"",""time""
""fullscreenenter"",""1"",""1644""
","
","","","-1","","","20","3515","1328","j","elianto","#f73b6a7A"," ","-1","0","-10","[2974.699999999255]","1","2","","","3515","37","0","3","lose","go","0"
"pit-trial","204","5050792","0.0-42.0","battery-v0.2","","""event"",""trial"",""time""
""fullscreenenter"",""1"",""1644""
""blur"",""153"",""2110345""
""focus"",""153"",""2689993""
""blur"",""155"",""3149967""
""focus"",""155"",""3158774""
""blur"",""156"",""3393881""
""focus"",""156"",""4820962""
","""event"",""trial"",""time""
""blur"",""153"",""2110345""
""blur"",""155"",""3149967""
""blur"",""156"",""3393881""
","""event"",""trial"",""time""
""focus"",""153"",""2689993""
""focus"",""155"",""3158774""
""focus"",""156"",""4820962""
","""event"",""trial"",""time""
""fullscreenenter"",""1"",""1644""
","
","","","1653.5","","","20","3515","1328","w","elianto","#f73b6a7A","-1"," ","0","-10","[2505.199999999255]","1","2","","","3515","38","3","4","lose","no-go","0"
"pit-trial","205","5055651","0.0-43.0","battery-v0.2","","""event"",""trial"",""time""
""fullscreenenter"",""1"",""1644""
""blur"",""153"",""2110345""
""focus"",""153"",""2689993""
""blur"",""155"",""3149967""
""focus"",""155"",""3158774""
""blur"",""156"",""3393881""
""focus"",""156"",""4820962""
","""event"",""trial"",""time""
""blur"",""153"",""2110345""
""blur"",""155"",""3149967""
""blur"",""156"",""3393881""
","""event"",""trial"",""time""
""focus"",""153"",""2689993""
""focus"",""155"",""3158774""
""focus"",""156"",""4820962""
","""event"",""trial"",""time""
""fullscreenenter"",""1"",""1644""
","
","","","-1","","","20","3515","1328","e","elianto","#f73b6a7A"," ","-1","0","-10","[]","0","2","","","3515","39","2","3","lose","go","0"
"pit-trial","206","5060515","0.0-44.0","battery-v0.2","","""event"",""trial"",""time""
""fullscreenenter"",""1"",""1644""
""blur"",""153"",""2110345""
