"trial_type","trial_index","time_elapsed","internal_node_id","task_version","subject_id","interactions","blur_events","focus_events","fullscreenenter_events","fullscreenexit_events","success","view_history","rt","responses","num_errors","age","subject","participantId","rune","rune_set","hex","correct","choice","accuracy","outcome","keys","total_keys","block","practice","value","sub","trial","stimulus","robot","valence","action","sham"
"pavlovia","0","10","0.0-0.0","battery-v0.2","","""event"",""trial"",""time""
""fullscreenenter"",""1"",""4869""
","
","
","""event"",""trial"",""time""
""fullscreenenter"",""1"",""4869""
","
","","","","","","","","","","","","","","","","","","","","","","","","","","",""
"fullscreen","1","5855","0.0-1.0","battery-v0.2","","""event"",""trial"",""time""
""fullscreenenter"",""1"",""4869""
","
","
","""event"",""trial"",""time""
""fullscreenenter"",""1"",""4869""
","
","true","","","","","","","","","","","","","","","","","","","","","","","","","",""
"pit-instructions","2","18134","0.0-2.0-0.0","battery-v0.2","","""event"",""trial"",""time""
""fullscreenenter"",""1"",""4869""
","
","
","""event"",""trial"",""time""
""fullscreenenter"",""1"",""4869""
","
","","[{""page_index"":0,""viewing_time"":12274.900000095367}]","12275.200000047684","","","","","","","","","","","","","","","","","","","","","","","",""
"pit-comprehension","3","23699","0.0-2.0-1.0-0.0","battery-v0.2","","""event"",""trial"",""time""
""fullscreenenter"",""1"",""4869""
","
","
","""event"",""trial"",""time""
""fullscreenenter"",""1"",""4869""
","
","","","5560.400000095367","[""shark""]","0","22","15329","1487","","","","","","","","","","","","","","","","","","",""
"pit-instructions","4","26569","0.0-2.0-1.0-1.0","battery-v0.2","","""event"",""trial"",""time""
""fullscreenenter"",""1"",""4869""
","
","
","""event"",""trial"",""time""
""fullscreenenter"",""1"",""4869""
","
","","[{""page_index"":0,""viewing_time"":2845}]","2845.399999976158","","","","","","","","","","","","","","","","","","","","","","","",""
"pit-comprehension","5","30361","0.0-2.0-2.0-0.0","battery-v0.2","","""event"",""trial"",""time""
""fullscreenenter"",""1"",""4869""
","
","
","""event"",""trial"",""time""
""fullscreenenter"",""1"",""4869""
","
","","","3786.8000000715256","[""tiger""]","0","22","15329","1487","","","","","","","","","","","","","","","","","","",""
"pit-instructions","6","32882","0.0-2.0-2.0-1.0","battery-v0.2","","""event"",""trial"",""time""
""fullscreenenter"",""1"",""4869""
","
","
","""event"",""trial"",""time""
""fullscreenenter"",""1"",""4869""
","
","","[{""page_index"":0,""viewing_time"":2516}]","2516.4000000953674","","","","","","","","","","","","","","","","","","","","","","","",""
"pit-instructions","7","139686","0.0-2.0-3.0","battery-v0.2","","""event"",""trial"",""time""
""fullscreenenter"",""1"",""4869""
","
","
","""event"",""trial"",""time""
""fullscreenenter"",""1"",""4869""
","
","","[{""page_index"":0,""viewing_time"":8775.399999976158},{""page_index"":1,""viewing_time"":6830.100000023842},{""page_index"":2,""viewing_time"":8464},{""page_index"":3,""viewing_time"":9062.899999976158},{""page_index"":4,""viewing_time"":7035.100000023842},{""page_index"":5,""viewing_time"":5626.799999952316},{""page_index"":6,""viewing_time"":6988.200000047684},{""page_index"":7,""viewing_time"":8718},{""page_index"":8,""viewing_time"":6073.600000023842},{""page_index"":9,""viewing_time"":8834.799999952316},{""page_index"":10,""viewing_time"":7906.399999976158},{""page_index"":11,""viewing_time"":9795.600000023842},{""page_index"":12,""viewing_time"":6820.799999952316},{""page_index"":13,""viewing_time"":5867}]","106799.29999995232","","","","","","","","","","","","","","","","","","","","","","","",""
"pit-trial","8","143173","0.0-2.0-4.0-0.0","battery-v0.2","","""event"",""trial"",""time""
""fullscreenenter"",""1"",""4869""
","
","
","""event"",""trial"",""time""
""fullscreenenter"",""1"",""4869""
","
","","","623.9000000953674","","","22","15329","1487","&#9784;","elianto","#FFFFF080"," "," ","1","&#10004","[1478]","1","0","0","","","","","","","",""
"pit-trial","9","146811","0.0-2.0-4.1-0.1","battery-v0.2","","""event"",""trial"",""time""
""fullscreenenter"",""1"",""4869""
","
","
","""event"",""trial"",""time""
""fullscreenenter"",""1"",""4869""
","
","","","768.6999999284744","","","22","15329","1487","&#9784;","elianto","#FFFFF080"," "," ","1","&#10004","[1619.2999999523163]","1","0","0","","","","","","","",""
"pit-trial","10","150270","0.0-2.0-4.2-0.2","battery-v0.2","","""event"",""trial"",""time""
""fullscreenenter"",""1"",""4869""
","
","
","""event"",""trial"",""time""
""fullscreenenter"",""1"",""4869""
","
","","","590.6000000238419","","","22","15329","1487","&#9784;","elianto","#FFFFF080"," "," ","1","&#10004","[1442.5]","1","0","0","","","","","","","",""
"pit-trial","11","153700","0.0-2.0-4.3-0.3","battery-v0.2","","""event"",""trial"",""time""
""fullscreenenter"",""1"",""4869""
","
","
","""event"",""trial"",""time""
""fullscreenenter"",""1"",""4869""
","
","","","570.6999999284744","","","22","15329","1487","&#9784;","elianto","#FFFFF080"," "," ","1","&#10004","[1422.3999999761581]","1","0","0","","","","","","","",""
"pit-trial","12","157186","0.0-2.0-4.4-0.4","battery-v0.2","","""event"",""trial"",""time""
""fullscreenenter"",""1"",""4869""
","
","
","""event"",""trial"",""time""
""fullscreenenter"",""1"",""4869""
","
","","","622.3000000715256","","","22","15329","1487","&#9784;","elianto","#FFFFF080"," "," ","1","&#10004","[1472.8000000715256]","1","0","0","","","","","","","",""
"pit-instructions","13","179499","0.0-2.0-5.0","battery-v0.2","","""event"",""trial"",""time""
""fullscreenenter"",""1"",""4869""
","
","
","""event"",""trial"",""time""
""fullscreenenter"",""1"",""4869""
","
","","[{""page_index"":0,""viewing_time"":4827.5},{""page_index"":1,""viewing_time"":5097.200000047684},{""page_index"":2,""viewing_time"":5008.099999904633},{""page_index"":3,""viewing_time"":7375.800000071526}]","22309.200000047684","","","","","","","","","","","","","","","","","","","","","","","",""
"pit-trial","14","184369","0.0-2.0-6.0-0.0","battery-v0.2","","""event"",""trial"",""time""
""fullscreenenter"",""1"",""4869""
","
","
","""event"",""trial"",""time""
""fullscreenenter"",""1"",""4869""
","
","","","-1","","","22","15329","1487","&#9854;","elianto","#FFFFF080","-1","-1","1","&#10004","[]","0","0","1","","","","","","","",""
"pit-trial","15","189235","0.0-2.0-6.1-0.1","battery-v0.2","","""event"",""trial"",""time""
""fullscreenenter"",""1"",""4869""
","
","
","""event"",""trial"",""time""
""fullscreenenter"",""1"",""4869""
","
","","","-1","","","22","15329","1487","&#9854;","elianto","#FFFFF080","-1","-1","1","&#10004","[]","0","0","1","","","","","","","",""
"pit-trial","16","194101","0.0-2.0-6.2-0.2","battery-v0.2","","""event"",""trial"",""time""
""fullscreenenter"",""1"",""4869""
","
","
","""event"",""trial"",""time""
""fullscreenenter"",""1"",""4869""
","
","","","-1","","","22","15329","1487","&#9854;","elianto","#FFFFF080","-1","-1","1","&#10004","[]","0","0","1","","","","","","","",""
"pit-trial","17","198961","0.0-2.0-6.3-0.3","battery-v0.2","","""event"",""trial"",""time""
""fullscreenenter"",""1"",""4869""
","
","
","""event"",""trial"",""time""
""fullscreenenter"",""1"",""4869""
","
","","","-1","","","22","15329","1487","&#9854;","elianto","#FFFFF080","-1","-1","1","&#10004","[]","0","0","1","","","","","","","",""
"pit-trial","18","203831","0.0-2.0-6.4-0.4","battery-v0.2","","""event"",""trial"",""time""
""fullscreenenter"",""1"",""4869""
","
","
","""event"",""trial"",""time""
""fullscreenenter"",""1"",""4869""
","
","","","-1","","","22","15329","1487","&#9854;","elianto","#FFFFF080","-1","-1","1","&#10004","[]","0","0","1","","","","","","","",""
"pit-instructions","19","445733","0.0-2.0-7.0","battery-v0.2","","""event"",""trial"",""time""
""fullscreenenter"",""1"",""4869""
","
","
","""event"",""trial"",""time""
""fullscreenenter"",""1"",""4869""
","
","","[{""page_index"":0,""viewing_time"":6159.200000047684},{""page_index"":1,""viewing_time"":7465.5},{""page_index"":2,""viewing_time"":6242.699999928474},{""page_index"":3,""viewing_time"":7893.700000047684},{""page_index"":2,""viewing_time"":5700.899999976158},{""page_index"":3,""viewing_time"":5898},{""page_index"":4,""viewing_time"":5089.200000047684},{""page_index"":5,""viewing_time"":6401.100000023842},{""page_index"":6,""viewing_time"":4737.599999904633},{""page_index"":7,""viewing_time"":7816},{""page_index"":8,""viewing_time"":8083.200000047684},{""page_index"":9,""viewing_time"":112492.70000004768},{""page_index"":10,""viewing_time"":8338.199999928474},{""page_index"":11,""viewing_time"":6575.800000071526},{""page_index"":12,""viewing_time"":7200.5},{""page_index"":13,""viewing_time"":6707.799999952316},{""page_index"":14,""viewing_time"":7246.600000023842},{""page_index"":15,""viewing_time"":6541.399999976158},{""page_index"":16,""viewing_time"":7640},{""page_index"":17,""viewing_time"":7667.100000023842}]","241897.70000004768","","","","","","","","","","","","","","","","","","","","","","","",""
"pit-trial","20","449924","0.0-2.0-8.0-0.0","battery-v0.2","","""event"",""trial"",""time""
""fullscreenenter"",""1"",""4869""
","
","
","""event"",""trial"",""time""
""fullscreenenter"",""1"",""4869""
","
","","","1327.1999999284744","","","22","15329","1487","&#9776;","elianto","#3366ff99"," "," ","1","+10","[2183]","1","0","1","","","","","","","",""
"pit-trial","21","453383","0.0-2.0-8.0-1.0","battery-v0.2","","""event"",""trial"",""time""
""fullscreenenter"",""1"",""4869""
","
","
","""event"",""trial"",""time""
""fullscreenenter"",""1"",""4869""
","
","","","600","","","22","15329","1487","&#9776;","elianto","#3366ff99"," "," ","1","+10","[1451.6000000238419]","1","0","1","","","","","","","",""
"pit-trial","22","456639","0.0-2.0-8.0-2.0","battery-v0.2","","""event"",""trial"",""time""
""fullscreenenter"",""1"",""4869""
","
","
","""event"",""trial"",""time""
""fullscreenenter"",""1"",""4869""
","
","","","391","","","22","15329","1487","&#9776;","elianto","#3366ff99"," "," ","1","+10","[1243]","1","0","1","","","","","","","",""
"pit-trial","23","459914","0.0-2.0-8.0-3.0","battery-v0.2","","""event"",""trial"",""time""
""fullscreenenter"",""1"",""4869""
","
","
","""event"",""trial"",""time""
""fullscreenenter"",""1"",""4869""
","
","","","414.6999999284744","","","22","15329","1487","&#9776;","elianto","#3366ff99"," "," ","1","0","[1266.2999999523163]","1","0","1","","","","","","","",""
"pit-trial","24","463025","0.0-2.0-8.0-4.0","battery-v0.2","","""event"",""trial"",""time""
""fullscreenenter"",""1"",""4869""
","
","
","""event"",""trial"",""time""
""fullscreenenter"",""1"",""4869""
","
","","","251.70000004768372","","","22","15329","1487","&#9776;","elianto","#3366ff99"," "," ","1","+10","[1102.2000000476837]","1","0","1","","","","","","","",""
"pit-trial","25","466284","0.0-2.0-8.1-0.1","battery-v0.2","","""event"",""trial"",""time""
""fullscreenenter"",""1"",""4869""
","
","
","""event"",""trial"",""time""
""fullscreenenter"",""1"",""4869""
","
","","","398.39999997615814","","","22","15329","1487","&#9776;","elianto","#3366ff99"," "," ","1","+10","[1248.8999999761581]","1","0","1","","","","","","","",""
"pit-trial","26","469755","0.0-2.0-8.1-1.1","battery-v0.2","","""event"",""trial"",""time""
""fullscreenenter"",""1"",""4869""
","
","
","""event"",""trial"",""time""
""fullscreenenter"",""1"",""4869""
","
","","","610.3000000715256","","","22","15329","1487","&#9776;","elianto","#3366ff99"," "," ","1","+10","[1462.1000000238419]","1","0","1","","","","","","","",""
"pit-trial","27","473669","0.0-2.0-8.1-2.1","battery-v0.2","","""event"",""trial"",""time""
""fullscreenenter"",""1"",""4869""
","
","
","""event"",""trial"",""time""
""fullscreenenter"",""1"",""4869""
","
","","","1047.9000000953674","","","22","15329","1487","&#9776;","elianto","#3366ff99"," "," ","1","+10","[1900.6000000238419]","1","0","1","","","","","","","",""
"pit-trial","28","476968","0.0-2.0-8.1-3.1","battery-v0.2","","""event"",""trial"",""time""
""fullscreenenter"",""1"",""4869""
","
","
","""event"",""trial"",""time""
""fullscreenenter"",""1"",""4869""
","
","","","443","","","22","15329","1487","&#9776;","elianto","#3366ff99"," "," ","1","0","[1295.7000000476837]","1","0","1","","","","","","","",""
"pit-trial","29","480237","0.0-2.0-8.1-4.1","battery-v0.2","","""event"",""trial"",""time""
""fullscreenenter"",""1"",""4869""
","
","
","""event"",""trial"",""time""
""fullscreenenter"",""1"",""4869""
","
","","","416.10000002384186","","","22","15329","1487","&#9776;","elianto","#3366ff99"," "," ","1","+10","[1267.8000000715256]","1","0","1","","","","","","","",""
"pit-trial","30","483889","0.0-2.0-8.2-0.2","battery-v0.2","","""event"",""trial"",""time""
""fullscreenenter"",""1"",""4869""
","
","
","""event"",""trial"",""time""
""fullscreenenter"",""1"",""4869""
","
","","","796.7000000476837","","","22","15329","1487","&#9776;","elianto","#3366ff99"," "," ","1","+10","[1648.5]","1","0","1","","","","","","","",""
"pit-trial","31","487238","0.0-2.0-8.2-1.2","battery-v0.2","","""event"",""trial"",""time""
""fullscreenenter"",""1"",""4869""
","
","
","""event"",""trial"",""time""
""fullscreenenter"",""1"",""4869""
","
","","","496.10000002384186","","","22","15329","1487","&#9776;","elianto","#3366ff99"," "," ","1","+10","[1346.3999999761581,2806.2999999523163]","2","0","1","","","","","","","",""
"pit-trial","32","490798","0.0-2.0-8.2-2.2","battery-v0.2","","""event"",""trial"",""time""
""fullscreenenter"",""1"",""4869""
","
","
","""event"",""trial"",""time""
""fullscreenenter"",""1"",""4869""
","
","","","704","","","22","15329","1487","&#9776;","elianto","#3366ff99"," "," ","1","+10","[1556.8000000715256]","1","0","1","","","","","","","",""
"pit-trial","33","493797","0.0-2.0-8.2-3.2","battery-v0.2","","""event"",""trial"",""time""
""fullscreenenter"",""1"",""4869""
","
","
","""event"",""trial"",""time""
""fullscreenenter"",""1"",""4869""
","
","","","147","","","22","15329","1487","&#9776;","elianto","#3366ff99"," "," ","1","0","[997,1467.9000000953674]","2","0","1","","","","","","","",""
"pit-trial","34","497198","0.0-2.0-8.2-4.2","battery-v0.2","","""event"",""trial"",""time""
""fullscreenenter"",""1"",""4869""
","
","
","""event"",""trial"",""time""
""fullscreenenter"",""1"",""4869""
","
","","","545.5","","","22","15329","1487","&#9776;","elianto","#3366ff99"," "," ","1","+10","[1397.7999999523163]","1","0","1","","","","","","","",""
"call-function","35","497201","0.0-2.0-9.0","battery-v0.2","","""event"",""trial"",""time""
""fullscreenenter"",""1"",""4869""
","
","
","""event"",""trial"",""time""
""fullscreenenter"",""1"",""4869""
","
","","","","","","","","","","","","","","","","","","","","","","","","","","",""
"pit-instructions","36","547073","0.0-2.0-10.0","battery-v0.2","","""event"",""trial"",""time""
""fullscreenenter"",""1"",""4869""
","
","
","""event"",""trial"",""time""
""fullscreenenter"",""1"",""4869""
","
","","[{""page_index"":0,""viewing_time"":5730.599999904633},{""page_index"":1,""viewing_time"":6657.200000047684},{""page_index"":2,""viewing_time"":9725.100000023842},{""page_index"":3,""viewing_time"":18805.100000023842},{""page_index"":4,""viewing_time"":8953.199999928474}]","49871.699999928474","","","","","","","","","","","","","","","","","","","","","","","",""
"pit-trial","37","551005","0.0-2.0-11.0-0.0","battery-v0.2","","""event"",""trial"",""time""
""fullscreenenter"",""1"",""4869""
","
","
","""event"",""trial"",""time""
""fullscreenenter"",""1"",""4869""
","
","","","1066.2000000476837","","","22","15329","1487","&#9761;","elianto","#3366ff99","-1"," ","0","0","[1922.3000000715256]","1","0","2","","","","","","","",""
"pit-trial","38","555886","0.0-2.0-11.0-1.0","battery-v0.2","","""event"",""trial"",""time""
""fullscreenenter"",""1"",""4869""
","
","
","""event"",""trial"",""time""
""fullscreenenter"",""1"",""4869""
","
","","","-1","","","22","15329","1487","&#9761;","elianto","#3366ff99","-1","-1","1","+10","[]","0","0","2","","","","","","","",""
"pit-trial","39","560753","0.0-2.0-11.0-2.0","battery-v0.2","","""event"",""trial"",""time""
""fullscreenenter"",""1"",""4869""
","
","
","""event"",""trial"",""time""
""fullscreenenter"",""1"",""4869""
","
","","","-1","","","22","15329","1487","&#9761;","elianto","#3366ff99","-1","-1","1","+10","[]","0","0","2","","","","","","","",""
"pit-trial","40","565623","0.0-2.0-11.0-3.0","battery-v0.2","","""event"",""trial"",""time""
""fullscreenenter"",""1"",""4869""
","
","
","""event"",""trial"",""time""
""fullscreenenter"",""1"",""4869""
","
","","","-1","","","22","15329","1487","&#9761;","elianto","#3366ff99","-1","-1","1","0","[]","0","0","2","","","","","","","",""
"pit-trial","41","570498","0.0-2.0-11.0-4.0","battery-v0.2","","""event"",""trial"",""time""
""fullscreenenter"",""1"",""4869""
","
","
","""event"",""trial"",""time""
""fullscreenenter"",""1"",""4869""
","
","","","-1","","","22","15329","1487","&#9761;","elianto","#3366ff99","-1","-1","1","+10","[]","0","0","2","","","","","","","",""
"pit-trial","42","575363","0.0-2.0-11.1-0.1","battery-v0.2","","""event"",""trial"",""time""
""fullscreenenter"",""1"",""4869""
","
","
","""event"",""trial"",""time""
""fullscreenenter"",""1"",""4869""
","
","","","-1","","","22","15329","1487","&#9761;","elianto","#3366ff99","-1","-1","1","+10","[]","0","0","2","","","","","","","",""
"pit-trial","43","580216","0.0-2.0-11.1-1.1","battery-v0.2","","""event"",""trial"",""time""
""fullscreenenter"",""1"",""4869""
","
","
","""event"",""trial"",""time""
""fullscreenenter"",""1"",""4869""
","
","","","-1","","","22","15329","1487","&#9761;","elianto","#3366ff99","-1","-1","1","+10","[]","0","0","2","","","","","","","",""
"pit-trial","44","585071","0.0-2.0-11.1-2.1","battery-v0.2","","""event"",""trial"",""time""
""fullscreenenter"",""1"",""4869""
","
","
","""event"",""trial"",""time""
""fullscreenenter"",""1"",""4869""
","
","","","-1","","","22","15329","1487","&#9761;","elianto","#3366ff99","-1","-1","1","+10","[]","0","0","2","","","","","","","",""
"pit-trial","45","589923","0.0-2.0-11.1-3.1","battery-v0.2","","""event"",""trial"",""time""
""fullscreenenter"",""1"",""4869""
","
","
","""event"",""trial"",""time""
""fullscreenenter"",""1"",""4869""
","
","","","-1","","","22","15329","1487","&#9761;","elianto","#3366ff99","-1","-1","1","0","[]","0","0","2","","","","","","","",""
"pit-trial","46","594777","0.0-2.0-11.1-4.1","battery-v0.2","","""event"",""trial"",""time""
""fullscreenenter"",""1"",""4869""
","
","
","""event"",""trial"",""time""
""fullscreenenter"",""1"",""4869""
","
","","","-1","","","22","15329","1487","&#9761;","elianto","#3366ff99","-1","-1","1","+10","[]","0","0","2","","","","","","","",""
"pit-trial","47","599631","0.0-2.0-11.2-0.2","battery-v0.2","","""event"",""trial"",""time""
""fullscreenenter"",""1"",""4869""
","
","
","""event"",""trial"",""time""
""fullscreenenter"",""1"",""4869""
","
","","","-1","","","22","15329","1487","&#9761;","elianto","#3366ff99","-1","-1","1","+10","[]","0","0","2","","","","","","","",""
"pit-trial","48","604483","0.0-2.0-11.2-1.2","battery-v0.2","","""event"",""trial"",""time""
""fullscreenenter"",""1"",""4869""
","
","
","""event"",""trial"",""time""
""fullscreenenter"",""1"",""4869""
","
","","","-1","","","22","15329","1487","&#9761;","elianto","#3366ff99","-1","-1","1","+10","[]","0","0","2","","","","","","","",""
"pit-trial","49","609337","0.0-2.0-11.2-2.2","battery-v0.2","","""event"",""trial"",""time""
""fullscreenenter"",""1"",""4869""
","
","
","""event"",""trial"",""time""
""fullscreenenter"",""1"",""4869""
","
","","","-1","","","22","15329","1487","&#9761;","elianto","#3366ff99","-1","-1","1","+10","[]","0","0","2","","","","","","","",""
"pit-trial","50","614191","0.0-2.0-11.2-3.2","battery-v0.2","","""event"",""trial"",""time""
""fullscreenenter"",""1"",""4869""
","
","
","""event"",""trial"",""time""
""fullscreenenter"",""1"",""4869""
","
","","","-1","","","22","15329","1487","&#9761;","elianto","#3366ff99","-1","-1","1","0","[]","0","0","2","","","","","","","",""
"pit-trial","51","619044","0.0-2.0-11.2-4.2","battery-v0.2","","""event"",""trial"",""time""
""fullscreenenter"",""1"",""4869""
","
","
","""event"",""trial"",""time""
""fullscreenenter"",""1"",""4869""
","
","","","-1","","","22","15329","1487","&#9761;","elianto","#3366ff99","-1","-1","1","+10","[]","0","0","2","","","","","","","",""
"pit-trial","52","623898","0.0-2.0-11.3-0.3","battery-v0.2","","""event"",""trial"",""time""
""fullscreenenter"",""1"",""4869""
","
","
","""event"",""trial"",""time""
""fullscreenenter"",""1"",""4869""
","
","","","-1","","","22","15329","1487","&#9761;","elianto","#3366ff99","-1","-1","1","+10","[]","0","0","2","","","","","","","",""
"pit-trial","53","628751","0.0-2.0-11.3-1.3","battery-v0.2","","""event"",""trial"",""time""
""fullscreenenter"",""1"",""4869""
","
","
","""event"",""trial"",""time""
""fullscreenenter"",""1"",""4869""
","
","","","-1","","","22","15329","1487","&#9761;","elianto","#3366ff99","-1","-1","1","+10","[]","0","0","2","","","","","","","",""
"pit-trial","54","632033","0.0-2.0-11.3-2.3","battery-v0.2","","""event"",""trial"",""time""
""fullscreenenter"",""1"",""4869""
","
","
","""event"",""trial"",""time""
""fullscreenenter"",""1"",""4869""
","
","","","428.39999997615814","","","22","15329","1487","&#9761;","elianto","#3366ff99","-1"," ","0","0","[1278.7999999523163]","1","0","2","","","","","","","",""
"pit-trial","55","636885","0.0-2.0-11.3-3.3","battery-v0.2","","""event"",""trial"",""time""
""fullscreenenter"",""1"",""4869""
","
","
","""event"",""trial"",""time""
""fullscreenenter"",""1"",""4869""
","
","","","-1","","","22","15329","1487","&#9761;","elianto","#3366ff99","-1","-1","1","0","[]","0","0","2","","","","","","","",""
"pit-trial","56","641740","0.0-2.0-11.3-4.3","battery-v0.2","","""event"",""trial"",""time""
""fullscreenenter"",""1"",""4869""
","
","
","""event"",""trial"",""time""
""fullscreenenter"",""1"",""4869""
","
","","","-1","","","22","15329","1487","&#9761;","elianto","#3366ff99","-1","-1","1","+10","[]","0","0","2","","","","","","","",""
"call-function","57","641742","0.0-2.0-12.0","battery-v0.2","","""event"",""trial"",""time""
""fullscreenenter"",""1"",""4869""
","
","
","""event"",""trial"",""time""
""fullscreenenter"",""1"",""4869""
","
","","","","","","","","","","","","","","","","","","","","","","","","","","",""
"pit-instructions","58","673515","0.0-2.0-13.0","battery-v0.2","","""event"",""trial"",""time""
""fullscreenenter"",""1"",""4869""
","
","
","""event"",""trial"",""time""
""fullscreenenter"",""1"",""4869""
","
","","[{""page_index"":0,""viewing_time"":4781.599999904633},{""page_index"":1,""viewing_time"":6095.600000023842},{""page_index"":2,""viewing_time"":5040.899999976158},{""page_index"":3,""viewing_time"":11362.800000071526},{""page_index"":4,""viewing_time"":4491.399999976158}]","31772.699999928474","","","","","","","","","","","","","","","","","","","","","","","",""
"pit-trial","59","676891","0.0-2.0-14.0-0.0","battery-v0.2","","""event"",""trial"",""time""
""fullscreenenter"",""1"",""4869""
","
","
","""event"",""trial"",""time""
""fullscreenenter"",""1"",""4869""
","
","","","504.90000009536743","","","22","15329","1487","&#9826;","elianto","#f73b6a7A","-1"," ","0","-10","[1358.7000000476837]","1","0","3","","","","","","","",""
"pit-trial","60","681753","0.0-2.0-14.0-1.0","battery-v0.2","","""event"",""trial"",""time""
""fullscreenenter"",""1"",""4869""
","
","
","""event"",""trial"",""time""
""fullscreenenter"",""1"",""4869""
","
","","","-1","","","22","15329","1487","&#9826;","elianto","#f73b6a7A","-1","-1","1","0","[]","0","0","3","","","","","","","",""
"pit-trial","61","686630","0.0-2.0-14.0-2.0","battery-v0.2","","""event"",""trial"",""time""
""fullscreenenter"",""1"",""4869""
","
","
","""event"",""trial"",""time""
""fullscreenenter"",""1"",""4869""
","
","","","-1","","","22","15329","1487","&#9826;","elianto","#f73b6a7A","-1","-1","1","0","[]","0","0","3","","","","","","","",""
"pit-trial","62","691499","0.0-2.0-14.0-3.0","battery-v0.2","","""event"",""trial"",""time""
""fullscreenenter"",""1"",""4869""
","
","
","""event"",""trial"",""time""
""fullscreenenter"",""1"",""4869""
","
","","","-1","","","22","15329","1487","&#9826;","elianto","#f73b6a7A","-1","-1","1","-10","[]","0","0","3","","","","","","","",""
"pit-trial","63","696367","0.0-2.0-14.0-4.0","battery-v0.2","","""event"",""trial"",""time""
""fullscreenenter"",""1"",""4869""
","
","
","""event"",""trial"",""time""
""fullscreenenter"",""1"",""4869""
","
","","","-1","","","22","15329","1487","&#9826;","elianto","#f73b6a7A","-1","-1","1","0","[]","0","0","3","","","","","","","",""
"pit-trial","64","701244","0.0-2.0-14.1-0.1","battery-v0.2","","""event"",""trial"",""time""
""fullscreenenter"",""1"",""4869""
","
","
","""event"",""trial"",""time""
""fullscreenenter"",""1"",""4869""
","
","","","-1","","","22","15329","1487","&#9826;","elianto","#f73b6a7A","-1","-1","1","0","[]","0","0","3","","","","","","","",""
"pit-trial","65","706097","0.0-2.0-14.1-1.1","battery-v0.2","","""event"",""trial"",""time""
""fullscreenenter"",""1"",""4869""
","
","
","""event"",""trial"",""time""
""fullscreenenter"",""1"",""4869""
","
","","","-1","","","22","15329","1487","&#9826;","elianto","#f73b6a7A","-1","-1","1","0","[]","0","0","3","","","","","","","",""
"pit-trial","66","710951","0.0-2.0-14.1-2.1","battery-v0.2","","""event"",""trial"",""time""
""fullscreenenter"",""1"",""4869""
","
","
","""event"",""trial"",""time""
""fullscreenenter"",""1"",""4869""
","
","","","-1","","","22","15329","1487","&#9826;","elianto","#f73b6a7A","-1","-1","1","0","[]","0","0","3","","","","","","","",""
"pit-trial","67","715805","0.0-2.0-14.1-3.1","battery-v0.2","","""event"",""trial"",""time""
""fullscreenenter"",""1"",""4869""
","
","
","""event"",""trial"",""time""
""fullscreenenter"",""1"",""4869""
","
","","","-1","","","22","15329","1487","&#9826;","elianto","#f73b6a7A","-1","-1","1","-10","[]","0","0","3","","","","","","","",""
"pit-trial","68","720658","0.0-2.0-14.1-4.1","battery-v0.2","","""event"",""trial"",""time""
""fullscreenenter"",""1"",""4869""
","
","
","""event"",""trial"",""time""
""fullscreenenter"",""1"",""4869""
","
","","","-1","","","22","15329","1487","&#9826;","elianto","#f73b6a7A","-1","-1","1","0","[]","0","0","3","","","","","","","",""
"pit-trial","69","725513","0.0-2.0-14.2-0.2","battery-v0.2","","""event"",""trial"",""time""
""fullscreenenter"",""1"",""4869""
","
","
","""event"",""trial"",""time""
""fullscreenenter"",""1"",""4869""
","
","","","-1","","","22","15329","1487","&#9826;","elianto","#f73b6a7A","-1","-1","1","0","[]","0","0","3","","","","","","","",""
"pit-trial","70","730366","0.0-2.0-14.2-1.2","battery-v0.2","","""event"",""trial"",""time""
""fullscreenenter"",""1"",""4869""
","
","
","""event"",""trial"",""time""
""fullscreenenter"",""1"",""4869""
","
","","","-1","","","22","15329","1487","&#9826;","elianto","#f73b6a7A","-1","-1","1","0","[]","0","0","3","","","","","","","",""
"pit-trial","71","735220","0.0-2.0-14.2-2.2","battery-v0.2","","""event"",""trial"",""time""
""fullscreenenter"",""1"",""4869""
","
","
","""event"",""trial"",""time""
""fullscreenenter"",""1"",""4869""
","
","","","-1","","","22","15329","1487","&#9826;","elianto","#f73b6a7A","-1","-1","1","0","[]","0","0","3","","","","","","","",""
"pit-trial","72","740073","0.0-2.0-14.2-3.2","battery-v0.2","","""event"",""trial"",""time""
""fullscreenenter"",""1"",""4869""
","
","
","""event"",""trial"",""time""
""fullscreenenter"",""1"",""4869""
","
","","","-1","","","22","15329","1487","&#9826;","elianto","#f73b6a7A","-1","-1","1","-10","[]","0","0","3","","","","","","","",""
"pit-trial","73","744926","0.0-2.0-14.2-4.2","battery-v0.2","","""event"",""trial"",""time""
""fullscreenenter"",""1"",""4869""
","
","
","""event"",""trial"",""time""
""fullscreenenter"",""1"",""4869""
","
","","","-1","","","22","15329","1487","&#9826;","elianto","#f73b6a7A","-1","-1","1","0","[]","0","0","3","","","","","","","",""
"pit-trial","74","749780","0.0-2.0-14.3-0.3","battery-v0.2","","""event"",""trial"",""time""
""fullscreenenter"",""1"",""4869""
","
","
","""event"",""trial"",""time""
""fullscreenenter"",""1"",""4869""
","
","","","-1","","","22","15329","1487","&#9826;","elianto","#f73b6a7A","-1","-1","1","0","[]","0","0","3","","","","","","","",""
"pit-trial","75","754634","0.0-2.0-14.3-1.3","battery-v0.2","","""event"",""trial"",""time""
""fullscreenenter"",""1"",""4869""
","
","
","""event"",""trial"",""time""
""fullscreenenter"",""1"",""4869""
","
","","","-1","","","22","15329","1487","&#9826;","elianto","#f73b6a7A","-1","-1","1","0","[]","0","0","3","","","","","","","",""
"pit-trial","76","759487","0.0-2.0-14.3-2.3","battery-v0.2","","""event"",""trial"",""time""
""fullscreenenter"",""1"",""4869""
","
","
","""event"",""trial"",""time""
""fullscreenenter"",""1"",""4869""
","
","","","-1","","","22","15329","1487","&#9826;","elianto","#f73b6a7A","-1","-1","1","0","[]","0","0","3","","","","","","","",""
"pit-trial","77","762787","0.0-2.0-14.3-3.3","battery-v0.2","","""event"",""trial"",""time""
""fullscreenenter"",""1"",""4869""
","
","
","""event"",""trial"",""time""
""fullscreenenter"",""1"",""4869""
","
","","","446.40000009536743","","","22","15329","1487","&#9826;","elianto","#f73b6a7A","-1"," ","0","0","[1296.5]","1","0","3","","","","","","","",""
"pit-trial","78","767640","0.0-2.0-14.3-4.3","battery-v0.2","","""event"",""trial"",""time""
""fullscreenenter"",""1"",""4869""
","
","
","""event"",""trial"",""time""
""fullscreenenter"",""1"",""4869""
","
","","","-1","","","22","15329","1487","&#9826;","elianto","#f73b6a7A","-1","-1","1","0","[]","0","0","3","","","","","","","",""
"call-function","79","767643","0.0-2.0-15.0","battery-v0.2","","""event"",""trial"",""time""
""fullscreenenter"",""1"",""4869""
","
","
","""event"",""trial"",""time""
""fullscreenenter"",""1"",""4869""
","
","","","","","","","","","","","","","","","","","","","","","","","","","","",""
"pit-instructions","80","793996","0.0-2.0-16.0","battery-v0.2","","""event"",""trial"",""time""
""fullscreenenter"",""1"",""4869""
","
","
","""event"",""trial"",""time""
""fullscreenenter"",""1"",""4869""
","
","","[{""page_index"":0,""viewing_time"":7269.199999928474},{""page_index"":1,""viewing_time"":10196.300000071526},{""page_index"":2,""viewing_time"":4244},{""page_index"":3,""viewing_time"":4643.199999928474}]","26353.100000023842","","","","","","","","","","","","","","","","","","","","","","","",""
"pit-trial","81","797499","0.0-2.0-17.0-0.0","battery-v0.2","","""event"",""trial"",""time""
""fullscreenenter"",""1"",""4869""
","
","
","""event"",""trial"",""time""
""fullscreenenter"",""1"",""4869""
","
","","","637","","","22","15329","1487","&#9789;","elianto","#f73b6a7A"," "," ","1","0","[1489.6000000238419]","1","0","4","","","","","","","",""
"pit-trial","82","800800","0.0-2.0-17.0-1.0","battery-v0.2","","""event"",""trial"",""time""
""fullscreenenter"",""1"",""4869""
","
","
","""event"",""trial"",""time""
""fullscreenenter"",""1"",""4869""
","
","","","444.6999999284744","","","22","15329","1487","&#9789;","elianto","#f73b6a7A"," "," ","1","0","[1297.1000000238419]","1","0","4","","","","","","","",""
"pit-trial","83","803999","0.0-2.0-17.0-2.0","battery-v0.2","","""event"",""trial"",""time""
""fullscreenenter"",""1"",""4869""
","
","
","""event"",""trial"",""time""
""fullscreenenter"",""1"",""4869""
","
","","","342.10000002384186","","","22","15329","1487","&#9789;","elianto","#f73b6a7A"," "," ","1","0","[1195.5]","1","0","4","","","","","","","",""
"pit-trial","84","806960","0.0-2.0-17.0-3.0","battery-v0.2","","""event"",""trial"",""time""
""fullscreenenter"",""1"",""4869""
","
","
","""event"",""trial"",""time""
""fullscreenenter"",""1"",""4869""
","
","","","104.39999997615814","","","22","15329","1487","&#9789;","elianto","#f73b6a7A"," "," ","1","-10","[956.2999999523163]","1","0","4","","","","","","","",""
"pit-trial","85","810340","0.0-2.0-17.0-4.0","battery-v0.2","","""event"",""trial"",""time""
""fullscreenenter"",""1"",""4869""
","
","
","""event"",""trial"",""time""
""fullscreenenter"",""1"",""4869""
","
","","","526","","","22","15329","1487","&#9789;","elianto","#f73b6a7A"," "," ","1","0","[1376.1000000238419]","1","0","4","","","","","","","",""
"pit-trial","86","813414","0.0-2.0-17.1-0.1","battery-v0.2","","""event"",""trial"",""time""
""fullscreenenter"",""1"",""4869""
","
","
","""event"",""trial"",""time""
""fullscreenenter"",""1"",""4869""
","
","","","213.79999995231628","","","22","15329","1487","&#9789;","elianto","#f73b6a7A"," "," ","1","0","[1064.1999999284744]","1","0","4","","","","","","","",""
"pit-trial","87","816539","0.0-2.0-17.1-1.1","battery-v0.2","","""event"",""trial"",""time""
""fullscreenenter"",""1"",""4869""
","
","
","""event"",""trial"",""time""
""fullscreenenter"",""1"",""4869""
","
","","","259.2999999523163","","","22","15329","1487","&#9789;","elianto","#f73b6a7A"," "," ","1","0","[1111.5999999046326]","1","0","4","","","","","","","",""
"pit-trial","88","821409","0.0-2.0-17.1-2.1","battery-v0.2","","""event"",""trial"",""time""
""fullscreenenter"",""1"",""4869""
","
","
","""event"",""trial"",""time""
""fullscreenenter"",""1"",""4869""
","
","","","-1","","","22","15329","1487","&#9789;","elianto","#f73b6a7A"," ","-1","0","-10","[3336.7000000476837]","1","0","4","","","","","","","",""
"pit-trial","89","824688","0.0-2.0-17.1-3.1","battery-v0.2","","""event"",""trial"",""time""
""fullscreenenter"",""1"",""4869""
","
","
","""event"",""trial"",""time""
""fullscreenenter"",""1"",""4869""
","
","","","425.39999997615814","","","22","15329","1487","&#9789;","elianto","#f73b6a7A"," "," ","1","-10","[1277]","1","0","4","","","","","","","",""
"pit-trial","90","827967","0.0-2.0-17.1-4.1","battery-v0.2","","""event"",""trial"",""time""
""fullscreenenter"",""1"",""4869""
","
","
","""event"",""trial"",""time""
""fullscreenenter"",""1"",""4869""
","
","","","425.6999999284744","","","22","15329","1487","&#9789;","elianto","#f73b6a7A"," "," ","1","0","[1275.8000000715256]","1","0","4","","","","","","","",""
"pit-trial","91","831097","0.0-2.0-17.2-0.2","battery-v0.2","","""event"",""trial"",""time""
""fullscreenenter"",""1"",""4869""
","
","
","""event"",""trial"",""time""
""fullscreenenter"",""1"",""4869""
","
","","","274","","","22","15329","1487","&#9789;","elianto","#f73b6a7A"," "," ","1","0","[1126.2000000476837]","1","0","4","","","","","","","",""
"pit-trial","92","834287","0.0-2.0-17.2-1.2","battery-v0.2","","""event"",""trial"",""time""
""fullscreenenter"",""1"",""4869""
","
","
","""event"",""trial"",""time""
""fullscreenenter"",""1"",""4869""
","
","","","337.90000009536743","","","22","15329","1487","&#9789;","elianto","#f73b6a7A"," "," ","1","0","[1188.1000000238419]","1","0","4","","","","","","","",""
"pit-trial","93","837437","0.0-2.0-17.2-2.2","battery-v0.2","","""event"",""trial"",""time""
""fullscreenenter"",""1"",""4869""
","
","
","""event"",""trial"",""time""
""fullscreenenter"",""1"",""4869""
","
","","","297.1999999284744","","","22","15329","1487","&#9789;","elianto","#f73b6a7A"," "," ","1","0","[1147.4000000953674]","1","0","4","","","","","","","",""
"pit-trial","94","840617","0.0-2.0-17.2-3.2","battery-v0.2","","""event"",""trial"",""time""
""fullscreenenter"",""1"",""4869""
","
","
","""event"",""trial"",""time""
""fullscreenenter"",""1"",""4869""
","
","","","326.89999997615814","","","22","15329","1487","&#9789;","elianto","#f73b6a7A"," "," ","1","-10","[1177.1000000238419]","1","0","4","","","","","","","",""
"pit-trial","95","843746","0.0-2.0-17.2-4.2","battery-v0.2","","""event"",""trial"",""time""
""fullscreenenter"",""1"",""4869""
","
","
","""event"",""trial"",""time""
""fullscreenenter"",""1"",""4869""
","
","","","276.7000000476837","","","22","15329","1487","&#9789;","elianto","#f73b6a7A"," "," ","1","0","[1127.1000000238419]","1","0","4","","","","","","","",""
"pit-trial","96","846928","0.0-2.0-17.3-0.3","battery-v0.2","","""event"",""trial"",""time""
""fullscreenenter"",""1"",""4869""
","
","
","""event"",""trial"",""time""
""fullscreenenter"",""1"",""4869""
","
","","","325.2000000476837","","","22","15329","1487","&#9789;","elianto","#f73b6a7A"," "," ","1","0","[1177.3999999761581]","1","0","4","","","","","","","",""
"pit-trial","97","850277","0.0-2.0-17.3-1.3","battery-v0.2","","""event"",""trial"",""time""
""fullscreenenter"",""1"",""4869""
","
","
","""event"",""trial"",""time""
""fullscreenenter"",""1"",""4869""
","
","","","496.60000002384186","","","22","15329","1487","&#9789;","elianto","#f73b6a7A"," "," ","1","0","[1346.7999999523163]","1","0","4","","","","","","","",""
"pit-trial","98","853367","0.0-2.0-17.3-2.3","battery-v0.2","","""event"",""trial"",""time""
""fullscreenenter"",""1"",""4869""
","
","
","""event"",""trial"",""time""
""fullscreenenter"",""1"",""4869""
","
","","","237.19999992847443","","","22","15329","1487","&#9789;","elianto","#f73b6a7A"," "," ","1","0","[1087.5]","1","0","4","","","","","","","",""
"pit-trial","99","856557","0.0-2.0-17.3-3.3","battery-v0.2","","""event"",""trial"",""time""
""fullscreenenter"",""1"",""4869""
","
","
","""event"",""trial"",""time""
""fullscreenenter"",""1"",""4869""
","
","","","336.7999999523163","","","22","15329","1487","&#9789;","elianto","#f73b6a7A"," "," ","1","-10","[1186.7999999523163]","1","0","4","","","","","","","",""
"pit-trial","100","859767","0.0-2.0-17.3-4.3","battery-v0.2","","""event"",""trial"",""time""
""fullscreenenter"",""1"",""4869""
","
","
","""event"",""trial"",""time""
""fullscreenenter"",""1"",""4869""
","
","","","356.60000002384186","","","22","15329","1487","&#9789;","elianto","#f73b6a7A"," "," ","1","0","[806.5,1207.5]","2","0","4","","","","","","","",""
"call-function","101","859769","0.0-2.0-18.0","battery-v0.2","","""event"",""trial"",""time""
""fullscreenenter"",""1"",""4869""
","
","
","""event"",""trial"",""time""
""fullscreenenter"",""1"",""4869""
","
","","","","","","","","","","","","","","","","","","","","","","","","","","",""
"pit-instructions","102","932460","0.0-2.0-19.0","battery-v0.2","","""event"",""trial"",""time""
""fullscreenenter"",""1"",""4869""
","
","
","""event"",""trial"",""time""
""fullscreenenter"",""1"",""4869""
","
","","[{""page_index"":0,""viewing_time"":7552.100000023842},{""page_index"":1,""viewing_time"":8667.299999952316},{""page_index"":2,""viewing_time"":15383},{""page_index"":3,""viewing_time"":6979.300000071526},{""page_index"":4,""viewing_time"":8509.899999976158},{""page_index"":5,""viewing_time"":9022.600000023842},{""page_index"":6,""viewing_time"":7850.099999904633},{""page_index"":7,""viewing_time"":5377},{""page_index"":8,""viewing_time"":3347.8000000715256}]","72689.20000004768","","","","","","","","","","","","","","","","","","","","","","","",""
"pit-comprehension","103","936907","0.0-2.0-20.0-0.0","battery-v0.2","","""event"",""trial"",""time""
""fullscreenenter"",""1"",""4869""
","
","
","""event"",""trial"",""time""
""fullscreenenter"",""1"",""4869""
","
","","","4445.700000047684","[""SPACE""]","0","22","15329","1487","","","","","","","","","","","","","","","","","","",""
"pit-instructions","104","939557","0.0-2.0-20.0-1.0","battery-v0.2","","""event"",""trial"",""time""
""fullscreenenter"",""1"",""4869""
","
","
","""event"",""trial"",""time""
""fullscreenenter"",""1"",""4869""
","
","","[{""page_index"":0,""viewing_time"":2585.2999999523163}]","2585.5","","","","","","","","","","","","","","","","","","","","","","","",""
"pit-comprehension","105","945754","0.0-2.0-21.0-0.0","battery-v0.2","","""event"",""trial"",""time""
""fullscreenenter"",""1"",""4869""
","
","
","""event"",""trial"",""time""
""fullscreenenter"",""1"",""4869""
","
","","","6195.200000047684","[""10""]","0","22","15329","1487","","","","","","","","","","","","","","","","","","",""
"pit-instructions","106","949163","0.0-2.0-21.0-1.0","battery-v0.2","","""event"",""trial"",""time""
""fullscreenenter"",""1"",""4869""
","
","
","""event"",""trial"",""time""
""fullscreenenter"",""1"",""4869""
","
","","[{""page_index"":0,""viewing_time"":3383.2999999523163}]","3383.399999976158","","","","","","","","","","","","","","","","","","","","","","","",""
"pit-comprehension","107","956800","0.0-2.0-22.0-0.0","battery-v0.2","","""event"",""trial"",""time""
""fullscreenenter"",""1"",""4869""
","
","
","""event"",""trial"",""time""
""fullscreenenter"",""1"",""4869""
","
","","","7634.299999952316","[""10""]","1","22","15329","1487","","","","","","","","","","","","","","","","","","",""
"pit-instructions","108","961824","0.0-2.0-22.0-1.0","battery-v0.2","","""event"",""trial"",""time""
""fullscreenenter"",""1"",""4869""
","
","
","""event"",""trial"",""time""
""fullscreenenter"",""1"",""4869""
","
","","[{""page_index"":0,""viewing_time"":4985.699999928474}]","4986.100000023842","","","","","","","","","","","","","","","","","","","","","","","",""
"pit-instructions","109","963286","0.0-2.0-22.0-2.0-0.0","battery-v0.2","","""event"",""trial"",""time""
""fullscreenenter"",""1"",""4869""
","
","
","""event"",""trial"",""time""
""fullscreenenter"",""1"",""4869""
","
","","[{""page_index"":0,""viewing_time"":1459.7000000476837}]","1459.7999999523163","","","","","","","","","","","","","","","","","","","","","","","",""
"pit-comprehension","110","969735","0.0-2.0-22.1-0.1","battery-v0.2","","""event"",""trial"",""time""
""fullscreenenter"",""1"",""4869""
","
","
","""event"",""trial"",""time""
""fullscreenenter"",""1"",""4869""
","
","","","6447.399999976158","[""0""]","0","22","15329","1487","","","","","","","","","","","","","","","","","","",""
"pit-instructions","111","971477","0.0-2.0-22.1-1.1","battery-v0.2","","""event"",""trial"",""time""
""fullscreenenter"",""1"",""4869""
","
","
","""event"",""trial"",""time""
""fullscreenenter"",""1"",""4869""
","
","","[{""page_index"":0,""viewing_time"":1712.7000000476837}]","1713","","","","","","","","","","","","","","","","","","","","","","","",""
"pit-comprehension","112","979880","0.0-2.0-23.0-0.0","battery-v0.2","","""event"",""trial"",""time""
""fullscreenenter"",""1"",""4869""
","
","
","""event"",""trial"",""time""
""fullscreenenter"",""1"",""4869""
","
","","","8399.199999928474","[""True""]","0","22","15329","1487","","","","","","","","","","","","","","","","","","",""
"pit-instructions","113","981422","0.0-2.0-23.0-1.0","battery-v0.2","","""event"",""trial"",""time""
""fullscreenenter"",""1"",""4869""
","
","
","""event"",""trial"",""time""
""fullscreenenter"",""1"",""4869""
","
","","[{""page_index"":0,""viewing_time"":1494.3999999761581}]","1494.5999999046326","","","","","","","","","","","","","","","","","","","","","","","",""
"pit-comprehension","114","992665","0.0-2.0-24.0-0.0","battery-v0.2","","""event"",""trial"",""time""
""fullscreenenter"",""1"",""4869""
","
","
","""event"",""trial"",""time""
""fullscreenenter"",""1"",""4869""
","
","","","11239.5","[""True""]","0","22","15329","1487","","","","","","","","","","","","","","","","","","",""
"pit-instructions","115","994195","0.0-2.0-24.0-1.0","battery-v0.2","","""event"",""trial"",""time""
""fullscreenenter"",""1"",""4869""
","
","
","""event"",""trial"",""time""
""fullscreenenter"",""1"",""4869""
","
","","[{""page_index"":0,""viewing_time"":1487.6000000238419}]","1487.8999999761581","","","","","","","","","","","","","","","","","","","","","","","",""
"pit-comprehension","116","1000589","0.0-2.0-25.0-0.0","battery-v0.2","","""event"",""trial"",""time""
""fullscreenenter"",""1"",""4869""
","
","
","""event"",""trial"",""time""
""fullscreenenter"",""1"",""4869""
","
","","","6389.699999928474","[""True""]","0","22","15329","1487","","","","","","","","","","","","","","","","","","",""
"pit-instructions","117","1002039","0.0-2.0-25.0-1.0","battery-v0.2","","""event"",""trial"",""time""
""fullscreenenter"",""1"",""4869""
","
","
","""event"",""trial"",""time""
""fullscreenenter"",""1"",""4869""
","
","","[{""page_index"":0,""viewing_time"":1411.6000000238419}]","1411.7000000476837","","","","","","","","","","","","","","","","","","","","","","","",""
"pit-comprehension","118","1006599","0.0-2.0-26.0-0.0","battery-v0.2","","""event"",""trial"",""time""
""fullscreenenter"",""1"",""4869""
","
","
","""event"",""trial"",""time""
""fullscreenenter"",""1"",""4869""
","
","","","4558.100000023842","[""False""]","0","22","15329","1487","","","","","","","","","","","","","","","","","","",""
"pit-instructions","119","1008349","0.0-2.0-26.0-1.0","battery-v0.2","","""event"",""trial"",""time""
""fullscreenenter"",""1"",""4869""
","
","
","""event"",""trial"",""time""
""fullscreenenter"",""1"",""4869""
","
","","[{""page_index"":0,""viewing_time"":1715.2000000476837}]","1715.2999999523163","","","","","","","","","","","","","","","","","","","","","","","",""
"pit-instructions","120","1025653","0.0-3.0","battery-v0.2","","""event"",""trial"",""time""
""fullscreenenter"",""1"",""4869""
","
","
","""event"",""trial"",""time""
""fullscreenenter"",""1"",""4869""
","
","","[{""page_index"":0,""viewing_time"":3287.100000023842},{""page_index"":1,""viewing_time"":6496.399999976158},{""page_index"":2,""viewing_time"":7519.700000047684}]","17303.5","","","","","","","","","","","","","","","","","","","","","","","",""
"pit-trial","121","1029303","0.0-4.0","battery-v0.2","","""event"",""trial"",""time""
""fullscreenenter"",""1"",""4869""
","
","
","""event"",""trial"",""time""
""fullscreenenter"",""1"",""4869""
","
","","","787.5","","","22","15329","1487","&#9728;","elianto","#f73b6a7A","-1"," ","0","-10","[1638.3999999761581]","1","1","","","15329","1","0","4","lose","no-go","0"
"pit-trial","122","1033203","0.0-5.0","battery-v0.2","","""event"",""trial"",""time""
""fullscreenenter"",""1"",""4869""
","
","
","""event"",""trial"",""time""
""fullscreenenter"",""1"",""4869""
","
","","","1034","","","22","15329","1487","&#9733;","elianto","#3366ff99","-1"," ","0","0","[1885.8999999761581]","1","1","","","15329","2","2","2","win","no-go","0"
"pit-trial","123","1037194","0.0-6.0","battery-v0.2","","""event"",""trial"",""time""
""fullscreenenter"",""1"",""4869""
","
","
","""event"",""trial"",""time""
""fullscreenenter"",""1"",""4869""
","
","","","1126.6000000238419","","","22","15329","1487","&#9752;","elianto","#f73b6a7A"," "," ","1","0","[1976.8000000715256]","1","1","","","15329","3","3","3","lose","go","0"
"pit-trial","124","1040964","0.0-7.0","battery-v0.2","","""event"",""trial"",""time""
""fullscreenenter"",""1"",""4869""
","
","
","""event"",""trial"",""time""
""fullscreenenter"",""1"",""4869""
","
","","","914.2999999523163","","","22","15329","1487","&#9730;","elianto","#3366ff99"," "," ","1","+10","[1766]","1","1","","","15329","4","1","1","win","go","0"
"pit-trial","125","1045675","0.0-8.0","battery-v0.2","","""event"",""trial"",""time""
""fullscreenenter"",""1"",""4869""
","
","
","""event"",""trial"",""time""
""fullscreenenter"",""1"",""4869""
","
","","","1854","","","22","15329","1487","&#9733;","elianto","#3366ff99","-1"," ","0","+10","[2706.100000023842]","1","1","","","15329","5","2","2","win","no-go","1"
"pit-trial","126","1049764","0.0-9.0","battery-v0.2","","""event"",""trial"",""time""
""fullscreenenter"",""1"",""4869""
","
","
","""event"",""trial"",""time""
""fullscreenenter"",""1"",""4869""
","
","","","1224.6000000238419","","","22","15329","1487","&#9728;","elianto","#f73b6a7A","-1"," ","0","-10","[2074.8000000715256]","1","1","","","15329","6","0","4","lose","no-go","0"
"pit-trial","127","1054044","0.0-10.0","battery-v0.2","","""event"",""trial"",""time""
""fullscreenenter"",""1"",""4869""
","
","
","""event"",""trial"",""time""
""fullscreenenter"",""1"",""4869""
","
","","","1415.2999999523163","","","22","15329","1487","&#9730;","elianto","#3366ff99"," "," ","1","0","[2265.5]","1","1","","","15329","7","1","1","win","go","1"
"pit-trial","128","1058512","0.0-11.0","battery-v0.2","","""event"",""trial"",""time""
""fullscreenenter"",""1"",""4869""
","
","
","""event"",""trial"",""time""
""fullscreenenter"",""1"",""4869""
","
","","","1613.6999999284744","","","22","15329","1487","&#9752;","elianto","#f73b6a7A"," "," ","1","0","[2465.7999999523163]","1","1","","","15329","8","3","3","lose","go","0"
"pit-trial","129","1062852","0.0-12.0","battery-v0.2","","""event"",""trial"",""time""
""fullscreenenter"",""1"",""4869""
","
","
","""event"",""trial"",""time""
""fullscreenenter"",""1"",""4869""
","
","","","1484","","","22","15329","1487","&#9730;","elianto","#3366ff99"," "," ","1","+10","[2336.7999999523163]","1","1","","","15329","9","1","1","win","go","0"
"pit-trial","130","1067062","0.0-13.0","battery-v0.2","","""event"",""trial"",""time""
""fullscreenenter"",""1"",""4869""
","
","
","""event"",""trial"",""time""
""fullscreenenter"",""1"",""4869""
","
","","","1354.9000000953674","","","22","15329","1487","&#9752;","elianto","#f73b6a7A"," "," ","1","-10","[2206.899999976158]","1","1","","","15329","10","3","3","lose","go","1"
"pit-trial","131","1070622","0.0-14.0","battery-v0.2","","""event"",""trial"",""time""
""fullscreenenter"",""1"",""4869""
","
","
","""event"",""trial"",""time""
""fullscreenenter"",""1"",""4869""
","
","","","706.7000000476837","","","22","15329","1487","&#9733;","elianto","#3366ff99","-1"," ","0","0","[1558.1000000238419]","1","1","","","15329","11","2","2","win","no-go","0"
"pit-trial","132","1075475","0.0-15.0","battery-v0.2","","""event"",""trial"",""time""
""fullscreenenter"",""1"",""4869""
","
","
","""event"",""trial"",""time""
""fullscreenenter"",""1"",""4869""
","
","","","-1","","","22","15329","1487","&#9728;","elianto","#f73b6a7A","-1","-1","1","0","[]","0","1","","","15329","12","0","4","lose","no-go","0"
"pit-trial","133","1080312","0.0-16.0","battery-v0.2","","""event"",""trial"",""time""
""fullscreenenter"",""1"",""4869""
","
","
","""event"",""trial"",""time""
""fullscreenenter"",""1"",""4869""
","
","","","1984.4000000953674","","","22","15329","1487","&#9752;","elianto","#f73b6a7A"," "," ","1","0","[2834.5]","1","1","","","15329","13","3","3","lose","go","0"
"pit-trial","134","1085167","0.0-17.0","battery-v0.2","","""event"",""trial"",""time""
""fullscreenenter"",""1"",""4869""
","
","
","""event"",""trial"",""time""
""fullscreenenter"",""1"",""4869""
","
","","","-1","","","22","15329","1487","&#9730;","elianto","#3366ff99"," ","-1","0","+10","[]","0","1","","","15329","14","1","1","win","go","1"
"pit-trial","135","1090019","0.0-18.0","battery-v0.2","","""event"",""trial"",""time""
""fullscreenenter"",""1"",""4869""
","
","
","""event"",""trial"",""time""
""fullscreenenter"",""1"",""4869""
","
","","","-1","","","22","15329","1487","&#9733;","elianto","#3366ff99","-1","-1","1","0","[3452.399999976158,3952,4312.299999952316]","3","1","","","15329","15","2","2","win","no-go","1"
"pit-trial","136","1094875","0.0-19.0","battery-v0.2","","""event"",""trial"",""time""
""fullscreenenter"",""1"",""4869""
","
","
","""event"",""trial"",""time""
""fullscreenenter"",""1"",""4869""
","
","","","-1","","","22","15329","1487","&#9728;","elianto","#f73b6a7A","-1","-1","1","0","[]","0","1","","","15329","16","0","4","lose","no-go","0"
"pit-trial","137","1098622","0.0-20.0","battery-v0.2","","""event"",""trial"",""time""
""fullscreenenter"",""1"",""4869""
","
","
","""event"",""trial"",""time""
""fullscreenenter"",""1"",""4869""
","
","","","892.5","","","22","15329","1487","&#9752;","elianto","#f73b6a7A"," "," ","1","0","[1744.2999999523163]","1","1","","","15329","17","3","3","lose","go","0"
"pit-trial","138","1103053","0.0-21.0","battery-v0.2","","""event"",""trial"",""time""
""fullscreenenter"",""1"",""4869""
","
","
","""event"",""trial"",""time""
""fullscreenenter"",""1"",""4869""
","
","","","1578","","","22","15329","1487","&#9733;","elianto","#3366ff99","-1"," ","0","+10","[2428]","1","1","","","15329","18","2","2","win","no-go","1"
"pit-trial","139","1107906","0.0-22.0","battery-v0.2","","""event"",""trial"",""time""
""fullscreenenter"",""1"",""4869""
","
","
","""event"",""trial"",""time""
""fullscreenenter"",""1"",""4869""
","
","","","-1","","","22","15329","1487","&#9730;","elianto","#3366ff99"," ","-1","0","0","[4416.699999928474,4687]","2","1","","","15329","19","1","1","win","go","0"
"pit-trial","140","1112759","0.0-23.0","battery-v0.2","","""event"",""trial"",""time""
""fullscreenenter"",""1"",""4869""
","
","
","""event"",""trial"",""time""
""fullscreenenter"",""1"",""4869""
","
","","","-1","","","22","15329","1487","&#9728;","elianto","#f73b6a7A","-1","-1","1","-10","[33.89999997615814,203.80000007152557,323.7000000476837]","3","1","","","15329","20","0","4","lose","no-go","1"
"pit-instructions","141","1138329","0.0-24.0","battery-v0.2","","""event"",""trial"",""time""
""fullscreenenter"",""1"",""4869""
","
","
","""event"",""trial"",""time""
""fullscreenenter"",""1"",""4869""
","
","","[{""page_index"":0,""viewing_time"":6356.100000023842},{""page_index"":1,""viewing_time"":19212}]","25568.399999976158","","","","","","","","","","","","","","","","","","","","","","","",""
"pit-trial","142","1142145","0.0-25.0","battery-v0.2","","""event"",""trial"",""time""
""fullscreenenter"",""1"",""4869""
","
","
","""event"",""trial"",""time""
""fullscreenenter"",""1"",""4869""
","
","","","940.6000000238419","","","22","15329","1487","u","elianto","#f73b6a7A"," "," ","1","0","[1799.2000000476837]","1","2","","","15329","21","0","3","lose","go","0"
"pit-trial","143","1146033","0.0-26.0","battery-v0.2","","""event"",""trial"",""time""
""fullscreenenter"",""1"",""4869""
","
","
","""event"",""trial"",""time""
""fullscreenenter"",""1"",""4869""
","
","","","1023.1000000238419","","","22","15329","1487","a","elianto","#f73b6a7A"," "," ","1","-10","[1875.2000000476837]","1","2","","","15329","22","2","3","lose","go","1"
"pit-trial","144","1150124","0.0-27.0","battery-v0.2","","""event"",""trial"",""time""
""fullscreenenter"",""1"",""4869""
","
","
","""event"",""trial"",""time""
""fullscreenenter"",""1"",""4869""
","
","","","1234.1999999284744","","","22","15329","1487","g","elianto","#f73b6a7A","-1"," ","0","0","[2086.600000023842]","1","2","","","15329","23","3","4","lose","no-go","1"
"pit-trial","145","1153889","0.0-28.0","battery-v0.2","","""event"",""trial"",""time""
""fullscreenenter"",""1"",""4869""
","
","
","""event"",""trial"",""time""
""fullscreenenter"",""1"",""4869""
","
","","","904.1999999284744","","","22","15329","1487","l","elianto","#3366ff99","-1"," ","0","0","[1756.5]","1","2","","","15329","24","1","2","win","no-go","0"
"pit-trial","146","1158742","0.0-29.0","battery-v0.2","","""event"",""trial"",""time""
""fullscreenenter"",""1"",""4869""
","
","
","""event"",""trial"",""time""
""fullscreenenter"",""1"",""4869""
","
","","","-1","","","22","15329","1487","u","elianto","#f73b6a7A"," ","-1","0","-10","[]","0","2","","","15329","25","0","3","lose","go","0"
"pit-trial","147","1162382","0.0-30.0","battery-v0.2","","""event"",""trial"",""time""
""fullscreenenter"",""1"",""4869""
","
","
","""event"",""trial"",""time""
""fullscreenenter"",""1"",""4869""
","
","","","786.7999999523163","","","22","15329","1487","a","elianto","#f73b6a7A"," "," ","1","0","[1636.8000000715256]","1","2","","","15329","26","2","3","lose","go","0"
"pit-trial","148","1167235","0.0-31.0","battery-v0.2","","""event"",""trial"",""time""
""fullscreenenter"",""1"",""4869""
","
","
","""event"",""trial"",""time""
""fullscreenenter"",""1"",""4869""
","
","","","-1","","","22","15329","1487","l","elianto","#3366ff99","-1","-1","1","0","[3277.2999999523163,3528,3717]","3","2","","","15329","27","1","2","win","no-go","1"
"pit-trial","149","1171492","0.0-32.0","battery-v0.2","","""event"",""trial"",""time""
""fullscreenenter"",""1"",""4869""
","
","
","""event"",""trial"",""time""
""fullscreenenter"",""1"",""4869""
","
","","","1403.7999999523163","","","22","15329","1487","g","elianto","#f73b6a7A","-1"," ","0","-10","[2253.899999976158]","1","2","","","15329","28","3","4","lose","no-go","0"
"pit-trial","150","1176345","0.0-33.0","battery-v0.2","","""event"",""trial"",""time""
""fullscreenenter"",""1"",""4869""
","
","
","""event"",""trial"",""time""
""fullscreenenter"",""1"",""4869""
","
","","","-1","","","22","15329","1487","l","elianto","#3366ff99","-1","-1","1","+10","[]","0","2","","","15329","29","1","2","win","no-go","0"
"pit-trial","151","1181200","0.0-34.0","battery-v0.2","","""event"",""trial"",""time""
""fullscreenenter"",""1"",""4869""
","
","
","""event"",""trial"",""time""
""fullscreenenter"",""1"",""4869""
","
","","","-1","","","22","15329","1487","u","elianto","#f73b6a7A"," ","-1","0","0","[]","0","2","","","15329","30","0","3","lose","go","1"
"pit-trial","152","1185632","0.0-35.0","battery-v0.2","","""event"",""trial"",""time""
""fullscreenenter"",""1"",""4869""
","
","
","""event"",""trial"",""time""
""fullscreenenter"",""1"",""4869""
","
","","","1578.1000000238419","","","22","15329","1487","g","elianto","#f73b6a7A","-1"," ","0","-10","[2430.3000000715256]","1","2","","","15329","31","3","4","lose","no-go","0"
"pit-trial","153","1190486","0.0-36.0","battery-v0.2","","""event"",""trial"",""time""
""fullscreenenter"",""1"",""4869""
","
","
","""event"",""trial"",""time""
""fullscreenenter"",""1"",""4869""
","
","","","-1","","","22","15329","1487","a","elianto","#f73b6a7A"," ","-1","0","-10","[]","0","2","","","15329","32","2","3","lose","go","0"
"pit-trial","154","1194192","0.0-37.0","battery-v0.2","","""event"",""trial"",""time""
""fullscreenenter"",""1"",""4869""
","
","
","""event"",""trial"",""time""
""fullscreenenter"",""1"",""4869""
","
","","","853.2999999523163","","","22","15329","1487","l","elianto","#3366ff99","-1"," ","0","0","[1703.5]","1","2","","","15329","33","1","2","win","no-go","0"
"pit-trial","155","1199045","0.0-38.0","battery-v0.2","","""event"",""trial"",""time""
""fullscreenenter"",""1"",""4869""
","
","
","""event"",""trial"",""time""
""fullscreenenter"",""1"",""4869""
","
","","","-1","","","22","15329","1487","a","elianto","#f73b6a7A"," ","-1","0","0","[]","0","2","","","15329","34","2","3","lose","go","1"
"pit-trial","156","1203898","0.0-39.0","battery-v0.2","","""event"",""trial"",""time""
""fullscreenenter"",""1"",""4869""
","
","
","""event"",""trial"",""time""
""fullscreenenter"",""1"",""4869""
","
","","","-1","","","22","15329","1487","g","elianto","#f73b6a7A","-1","-1","1","0","[]","0","2","","","15329","35","3","4","lose","no-go","0"
"pit-trial","157","1208752","0.0-40.0","battery-v0.2","","""event"",""trial"",""time""
""fullscreenenter"",""1"",""4869""
","
","
","""event"",""trial"",""time""
""fullscreenenter"",""1"",""4869""
","
","","","-1","","","22","15329","1487","u","elianto","#f73b6a7A"," ","-1","0","-10","[]","0","2","","","15329","36","0","3","lose","go","0"
"pit-trial","158","1212623","0.0-41.0","battery-v0.2","","""event"",""trial"",""time""
""fullscreenenter"",""1"",""4869""
","
","
","""event"",""trial"",""time""
""fullscreenenter"",""1"",""4869""
","
","","","1017.7999999523163","","","22","15329","1487","u","elianto","#f73b6a7A"," "," ","1","0","[1868.5]","1","2","","","15329","37","0","3","lose","go","0"
"pit-trial","159","1217476","0.0-42.0","battery-v0.2","","""event"",""trial"",""time""
""fullscreenenter"",""1"",""4869""
","
","
","""event"",""trial"",""time""
""fullscreenenter"",""1"",""4869""
","
","","","-1","","","22","15329","1487","l","elianto","#3366ff99","-1","-1","1","+10","[]","0","2","","","15329","38","1","2","win","no-go","0"
"pit-trial","160","1222329","0.0-43.0","battery-v0.2","","""event"",""trial"",""time""
""fullscreenenter"",""1"",""4869""
","
","
","""event"",""trial"",""time""
""fullscreenenter"",""1"",""4869""
","
","","","-1","","","22","15329","1487","a","elianto","#f73b6a7A"," ","-1","0","-10","[]","0","2","","","15329","39","2","3","lose","go","0"
"pit-trial","161","1227182","0.0-44.0","battery-v0.2","","""event"",""trial"",""time""
""fullscreenenter"",""1"",""4869""
","
","
","""event"",""trial"",""time""
""fullscreenenter"",""1"",""4869""
","
","","","-1","","","22","15329","1487","g","elianto","#f73b6a7A","-1","-1","1","0","[]","0","2","","","15329","40","3","4","lose","no-go","0"
"pit-trial","162","1232037","0.0-45.0","battery-v0.2","","""event"",""trial"",""time""
""fullscreenenter"",""1"",""4869""
","
","
","""event"",""trial"",""time""
""fullscreenenter"",""1"",""4869""
","
","","","-1","","","22","15329","1487","l","elianto","#3366ff99","-1","-1","1","+10","[]","0","2","","","15329","41","1","2","win","no-go","0"
"pit-trial","163","1236889","0.0-46.0","battery-v0.2","","""event"",""trial"",""time""
""fullscreenenter"",""1"",""4869""
","
","
","""event"",""trial"",""time""
""fullscreenenter"",""1"",""4869""
","
","","","-1","","","22","15329","1487","a","elianto","#f73b6a7A"," ","-1","0","-10","[]","0","2","","","15329","42","2","3","lose","go","0"
"pit-trial","164","1241751","0.0-47.0","battery-v0.2","","""event"",""trial"",""time""
""fullscreenenter"",""1"",""4869""
","
","
","""event"",""trial"",""time""
""fullscreenenter"",""1"",""4869""
","
","","","-1","","","22","15329","1487","g","elianto","#f73b6a7A","-1","-1","1","0","[]","0","2","","","15329","43","3","4","lose","no-go","0"
"pit-trial","165","1246606","0.0-48.0","battery-v0.2","","""event"",""trial"",""time""
""fullscreenenter"",""1"",""4869""
","
","
","""event"",""trial"",""time""
""fullscreenenter"",""1"",""4869""
","
","","","-1","","","22","15329","1487","u","elianto","#f73b6a7A"," ","-1","0","-10","[]","0","2","","","15329","44","0","3","lose","go","0"
"pit-trial","166","1251459","0.0-49.0","battery-v0.2","","""event"",""trial"",""time""
""fullscreenenter"",""1"",""4869""
","
","
","""event"",""trial"",""time""
""fullscreenenter"",""1"",""4869""
","
","","","-1","","","22","15329","1487","u","elianto","#f73b6a7A"," ","-1","0","0","[]","0","2","","","15329","45","0","3","lose","go","1"
"pit-trial","167","1256313","0.0-50.0","battery-v0.2","","""event"",""trial"",""time""
""fullscreenenter"",""1"",""4869""
","
","
","""event"",""trial"",""time""
""fullscreenenter"",""1"",""4869""
","
","","","-1","","","22","15329","1487","g","elianto","#f73b6a7A","-1","-1","1","0","[]","0","2","","","15329","46","3","4","lose","no-go","0"
"pit-trial","168","1261166","0.0-51.0","battery-v0.2","","""event"",""trial"",""time""
""fullscreenenter"",""1"",""4869""
","
","
","""event"",""trial"",""time""
""fullscreenenter"",""1"",""4869""
","
","","","-1","","","22","15329","1487","a","elianto","#f73b6a7A"," ","-1","0","-10","[]","0","2","","","15329","47","2","3","lose","go","0"
"pit-trial","169","1266019","0.0-52.0","battery-v0.2","","""event"",""trial"",""time""
""fullscreenenter"",""1"",""4869""
","
","
","""event"",""trial"",""time""
""fullscreenenter"",""1"",""4869""
","
","","","-1","","","22","15329","1487","l","elianto","#3366ff99","-1","-1","1","+10","[]","0","2","","","15329","48","1","2","win","no-go","0"
"pit-trial","170","1270471","0.0-53.0","battery-v0.2","","""event"",""trial"",""time""
""fullscreenenter"",""1"",""4869""
","
","
","""event"",""trial"",""time""
""fullscreenenter"",""1"",""4869""
","
","","","1597.9000000953674","","","22","15329","1487","g","elianto","#f73b6a7A","-1"," ","0","-10","[2448]","1","2","","","15329","49","3","4","lose","no-go","0"
"pit-trial","171","1275324","0.0-54.0","battery-v0.2","","""event"",""trial"",""time""
""fullscreenenter"",""1"",""4869""
","
","
","""event"",""trial"",""time""
""fullscreenenter"",""1"",""4869""
","
","","","-1","","","22","15329","1487","u","elianto","#f73b6a7A"," ","-1","0","-10","[]","0","2","","","15329","50","0","3","lose","go","0"
"pit-trial","172","1280176","0.0-55.0","battery-v0.2","","""event"",""trial"",""time""
""fullscreenenter"",""1"",""4869""
","
","
","""event"",""trial"",""time""
""fullscreenenter"",""1"",""4869""
","
","","","-1","","","22","15329","1487","l","elianto","#3366ff99","-1","-1","1","0","[]","0","2","","","15329","51","1","2","win","no-go","1"
"pit-trial","173","1284206","0.0-56.0","battery-v0.2","","""event"",""trial"",""time""
""fullscreenenter"",""1"",""4869""
","
","
","""event"",""trial"",""time""
""fullscreenenter"",""1"",""4869""
","
","","","1177.2999999523163","","","22","15329","1487","a","elianto","#f73b6a7A"," "," ","1","0","[2027.2999999523163]","1","2","","","15329","52","2","3","lose","go","0"
"pit-trial","174","1288108","0.0-57.0","battery-v0.2","","""event"",""trial"",""time""
""fullscreenenter"",""1"",""4869""
","
","
","""event"",""trial"",""time""
""fullscreenenter"",""1"",""4869""
","
","","","1046.1999999284744","","","22","15329","1487","a","elianto","#f73b6a7A"," "," ","1","0","[1899.0999999046326]","1","2","","","15329","53","2","3","lose","go","0"
"pit-trial","175","1292962","0.0-58.0","battery-v0.2","","""event"",""trial"",""time""
""fullscreenenter"",""1"",""4869""
","
","
","""event"",""trial"",""time""
""fullscreenenter"",""1"",""4869""
","
","","","-1","","","22","15329","1487","l","elianto","#3366ff99","-1","-1","1","+10","[]","0","2","","","15329","54","1","2","win","no-go","0"
"pit-trial","176","1297816","0.0-59.0","battery-v0.2","","""event"",""trial"",""time""
""fullscreenenter"",""1"",""4869""
","
","
","""event"",""trial"",""time""
""fullscreenenter"",""1"",""4869""
","
","","","-1","","","22","15329","1487","u","elianto","#f73b6a7A"," ","-1","0","0","[]","0","2","","","15329","55","0","3","lose","go","1"
"pit-trial","177","1302669","0.0-60.0","battery-v0.2","","""event"",""trial"",""time""
""fullscreenenter"",""1"",""4869""
","
","
","""event"",""trial"",""time""
""fullscreenenter"",""1"",""4869""
","
","","","-1","","","22","15329","1487","g","elianto","#f73b6a7A","-1","-1","1","0","[]","0","2","","","15329","56","3","4","lose","no-go","0"
"pit-trial","178","1307522","0.0-61.0","battery-v0.2","","""event"",""trial"",""time""
""fullscreenenter"",""1"",""4869""
","
","
","""event"",""trial"",""time""
""fullscreenenter"",""1"",""4869""
","
","","","-1","","","22","15329","1487","g","elianto","#f73b6a7A","-1","-1","1","-10","[]","0","2","","","15329","57","3","4","lose","no-go","1"
"pit-trial","179","1312376","0.0-62.0","battery-v0.2","","""event"",""trial"",""time""
""fullscreenenter"",""1"",""4869""
","
","
","""event"",""trial"",""time""
""fullscreenenter"",""1"",""4869""
","
","","","-1","","","22","15329","1487","u","elianto","#f73b6a7A"," ","-1","0","-10","[]","0","2","","","15329","58","0","3","lose","go","0"
"pit-trial","180","1316736","0.0-63.0","battery-v0.2","","""event"",""trial"",""time""
""fullscreenenter"",""1"",""4869""
","
","
","""event"",""trial"",""time""
""fullscreenenter"",""1"",""4869""
","
","","","1505.7000000476837","","","22","15329","1487","p","elianto","#3366ff99"," "," ","1","+10","[2357.899999976158]","1","2","","","15329","59","4","1","win","go","0"
"pit-trial","181","1321028","0.0-64.0","battery-v0.2","","""event"",""trial"",""time""
""fullscreenenter"",""1"",""4869""
","
","
","""event"",""trial"",""time""
""fullscreenenter"",""1"",""4869""
","
","","","1437.0999999046326","","","22","15329","1487","a","elianto","#f73b6a7A"," "," ","1","0","[2287.1999999284744]","1","2","","","15329","60","2","3","lose","go","0"
"pit-trial","182","1325882","0.0-65.0","battery-v0.2","","""event"",""trial"",""time""
""fullscreenenter"",""1"",""4869""
","
","
","""event"",""trial"",""time""
""fullscreenenter"",""1"",""4869""
","
","","","-1","","","22","15329","1487","g","elianto","#f73b6a7A","-1","-1","1","0","[]","0","2","","","15329","61","3","4","lose","no-go","0"
"pit-trial","183","1329586","0.0-66.0","battery-v0.2","","""event"",""trial"",""time""
""fullscreenenter"",""1"",""4869""
","
","
","""event"",""trial"",""time""
""fullscreenenter"",""1"",""4869""
","
","","","849.8000000715256","","","22","15329","1487","p","elianto","#3366ff99"," "," ","1","+10","[1702.3000000715256]","1","2","","","15329","62","4","1","win","go","0"
"pit-trial","184","1333686","0.0-67.0","battery-v0.2","","""event"",""trial"",""time""
""fullscreenenter"",""1"",""4869""
","
","
","""event"",""trial"",""time""
""fullscreenenter"",""1"",""4869""
","
","","","1247.1999999284744","","","22","15329","1487","a","elianto","#f73b6a7A"," "," ","1","0","[2097.2000000476837]","1","2","","","15329","63","2","3","lose","go","0"
"pit-trial","185","1338540","0.0-68.0","battery-v0.2","","""event"",""trial"",""time""
""fullscreenenter"",""1"",""4869""
","
","
","""event"",""trial"",""time""
""fullscreenenter"",""1"",""4869""
","
","","","-1","","","22","15329","1487","l","elianto","#3366ff99","-1","-1","1","+10","[]","0","2","","","15329","64","1","2","win","no-go","0"
"pit-trial","186","1342137","0.0-69.0","battery-v0.2","","""event"",""trial"",""time""
""fullscreenenter"",""1"",""4869""
","
","
","""event"",""trial"",""time""
""fullscreenenter"",""1"",""4869""
","
","","","741.1000000238419","","","22","15329","1487","p","elianto","#3366ff99"," "," ","1","+10","[1593.7000000476837]","1","2","","","15329","65","4","1","win","go","0"
"pit-trial","187","1346990","0.0-70.0","battery-v0.2","","""event"",""trial"",""time""
""fullscreenenter"",""1"",""4869""
","
","
","""event"",""trial"",""time""
""fullscreenenter"",""1"",""4869""
","
","","","-1","","","22","15329","1487","g","elianto","#f73b6a7A","-1","-1","1","0","[]","0","2","","","15329","66","3","4","lose","no-go","0"
"pit-trial","188","1351843","0.0-71.0","battery-v0.2","","""event"",""trial"",""time""
""fullscreenenter"",""1"",""4869""
","
","
","""event"",""trial"",""time""
""fullscreenenter"",""1"",""4869""
","
","","","-1","","","22","15329","1487","l","elianto","#3366ff99","-1","-1","1","+10","[]","0","2","","","15329","67","1","2","win","no-go","0"
"pit-trial","189","1355588","0.0-72.0","battery-v0.2","","""event"",""trial"",""time""
""fullscreenenter"",""1"",""4869""
","
","
","""event"",""trial"",""time""
""fullscreenenter"",""1"",""4869""
","
","","","889.2999999523163","","","22","15329","1487","s","elianto","#3366ff99","-1"," ","0","0","[1741.6999999284744]","1","2","","","15329","68","5","2","win","no-go","0"
"pit-trial","190","1359656","0.0-73.0","battery-v0.2","","""event"",""trial"",""time""
""fullscreenenter"",""1"",""4869""
","
","
","""event"",""trial"",""time""
""fullscreenenter"",""1"",""4869""
","
","","","1215.3999999761581","","","22","15329","1487","a","elianto","#f73b6a7A"," "," ","1","0","[2065.5]","1","2","","","15329","69","2","3","lose","go","0"
"pit-trial","191","1364509","0.0-74.0","battery-v0.2","","""event"",""trial"",""time""
""fullscreenenter"",""1"",""4869""
","
","
","""event"",""trial"",""time""
""fullscreenenter"",""1"",""4869""
","
","","","-1","","","22","15329","1487","l","elianto","#3366ff99","-1","-1","1","+10","[]","0","2","","","15329","70","1","2","win","no-go","0"
"pit-trial","192","1369362","0.0-75.0","battery-v0.2","","""event"",""trial"",""time""
""fullscreenenter"",""1"",""4869""
","
","
","""event"",""trial"",""time""
""fullscreenenter"",""1"",""4869""
","
","","","-1","","","22","15329","1487","s","elianto","#3366ff99","-1","-1","1","+10","[]","0","2","","","15329","71","5","2","win","no-go","0"
"pit-trial","193","1373410","0.0-76.0","battery-v0.2","","""event"",""trial"",""time""
""fullscreenenter"",""1"",""4869""
","
","
","""event"",""trial"",""time""
""fullscreenenter"",""1"",""4869""
","
","","","1194","","","22","15329","1487","p","elianto","#3366ff99"," "," ","1","+10","[2044.3000000715256]","1","2","","","15329","72","4","1","win","go","0"
"pit-trial","194","1377216","0.0-77.0","battery-v0.2","","""event"",""trial"",""time""
""fullscreenenter"",""1"",""4869""
","
","
","""event"",""trial"",""time""
""fullscreenenter"",""1"",""4869""
","
","","","953.6000000238419","","","22","15329","1487","p","elianto","#3366ff99"," "," ","1","+10","[1803.7000000476837]","1","2","","","15329","73","4","1","win","go","0"
"pit-trial","195","1382070","0.0-78.0","battery-v0.2","","""event"",""trial"",""time""
""fullscreenenter"",""1"",""4869""
","
","
","""event"",""trial"",""time""
""fullscreenenter"",""1"",""4869""
","
","","","-1","","","22","15329","1487","l","elianto","#3366ff99","-1","-1","1","+10","[]","0","2","","","15329","74","1","2","win","no-go","0"
"pit-trial","196","1385887","0.0-79.0","battery-v0.2","","""event"",""trial"",""time""
""fullscreenenter"",""1"",""4869""
","
","
","""event"",""trial"",""time""
""fullscreenenter"",""1"",""4869""
","
","","","964","","","22","15329","1487","s","elianto","#3366ff99","-1"," ","0","0","[1814.1000000238419]","1","2","","","15329","75","5","2","win","no-go","0"
"pit-trial","197","1390741","0.0-80.0","battery-v0.2","","""event"",""trial"",""time""
""fullscreenenter"",""1"",""4869""
","
","
","""event"",""trial"",""time""
""fullscreenenter"",""1"",""4869""
","
","","","-1","","","22","15329","1487","g","elianto","#f73b6a7A","-1","-1","1","0","[]","0","2","","","15329","76","3","4","lose","no-go","0"
"pit-trial","198","1394646","0.0-81.0","battery-v0.2","","""event"",""trial"",""time""
""fullscreenenter"",""1"",""4869""
","
","
","""event"",""trial"",""time""
""fullscreenenter"",""1"",""4869""
","
","","","1052.7999999523163","","","22","15329","1487","p","elianto","#3366ff99"," "," ","1","+10","[1903.1999999284744]","1","2","","","15329","77","4","1","win","go","0"
"pit-trial","199","1398157","0.0-82.0","battery-v0.2","","""event"",""trial"",""time""
""fullscreenenter"",""1"",""4869""
","
","
","""event"",""trial"",""time""
""fullscreenenter"",""1"",""4869""
","
","","","657","","","22","15329","1487","p","elianto","#3366ff99"," "," ","1","+10","[1508]","1","2","","","15329","78","4","1","win","go","0"
"pit-trial","200","1403011","0.0-83.0","battery-v0.2","","""event"",""trial"",""time""
""fullscreenenter"",""1"",""4869""
","
","
","""event"",""trial"",""time""
""fullscreenenter"",""1"",""4869""
","
","","","-1","","","22","15329","1487","g","elianto","#f73b6a7A","-1","-1","1","0","[]","0","2","","","15329","79","3","4","lose","no-go","0"
"pit-trial","201","1406527","0.0-84.0","battery-v0.2","","""event"",""trial"",""time""
""fullscreenenter"",""1"",""4869""
","
","
","""event"",""trial"",""time""
""fullscreenenter"",""1"",""4869""
","
","","","660.8999999761581","","","22","15329","1487","s","elianto","#3366ff99","-1"," ","0","+10","[1513]","1","2","","","15329","80","5","2","win","no-go","1"
"pit-trial","202","1411381","0.0-85.0","battery-v0.2","","""event"",""trial"",""time""
""fullscreenenter"",""1"",""4869""
","
","
","""event"",""trial"",""time""
""fullscreenenter"",""1"",""4869""
","
","","","-1","","","22","15329","1487","g","elianto","#f73b6a7A","-1","-1","1","0","[]","0","2","","","15329","81","3","4","lose","no-go","0"
"pit-trial","203","1415127","0.0-86.0","battery-v0.2","","""event"",""trial"",""time""
""fullscreenenter"",""1"",""4869""
","
","
","""event"",""trial"",""time""
""fullscreenenter"",""1"",""4869""
","
","","","890.4000000953674","","","22","15329","1487","e","elianto","#f73b6a7A","-1"," ","0","-10","[1742.8999999761581]","1","2","","","15329","82","7","4","lose","no-go","0"
"pit-trial","204","1418766","0.0-87.0","battery-v0.2","","""event"",""trial"",""time""
""fullscreenenter"",""1"",""4869""
","
","
","""event"",""trial"",""time""
""fullscreenenter"",""1"",""4869""
","
","","","785.5","","","22","15329","1487","s","elianto","#3366ff99","-1"," ","0","0","[1636.1999999284744]","1","2","","","15329","83","5","2","win","no-go","0"
"pit-trial","205","1422396","0.0-88.0","battery-v0.2","","""event"",""trial"",""time""
""fullscreenenter"",""1"",""4869""
","
","
","""event"",""trial"",""time""
""fullscreenenter"",""1"",""4869""
","
","","","775.2999999523163","","","22","15329","1487","p","elianto","#3366ff99"," "," ","1","+10","[1627.3999999761581]","1","2","","","15329","84","4","1","win","go","0"
"pit-trial","206","1426197","0.0-89.0","battery-v0.2","","""event"",""trial"",""time""
""fullscreenenter"",""1"",""4869""
","
","
","""event"",""trial"",""time""
""fullscreenenter"",""1"",""4869""
","
","","","948","","","22","15329","1487","w","elianto","#f73b6a7A"," "," ","1","-10","[1798]","1","2","","","15329","85","6","3","lose","go","1"
"pit-trial","207","1431050","0.0-90.0","battery-v0.2","","""event"",""trial"",""time""
""fullscreenenter"",""1"",""4869""
","
","
","""event"",""trial"",""time""
""fullscreenenter"",""1"",""4869""
","
","","","-1","","","22","15329","1487","s","elianto","#3366ff99","-1","-1","1","+10","[]","0","2","","","15329","86","5","2","win","no-go","0"
"pit-trial","208","1435097","0.0-91.0","battery-v0.2","","""event"",""trial"",""time""
""fullscreenenter"",""1"",""4869""
","
","
","""event"",""trial"",""time""
""fullscreenenter"",""1"",""4869""
","
","","","1191.7999999523163","","","22","15329","1487","p","elianto","#3366ff99"," "," ","1","+10","[2044]","1","2","","","15329","87","4","1","win","go","0"
"pit-trial","209","1439951","0.0-92.0","battery-v0.2","","""event"",""trial"",""time""
""fullscreenenter"",""1"",""4869""
","
","
","""event"",""trial"",""time""
""fullscreenenter"",""1"",""4869""
","
","","","-1","","","22","15329","1487","e","elianto","#f73b6a7A","-1","-1","1","0","[]","0","2","","","15329","88","7","4","lose","no-go","0"
"pit-trial","210","1444805","0.0-93.0","battery-v0.2","","""event"",""trial"",""time""
""fullscreenenter"",""1"",""4869""
","
","
","""event"",""trial"",""time""
""fullscreenenter"",""1"",""4869""
","
","","","-1","","","22","15329","1487","w","elianto","#f73b6a7A"," ","-1","0","-10","[]","0","2","","","15329","89","6","3","lose","go","0"
"pit-trial","211","1448337","0.0-94.0","battery-v0.2","","""event"",""trial"",""time""
""fullscreenenter"",""1"",""4869""
","
","
","""event"",""trial"",""time""
""fullscreenenter"",""1"",""4869""
","
","","","679.6999999284744","","","22","15329","1487","p","elianto","#3366ff99"," "," ","1","+10","[1529.7999999523163]","1","2","","","15329","90","4","1","win","go","0"
"pit-trial","212","1453190","0.0-95.0","battery-v0.2","","""event"",""trial"",""time""
""fullscreenenter"",""1"",""4869""
","
","
","""event"",""trial"",""time""
""fullscreenenter"",""1"",""4869""
","
","","","-1","","","22","15329","1487","s","elianto","#3366ff99","-1","-1","1","+10","[]","0","2","","","15329","91","5","2","win","no-go","0"
"pit-trial","213","1458044","0.0-96.0","battery-v0.2","","""event"",""trial"",""time""
""fullscreenenter"",""1"",""4869""
","
","
","""event"",""trial"",""time""
""fullscreenenter"",""1"",""4869""
","
","","","-1","","","22","15329","1487","e","elianto","#f73b6a7A","-1","-1","1","0","[]","0","2","","","15329","92","7","4","lose","no-go","0"
"pit-trial","214","1462897","0.0-97.0","battery-v0.2","","""event"",""trial"",""time""
""fullscreenenter"",""1"",""4869""
","
","
","""event"",""trial"",""time""
""fullscreenenter"",""1"",""4869""
","
","","","-1","","","22","15329","1487","e","elianto","#f73b6a7A","-1","-1","1","0","[]","0","2","","","15329","93","7","4","lose","no-go","0"
"pit-trial","215","1467751","0.0-98.0","battery-v0.2","","""event"",""trial"",""time""
""fullscreenenter"",""1"",""4869""
","
","
","""event"",""trial"",""time""
""fullscreenenter"",""1"",""4869""
","
","","","-1","","","22","15329","1487","w","elianto","#f73b6a7A"," ","-1","0","-10","[]","0","2","","","15329","94","6","3","lose","go","0"
"pit-trial","216","1472604","0.0-99.0","battery-v0.2","","""event"",""trial"",""time""
""fullscreenenter"",""1"",""4869""
","
","
","""event"",""trial"",""time""
""fullscreenenter"",""1"",""4869""
","
","","","-1","","","22","15329","1487","s","elianto","#3366ff99","-1","-1","1","+10","[]","0","2","","","15329","95","5","2","win","no-go","0"
"pit-trial","217","1476437","0.0-100.0","battery-v0.2","","""event"",""trial"",""time""
""fullscreenenter"",""1"",""4869""
","
","
","""event"",""trial"",""time""
""fullscreenenter"",""1"",""4869""
","
","","","978.2000000476837","","","22","15329","1487","d","elianto","#3366ff99"," "," ","1","0","[1830.6000000238419]","1","2","","","15329","96","8","1","win","go","1"
"pit-trial","218","1481291","0.0-101.0","battery-v0.2","","""event"",""trial"",""time""
""fullscreenenter"",""1"",""4869""
","
","
","""event"",""trial"",""time""
""fullscreenenter"",""1"",""4869""
","
","","","-1","","","22","15329","1487","e","elianto","#f73b6a7A","-1","-1","1","0","[]","0","2","","","15329","97","7","4","lose","no-go","0"
"pit-trial","219","1486148","0.0-102.0","battery-v0.2","","""event"",""trial"",""time""
""fullscreenenter"",""1"",""4869""
","
","
","""event"",""trial"",""time""
""fullscreenenter"",""1"",""4869""
","
","","","-1","","","22","15329","1487","w","elianto","#f73b6a7A"," ","-1","0","-10","[]","0","2","","","15329","98","6","3","lose","go","0"
"pit-trial","220","1491001","0.0-103.0","battery-v0.2","","""event"",""trial"",""time""
""fullscreenenter"",""1"",""4869""
","
","
","""event"",""trial"",""time""
""fullscreenenter"",""1"",""4869""
","
","","","-1","","","22","15329","1487","s","elianto","#3366ff99","-1","-1","1","+10","[]","0","2","","","15329","99","5","2","win","no-go","0"
"pit-trial","221","1494968","0.0-104.0","battery-v0.2","","""event"",""trial"",""time""
""fullscreenenter"",""1"",""4869""
","
","
","""event"",""trial"",""time""
""fullscreenenter"",""1"",""4869""
","
","","","1111.0999999046326","","","22","15329","1487","d","elianto","#3366ff99"," "," ","1","0","[1963.8999999761581]","1","2","","","15329","100","8","1","win","go","1"
"pit-trial","222","1499821","0.0-105.0","battery-v0.2","","""event"",""trial"",""time""
""fullscreenenter"",""1"",""4869""
","
","
","""event"",""trial"",""time""
""fullscreenenter"",""1"",""4869""
","
","","","-1","","","22","15329","1487","s","elianto","#3366ff99","-1","-1","1","+10","[]","0","2","","","15329","101","5","2","win","no-go","0"
"pit-trial","223","1503637","0.0-106.0","battery-v0.2","","""event"",""trial"",""time""
""fullscreenenter"",""1"",""4869""
","
","
","""event"",""trial"",""time""
""fullscreenenter"",""1"",""4869""
","
","","","961.6000000238419","","","22","15329","1487","j","elianto","#3366ff99"," "," ","1","+10","[1813.5]","1","2","","","15329","102","9","1","win","go","0"
"pit-trial","224","1508491","0.0-107.0","battery-v0.2","","""event"",""trial"",""time""
""fullscreenenter"",""1"",""4869""
","
","
","""event"",""trial"",""time""
""fullscreenenter"",""1"",""4869""
","
","","","-1","","","22","15329","1487","e","elianto","#f73b6a7A","-1","-1","1","0","[]","0","2","","","15329","103","7","4","lose","no-go","0"
"pit-trial","225","1513344","0.0-108.0","battery-v0.2","","""event"",""trial"",""time""
""fullscreenenter"",""1"",""4869""
","
","
","""event"",""trial"",""time""
""fullscreenenter"",""1"",""4869""
","
","","","-1","","","22","15329","1487","d","elianto","#3366ff99"," ","-1","0","+10","[]","0","2","","","15329","104","8","1","win","go","1"
"pit-trial","226","1518198","0.0-109.0","battery-v0.2","","""event"",""trial"",""time""
""fullscreenenter"",""1"",""4869""
","
","
","""event"",""trial"",""time""
""fullscreenenter"",""1"",""4869""
","
","","","-1","","","22","15329","1487","d","elianto","#3366ff99"," ","-1","0","0","[]","0","2","","","15329","105","8","1","win","go","0"
"pit-trial","227","1521697","0.0-110.0","battery-v0.2","","""event"",""trial"",""time""
""fullscreenenter"",""1"",""4869""
","
","
","""event"",""trial"",""time""
""fullscreenenter"",""1"",""4869""
","
","","","643.3999999761581","","","22","15329","1487","p","elianto","#3366ff99"," "," ","1","+10","[1496.2999999523163]","1","2","","","15329","106","4","1","win","go","0"
"pit-trial","228","1526550","0.0-111.0","battery-v0.2","","""event"",""trial"",""time""
""fullscreenenter"",""1"",""4869""
","
","
","""event"",""trial"",""time""
""fullscreenenter"",""1"",""4869""
","
","","","-1","","","22","15329","1487","w","elianto","#f73b6a7A"," ","-1","0","-10","[]","0","2","","","15329","107","6","3","lose","go","0"
"pit-trial","229","1530527","0.0-112.0","battery-v0.2","","""event"",""trial"",""time""
""fullscreenenter"",""1"",""4869""
","
","
","""event"",""trial"",""time""
""fullscreenenter"",""1"",""4869""
","
","","","1122.1999999284744","","","22","15329","1487","j","elianto","#3366ff99"," "," ","1","0","[1974.1000000238419]","1","2","","","15329","108","9","1","win","go","1"
"pit-trial","230","1535382","0.0-113.0","battery-v0.2","","""event"",""trial"",""time""
""fullscreenenter"",""1"",""4869""
","
","
","""event"",""trial"",""time""
""fullscreenenter"",""1"",""4869""
","
","","","-1","","","22","15329","1487","s","elianto","#3366ff99","-1","-1","1","+10","[]","0","2","","","15329","109","5","2","win","no-go","0"
"pit-trial","231","1539146","0.0-114.0","battery-v0.2","","""event"",""trial"",""time""
""fullscreenenter"",""1"",""4869""
","
","
","""event"",""trial"",""time""
""fullscreenenter"",""1"",""4869""
","
","","","911.6000000238419","","","22","15329","1487","j","elianto","#3366ff99"," "," ","1","+10","[1761.7000000476837]","1","2","","","15329","110","9","1","win","go","0"
"pit-trial","232","1543999","0.0-115.0","battery-v0.2","","""event"",""trial"",""time""
""fullscreenenter"",""1"",""4869""
","
","
","""event"",""trial"",""time""
""fullscreenenter"",""1"",""4869""
","
","","","-1","","","22","15329","1487","w","elianto","#f73b6a7A"," ","-1","0","-10","[]","0","2","","","15329","111","6","3","lose","go","0"
"pit-trial","233","1548852","0.0-116.0","battery-v0.2","","""event"",""trial"",""time""
""fullscreenenter"",""1"",""4869""
","
","
","""event"",""trial"",""time""
""fullscreenenter"",""1"",""4869""
","
","","","-1","","","22","15329","1487","d","elianto","#3366ff99"," ","-1","0","0","[]","0","2","","","15329","112","8","1","win","go","0"
"pit-trial","234","1553705","0.0-117.0","battery-v0.2","","""event"",""trial"",""time""
""fullscreenenter"",""1"",""4869""
","
","
","""event"",""trial"",""time""
""fullscreenenter"",""1"",""4869""
","
","","","-1","","","22","15329","1487","d","elianto","#3366ff99"," ","-1","0","0","[]","0","2","","","15329","113","8","1","win","go","0"
"pit-trial","235","1557747","0.0-118.0","battery-v0.2","","""event"",""trial"",""time""
""fullscreenenter"",""1"",""4869""
","
","
","""event"",""trial"",""time""
""fullscreenenter"",""1"",""4869""
","
","","","1188.7000000476837","","","22","15329","1487","j","elianto","#3366ff99"," "," ","1","+10","[2039.2000000476837]","1","2","","","15329","114","9","1","win","go","0"
"pit-trial","236","1562602","0.0-119.0","battery-v0.2","","""event"",""trial"",""time""
""fullscreenenter"",""1"",""4869""
","
","
","""event"",""trial"",""time""
""fullscreenenter"",""1"",""4869""
","
","","","-1","","","22","15329","1487","s","elianto","#3366ff99","-1","-1","1","0","[]","0","2","","","15329","115","5","2","win","no-go","1"
"pit-trial","237","1567455","0.0-120.0","battery-v0.2","","""event"",""trial"",""time""
""fullscreenenter"",""1"",""4869""
","
","
","""event"",""trial"",""time""
""fullscreenenter"",""1"",""4869""
","
","","","-1","","","22","15329","1487","w","elianto","#f73b6a7A"," ","-1","0","-10","[]","0","2","","","15329","116","6","3","lose","go","0"
"pit-trial","238","1572309","0.0-121.0","battery-v0.2","","""event"",""trial"",""time""
""fullscreenenter"",""1"",""4869""
","
","
","""event"",""trial"",""time""
""fullscreenenter"",""1"",""4869""
","
","","","-1","","","22","15329","1487","w","elianto","#f73b6a7A"," ","-1","0","-10","[]","0","2","","","15329","117","6","3","lose","go","0"
"pit-trial","239","1577164","0.0-122.0","battery-v0.2","","""event"",""trial"",""time""
""fullscreenenter"",""1"",""4869""
","
","
","""event"",""trial"",""time""
""fullscreenenter"",""1"",""4869""
","
","","","-1","","","22","15329","1487","s","elianto","#3366ff99","-1","-1","1","+10","[]","0","2","","","15329","118","5","2","win","no-go","0"
"pit-trial","240","1581667","0.0-123.0","battery-v0.2","","""event"",""trial"",""time""
""fullscreenenter"",""1"",""4869""
","
","
","""event"",""trial"",""time""
""fullscreenenter"",""1"",""4869""
","
","","","1650.5","","","22","15329","1487","j","elianto","#3366ff99"," "," ","1","+10","[2500.5999999046326]","1","2","","","15329","119","9","1","win","go","0"
"pit-trial","241","1586521","0.0-124.0","battery-v0.2","","""event"",""trial"",""time""
""fullscreenenter"",""1"",""4869""
","
","
","""event"",""trial"",""time""
""fullscreenenter"",""1"",""4869""
","
","","","-1","","","22","15329","1487","d","elianto","#3366ff99"," ","-1","0","0","[]","0","2","","","15329","120","8","1","win","go","0"
"pit-trial","242","1590807","0.0-125.0","battery-v0.2","","""event"",""trial"",""time""
""fullscreenenter"",""1"",""4869""
","
","
","""event"",""trial"",""time""
""fullscreenenter"",""1"",""4869""
","
","","","1433.2000000476837","","","22","15329","1487","j","elianto","#3366ff99"," "," ","1","+10","[2283.3000000715256]","1","2","","","15329","121","9","1","win","go","0"
"pit-trial","243","1595659","0.0-126.0","battery-v0.2","","""event"",""trial"",""time""
""fullscreenenter"",""1"",""4869""
","
","
","""event"",""trial"",""time""
""fullscreenenter"",""1"",""4869""
","
","","","-1","","","22","15329","1487","d","elianto","#3366ff99"," ","-1","0","0","[]","0","2","","","15329","122","8","1","win","go","0"
"pit-trial","244","1600513","0.0-127.0","battery-v0.2","","""event"",""trial"",""time""
""fullscreenenter"",""1"",""4869""
","
","
","""event"",""trial"",""time""
""fullscreenenter"",""1"",""4869""
","
","","","-1","","","22","15329","1487","e","elianto","#f73b6a7A","-1","-1","1","0","[]","0","2","","","15329","123","7","4","lose","no-go","0"
"pit-trial","245","1605379","0.0-128.0","battery-v0.2","","""event"",""trial"",""time""
""fullscreenenter"",""1"",""4869""
","
","
","""event"",""trial"",""time""
""fullscreenenter"",""1"",""4869""
","
","","","-1","","","22","15329","1487","w","elianto","#f73b6a7A"," ","-1","0","-10","[]","0","2","","","15329","124","6","3","lose","go","0"
"pit-trial","246","1608977","0.0-129.0","battery-v0.2","","""event"",""trial"",""time""
""fullscreenenter"",""1"",""4869""
","
","
","""event"",""trial"",""time""
""fullscreenenter"",""1"",""4869""
","
","","","742.6999999284744","","","22","15329","1487","j","elianto","#3366ff99"," "," ","1","+10","[1595.6999999284744]","1","2","","","15329","125","9","1","win","go","0"
"pit-trial","247","1612678","0.0-130.0","battery-v0.2","","""event"",""trial"",""time""
""fullscreenenter"",""1"",""4869""
","
","
","""event"",""trial"",""time""
""fullscreenenter"",""1"",""4869""
","
","","","846.6000000238419","","","22","15329","1487","w","elianto","#f73b6a7A"," "," ","1","0","[1696.8000000715256]","1","2","","","15329","126","6","3","lose","go","0"
"pit-trial","248","1617531","0.0-131.0","battery-v0.2","","""event"",""trial"",""time""
""fullscreenenter"",""1"",""4869""
","
","
","""event"",""trial"",""time""
""fullscreenenter"",""1"",""4869""
","
","","","-1","","","22","15329","1487","e","elianto","#f73b6a7A","-1","-1","1","0","[]","0","2","","","15329","127","7","4","lose","no-go","0"
"pit-trial","249","1622389","0.0-132.0","battery-v0.2","","""event"",""trial"",""time""
""fullscreenenter"",""1"",""4869""
","
","
","""event"",""trial"",""time""
""fullscreenenter"",""1"",""4869""
","
","","","-1","","","22","15329","1487","d","elianto","#3366ff99"," ","-1","0","+10","[]","0","2","","","15329","128","8","1","win","go","1"
"pit-trial","250","1626037","0.0-133.0","battery-v0.2","","""event"",""trial"",""time""
""fullscreenenter"",""1"",""4869""
","
","
","""event"",""trial"",""time""
""fullscreenenter"",""1"",""4869""
","
","","","795.8999999761581","","","22","15329","1487","w","elianto","#f73b6a7A"," "," ","1","0","[1646.2000000476837]","1","2","","","15329","129","6","3","lose","go","0"
"pit-trial","251","1629627","0.0-134.0","battery-v0.2","","""event"",""trial"",""time""
""fullscreenenter"",""1"",""4869""
","
","
","""event"",""trial"",""time""
""fullscreenenter"",""1"",""4869""
","
","","","734.6000000238419","","","22","15329","1487","j","elianto","#3366ff99"," "," ","1","+10","[1587.1000000238419]","1","2","","","15329","130","9","1","win","go","0"
"pit-trial","252","1634479","0.0-135.0","battery-v0.2","","""event"",""trial"",""time""
""fullscreenenter"",""1"",""4869""
","
","
","""event"",""trial"",""time""
""fullscreenenter"",""1"",""4869""
","
","","","-1","","","22","15329","1487","e","elianto","#f73b6a7A","-1","-1","1","0","[]","0","2","","","15329","131","7","4","lose","no-go","0"
"pit-trial","253","1639332","0.0-136.0","battery-v0.2","","""event"",""trial"",""time""
""fullscreenenter"",""1"",""4869""
","
","
","""event"",""trial"",""time""
""fullscreenenter"",""1"",""4869""
","
","","","-1","","","22","15329","1487","d","elianto","#3366ff99"," ","-1","0","0","[3696.7999999523163,4136.100000023842]","2","2","","","15329","132","8","1","win","go","0"
"pit-trial","254","1644186","0.0-137.0","battery-v0.2","","""event"",""trial"",""time""
""fullscreenenter"",""1"",""4869""
","
","
","""event"",""trial"",""time""
""fullscreenenter"",""1"",""4869""
","
","","","-1","","","22","15329","1487","e","elianto","#f73b6a7A","-1","-1","1","0","[]","0","2","","","15329","133","7","4","lose","no-go","0"
"pit-trial","255","1649040","0.0-138.0","battery-v0.2","","""event"",""trial"",""time""
""fullscreenenter"",""1"",""4869""
","
","
","""event"",""trial"",""time""
""fullscreenenter"",""1"",""4869""
","
","","","-1","","","22","15329","1487","d","elianto","#3366ff99"," ","-1","0","0","[4119.099999904633]","1","2","","","15329","134","8","1","win","go","0"
"pit-trial","256","1652527","0.0-139.0","battery-v0.2","","""event"",""trial"",""time""
""fullscreenenter"",""1"",""4869""
","
","
","""event"",""trial"",""time""
""fullscreenenter"",""1"",""4869""
","
","","","634.5","","","22","15329","1487","j","elianto","#3366ff99"," "," ","1","+10","[1484.6999999284744]","1","2","","","15329","135","9","1","win","go","0"
"pit-trial","257","1656267","0.0-140.0","battery-v0.2","","""event"",""trial"",""time""
""fullscreenenter"",""1"",""4869""
","
","
","""event"",""trial"",""time""
""fullscreenenter"",""1"",""4869""
","
","","","885.2000000476837","","","22","15329","1487","w","elianto","#f73b6a7A"," "," ","1","0","[1737.3000000715256]","1","2","","","15329","136","6","3","lose","go","0"
"pit-trial","258","1661120","0.0-141.0","battery-v0.2","","""event"",""trial"",""time""
""fullscreenenter"",""1"",""4869""
","
","
","""event"",""trial"",""time""
""fullscreenenter"",""1"",""4869""
","
","","","-1","","","22","15329","1487","e","elianto","#f73b6a7A","-1","-1","1","0","[]","0","2","","","15329","137","7","4","lose","no-go","0"
"pit-trial","259","1664798","0.0-142.0","battery-v0.2","","""event"",""trial"",""time""
""fullscreenenter"",""1"",""4869""
","
","
","""event"",""trial"",""time""
""fullscreenenter"",""1"",""4869""
","
","","","822.1000000238419","","","22","15329","1487","d","elianto","#3366ff99"," "," ","1","+10","[1674.5]","1","2","","","15329","138","8","1","win","go","0"
"pit-trial","260","1668357","0.0-143.0","battery-v0.2","","""event"",""trial"",""time""
""fullscreenenter"",""1"",""4869""
","
","
","""event"",""trial"",""time""
""fullscreenenter"",""1"",""4869""
","
","","","704.6999999284744","","","22","15329","1487","w","elianto","#f73b6a7A"," "," ","1","0","[1557]","1","2","","","15329","139","6","3","lose","go","0"
"pit-trial","261","1671997","0.0-144.0","battery-v0.2","","""event"",""trial"",""time""
""fullscreenenter"",""1"",""4869""
","
","
","""event"",""trial"",""time""
""fullscreenenter"",""1"",""4869""
","
","","","787.5","","","22","15329","1487","j","elianto","#3366ff99"," "," ","1","+10","[1637.7000000476837]","1","2","","","15329","140","9","1","win","go","0"
"pit-instructions","262","2124426","0.0-145.0","battery-v0.2","","""event"",""trial"",""time""
""fullscreenenter"",""1"",""4869""
","
","
","""event"",""trial"",""time""
""fullscreenenter"",""1"",""4869""
","
","","[{""page_index"":0,""viewing_time"":445524.60000002384},{""page_index"":1,""viewing_time"":8071.099999904633}]","453596.1999999285","","","","","","","","","","","","","","","","","","","","","","","",""
"pit-trial","263","2127991","0.0-146.0","battery-v0.2","","""event"",""trial"",""time""
""fullscreenenter"",""1"",""4869""
","
","
","""event"",""trial"",""time""
""fullscreenenter"",""1"",""4869""
","
","","","699.6000000238419","","","22","15329","1487","f","elianto","#3366ff99"," "," ","1","+10","[1550.7000000476837]","1","3","","","15329","141","1","1","win","go","0"
"pit-trial","264","2131598","0.0-147.0","battery-v0.2","","""event"",""trial"",""time""
""fullscreenenter"",""1"",""4869""
","
","
","""event"",""trial"",""time""
""fullscreenenter"",""1"",""4869""
","
","","","737.2999999523163","","","22","15329","1487","n","elianto","#f73b6a7A","-1"," ","0","-10","[1591.1000000238419]","1","3","","","15329","142","0","4","lose","no-go","0"
"pit-trial","265","2135863","0.0-148.0","battery-v0.2","","""event"",""trial"",""time""
""fullscreenenter"",""1"",""4869""
","
","
","""event"",""trial"",""time""
""fullscreenenter"",""1"",""4869""
","
","","","1402.4000000953674","","","22","15329","1487","t","elianto","#f73b6a7A","-1"," ","0","-10","[2254.5]","1","3","","","15329","143","2","4","lose","no-go","0"
"pit-trial","266","2140045","0.0-149.0","battery-v0.2","","""event"",""trial"",""time""
""fullscreenenter"",""1"",""4869""
","
","
","""event"",""trial"",""time""
""fullscreenenter"",""1"",""4869""
","
","","","1319.8999999761581","","","22","15329","1487","b","elianto","#f73b6a7A"," "," ","1","-10","[2171]","1","3","","","15329","144","3","3","lose","go","1"
"pit-trial","267","2143928","0.0-150.0","battery-v0.2","","""event"",""trial"",""time""
