"trial_type","trial_index","time_elapsed","internal_node_id","task_version","subject_id","interactions","blur_events","focus_events","fullscreenenter_events","fullscreenexit_events","success","view_history","rt","responses","num_errors","age","subject","participantId","rune","rune_set","hex","correct","choice","accuracy","outcome","keys","total_keys","block","practice","value","sub","trial","stimulus","robot","valence","action","sham"
"pavlovia","0","3","0.0-0.0","battery-v0.2","","""event"",""trial"",""time""
""fullscreenenter"",""1"",""2566""
","
","
","""event"",""trial"",""time""
""fullscreenenter"",""1"",""2566""
","
","","","","","","","","","","","","","","","","","","","","","","","","","","",""
"fullscreen","1","3544","0.0-1.0","battery-v0.2","","""event"",""trial"",""time""
""fullscreenenter"",""1"",""2566""
","
","
","""event"",""trial"",""time""
""fullscreenenter"",""1"",""2566""
","
","true","","","","","","","","","","","","","","","","","","","","","","","","","",""
"pit-instructions","2","8729","0.0-2.0-0.0","battery-v0.2","","""event"",""trial"",""time""
""fullscreenenter"",""1"",""2566""
","
","
","""event"",""trial"",""time""
""fullscreenenter"",""1"",""2566""
","
","","[{""page_index"":0,""viewing_time"":5179}]","5179.5","","","","","","","","","","","","","","","","","","","","","","","",""
"pit-comprehension","3","12505","0.0-2.0-1.0-0.0","battery-v0.2","","""event"",""trial"",""time""
""fullscreenenter"",""1"",""2566""
","
","
","""event"",""trial"",""time""
""fullscreenenter"",""1"",""2566""
","
","","","3766.199999999255","[""shark""]","0","18","13454","5881","","","","","","","","","","","","","","","","","","",""
"pit-instructions","4","14824","0.0-2.0-1.0-1.0","battery-v0.2","","""event"",""trial"",""time""
""fullscreenenter"",""1"",""2566""
","
","
","""event"",""trial"",""time""
""fullscreenenter"",""1"",""2566""
","
","","[{""page_index"":0,""viewing_time"":2303.199999999255}]","2303.400000002235","","","","","","","","","","","","","","","","","","","","","","","",""
"pit-comprehension","5","18754","0.0-2.0-2.0-0.0","battery-v0.2","","""event"",""trial"",""time""
""fullscreenenter"",""1"",""2566""
","
","
","""event"",""trial"",""time""
""fullscreenenter"",""1"",""2566""
","
","","","3924","[""tiger""]","0","18","13454","5881","","","","","","","","","","","","","","","","","","",""
"pit-instructions","6","19865","0.0-2.0-2.0-1.0","battery-v0.2","","""event"",""trial"",""time""
""fullscreenenter"",""1"",""2566""
","
","
","""event"",""trial"",""time""
""fullscreenenter"",""1"",""2566""
","
","","[{""page_index"":0,""viewing_time"":1104.2000000029802}]","1104.7000000029802","","","","","","","","","","","","","","","","","","","","","","","",""
"pit-instructions","7","125218","0.0-2.0-3.0","battery-v0.2","","""event"",""trial"",""time""
""fullscreenenter"",""1"",""2566""
","
","
","""event"",""trial"",""time""
""fullscreenenter"",""1"",""2566""
","
","","[{""page_index"":0,""viewing_time"":9400.60000000149},{""page_index"":1,""viewing_time"":8297},{""page_index"":2,""viewing_time"":6766.099999997765},{""page_index"":3,""viewing_time"":5723.400000002235},{""page_index"":4,""viewing_time"":7503.5},{""page_index"":5,""viewing_time"":5989},{""page_index"":6,""viewing_time"":7505},{""page_index"":7,""viewing_time"":7510.599999997765},{""page_index"":8,""viewing_time"":6517.300000000745},{""page_index"":9,""viewing_time"":10094.400000002235},{""page_index"":10,""viewing_time"":9357},{""page_index"":11,""viewing_time"":8462.5},{""page_index"":12,""viewing_time"":6094.599999997765},{""page_index"":13,""viewing_time"":6121.10000000149}]","105342.69999999925","","","","","","","","","","","","","","","","","","","","","","","",""
"pit-trial","8","128622","0.0-2.0-4.0-0.0","battery-v0.2","","""event"",""trial"",""time""
""fullscreenenter"",""1"",""2566""
","
","
","""event"",""trial"",""time""
""fullscreenenter"",""1"",""2566""
","
","","","542.1000000014901","","","18","13454","5881","&#9784;","elianto","#FFFFF080"," "," ","1","&#10004","[1394.0999999977648]","1","0","0","","","","","","","",""
"pit-trial","9","132065","0.0-2.0-4.1-0.1","battery-v0.2","","""event"",""trial"",""time""
""fullscreenenter"",""1"",""2566""
","
","
","""event"",""trial"",""time""
""fullscreenenter"",""1"",""2566""
","
","","","580","","","18","13454","5881","&#9784;","elianto","#FFFFF080"," "," ","1","&#10004","[1431.6000000014901]","1","0","0","","","","","","","",""
"pit-trial","10","135547","0.0-2.0-4.2-0.2","battery-v0.2","","""event"",""trial"",""time""
""fullscreenenter"",""1"",""2566""
","
","
","""event"",""trial"",""time""
""fullscreenenter"",""1"",""2566""
","
","","","622.3999999985099","","","18","13454","5881","&#9784;","elianto","#FFFFF080"," "," ","1","&#10004","[1472.699999999255]","1","0","0","","","","","","","",""
"pit-trial","11","138917","0.0-2.0-4.3-0.3","battery-v0.2","","""event"",""trial"",""time""
""fullscreenenter"",""1"",""2566""
","
","
","""event"",""trial"",""time""
""fullscreenenter"",""1"",""2566""
","
","","","508.30000000074506","","","18","13454","5881","&#9784;","elianto","#FFFFF080"," "," ","1","&#10004","[1359]","1","0","0","","","","","","","",""
"pit-trial","12","142260","0.0-2.0-4.4-0.4","battery-v0.2","","""event"",""trial"",""time""
""fullscreenenter"",""1"",""2566""
","
","
","""event"",""trial"",""time""
""fullscreenenter"",""1"",""2566""
","
","","","482.69999999925494","","","18","13454","5881","&#9784;","elianto","#FFFFF080"," "," ","1","&#10004","[1333.5]","1","0","0","","","","","","","",""
"pit-instructions","13","165188","0.0-2.0-5.0","battery-v0.2","","""event"",""trial"",""time""
""fullscreenenter"",""1"",""2566""
","
","
","""event"",""trial"",""time""
""fullscreenenter"",""1"",""2566""
","
","","[{""page_index"":0,""viewing_time"":4980.199999999255},{""page_index"":1,""viewing_time"":6629.5},{""page_index"":2,""viewing_time"":5434.5},{""page_index"":3,""viewing_time"":5871.699999999255}]","22916.5","","","","","","","","","","","","","","","","","","","","","","","",""
"pit-trial","14","170049","0.0-2.0-6.0-0.0","battery-v0.2","","""event"",""trial"",""time""
""fullscreenenter"",""1"",""2566""
","
","
","""event"",""trial"",""time""
""fullscreenenter"",""1"",""2566""
","
","","","-1","","","18","13454","5881","&#9854;","elianto","#FFFFF080","-1","-1","1","&#10004","[]","0","0","1","","","","","","","",""
"pit-trial","15","174911","0.0-2.0-6.1-0.1","battery-v0.2","","""event"",""trial"",""time""
""fullscreenenter"",""1"",""2566""
","
","
","""event"",""trial"",""time""
""fullscreenenter"",""1"",""2566""
","
","","","-1","","","18","13454","5881","&#9854;","elianto","#FFFFF080","-1","-1","1","&#10004","[]","0","0","1","","","","","","","",""
"pit-trial","16","179768","0.0-2.0-6.2-0.2","battery-v0.2","","""event"",""trial"",""time""
""fullscreenenter"",""1"",""2566""
","
","
","""event"",""trial"",""time""
""fullscreenenter"",""1"",""2566""
","
","","","-1","","","18","13454","5881","&#9854;","elianto","#FFFFF080","-1","-1","1","&#10004","[]","0","0","1","","","","","","","",""
"pit-trial","17","184629","0.0-2.0-6.3-0.3","battery-v0.2","","""event"",""trial"",""time""
""fullscreenenter"",""1"",""2566""
","
","
","""event"",""trial"",""time""
""fullscreenenter"",""1"",""2566""
","
","","","-1","","","18","13454","5881","&#9854;","elianto","#FFFFF080","-1","-1","1","&#10004","[]","0","0","1","","","","","","","",""
"pit-trial","18","189490","0.0-2.0-6.4-0.4","battery-v0.2","","""event"",""trial"",""time""
""fullscreenenter"",""1"",""2566""
","
","
","""event"",""trial"",""time""
""fullscreenenter"",""1"",""2566""
","
","","","-1","","","18","13454","5881","&#9854;","elianto","#FFFFF080","-1","-1","1","&#10004","[]","0","0","1","","","","","","","",""
"pit-instructions","19","305203","0.0-2.0-7.0","battery-v0.2","","""event"",""trial"",""time""
""fullscreenenter"",""1"",""2566""
","
","
","""event"",""trial"",""time""
""fullscreenenter"",""1"",""2566""
","
","","[{""page_index"":0,""viewing_time"":6685.199999999255},{""page_index"":1,""viewing_time"":7179.60000000149},{""page_index"":2,""viewing_time"":6740.599999997765},{""page_index"":3,""viewing_time"":6543.800000000745},{""page_index"":4,""viewing_time"":5803.10000000149},{""page_index"":5,""viewing_time"":5253.800000000745},{""page_index"":6,""viewing_time"":5125.39999999851},{""page_index"":7,""viewing_time"":7275.89999999851},{""page_index"":8,""viewing_time"":6710.60000000149},{""page_index"":9,""viewing_time"":6251.800000000745},{""page_index"":10,""viewing_time"":6394.800000000745},{""page_index"":11,""viewing_time"":4240.79999999702},{""page_index"":12,""viewing_time"":6777.300000000745},{""page_index"":13,""viewing_time"":7443.199999999255},{""page_index"":14,""viewing_time"":7196.70000000298},{""page_index"":15,""viewing_time"":6405.5},{""page_index"":16,""viewing_time"":6776.29999999702},{""page_index"":17,""viewing_time"":6897}]","115702","","","","","","","","","","","","","","","","","","","","","","","",""
"pit-trial","20","308723","0.0-2.0-8.0-0.0","battery-v0.2","","""event"",""trial"",""time""
""fullscreenenter"",""1"",""2566""
","
","
","""event"",""trial"",""time""
""fullscreenenter"",""1"",""2566""
","
","","","660","","","18","13454","5881","&#9776;","elianto","#3366ff99"," "," ","1","+10","[1511.1000000014901]","1","0","1","","","","","","","",""
"pit-trial","21","312136","0.0-2.0-8.0-1.0","battery-v0.2","","""event"",""trial"",""time""
""fullscreenenter"",""1"",""2566""
","
","
","""event"",""trial"",""time""
""fullscreenenter"",""1"",""2566""
","
","","","553.6999999992549","","","18","13454","5881","&#9776;","elianto","#3366ff99"," "," ","1","+10","[1404.8999999985099]","1","0","1","","","","","","","",""
"pit-trial","22","315521","0.0-2.0-8.0-2.0","battery-v0.2","","""event"",""trial"",""time""
""fullscreenenter"",""1"",""2566""
","
","
","""event"",""trial"",""time""
""fullscreenenter"",""1"",""2566""
","
","","","525.3999999985099","","","18","13454","5881","&#9776;","elianto","#3366ff99"," "," ","1","+10","[1376.199999999255]","1","0","1","","","","","","","",""
"pit-trial","23","318926","0.0-2.0-8.0-3.0","battery-v0.2","","""event"",""trial"",""time""
""fullscreenenter"",""1"",""2566""
","
","
","""event"",""trial"",""time""
""fullscreenenter"",""1"",""2566""
","
","","","543.3000000007451","","","18","13454","5881","&#9776;","elianto","#3366ff99"," "," ","1","0","[1394.300000000745]","1","0","1","","","","","","","",""
"pit-trial","24","322349","0.0-2.0-8.0-4.0","battery-v0.2","","""event"",""trial"",""time""
""fullscreenenter"",""1"",""2566""
","
","
","""event"",""trial"",""time""
""fullscreenenter"",""1"",""2566""
","
","","","560.6999999992549","","","18","13454","5881","&#9776;","elianto","#3366ff99"," "," ","1","+10","[1411.6000000014901]","1","0","1","","","","","","","",""
"pit-trial","25","325747","0.0-2.0-8.1-0.1","battery-v0.2","","""event"",""trial"",""time""
""fullscreenenter"",""1"",""2566""
","
","
","""event"",""trial"",""time""
""fullscreenenter"",""1"",""2566""
","
","","","536","","","18","13454","5881","&#9776;","elianto","#3366ff99"," "," ","1","+10","[1387.0999999977648]","1","0","1","","","","","","","",""
"pit-trial","26","329120","0.0-2.0-8.1-1.1","battery-v0.2","","""event"",""trial"",""time""
""fullscreenenter"",""1"",""2566""
","
","
","""event"",""trial"",""time""
""fullscreenenter"",""1"",""2566""
","
","","","513.3000000007451","","","18","13454","5881","&#9776;","elianto","#3366ff99"," "," ","1","+10","[1364.199999999255]","1","0","1","","","","","","","",""
"pit-trial","27","332509","0.0-2.0-8.1-2.1","battery-v0.2","","""event"",""trial"",""time""
""fullscreenenter"",""1"",""2566""
","
","
","""event"",""trial"",""time""
""fullscreenenter"",""1"",""2566""
","
","","","528.3999999985099","","","18","13454","5881","&#9776;","elianto","#3366ff99"," "," ","1","+10","[1379.2999999970198]","1","0","1","","","","","","","",""
"pit-trial","28","335865","0.0-2.0-8.1-3.1","battery-v0.2","","""event"",""trial"",""time""
""fullscreenenter"",""1"",""2566""
","
","
","""event"",""trial"",""time""
""fullscreenenter"",""1"",""2566""
","
","","","493.1000000014901","","","18","13454","5881","&#9776;","elianto","#3366ff99"," "," ","1","0","[1345]","1","0","1","","","","","","","",""
"pit-trial","29","339264","0.0-2.0-8.1-4.1","battery-v0.2","","""event"",""trial"",""time""
""fullscreenenter"",""1"",""2566""
","
","
","""event"",""trial"",""time""
""fullscreenenter"",""1"",""2566""
","
","","","537","","","18","13454","5881","&#9776;","elianto","#3366ff99"," "," ","1","+10","[1387.300000000745]","1","0","1","","","","","","","",""
"pit-trial","30","342701","0.0-2.0-8.2-0.2","battery-v0.2","","""event"",""trial"",""time""
""fullscreenenter"",""1"",""2566""
","
","
","""event"",""trial"",""time""
""fullscreenenter"",""1"",""2566""
","
","","","577.1999999992549","","","18","13454","5881","&#9776;","elianto","#3366ff99"," "," ","1","+10","[1428.199999999255]","1","0","1","","","","","","","",""
"pit-trial","31","346029","0.0-2.0-8.2-1.2","battery-v0.2","","""event"",""trial"",""time""
""fullscreenenter"",""1"",""2566""
","
","
","""event"",""trial"",""time""
""fullscreenenter"",""1"",""2566""
","
","","","465.69999999925494","","","18","13454","5881","&#9776;","elianto","#3366ff99"," "," ","1","+10","[1316.5999999977648]","1","0","1","","","","","","","",""
"pit-trial","32","349388","0.0-2.0-8.2-2.2","battery-v0.2","","""event"",""trial"",""time""
""fullscreenenter"",""1"",""2566""
","
","
","""event"",""trial"",""time""
""fullscreenenter"",""1"",""2566""
","
","","","499.1000000014901","","","18","13454","5881","&#9776;","elianto","#3366ff99"," "," ","1","+10","[1349.699999999255]","1","0","1","","","","","","","",""
"pit-trial","33","352720","0.0-2.0-8.2-3.2","battery-v0.2","","""event"",""trial"",""time""
""fullscreenenter"",""1"",""2566""
","
","
","""event"",""trial"",""time""
""fullscreenenter"",""1"",""2566""
","
","","","471.8999999985099","","","18","13454","5881","&#9776;","elianto","#3366ff99"," "," ","1","0","[1322.199999999255]","1","0","1","","","","","","","",""
"pit-trial","34","356089","0.0-2.0-8.2-4.2","battery-v0.2","","""event"",""trial"",""time""
""fullscreenenter"",""1"",""2566""
","
","
","""event"",""trial"",""time""
""fullscreenenter"",""1"",""2566""
","
","","","508.69999999925494","","","18","13454","5881","&#9776;","elianto","#3366ff99"," "," ","1","+10","[1359.5]","1","0","1","","","","","","","",""
"call-function","35","356098","0.0-2.0-9.0","battery-v0.2","","""event"",""trial"",""time""
""fullscreenenter"",""1"",""2566""
","
","
","""event"",""trial"",""time""
""fullscreenenter"",""1"",""2566""
","
","","","","","","","","","","","","","","","","","","","","","","","","","","",""
"pit-instructions","36","396950","0.0-2.0-10.0","battery-v0.2","","""event"",""trial"",""time""
""fullscreenenter"",""1"",""2566""
","
","
","""event"",""trial"",""time""
""fullscreenenter"",""1"",""2566""
","
","","[{""page_index"":0,""viewing_time"":7289.099999997765},{""page_index"":1,""viewing_time"":6694.400000002235},{""page_index"":2,""viewing_time"":9191.39999999851},{""page_index"":3,""viewing_time"":10333.900000002235},{""page_index"":4,""viewing_time"":7341.099999997765}]","40850.5","","","","","","","","","","","","","","","","","","","","","","","",""
"pit-trial","37","400399","0.0-2.0-11.0-0.0","battery-v0.2","","""event"",""trial"",""time""
""fullscreenenter"",""1"",""2566""
","
","
","""event"",""trial"",""time""
""fullscreenenter"",""1"",""2566""
","
","","","587.5","","","18","13454","5881","&#9761;","elianto","#3366ff99","-1"," ","0","0","[1438.800000000745]","1","0","2","","","","","","","",""
"pit-trial","38","405260","0.0-2.0-11.0-1.0","battery-v0.2","","""event"",""trial"",""time""
""fullscreenenter"",""1"",""2566""
","
","
","""event"",""trial"",""time""
""fullscreenenter"",""1"",""2566""
","
","","","-1","","","18","13454","5881","&#9761;","elianto","#3366ff99","-1","-1","1","+10","[]","0","0","2","","","","","","","",""
"pit-trial","39","410122","0.0-2.0-11.0-2.0","battery-v0.2","","""event"",""trial"",""time""
""fullscreenenter"",""1"",""2566""
","
","
","""event"",""trial"",""time""
""fullscreenenter"",""1"",""2566""
","
","","","-1","","","18","13454","5881","&#9761;","elianto","#3366ff99","-1","-1","1","+10","[]","0","0","2","","","","","","","",""
"pit-trial","40","414984","0.0-2.0-11.0-3.0","battery-v0.2","","""event"",""trial"",""time""
""fullscreenenter"",""1"",""2566""
","
","
","""event"",""trial"",""time""
""fullscreenenter"",""1"",""2566""
","
","","","-1","","","18","13454","5881","&#9761;","elianto","#3366ff99","-1","-1","1","0","[]","0","0","2","","","","","","","",""
"pit-trial","41","419845","0.0-2.0-11.0-4.0","battery-v0.2","","""event"",""trial"",""time""
""fullscreenenter"",""1"",""2566""
","
","
","""event"",""trial"",""time""
""fullscreenenter"",""1"",""2566""
","
","","","-1","","","18","13454","5881","&#9761;","elianto","#3366ff99","-1","-1","1","+10","[]","0","0","2","","","","","","","",""
"pit-trial","42","424707","0.0-2.0-11.1-0.1","battery-v0.2","","""event"",""trial"",""time""
""fullscreenenter"",""1"",""2566""
","
","
","""event"",""trial"",""time""
""fullscreenenter"",""1"",""2566""
","
","","","-1","","","18","13454","5881","&#9761;","elianto","#3366ff99","-1","-1","1","+10","[]","0","0","2","","","","","","","",""
"pit-trial","43","429570","0.0-2.0-11.1-1.1","battery-v0.2","","""event"",""trial"",""time""
""fullscreenenter"",""1"",""2566""
","
","
","""event"",""trial"",""time""
""fullscreenenter"",""1"",""2566""
","
","","","-1","","","18","13454","5881","&#9761;","elianto","#3366ff99","-1","-1","1","+10","[]","0","0","2","","","","","","","",""
"pit-trial","44","434432","0.0-2.0-11.1-2.1","battery-v0.2","","""event"",""trial"",""time""
""fullscreenenter"",""1"",""2566""
","
","
","""event"",""trial"",""time""
""fullscreenenter"",""1"",""2566""
","
","","","-1","","","18","13454","5881","&#9761;","elianto","#3366ff99","-1","-1","1","+10","[]","0","0","2","","","","","","","",""
"pit-trial","45","439292","0.0-2.0-11.1-3.1","battery-v0.2","","""event"",""trial"",""time""
""fullscreenenter"",""1"",""2566""
","
","
","""event"",""trial"",""time""
""fullscreenenter"",""1"",""2566""
","
","","","-1","","","18","13454","5881","&#9761;","elianto","#3366ff99","-1","-1","1","0","[]","0","0","2","","","","","","","",""
"pit-trial","46","444155","0.0-2.0-11.1-4.1","battery-v0.2","","""event"",""trial"",""time""
""fullscreenenter"",""1"",""2566""
","
","
","""event"",""trial"",""time""
""fullscreenenter"",""1"",""2566""
","
","","","-1","","","18","13454","5881","&#9761;","elianto","#3366ff99","-1","-1","1","+10","[]","0","0","2","","","","","","","",""
"pit-trial","47","449017","0.0-2.0-11.2-0.2","battery-v0.2","","""event"",""trial"",""time""
""fullscreenenter"",""1"",""2566""
","
","
","""event"",""trial"",""time""
""fullscreenenter"",""1"",""2566""
","
","","","-1","","","18","13454","5881","&#9761;","elianto","#3366ff99","-1","-1","1","+10","[]","0","0","2","","","","","","","",""
"pit-trial","48","453878","0.0-2.0-11.2-1.2","battery-v0.2","","""event"",""trial"",""time""
""fullscreenenter"",""1"",""2566""
","
","
","""event"",""trial"",""time""
""fullscreenenter"",""1"",""2566""
","
","","","-1","","","18","13454","5881","&#9761;","elianto","#3366ff99","-1","-1","1","+10","[]","0","0","2","","","","","","","",""
"pit-trial","49","458736","0.0-2.0-11.2-2.2","battery-v0.2","","""event"",""trial"",""time""
""fullscreenenter"",""1"",""2566""
","
","
","""event"",""trial"",""time""
""fullscreenenter"",""1"",""2566""
","
","","","-1","","","18","13454","5881","&#9761;","elianto","#3366ff99","-1","-1","1","+10","[]","0","0","2","","","","","","","",""
"pit-trial","50","463596","0.0-2.0-11.2-3.2","battery-v0.2","","""event"",""trial"",""time""
""fullscreenenter"",""1"",""2566""
","
","
","""event"",""trial"",""time""
""fullscreenenter"",""1"",""2566""
","
","","","-1","","","18","13454","5881","&#9761;","elianto","#3366ff99","-1","-1","1","0","[]","0","0","2","","","","","","","",""
"pit-trial","51","468456","0.0-2.0-11.2-4.2","battery-v0.2","","""event"",""trial"",""time""
""fullscreenenter"",""1"",""2566""
","
","
","""event"",""trial"",""time""
""fullscreenenter"",""1"",""2566""
","
","","","-1","","","18","13454","5881","&#9761;","elianto","#3366ff99","-1","-1","1","+10","[]","0","0","2","","","","","","","",""
"pit-trial","52","473317","0.0-2.0-11.3-0.3","battery-v0.2","","""event"",""trial"",""time""
""fullscreenenter"",""1"",""2566""
","
","
","""event"",""trial"",""time""
""fullscreenenter"",""1"",""2566""
","
","","","-1","","","18","13454","5881","&#9761;","elianto","#3366ff99","-1","-1","1","+10","[]","0","0","2","","","","","","","",""
"pit-trial","53","478176","0.0-2.0-11.3-1.3","battery-v0.2","","""event"",""trial"",""time""
""fullscreenenter"",""1"",""2566""
","
","
","""event"",""trial"",""time""
""fullscreenenter"",""1"",""2566""
","
","","","-1","","","18","13454","5881","&#9761;","elianto","#3366ff99","-1","-1","1","+10","[]","0","0","2","","","","","","","",""
"pit-trial","54","483037","0.0-2.0-11.3-2.3","battery-v0.2","","""event"",""trial"",""time""
""fullscreenenter"",""1"",""2566""
","
","
","""event"",""trial"",""time""
""fullscreenenter"",""1"",""2566""
","
","","","-1","","","18","13454","5881","&#9761;","elianto","#3366ff99","-1","-1","1","+10","[]","0","0","2","","","","","","","",""
"pit-trial","55","487898","0.0-2.0-11.3-3.3","battery-v0.2","","""event"",""trial"",""time""
""fullscreenenter"",""1"",""2566""
","
","
","""event"",""trial"",""time""
""fullscreenenter"",""1"",""2566""
","
","","","-1","","","18","13454","5881","&#9761;","elianto","#3366ff99","-1","-1","1","0","[]","0","0","2","","","","","","","",""
"pit-trial","56","492757","0.0-2.0-11.3-4.3","battery-v0.2","","""event"",""trial"",""time""
""fullscreenenter"",""1"",""2566""
","
","
","""event"",""trial"",""time""
""fullscreenenter"",""1"",""2566""
","
","","","-1","","","18","13454","5881","&#9761;","elianto","#3366ff99","-1","-1","1","+10","[]","0","0","2","","","","","","","",""
"call-function","57","492764","0.0-2.0-12.0","battery-v0.2","","""event"",""trial"",""time""
""fullscreenenter"",""1"",""2566""
","
","
","""event"",""trial"",""time""
""fullscreenenter"",""1"",""2566""
","
","","","","","","","","","","","","","","","","","","","","","","","","","","",""
"pit-instructions","58","524674","0.0-2.0-13.0","battery-v0.2","","""event"",""trial"",""time""
""fullscreenenter"",""1"",""2566""
","
","
","""event"",""trial"",""time""
""fullscreenenter"",""1"",""2566""
","
","","[{""page_index"":0,""viewing_time"":4858.60000000149},{""page_index"":1,""viewing_time"":6824.300000000745},{""page_index"":2,""viewing_time"":4607.599999997765},{""page_index"":3,""viewing_time"":10545.900000002235},{""page_index"":4,""viewing_time"":5072}]","31908.900000002235","","","","","","","","","","","","","","","","","","","","","","","",""
"pit-trial","59","528178","0.0-2.0-14.0-0.0","battery-v0.2","","""event"",""trial"",""time""
""fullscreenenter"",""1"",""2566""
","
","
","""event"",""trial"",""time""
""fullscreenenter"",""1"",""2566""
","
","","","644.5999999977648","","","18","13454","5881","&#9826;","elianto","#f73b6a7A","-1"," ","0","-10","[1495.800000000745]","1","0","3","","","","","","","",""
"pit-trial","60","533040","0.0-2.0-14.0-1.0","battery-v0.2","","""event"",""trial"",""time""
""fullscreenenter"",""1"",""2566""
","
","
","""event"",""trial"",""time""
""fullscreenenter"",""1"",""2566""
","
","","","-1","","","18","13454","5881","&#9826;","elianto","#f73b6a7A","-1","-1","1","0","[]","0","0","3","","","","","","","",""
"pit-trial","61","537899","0.0-2.0-14.0-2.0","battery-v0.2","","""event"",""trial"",""time""
""fullscreenenter"",""1"",""2566""
","
","
","""event"",""trial"",""time""
""fullscreenenter"",""1"",""2566""
","
","","","-1","","","18","13454","5881","&#9826;","elianto","#f73b6a7A","-1","-1","1","0","[]","0","0","3","","","","","","","",""
"pit-trial","62","542759","0.0-2.0-14.0-3.0","battery-v0.2","","""event"",""trial"",""time""
""fullscreenenter"",""1"",""2566""
","
","
","""event"",""trial"",""time""
""fullscreenenter"",""1"",""2566""
","
","","","-1","","","18","13454","5881","&#9826;","elianto","#f73b6a7A","-1","-1","1","-10","[]","0","0","3","","","","","","","",""
"pit-trial","63","547619","0.0-2.0-14.0-4.0","battery-v0.2","","""event"",""trial"",""time""
""fullscreenenter"",""1"",""2566""
","
","
","""event"",""trial"",""time""
""fullscreenenter"",""1"",""2566""
","
","","","-1","","","18","13454","5881","&#9826;","elianto","#f73b6a7A","-1","-1","1","0","[]","0","0","3","","","","","","","",""
"pit-trial","64","552482","0.0-2.0-14.1-0.1","battery-v0.2","","""event"",""trial"",""time""
""fullscreenenter"",""1"",""2566""
","
","
","""event"",""trial"",""time""
""fullscreenenter"",""1"",""2566""
","
","","","-1","","","18","13454","5881","&#9826;","elianto","#f73b6a7A","-1","-1","1","0","[]","0","0","3","","","","","","","",""
"pit-trial","65","557342","0.0-2.0-14.1-1.1","battery-v0.2","","""event"",""trial"",""time""
""fullscreenenter"",""1"",""2566""
","
","
","""event"",""trial"",""time""
""fullscreenenter"",""1"",""2566""
","
","","","-1","","","18","13454","5881","&#9826;","elianto","#f73b6a7A","-1","-1","1","0","[]","0","0","3","","","","","","","",""
"pit-trial","66","562205","0.0-2.0-14.1-2.1","battery-v0.2","","""event"",""trial"",""time""
""fullscreenenter"",""1"",""2566""
","
","
","""event"",""trial"",""time""
""fullscreenenter"",""1"",""2566""
","
","","","-1","","","18","13454","5881","&#9826;","elianto","#f73b6a7A","-1","-1","1","0","[]","0","0","3","","","","","","","",""
"pit-trial","67","567068","0.0-2.0-14.1-3.1","battery-v0.2","","""event"",""trial"",""time""
""fullscreenenter"",""1"",""2566""
","
","
","""event"",""trial"",""time""
""fullscreenenter"",""1"",""2566""
","
","","","-1","","","18","13454","5881","&#9826;","elianto","#f73b6a7A","-1","-1","1","-10","[]","0","0","3","","","","","","","",""
"pit-trial","68","571930","0.0-2.0-14.1-4.1","battery-v0.2","","""event"",""trial"",""time""
""fullscreenenter"",""1"",""2566""
","
","
","""event"",""trial"",""time""
""fullscreenenter"",""1"",""2566""
","
","","","-1","","","18","13454","5881","&#9826;","elianto","#f73b6a7A","-1","-1","1","0","[]","0","0","3","","","","","","","",""
"pit-trial","69","576787","0.0-2.0-14.2-0.2","battery-v0.2","","""event"",""trial"",""time""
""fullscreenenter"",""1"",""2566""
","
","
","""event"",""trial"",""time""
""fullscreenenter"",""1"",""2566""
","
","","","-1","","","18","13454","5881","&#9826;","elianto","#f73b6a7A","-1","-1","1","0","[]","0","0","3","","","","","","","",""
"pit-trial","70","581649","0.0-2.0-14.2-1.2","battery-v0.2","","""event"",""trial"",""time""
""fullscreenenter"",""1"",""2566""
","
","
","""event"",""trial"",""time""
""fullscreenenter"",""1"",""2566""
","
","","","-1","","","18","13454","5881","&#9826;","elianto","#f73b6a7A","-1","-1","1","0","[]","0","0","3","","","","","","","",""
"pit-trial","71","586509","0.0-2.0-14.2-2.2","battery-v0.2","","""event"",""trial"",""time""
""fullscreenenter"",""1"",""2566""
","
","
","""event"",""trial"",""time""
""fullscreenenter"",""1"",""2566""
","
","","","-1","","","18","13454","5881","&#9826;","elianto","#f73b6a7A","-1","-1","1","0","[]","0","0","3","","","","","","","",""
"pit-trial","72","591372","0.0-2.0-14.2-3.2","battery-v0.2","","""event"",""trial"",""time""
""fullscreenenter"",""1"",""2566""
","
","
","""event"",""trial"",""time""
""fullscreenenter"",""1"",""2566""
","
","","","-1","","","18","13454","5881","&#9826;","elianto","#f73b6a7A","-1","-1","1","-10","[]","0","0","3","","","","","","","",""
"pit-trial","73","596233","0.0-2.0-14.2-4.2","battery-v0.2","","""event"",""trial"",""time""
""fullscreenenter"",""1"",""2566""
","
","
","""event"",""trial"",""time""
""fullscreenenter"",""1"",""2566""
","
","","","-1","","","18","13454","5881","&#9826;","elianto","#f73b6a7A","-1","-1","1","0","[]","0","0","3","","","","","","","",""
"pit-trial","74","601093","0.0-2.0-14.3-0.3","battery-v0.2","","""event"",""trial"",""time""
""fullscreenenter"",""1"",""2566""
","
","
","""event"",""trial"",""time""
""fullscreenenter"",""1"",""2566""
","
","","","-1","","","18","13454","5881","&#9826;","elianto","#f73b6a7A","-1","-1","1","0","[]","0","0","3","","","","","","","",""
"pit-trial","75","605955","0.0-2.0-14.3-1.3","battery-v0.2","","""event"",""trial"",""time""
""fullscreenenter"",""1"",""2566""
","
","
","""event"",""trial"",""time""
""fullscreenenter"",""1"",""2566""
","
","","","-1","","","18","13454","5881","&#9826;","elianto","#f73b6a7A","-1","-1","1","0","[]","0","0","3","","","","","","","",""
"pit-trial","76","610818","0.0-2.0-14.3-2.3","battery-v0.2","","""event"",""trial"",""time""
""fullscreenenter"",""1"",""2566""
","
","
","""event"",""trial"",""time""
""fullscreenenter"",""1"",""2566""
","
","","","-1","","","18","13454","5881","&#9826;","elianto","#f73b6a7A","-1","-1","1","0","[]","0","0","3","","","","","","","",""
"pit-trial","77","615679","0.0-2.0-14.3-3.3","battery-v0.2","","""event"",""trial"",""time""
""fullscreenenter"",""1"",""2566""
","
","
","""event"",""trial"",""time""
""fullscreenenter"",""1"",""2566""
","
","","","-1","","","18","13454","5881","&#9826;","elianto","#f73b6a7A","-1","-1","1","-10","[]","0","0","3","","","","","","","",""
"pit-trial","78","620539","0.0-2.0-14.3-4.3","battery-v0.2","","""event"",""trial"",""time""
""fullscreenenter"",""1"",""2566""
","
","
","""event"",""trial"",""time""
""fullscreenenter"",""1"",""2566""
","
","","","-1","","","18","13454","5881","&#9826;","elianto","#f73b6a7A","-1","-1","1","0","[]","0","0","3","","","","","","","",""
"call-function","79","620548","0.0-2.0-15.0","battery-v0.2","","""event"",""trial"",""time""
""fullscreenenter"",""1"",""2566""
","
","
","""event"",""trial"",""time""
""fullscreenenter"",""1"",""2566""
","
","","","","","","","","","","","","","","","","","","","","","","","","","","",""
"pit-instructions","80","651272","0.0-2.0-16.0","battery-v0.2","","""event"",""trial"",""time""
""fullscreenenter"",""1"",""2566""
","
","
","""event"",""trial"",""time""
""fullscreenenter"",""1"",""2566""
","
","","[{""page_index"":0,""viewing_time"":7233.300000000745},{""page_index"":1,""viewing_time"":12720.29999999702},{""page_index"":2,""viewing_time"":5088.60000000149},{""page_index"":3,""viewing_time"":5680.60000000149}]","30723.199999999255","","","","","","","","","","","","","","","","","","","","","","","",""
"pit-trial","81","654535","0.0-2.0-17.0-0.0","battery-v0.2","","""event"",""trial"",""time""
""fullscreenenter"",""1"",""2566""
","
","
","""event"",""trial"",""time""
""fullscreenenter"",""1"",""2566""
","
","","","401.79999999701977","","","18","13454","5881","&#9789;","elianto","#f73b6a7A"," "," ","1","0","[1252.9000000022352]","1","0","4","","","","","","","",""
"pit-trial","82","657883","0.0-2.0-17.0-1.0","battery-v0.2","","""event"",""trial"",""time""
""fullscreenenter"",""1"",""2566""
","
","
","""event"",""trial"",""time""
""fullscreenenter"",""1"",""2566""
","
","","","487.30000000074506","","","18","13454","5881","&#9789;","elianto","#f73b6a7A"," "," ","1","0","[1337.5]","1","0","4","","","","","","","",""
"pit-trial","83","660942","0.0-2.0-17.0-2.0","battery-v0.2","","""event"",""trial"",""time""
""fullscreenenter"",""1"",""2566""
","
","
","""event"",""trial"",""time""
""fullscreenenter"",""1"",""2566""
","
","","","200.80000000074506","","","18","13454","5881","&#9789;","elianto","#f73b6a7A"," "," ","1","0","[1051]","1","0","4","","","","","","","",""
"pit-trial","84","664190","0.0-2.0-17.0-3.0","battery-v0.2","","""event"",""trial"",""time""
""fullscreenenter"",""1"",""2566""
","
","
","""event"",""trial"",""time""
""fullscreenenter"",""1"",""2566""
","
","","","387.19999999925494","","","18","13454","5881","&#9789;","elianto","#f73b6a7A"," "," ","1","-10","[1238.800000000745]","1","0","4","","","","","","","",""
"pit-trial","85","667408","0.0-2.0-17.0-4.0","battery-v0.2","","""event"",""trial"",""time""
""fullscreenenter"",""1"",""2566""
","
","
","""event"",""trial"",""time""
""fullscreenenter"",""1"",""2566""
","
","","","359.30000000074506","","","18","13454","5881","&#9789;","elianto","#f73b6a7A"," "," ","1","0","[1210.5]","1","0","4","","","","","","","",""
"pit-trial","86","670727","0.0-2.0-17.1-0.1","battery-v0.2","","""event"",""trial"",""time""
""fullscreenenter"",""1"",""2566""
","
","
","""event"",""trial"",""time""
""fullscreenenter"",""1"",""2566""
","
","","","456.6000000014901","","","18","13454","5881","&#9789;","elianto","#f73b6a7A"," "," ","1","0","[1307.699999999255]","1","0","4","","","","","","","",""
"pit-trial","87","674152","0.0-2.0-17.1-1.1","battery-v0.2","","""event"",""trial"",""time""
""fullscreenenter"",""1"",""2566""
","
","
","""event"",""trial"",""time""
""fullscreenenter"",""1"",""2566""
","
","","","564.6999999992549","","","18","13454","5881","&#9789;","elianto","#f73b6a7A"," "," ","1","0","[1416.1000000014901]","1","0","4","","","","","","","",""
"pit-trial","88","677591","0.0-2.0-17.1-2.1","battery-v0.2","","""event"",""trial"",""time""
""fullscreenenter"",""1"",""2566""
","
","
","""event"",""trial"",""time""
""fullscreenenter"",""1"",""2566""
","
","","","579.1000000014901","","","18","13454","5881","&#9789;","elianto","#f73b6a7A"," "," ","1","0","[1429.5]","1","0","4","","","","","","","",""
"pit-trial","89","680725","0.0-2.0-17.1-3.1","battery-v0.2","","""event"",""trial"",""time""
""fullscreenenter"",""1"",""2566""
","
","
","""event"",""trial"",""time""
""fullscreenenter"",""1"",""2566""
","
","","","275.0999999977648","","","18","13454","5881","&#9789;","elianto","#f73b6a7A"," "," ","1","-10","[1126.300000000745]","1","0","4","","","","","","","",""
"pit-trial","90","684071","0.0-2.0-17.1-4.1","battery-v0.2","","""event"",""trial"",""time""
""fullscreenenter"",""1"",""2566""
","
","
","""event"",""trial"",""time""
""fullscreenenter"",""1"",""2566""
","
","","","485.3999999985099","","","18","13454","5881","&#9789;","elianto","#f73b6a7A"," "," ","1","0","[1336.5]","1","0","4","","","","","","","",""
"pit-trial","91","687523","0.0-2.0-17.2-0.2","battery-v0.2","","""event"",""trial"",""time""
""fullscreenenter"",""1"",""2566""
","
","
","""event"",""trial"",""time""
""fullscreenenter"",""1"",""2566""
","
","","","589.8000000007451","","","18","13454","5881","&#9789;","elianto","#f73b6a7A"," "," ","1","0","[1441]","1","0","4","","","","","","","",""
"pit-trial","92","690798","0.0-2.0-17.2-1.2","battery-v0.2","","""event"",""trial"",""time""
""fullscreenenter"",""1"",""2566""
","
","
","""event"",""trial"",""time""
""fullscreenenter"",""1"",""2566""
","
","","","414.1000000014901","","","18","13454","5881","&#9789;","elianto","#f73b6a7A"," "," ","1","0","[1265.1000000014901]","1","0","4","","","","","","","",""
"pit-trial","93","693841","0.0-2.0-17.2-2.2","battery-v0.2","","""event"",""trial"",""time""
""fullscreenenter"",""1"",""2566""
","
","
","""event"",""trial"",""time""
""fullscreenenter"",""1"",""2566""
","
","","","182.40000000223517","","","18","13454","5881","&#9789;","elianto","#f73b6a7A"," "," ","1","0","[1032.9000000022352]","1","0","4","","","","","","","",""
"pit-trial","94","697088","0.0-2.0-17.2-3.2","battery-v0.2","","""event"",""trial"",""time""
""fullscreenenter"",""1"",""2566""
","
","
","""event"",""trial"",""time""
""fullscreenenter"",""1"",""2566""
","
","","","390.5","","","18","13454","5881","&#9789;","elianto","#f73b6a7A"," "," ","1","-10","[1241.699999999255]","1","0","4","","","","","","","",""
"pit-trial","95","699981","0.0-2.0-17.2-4.2","battery-v0.2","","""event"",""trial"",""time""
""fullscreenenter"",""1"",""2566""
","
","
","""event"",""trial"",""time""
""fullscreenenter"",""1"",""2566""
","
","","","31.899999998509884","","","18","13454","5881","&#9789;","elianto","#f73b6a7A"," "," ","1","0","[883]","1","0","4","","","","","","","",""
"pit-trial","96","703382","0.0-2.0-17.3-0.3","battery-v0.2","","""event"",""trial"",""time""
""fullscreenenter"",""1"",""2566""
","
","
","""event"",""trial"",""time""
""fullscreenenter"",""1"",""2566""
","
","","","540.5","","","18","13454","5881","&#9789;","elianto","#f73b6a7A"," "," ","1","0","[1390.5]","1","0","4","","","","","","","",""
"pit-trial","97","706927","0.0-2.0-17.3-1.3","battery-v0.2","","""event"",""trial"",""time""
""fullscreenenter"",""1"",""2566""
","
","
","""event"",""trial"",""time""
""fullscreenenter"",""1"",""2566""
","
","","","685.3000000007451","","","18","13454","5881","&#9789;","elianto","#f73b6a7A"," "," ","1","0","[1536]","1","0","4","","","","","","","",""
"pit-trial","98","710286","0.0-2.0-17.3-2.3","battery-v0.2","","""event"",""trial"",""time""
""fullscreenenter"",""1"",""2566""
","
","
","""event"",""trial"",""time""
""fullscreenenter"",""1"",""2566""
","
","","","496.19999999925494","","","18","13454","5881","&#9789;","elianto","#f73b6a7A"," "," ","1","0","[1348.2000000029802]","1","0","4","","","","","","","",""
"pit-trial","99","713626","0.0-2.0-17.3-3.3","battery-v0.2","","""event"",""trial"",""time""
""fullscreenenter"",""1"",""2566""
","
","
","""event"",""trial"",""time""
""fullscreenenter"",""1"",""2566""
","
","","","480","","","18","13454","5881","&#9789;","elianto","#f73b6a7A"," "," ","1","-10","[1331.0999999977648]","1","0","4","","","","","","","",""
"pit-trial","100","716950","0.0-2.0-17.3-4.3","battery-v0.2","","""event"",""trial"",""time""
""fullscreenenter"",""1"",""2566""
","
","
","""event"",""trial"",""time""
""fullscreenenter"",""1"",""2566""
","
","","","463","","","18","13454","5881","&#9789;","elianto","#f73b6a7A"," "," ","1","0","[1314.199999999255]","1","0","4","","","","","","","",""
"call-function","101","716952","0.0-2.0-18.0","battery-v0.2","","""event"",""trial"",""time""
""fullscreenenter"",""1"",""2566""
","
","
","""event"",""trial"",""time""
""fullscreenenter"",""1"",""2566""
","
","","","","","","","","","","","","","","","","","","","","","","","","","","",""
"pit-instructions","102","803179","0.0-2.0-19.0","battery-v0.2","","""event"",""trial"",""time""
""fullscreenenter"",""1"",""2566""
","
","
","""event"",""trial"",""time""
""fullscreenenter"",""1"",""2566""
","
","","[{""page_index"":0,""viewing_time"":17099.89999999851},{""page_index"":1,""viewing_time"":6150.20000000298},{""page_index"":2,""viewing_time"":15056.29999999702},{""page_index"":3,""viewing_time"":8270.800000000745},{""page_index"":4,""viewing_time"":9913.900000002235},{""page_index"":5,""viewing_time"":8534.199999999255},{""page_index"":6,""viewing_time"":8662.39999999851},{""page_index"":7,""viewing_time"":6820.10000000149},{""page_index"":8,""viewing_time"":5717.199999999255}]","86225.60000000149","","","","","","","","","","","","","","","","","","","","","","","",""
"pit-comprehension","103","808299","0.0-2.0-20.0-0.0","battery-v0.2","","""event"",""trial"",""time""
""fullscreenenter"",""1"",""2566""
","
","
","""event"",""trial"",""time""
""fullscreenenter"",""1"",""2566""
","
","","","5111.300000000745","[""SPACE""]","0","18","13454","5881","","","","","","","","","","","","","","","","","","",""
"pit-instructions","104","811617","0.0-2.0-20.0-1.0","battery-v0.2","","""event"",""trial"",""time""
""fullscreenenter"",""1"",""2566""
","
","
","""event"",""trial"",""time""
""fullscreenenter"",""1"",""2566""
","
","","[{""page_index"":0,""viewing_time"":3288.10000000149}]","3288.5","","","","","","","","","","","","","","","","","","","","","","","",""
"pit-comprehension","105","819017","0.0-2.0-21.0-0.0","battery-v0.2","","""event"",""trial"",""time""
""fullscreenenter"",""1"",""2566""
","
","
","""event"",""trial"",""time""
""fullscreenenter"",""1"",""2566""
","
","","","7388.800000000745","[""10""]","0","18","13454","5881","","","","","","","","","","","","","","","","","","",""
"pit-instructions","106","821190","0.0-2.0-21.0-1.0","battery-v0.2","","""event"",""trial"",""time""
""fullscreenenter"",""1"",""2566""
","
","
","""event"",""trial"",""time""
""fullscreenenter"",""1"",""2566""
","
","","[{""page_index"":0,""viewing_time"":2144.7000000029802}]","2145","","","","","","","","","","","","","","","","","","","","","","","",""
"pit-comprehension","107","829216","0.0-2.0-22.0-0.0","battery-v0.2","","""event"",""trial"",""time""
""fullscreenenter"",""1"",""2566""
","
","
","""event"",""trial"",""time""
""fullscreenenter"",""1"",""2566""
","
","","","8015.89999999851","[""0""]","0","18","13454","5881","","","","","","","","","","","","","","","","","","",""
"pit-instructions","108","830699","0.0-2.0-22.0-1.0","battery-v0.2","","""event"",""trial"",""time""
""fullscreenenter"",""1"",""2566""
","
","
","""event"",""trial"",""time""
""fullscreenenter"",""1"",""2566""
","
","","[{""page_index"":0,""viewing_time"":1453.6000000014901}]","1454","","","","","","","","","","","","","","","","","","","","","","","",""
"pit-comprehension","109","839559","0.0-2.0-23.0-0.0","battery-v0.2","","""event"",""trial"",""time""
""fullscreenenter"",""1"",""2566""
","
","
","""event"",""trial"",""time""
""fullscreenenter"",""1"",""2566""
","
","","","8850.60000000149","[""True""]","0","18","13454","5881","","","","","","","","","","","","","","","","","","",""
"pit-instructions","110","840929","0.0-2.0-23.0-1.0","battery-v0.2","","""event"",""trial"",""time""
""fullscreenenter"",""1"",""2566""
","
","
","""event"",""trial"",""time""
""fullscreenenter"",""1"",""2566""
","
","","[{""page_index"":0,""viewing_time"":1342.9000000022352}]","1343.300000000745","","","","","","","","","","","","","","","","","","","","","","","",""
"pit-comprehension","111","848655","0.0-2.0-24.0-0.0","battery-v0.2","","""event"",""trial"",""time""
""fullscreenenter"",""1"",""2566""
","
","
","""event"",""trial"",""time""
""fullscreenenter"",""1"",""2566""
","
","","","7716.300000000745","[""True""]","0","18","13454","5881","","","","","","","","","","","","","","","","","","",""
"pit-instructions","112","850066","0.0-2.0-24.0-1.0","battery-v0.2","","""event"",""trial"",""time""
""fullscreenenter"",""1"",""2566""
","
","
","""event"",""trial"",""time""
""fullscreenenter"",""1"",""2566""
","
","","[{""page_index"":0,""viewing_time"":1382.5}]","1382.8999999985099","","","","","","","","","","","","","","","","","","","","","","","",""
"pit-comprehension","113","856484","0.0-2.0-25.0-0.0","battery-v0.2","","""event"",""trial"",""time""
""fullscreenenter"",""1"",""2566""
","
","
","""event"",""trial"",""time""
""fullscreenenter"",""1"",""2566""
","
","","","6407.29999999702","[""True""]","0","18","13454","5881","","","","","","","","","","","","","","","","","","",""
"pit-instructions","114","857789","0.0-2.0-25.0-1.0","battery-v0.2","","""event"",""trial"",""time""
""fullscreenenter"",""1"",""2566""
","
","
","""event"",""trial"",""time""
""fullscreenenter"",""1"",""2566""
","
","","[{""page_index"":0,""viewing_time"":1275.0999999977648}]","1275.3999999985099","","","","","","","","","","","","","","","","","","","","","","","",""
"pit-comprehension","115","863066","0.0-2.0-26.0-0.0","battery-v0.2","","""event"",""trial"",""time""
""fullscreenenter"",""1"",""2566""
","
","
","""event"",""trial"",""time""
""fullscreenenter"",""1"",""2566""
","
","","","5266.29999999702","[""False""]","0","18","13454","5881","","","","","","","","","","","","","","","","","","",""
"pit-instructions","116","864541","0.0-2.0-26.0-1.0","battery-v0.2","","""event"",""trial"",""time""
""fullscreenenter"",""1"",""2566""
","
","
","""event"",""trial"",""time""
""fullscreenenter"",""1"",""2566""
","
","","[{""page_index"":0,""viewing_time"":1447.800000000745}]","1448.199999999255","","","","","","","","","","","","","","","","","","","","","","","",""
"pit-instructions","117","881552","0.0-3.0","battery-v0.2","","""event"",""trial"",""time""
""fullscreenenter"",""1"",""2566""
","
","
","""event"",""trial"",""time""
""fullscreenenter"",""1"",""2566""
","
","","[{""page_index"":0,""viewing_time"":3699},{""page_index"":1,""viewing_time"":5773.300000000745},{""page_index"":2,""viewing_time"":7529.300000000745}]","17002","","","","","","","","","","","","","","","","","","","","","","","",""
"pit-trial","118","885054","0.0-4.0","battery-v0.2","","""event"",""trial"",""time""
""fullscreenenter"",""1"",""2566""
","
","
","""event"",""trial"",""time""
""fullscreenenter"",""1"",""2566""
","
","","","640.6999999992549","","","18","13454","5881","&#9730;","elianto","#3366ff99"," "," ","1","+10","[1490.8999999985099]","1","1","","","13454","1","1","1","win","go","0"
"pit-trial","119","889302","0.0-5.0","battery-v0.2","","""event"",""trial"",""time""
""fullscreenenter"",""1"",""2566""
","
","
","""event"",""trial"",""time""
""fullscreenenter"",""1"",""2566""
","
","","","1387.0999999977648","","","18","13454","5881","&#9752;","elianto","#f73b6a7A"," "," ","1","0","[2238]","1","1","","","13454","2","3","3","lose","go","0"
"pit-trial","120","893422","0.0-6.0","battery-v0.2","","""event"",""trial"",""time""
""fullscreenenter"",""1"",""2566""
","
","
","""event"",""trial"",""time""
""fullscreenenter"",""1"",""2566""
","
","","","1258.699999999255","","","18","13454","5881","&#9728;","elianto","#f73b6a7A","-1"," ","0","-10","[2109.699999999255]","1","1","","","13454","3","0","4","lose","no-go","0"
"pit-trial","121","897201","0.0-7.0","battery-v0.2","","""event"",""trial"",""time""
""fullscreenenter"",""1"",""2566""
","
","
","""event"",""trial"",""time""
""fullscreenenter"",""1"",""2566""
","
","","","919.8000000007451","","","18","13454","5881","&#9733;","elianto","#3366ff99","-1"," ","0","+10","[1770.1000000014901]","1","1","","","13454","4","2","2","win","no-go","1"
"pit-trial","122","900701","0.0-8.0","battery-v0.2","","""event"",""trial"",""time""
""fullscreenenter"",""1"",""2566""
","
","
","""event"",""trial"",""time""
""fullscreenenter"",""1"",""2566""
","
","","","639","","","18","13454","5881","&#9730;","elianto","#3366ff99"," "," ","1","+10","[1489.2000000029802]","1","1","","","13454","5","1","1","win","go","0"
"pit-trial","123","904327","0.0-9.0","battery-v0.2","","""event"",""trial"",""time""
""fullscreenenter"",""1"",""2566""
","
","
","""event"",""trial"",""time""
""fullscreenenter"",""1"",""2566""
","
","","","765.8000000007451","","","18","13454","5881","&#9733;","elianto","#3366ff99","-1"," ","0","+10","[1616.4000000022352]","1","1","","","13454","6","2","2","win","no-go","1"
"pit-trial","124","907883","0.0-10.0","battery-v0.2","","""event"",""trial"",""time""
""fullscreenenter"",""1"",""2566""
","
","
","""event"",""trial"",""time""
""fullscreenenter"",""1"",""2566""
","
","","","694.5999999977648","","","18","13454","5881","&#9752;","elianto","#f73b6a7A"," "," ","1","0","[1545.8999999985099]","1","1","","","13454","7","3","3","lose","go","0"
"pit-trial","125","912743","0.0-11.0","battery-v0.2","","""event"",""trial"",""time""
""fullscreenenter"",""1"",""2566""
","
","
","""event"",""trial"",""time""
""fullscreenenter"",""1"",""2566""
","
","","","-1","","","18","13454","5881","&#9728;","elianto","#f73b6a7A","-1","-1","1","0","[]","0","1","","","13454","8","0","4","lose","no-go","0"
"pit-trial","126","917605","0.0-12.0","battery-v0.2","","""event"",""trial"",""time""
""fullscreenenter"",""1"",""2566""
","
","
","""event"",""trial"",""time""
""fullscreenenter"",""1"",""2566""
","
","","","-1","","","18","13454","5881","&#9728;","elianto","#f73b6a7A","-1","-1","1","-10","[]","0","1","","","13454","9","0","4","lose","no-go","1"
"pit-trial","127","921226","0.0-13.0","battery-v0.2","","""event"",""trial"",""time""
""fullscreenenter"",""1"",""2566""
","
","
","""event"",""trial"",""time""
""fullscreenenter"",""1"",""2566""
","
","","","760.6999999992549","","","18","13454","5881","&#9733;","elianto","#3366ff99","-1"," ","0","+10","[1611.5999999977648]","1","1","","","13454","10","2","2","win","no-go","1"
"pit-trial","128","924698","0.0-14.0","battery-v0.2","","""event"",""trial"",""time""
""fullscreenenter"",""1"",""2566""
","
","
","""event"",""trial"",""time""
""fullscreenenter"",""1"",""2566""
","
","","","611.8999999985099","","","18","13454","5881","&#9752;","elianto","#f73b6a7A"," "," ","1","0","[1462.699999999255]","1","1","","","13454","11","3","3","lose","go","0"
"pit-trial","129","928223","0.0-15.0","battery-v0.2","","""event"",""trial"",""time""
""fullscreenenter"",""1"",""2566""
","
","
","""event"",""trial"",""time""
""fullscreenenter"",""1"",""2566""
","
","","","662.5999999977648","","","18","13454","5881","&#9730;","elianto","#3366ff99"," "," ","1","0","[1514.199999999255]","1","1","","","13454","12","1","1","win","go","1"
"pit-trial","130","931718","0.0-16.0","battery-v0.2","","""event"",""trial"",""time""
""fullscreenenter"",""1"",""2566""
","
","
","""event"",""trial"",""time""
""fullscreenenter"",""1"",""2566""
","
","","","634.3000000007451","","","18","13454","5881","&#9733;","elianto","#3366ff99","-1"," ","0","+10","[1485.300000000745]","1","1","","","13454","13","2","2","win","no-go","1"
"pit-trial","131","935128","0.0-17.0","battery-v0.2","","""event"",""trial"",""time""
""fullscreenenter"",""1"",""2566""
","
","
","""event"",""trial"",""time""
""fullscreenenter"",""1"",""2566""
","
","","","551.0999999977648","","","18","13454","5881","&#9752;","elianto","#f73b6a7A"," "," ","1","0","[1402.699999999255]","1","1","","","13454","14","3","3","lose","go","0"
"pit-trial","132","938581","0.0-18.0","battery-v0.2","","""event"",""trial"",""time""
""fullscreenenter"",""1"",""2566""
","
","
","""event"",""trial"",""time""
""fullscreenenter"",""1"",""2566""
","
","","","592.6999999992549","","","18","13454","5881","&#9730;","elianto","#3366ff99"," "," ","1","+10","[1444]","1","1","","","13454","15","1","1","win","go","0"
"pit-trial","133","943442","0.0-19.0","battery-v0.2","","""event"",""trial"",""time""
""fullscreenenter"",""1"",""2566""
","
","
","""event"",""trial"",""time""
""fullscreenenter"",""1"",""2566""
","
","","","-1","","","18","13454","5881","&#9728;","elianto","#f73b6a7A","-1","-1","1","0","[]","0","1","","","13454","16","0","4","lose","no-go","0"
"pit-trial","134","946837","0.0-20.0","battery-v0.2","","""event"",""trial"",""time""
""fullscreenenter"",""1"",""2566""
","
","
","""event"",""trial"",""time""
""fullscreenenter"",""1"",""2566""
","
","","","532.6000000014901","","","18","13454","5881","&#9733;","elianto","#3366ff99","-1"," ","0","0","[1383.699999999255]","1","1","","","13454","17","2","2","win","no-go","0"
"pit-trial","135","951699","0.0-21.0","battery-v0.2","","""event"",""trial"",""time""
""fullscreenenter"",""1"",""2566""
","
","
","""event"",""trial"",""time""
""fullscreenenter"",""1"",""2566""
","
","","","-1","","","18","13454","5881","&#9728;","elianto","#f73b6a7A","-1","-1","1","0","[]","0","1","","","13454","18","0","4","lose","no-go","0"
"pit-trial","136","955191","0.0-22.0","battery-v0.2","","""event"",""trial"",""time""
""fullscreenenter"",""1"",""2566""
","
","
","""event"",""trial"",""time""
""fullscreenenter"",""1"",""2566""
","
","","","629.6999999992549","","","18","13454","5881","&#9752;","elianto","#f73b6a7A"," "," ","1","0","[1480.800000000745]","1","1","","","13454","19","3","3","lose","go","0"
"pit-trial","137","958631","0.0-23.0","battery-v0.2","","""event"",""trial"",""time""
""fullscreenenter"",""1"",""2566""
","
","
","""event"",""trial"",""time""
""fullscreenenter"",""1"",""2566""
","
","","","577","","","18","13454","5881","&#9730;","elianto","#3366ff99"," "," ","1","+10","[1428.800000000745]","1","1","","","13454","20","1","1","win","go","0"
"pit-instructions","138","972386","0.0-24.0","battery-v0.2","","""event"",""trial"",""time""
""fullscreenenter"",""1"",""2566""
","
","
","""event"",""trial"",""time""
""fullscreenenter"",""1"",""2566""
","
","","[{""page_index"":0,""viewing_time"":6110.599999997765},{""page_index"":1,""viewing_time"":7634}]","13745.099999997765","","","","","","","","","","","","","","","","","","","","","","","",""
"pit-trial","139","976097","0.0-25.0","battery-v0.2","","""event"",""trial"",""time""
""fullscreenenter"",""1"",""2566""
","
","
","""event"",""trial"",""time""
""fullscreenenter"",""1"",""2566""
","
","","","851.9000000022352","","","18","13454","5881","f","elianto","#3366ff99","-1"," ","0","0","[1702.300000000745]","1","2","","","13454","21","1","2","win","no-go","0"
"pit-trial","140","980020","0.0-26.0","battery-v0.2","","""event"",""trial"",""time""
""fullscreenenter"",""1"",""2566""
","
","
","""event"",""trial"",""time""
""fullscreenenter"",""1"",""2566""
","
","","","1062.4000000022352","","","18","13454","5881","t","elianto","#f73b6a7A"," "," ","1","0","[1913.1000000014901]","1","2","","","13454","22","2","3","lose","go","0"
"pit-trial","141","983772","0.0-27.0","battery-v0.2","","""event"",""trial"",""time""
""fullscreenenter"",""1"",""2566""
","
","
","""event"",""trial"",""time""
""fullscreenenter"",""1"",""2566""
","
","","","891.7000000029802","","","18","13454","5881","b","elianto","#f73b6a7A","-1"," ","0","-10","[1741.6000000014901]","1","2","","","13454","23","3","4","lose","no-go","0"
"pit-trial","142","987454","0.0-28.0","battery-v0.2","","""event"",""trial"",""time""
""fullscreenenter"",""1"",""2566""
","
","
","""event"",""trial"",""time""
""fullscreenenter"",""1"",""2566""
","
","","","821.5","","","18","13454","5881","n","elianto","#f73b6a7A"," "," ","1","0","[1672.300000000745]","1","2","","","13454","24","0","3","lose","go","0"
"pit-trial","143","991177","0.0-29.0","battery-v0.2","","""event"",""trial"",""time""
""fullscreenenter"",""1"",""2566""
","
","
","""event"",""trial"",""time""
""fullscreenenter"",""1"",""2566""
","
","","","860.6999999992549","","","18","13454","5881","f","elianto","#3366ff99","-1"," ","0","0","[1712.199999999255]","1","2","","","13454","25","1","2","win","no-go","0"
"pit-trial","144","996039","0.0-30.0","battery-v0.2","","""event"",""trial"",""time""
""fullscreenenter"",""1"",""2566""
","
","
","""event"",""trial"",""time""
""fullscreenenter"",""1"",""2566""
","
","","","-1","","","18","13454","5881","t","elianto","#f73b6a7A"," ","-1","0","-10","[]","0","2","","","13454","26","2","3","lose","go","0"
"pit-trial","145","999668","0.0-31.0","battery-v0.2","","""event"",""trial"",""time""
""fullscreenenter"",""1"",""2566""
","
","
","""event"",""trial"",""time""
""fullscreenenter"",""1"",""2566""
","
","","","767.9000000022352","","","18","13454","5881","b","elianto","#f73b6a7A","-1"," ","0","-10","[1618.5999999977648]","1","2","","","13454","27","3","4","lose","no-go","0"
"pit-trial","146","1003481","0.0-32.0","battery-v0.2","","""event"",""trial"",""time""
""fullscreenenter"",""1"",""2566""
","
","
","""event"",""trial"",""time""
""fullscreenenter"",""1"",""2566""
","
","","","953","","","18","13454","5881","n","elianto","#f73b6a7A"," "," ","1","0","[1804]","1","2","","","13454","28","0","3","lose","go","0"
"pit-trial","147","1008342","0.0-33.0","battery-v0.2","","""event"",""trial"",""time""
""fullscreenenter"",""1"",""2566""
","
","
","""event"",""trial"",""time""
""fullscreenenter"",""1"",""2566""
","
","","","-1","","","18","13454","5881","t","elianto","#f73b6a7A"," ","-1","0","-10","[]","0","2","","","13454","29","2","3","lose","go","0"
"pit-trial","148","1012036","0.0-34.0","battery-v0.2","","""event"",""trial"",""time""
""fullscreenenter"",""1"",""2566""
","
","
","""event"",""trial"",""time""
""fullscreenenter"",""1"",""2566""
","
","","","831.6999999992549","","","18","13454","5881","f","elianto","#3366ff99","-1"," ","0","0","[1683.199999999255]","1","2","","","13454","30","1","2","win","no-go","0"
"pit-trial","149","1016896","0.0-35.0","battery-v0.2","","""event"",""trial"",""time""
""fullscreenenter"",""1"",""2566""
","
","
","""event"",""trial"",""time""
""fullscreenenter"",""1"",""2566""
","
","","","-1","","","18","13454","5881","n","elianto","#f73b6a7A"," ","-1","0","-10","[]","0","2","","","13454","31","0","3","lose","go","0"
"pit-trial","150","1021757","0.0-36.0","battery-v0.2","","""event"",""trial"",""time""
""fullscreenenter"",""1"",""2566""
","
","
","""event"",""trial"",""time""
""fullscreenenter"",""1"",""2566""
","
","","","-1","","","18","13454","5881","b","elianto","#f73b6a7A","-1","-1","1","0","[]","0","2","","","13454","32","3","4","lose","no-go","0"
"pit-trial","151","1026105","0.0-37.0","battery-v0.2","","""event"",""trial"",""time""
""fullscreenenter"",""1"",""2566""
","
","
","""event"",""trial"",""time""
""fullscreenenter"",""1"",""2566""
","
","","","1488.4000000022352","","","18","13454","5881","n","elianto","#f73b6a7A"," "," ","1","0","[2338.800000000745]","1","2","","","13454","33","0","3","lose","go","0"
"pit-trial","152","1030541","0.0-38.0","battery-v0.2","","""event"",""trial"",""time""
""fullscreenenter"",""1"",""2566""
","
","
","""event"",""trial"",""time""
""fullscreenenter"",""1"",""2566""
","
","","","1578.5","","","18","13454","5881","t","elianto","#f73b6a7A"," "," ","1","-10","[2428.900000002235]","1","2","","","13454","34","2","3","lose","go","1"
"pit-trial","153","1034828","0.0-39.0","battery-v0.2","","""event"",""trial"",""time""
""fullscreenenter"",""1"",""2566""
","
","
","""event"",""trial"",""time""
""fullscreenenter"",""1"",""2566""
","
","","","1427.300000000745","","","18","13454","5881","b","elianto","#f73b6a7A","-1"," ","0","-10","[2278.400000002235]","1","2","","","13454","35","3","4","lose","no-go","0"
"pit-trial","154","1038497","0.0-40.0","battery-v0.2","","""event"",""trial"",""time""
""fullscreenenter"",""1"",""2566""
","
","
","""event"",""trial"",""time""
""fullscreenenter"",""1"",""2566""
","
","","","807.6000000014901","","","18","13454","5881","f","elianto","#3366ff99","-1"," ","0","+10","[1659.3999999985099]","1","2","","","13454","36","1","2","win","no-go","1"
"pit-trial","155","1043359","0.0-41.0","battery-v0.2","","""event"",""trial"",""time""
""fullscreenenter"",""1"",""2566""
","
","
","""event"",""trial"",""time""
""fullscreenenter"",""1"",""2566""
","
","","","-1","","","18","13454","5881","b","elianto","#f73b6a7A","-1","-1","1","0","[]","0","2","","","13454","37","3","4","lose","no-go","0"
"pit-trial","156","1047378","0.0-42.0","battery-v0.2","","""event"",""trial"",""time""
""fullscreenenter"",""1"",""2566""
","
","
","""event"",""trial"",""time""
""fullscreenenter"",""1"",""2566""
","
","","","1158.4000000022352","","","18","13454","5881","n","elianto","#f73b6a7A"," "," ","1","0","[2009]","1","2","","","13454","38","0","3","lose","go","0"
"pit-trial","157","1051799","0.0-43.0","battery-v0.2","","""event"",""trial"",""time""
""fullscreenenter"",""1"",""2566""
","
","
","""event"",""trial"",""time""
""fullscreenenter"",""1"",""2566""
","
","","","1560","","","18","13454","5881","t","elianto","#f73b6a7A"," "," ","1","0","[2411.2000000029802]","1","2","","","13454","39","2","3","lose","go","0"
"pit-trial","158","1056232","0.0-44.0","battery-v0.2","","""event"",""trial"",""time""
""fullscreenenter"",""1"",""2566""
","
","
","""event"",""trial"",""time""
""fullscreenenter"",""1"",""2566""
","
","","","1572.2000000029802","","","18","13454","5881","f","elianto","#3366ff99","-1"," ","0","+10","[2423.400000002235]","1","2","","","13454","40","1","2","win","no-go","1"
"pit-trial","159","1060110","0.0-45.0","battery-v0.2","","""event"",""trial"",""time""
""fullscreenenter"",""1"",""2566""
","
","
","""event"",""trial"",""time""
""fullscreenenter"",""1"",""2566""
","
","","","1017.9000000022352","","","18","13454","5881","t","elianto","#f73b6a7A"," "," ","1","-10","[1869]","1","2","","","13454","41","2","3","lose","go","1"
"pit-trial","160","1064810","0.0-46.0","battery-v0.2","","""event"",""trial"",""time""
""fullscreenenter"",""1"",""2566""
","
","
","""event"",""trial"",""time""
""fullscreenenter"",""1"",""2566""
","
","","","1838.2000000029802","","","18","13454","5881","b","elianto","#f73b6a7A","-1"," ","0","-10","[2689.900000002235]","1","2","","","13454","42","3","4","lose","no-go","0"
"pit-trial","161","1069049","0.0-47.0","battery-v0.2","","""event"",""trial"",""time""
""fullscreenenter"",""1"",""2566""
","
","
","""event"",""trial"",""time""
""fullscreenenter"",""1"",""2566""
","
","","","1376.5","","","18","13454","5881","n","elianto","#f73b6a7A"," "," ","1","0","[2228.10000000149]","1","2","","","13454","43","0","3","lose","go","0"
"pit-trial","162","1072835","0.0-48.0","battery-v0.2","","""event"",""trial"",""time""
""fullscreenenter"",""1"",""2566""
","
","
","""event"",""trial"",""time""
""fullscreenenter"",""1"",""2566""
","
","","","922.5999999977648","","","18","13454","5881","f","elianto","#3366ff99","-1"," ","0","0","[1774.300000000745]","1","2","","","13454","44","1","2","win","no-go","0"
"pit-trial","163","1076434","0.0-49.0","battery-v0.2","","""event"",""trial"",""time""
""fullscreenenter"",""1"",""2566""
","
","
","""event"",""trial"",""time""
""fullscreenenter"",""1"",""2566""
","
","","","738.6999999992549","","","18","13454","5881","f","elianto","#3366ff99","-1"," ","0","0","[1590.199999999255]","1","2","","","13454","45","1","2","win","no-go","0"
"pit-trial","164","1079929","0.0-50.0","battery-v0.2","","""event"",""trial"",""time""
""fullscreenenter"",""1"",""2566""
","
","
","""event"",""trial"",""time""
""fullscreenenter"",""1"",""2566""
","
","","","632.6999999992549","","","18","13454","5881","n","elianto","#f73b6a7A"," "," ","1","-10","[1483.8999999985099]","1","2","","","13454","46","0","3","lose","go","1"
"pit-trial","165","1084790","0.0-51.0","battery-v0.2","","""event"",""trial"",""time""
""fullscreenenter"",""1"",""2566""
","
","
","""event"",""trial"",""time""
""fullscreenenter"",""1"",""2566""
","
","","","-1","","","18","13454","5881","t","elianto","#f73b6a7A"," ","-1","0","0","[]","0","2","","","13454","47","2","3","lose","go","1"
"pit-trial","166","1089650","0.0-52.0","battery-v0.2","","""event"",""trial"",""time""
""fullscreenenter"",""1"",""2566""
","
","
","""event"",""trial"",""time""
""fullscreenenter"",""1"",""2566""
","
","","","-1","","","18","13454","5881","b","elianto","#f73b6a7A","-1","-1","1","0","[]","0","2","","","13454","48","3","4","lose","no-go","0"
"pit-trial","167","1094512","0.0-53.0","battery-v0.2","","""event"",""trial"",""time""
""fullscreenenter"",""1"",""2566""
","
","
","""event"",""trial"",""time""
""fullscreenenter"",""1"",""2566""
","
","","","-1","","","18","13454","5881","b","elianto","#f73b6a7A","-1","-1","1","0","[]","0","2","","","13454","49","3","4","lose","no-go","0"
"pit-trial","168","1099373","0.0-54.0","battery-v0.2","","""event"",""trial"",""time""
""fullscreenenter"",""1"",""2566""
","
","
","""event"",""trial"",""time""
""fullscreenenter"",""1"",""2566""
","
","","","-1","","","18","13454","5881","t","elianto","#f73b6a7A"," ","-1","0","-10","[]","0","2","","","13454","50","2","3","lose","go","0"
"pit-trial","169","1103363","0.0-55.0","battery-v0.2","","""event"",""trial"",""time""
""fullscreenenter"",""1"",""2566""
","
","
","""event"",""trial"",""time""
""fullscreenenter"",""1"",""2566""
","
","","","1129.3999999985099","","","18","13454","5881","n","elianto","#f73b6a7A"," "," ","1","-10","[1979.800000000745]","1","2","","","13454","51","0","3","lose","go","1"
"pit-trial","170","1107278","0.0-56.0","battery-v0.2","","""event"",""trial"",""time""
""fullscreenenter"",""1"",""2566""
","
","
","""event"",""trial"",""time""
""fullscreenenter"",""1"",""2566""
","
","","","1053.1000000014901","","","18","13454","5881","f","elianto","#3366ff99","-1"," ","0","0","[1904.5]","1","2","","","13454","52","1","2","win","no-go","0"
"pit-trial","171","1112142","0.0-57.0","battery-v0.2","","""event"",""trial"",""time""
""fullscreenenter"",""1"",""2566""
","
","
","""event"",""trial"",""time""
""fullscreenenter"",""1"",""2566""
","
","","","-1","","","18","13454","5881","t","elianto","#f73b6a7A"," ","-1","0","0","[]","0","2","","","13454","53","2","3","lose","go","1"
"pit-trial","172","1117002","0.0-58.0","battery-v0.2","","""event"",""trial"",""time""
""fullscreenenter"",""1"",""2566""
","
","
","""event"",""trial"",""time""
""fullscreenenter"",""1"",""2566""
","
","","","-1","","","18","13454","5881","b","elianto","#f73b6a7A","-1","-1","1","0","[]","0","2","","","13454","54","3","4","lose","no-go","0"
"pit-trial","173","1121289","0.0-59.0","battery-v0.2","","""event"",""trial"",""time""
""fullscreenenter"",""1"",""2566""
","
","
","""event"",""trial"",""time""
""fullscreenenter"",""1"",""2566""
","
","","","1424.800000000745","","","18","13454","5881","n","elianto","#f73b6a7A"," "," ","1","0","[2276]","1","2","","","13454","55","0","3","lose","go","0"
"pit-trial","174","1126150","0.0-60.0","battery-v0.2","","""event"",""trial"",""time""
""fullscreenenter"",""1"",""2566""
","
","
","""event"",""trial"",""time""
""fullscreenenter"",""1"",""2566""
","
","","","-1","","","18","13454","5881","f","elianto","#3366ff99","-1","-1","1","+10","[2893.199999999255]","1","2","","","13454","56","1","2","win","no-go","0"
"pit-trial","175","1131011","0.0-61.0","battery-v0.2","","""event"",""trial"",""time""
""fullscreenenter"",""1"",""2566""
","
","
","""event"",""trial"",""time""
""fullscreenenter"",""1"",""2566""
","
","","","-1","","","18","13454","5881","b","elianto","#f73b6a7A","-1","-1","1","0","[]","0","2","","","13454","57","3","4","lose","no-go","0"
"pit-trial","176","1135071","0.0-62.0","battery-v0.2","","""event"",""trial"",""time""
""fullscreenenter"",""1"",""2566""
","
","
","""event"",""trial"",""time""
""fullscreenenter"",""1"",""2566""
","
","","","1198.8999999985099","","","18","13454","5881","c","elianto","#3366ff99"," "," ","1","+10","[2049.699999999255]","1","2","","","13454","58","4","1","win","go","0"
"pit-trial","177","1139931","0.0-63.0","battery-v0.2","","""event"",""trial"",""time""
""fullscreenenter"",""1"",""2566""
","
","
","""event"",""trial"",""time""
""fullscreenenter"",""1"",""2566""
","
","","","-1","","","18","13454","5881","t","elianto","#f73b6a7A"," ","-1","0","-10","[]","0","2","","","13454","59","2","3","lose","go","0"
"pit-trial","178","1144409","0.0-64.0","battery-v0.2","","""event"",""trial"",""time""
""fullscreenenter"",""1"",""2566""
","
","
","""event"",""trial"",""time""
""fullscreenenter"",""1"",""2566""
","
","","","1617","","","18","13454","5881","n","elianto","#f73b6a7A"," "," ","1","0","[2468.7999999970198]","1","2","","","13454","60","0","3","lose","go","0"
"pit-trial","179","1148839","0.0-65.0","battery-v0.2","","""event"",""trial"",""time""
""fullscreenenter"",""1"",""2566""
","
","
","""event"",""trial"",""time""
""fullscreenenter"",""1"",""2566""
","
","","","1568.0999999977648","","","18","13454","5881","t","elianto","#f73b6a7A"," "," ","1","0","[2419]","1","2","","","13454","61","2","3","lose","go","0"
"pit-trial","180","1153529","0.0-66.0","battery-v0.2","","""event"",""trial"",""time""
""fullscreenenter"",""1"",""2566""
","
","
","""event"",""trial"",""time""
""fullscreenenter"",""1"",""2566""
","
","","","1829.5999999977648","","","18","13454","5881","f","elianto","#3366ff99","-1"," ","0","0","[2679.89999999851]","1","2","","","13454","62","1","2","win","no-go","0"
"pit-trial","181","1158391","0.0-67.0","battery-v0.2","","""event"",""trial"",""time""
""fullscreenenter"",""1"",""2566""
","
","
","""event"",""trial"",""time""
""fullscreenenter"",""1"",""2566""
","
","","","-1","","","18","13454","5881","b","elianto","#f73b6a7A","-1","-1","1","-10","[]","0","2","","","13454","63","3","4","lose","no-go","1"
"pit-trial","182","1162160","0.0-68.0","battery-v0.2","","""event"",""trial"",""time""
""fullscreenenter"",""1"",""2566""
","
","
","""event"",""trial"",""time""
""fullscreenenter"",""1"",""2566""
","
","","","908","","","18","13454","5881","c","elianto","#3366ff99"," "," ","1","+10","[1758.8999999985099]","1","2","","","13454","64","4","1","win","go","0"
"pit-trial","183","1167021","0.0-69.0","battery-v0.2","","""event"",""trial"",""time""
""fullscreenenter"",""1"",""2566""
","
","
","""event"",""trial"",""time""
""fullscreenenter"",""1"",""2566""
","
","","","-1","","","18","13454","5881","b","elianto","#f73b6a7A","-1","-1","1","0","[]","0","2","","","13454","65","3","4","lose","no-go","0"
"pit-trial","184","1170577","0.0-70.0","battery-v0.2","","""event"",""trial"",""time""
""fullscreenenter"",""1"",""2566""
","
","
","""event"",""trial"",""time""
""fullscreenenter"",""1"",""2566""
","
","","","693.8999999985099","","","18","13454","5881","f","elianto","#3366ff99","-1"," ","0","+10","[1544]","1","2","","","13454","66","1","2","win","no-go","1"
"pit-trial","185","1174295","0.0-71.0","battery-v0.2","","""event"",""trial"",""time""
""fullscreenenter"",""1"",""2566""
","
","
","""event"",""trial"",""time""
""fullscreenenter"",""1"",""2566""
","
","","","856.8999999985099","","","18","13454","5881","c","elianto","#3366ff99"," "," ","1","+10","[1708]","1","2","","","13454","67","4","1","win","go","0"
"pit-trial","186","1178164","0.0-72.0","battery-v0.2","","""event"",""trial"",""time""
""fullscreenenter"",""1"",""2566""
","
","
","""event"",""trial"",""time""
""fullscreenenter"",""1"",""2566""
","
","","","1008.7000000029802","","","18","13454","5881","z","elianto","#3366ff99","-1"," ","0","0","[1859.7000000029802]","1","2","","","13454","68","5","2","win","no-go","0"
"pit-trial","187","1183025","0.0-73.0","battery-v0.2","","""event"",""trial"",""time""
""fullscreenenter"",""1"",""2566""
","
","
","""event"",""trial"",""time""
""fullscreenenter"",""1"",""2566""
","
","","","-1","","","18","13454","5881","t","elianto","#f73b6a7A"," ","-1","0","0","[]","0","2","","","13454","69","2","3","lose","go","1"
"pit-trial","188","1186736","0.0-74.0","battery-v0.2","","""event"",""trial"",""time""
""fullscreenenter"",""1"",""2566""
","
","
","""event"",""trial"",""time""
""fullscreenenter"",""1"",""2566""
","
","","","849.8000000007451","","","18","13454","5881","z","elianto","#3366ff99","-1"," ","0","0","[1701]","1","2","","","13454","70","5","2","win","no-go","0"
"pit-trial","189","1190276","0.0-75.0","battery-v0.2","","""event"",""trial"",""time""
""fullscreenenter"",""1"",""2566""
","
","
","""event"",""trial"",""time""
""fullscreenenter"",""1"",""2566""
","
","","","677.8000000007451","","","18","13454","5881","c","elianto","#3366ff99"," "," ","1","+10","[1529]","1","2","","","13454","71","4","1","win","go","0"
"pit-trial","190","1195137","0.0-76.0","battery-v0.2","","""event"",""trial"",""time""
""fullscreenenter"",""1"",""2566""
","
","
","""event"",""trial"",""time""
""fullscreenenter"",""1"",""2566""
","
","","","-1","","","18","13454","5881","f","elianto","#3366ff99","-1","-1","1","+10","[]","0","2","","","13454","72","1","2","win","no-go","0"
"pit-trial","191","1198934","0.0-77.0","battery-v0.2","","""event"",""trial"",""time""
""fullscreenenter"",""1"",""2566""
","
","
","""event"",""trial"",""time""
""fullscreenenter"",""1"",""2566""
","
","","","937.5999999977648","","","18","13454","5881","c","elianto","#3366ff99"," "," ","1","+10","[1787.5999999977648]","1","2","","","13454","73","4","1","win","go","0"
"pit-trial","192","1203797","0.0-78.0","battery-v0.2","","""event"",""trial"",""time""
""fullscreenenter"",""1"",""2566""
","
","
","""event"",""trial"",""time""
""fullscreenenter"",""1"",""2566""
","
","","","-1","","","18","13454","5881","z","elianto","#3366ff99","-1","-1","1","+10","[]","0","2","","","13454","74","5","2","win","no-go","0"
"pit-trial","193","1208654","0.0-79.0","battery-v0.2","","""event"",""trial"",""time""
""fullscreenenter"",""1"",""2566""
","
","
","""event"",""trial"",""time""
""fullscreenenter"",""1"",""2566""
","
","","","-1","","","18","13454","5881","b","elianto","#f73b6a7A","-1","-1","1","0","[]","0","2","","","13454","75","3","4","lose","no-go","0"
"pit-trial","194","1212490","0.0-80.0","battery-v0.2","","""event"",""trial"",""time""
""fullscreenenter"",""1"",""2566""
","
","
","""event"",""trial"",""time""
""fullscreenenter"",""1"",""2566""
","
","","","974.5","","","18","13454","5881","f","elianto","#3366ff99","-1"," ","0","0","[1824.5999999977648]","1","2","","","13454","76","1","2","win","no-go","0"
"pit-trial","195","1216036","0.0-81.0","battery-v0.2","","""event"",""trial"",""time""
""fullscreenenter"",""1"",""2566""
","
","
","""event"",""trial"",""time""
""fullscreenenter"",""1"",""2566""
","
","","","683.5","","","18","13454","5881","c","elianto","#3366ff99"," "," ","1","+10","[1534.4000000022352]","1","2","","","13454","77","4","1","win","go","0"
"pit-trial","196","1220897","0.0-82.0","battery-v0.2","","""event"",""trial"",""time""
""fullscreenenter"",""1"",""2566""
","
","
","""event"",""trial"",""time""
""fullscreenenter"",""1"",""2566""
","
","","","-1","","","18","13454","5881","z","elianto","#3366ff99","-1","-1","1","+10","[]","0","2","","","13454","78","5","2","win","no-go","0"
"pit-trial","197","1225759","0.0-83.0","battery-v0.2","","""event"",""trial"",""time""
""fullscreenenter"",""1"",""2566""
","
","
","""event"",""trial"",""time""
""fullscreenenter"",""1"",""2566""
","
","","","-1","","","18","13454","5881","b","elianto","#f73b6a7A","-1","-1","1","0","[]","0","2","","","13454","79","3","4","lose","no-go","0"
"pit-trial","198","1229329","0.0-84.0","battery-v0.2","","""event"",""trial"",""time""
""fullscreenenter"",""1"",""2566""
","
","
","""event"",""trial"",""time""
""fullscreenenter"",""1"",""2566""
","
","","","708.9000000022352","","","18","13454","5881","c","elianto","#3366ff99"," "," ","1","0","[1559.4000000022352]","1","2","","","13454","80","4","1","win","go","1"
"pit-trial","199","1234191","0.0-85.0","battery-v0.2","","""event"",""trial"",""time""
""fullscreenenter"",""1"",""2566""
","
","
","""event"",""trial"",""time""
""fullscreenenter"",""1"",""2566""
","
","","","-1","","","18","13454","5881","b","elianto","#f73b6a7A","-1","-1","1","-10","[]","0","2","","","13454","81","3","4","lose","no-go","1"
"pit-trial","200","1237902","0.0-86.0","battery-v0.2","","""event"",""trial"",""time""
""fullscreenenter"",""1"",""2566""
","
","
","""event"",""trial"",""time""
""fullscreenenter"",""1"",""2566""
","
","","","850.1999999992549","","","18","13454","5881","c","elianto","#3366ff99"," "," ","1","+10","[1700.800000000745]","1","2","","","13454","82","4","1","win","go","0"
"pit-trial","201","1242764","0.0-87.0","battery-v0.2","","""event"",""trial"",""time""
""fullscreenenter"",""1"",""2566""
","
","
","""event"",""trial"",""time""
""fullscreenenter"",""1"",""2566""
","
","","","-1","","","18","13454","5881","z","elianto","#3366ff99","-1","-1","1","+10","[]","0","2","","","13454","83","5","2","win","no-go","0"
"pit-trial","202","1247626","0.0-88.0","battery-v0.2","","""event"",""trial"",""time""
""fullscreenenter"",""1"",""2566""
","
","
","""event"",""trial"",""time""
""fullscreenenter"",""1"",""2566""
","
","","","-1","","","18","13454","5881","y","elianto","#f73b6a7A","-1","-1","1","0","[]","0","2","","","13454","84","7","4","lose","no-go","0"
"pit-trial","203","1251397","0.0-89.0","battery-v0.2","","""event"",""trial"",""time""
""fullscreenenter"",""1"",""2566""
","
","
","""event"",""trial"",""time""
""fullscreenenter"",""1"",""2566""
","
","","","910.5","","","18","13454","5881","c","elianto","#3366ff99"," "," ","1","+10","[1761.6000000014901]","1","2","","","13454","85","4","1","win","go","0"
"pit-trial","204","1256260","0.0-90.0","battery-v0.2","","""event"",""trial"",""time""
""fullscreenenter"",""1"",""2566""
","
","
","""event"",""trial"",""time""
""fullscreenenter"",""1"",""2566""
","
","","","-1","","","18","13454","5881","y","elianto","#f73b6a7A","-1","-1","1","0","[]","0","2","","","13454","86","7","4","lose","no-go","0"
"pit-trial","205","1261122","0.0-91.0","battery-v0.2","","""event"",""trial"",""time""
""fullscreenenter"",""1"",""2566""
","
","
","""event"",""trial"",""time""
""fullscreenenter"",""1"",""2566""
","
","","","-1","","","18","13454","5881","h","elianto","#f73b6a7A"," ","-1","0","0","[]","0","2","","","13454","87","6","3","lose","go","1"
"pit-trial","206","1265320","0.0-92.0","battery-v0.2","","""event"",""trial"",""time""
""fullscreenenter"",""1"",""2566""
","
","
","""event"",""trial"",""time""
""fullscreenenter"",""1"",""2566""
","
","","","1337.1000000014901","","","18","13454","5881","z","elianto","#3366ff99","-1"," ","0","0","[2187.39999999851]","1","2","","","13454","88","5","2","win","no-go","0"
"pit-trial","207","1270180","0.0-93.0","battery-v0.2","","""event"",""trial"",""time""
""fullscreenenter"",""1"",""2566""
","
","
","""event"",""trial"",""time""
""fullscreenenter"",""1"",""2566""
","
","","","-1","","","18","13454","5881","y","elianto","#f73b6a7A","-1","-1","1","0","[]","0","2","","","13454","89","7","4","lose","no-go","0"
"pit-trial","208","1273765","0.0-94.0","battery-v0.2","","""event"",""trial"",""time""
""fullscreenenter"",""1"",""2566""
","
","
","""event"",""trial"",""time""
""fullscreenenter"",""1"",""2566""
","
","","","723.4000000022352","","","18","13454","5881","z","elianto","#3366ff99","-1"," ","0","0","[1574.2000000029802]","1","2","","","13454","90","5","2","win","no-go","0"
"pit-trial","209","1278625","0.0-95.0","battery-v0.2","","""event"",""trial"",""time""
""fullscreenenter"",""1"",""2566""
","
","
","""event"",""trial"",""time""
""fullscreenenter"",""1"",""2566""
","
","","","-1","","","18","13454","5881","h","elianto","#f73b6a7A"," ","-1","0","0","[]","0","2","","","13454","91","6","3","lose","go","1"
"pit-trial","210","1282272","0.0-96.0","battery-v0.2","","""event"",""trial"",""time""
""fullscreenenter"",""1"",""2566""
","
","
","""event"",""trial"",""time""
""fullscreenenter"",""1"",""2566""
","
","","","786.4000000022352","","","18","13454","5881","c","elianto","#3366ff99"," "," ","1","+10","[1637.1000000014901]","1","2","","","13454","92","4","1","win","go","0"
"pit-trial","211","1287130","0.0-97.0","battery-v0.2","","""event"",""trial"",""time""
""fullscreenenter"",""1"",""2566""
","
","
","""event"",""trial"",""time""
""fullscreenenter"",""1"",""2566""
","
","","","-1","","","18","13454","5881","h","elianto","#f73b6a7A"," ","-1","0","-10","[]","0","2","","","13454","93","6","3","lose","go","0"
"pit-trial","212","1290944","0.0-98.0","battery-v0.2","","""event"",""trial"",""time""
""fullscreenenter"",""1"",""2566""
","
","
","""event"",""trial"",""time""
""fullscreenenter"",""1"",""2566""
","
","","","952.8999999985099","","","18","13454","5881","r","elianto","#3366ff99"," "," ","1","+10","[1804.300000000745]","1","2","","","13454","94","8","1","win","go","0"
"pit-trial","213","1295807","0.0-99.0","battery-v0.2","","""event"",""trial"",""time""
""fullscreenenter"",""1"",""2566""
","
","
","""event"",""trial"",""time""
""fullscreenenter"",""1"",""2566""
","
","","","-1","","","18","13454","5881","z","elianto","#3366ff99","-1","-1","1","0","[]","0","2","","","13454","95","5","2","win","no-go","1"
"pit-trial","214","1300670","0.0-100.0","battery-v0.2","","""event"",""trial"",""time""
""fullscreenenter"",""1"",""2566""
","
","
","""event"",""trial"",""time""
""fullscreenenter"",""1"",""2566""
","
","","","-1","","","18","13454","5881","y","elianto","#f73b6a7A","-1","-1","1","-10","[]","0","2","","","13454","96","7","4","lose","no-go","1"
"pit-trial","215","1304284","0.0-101.0","battery-v0.2","","""event"",""trial"",""time""
""fullscreenenter"",""1"",""2566""
","
","
","""event"",""trial"",""time""
""fullscreenenter"",""1"",""2566""
","
","","","753.5","","","18","13454","5881","r","elianto","#3366ff99"," "," ","1","0","[1605.199999999255]","1","2","","","13454","97","8","1","win","go","1"
"pit-trial","216","1308049","0.0-102.0","battery-v0.2","","""event"",""trial"",""time""
""fullscreenenter"",""1"",""2566""
","
","
","""event"",""trial"",""time""
""fullscreenenter"",""1"",""2566""
","
","","","904.6999999992549","","","18","13454","5881","h","elianto","#f73b6a7A"," "," ","1","-10","[1756.300000000745]","1","2","","","13454","98","6","3","lose","go","1"
"pit-trial","217","1311684","0.0-103.0","battery-v0.2","","""event"",""trial"",""time""
""fullscreenenter"",""1"",""2566""
","
","
","""event"",""trial"",""time""
""fullscreenenter"",""1"",""2566""
","
","","","775.6999999992549","","","18","13454","5881","y","elianto","#f73b6a7A","-1"," ","0","0","[1626.6000000014901]","1","2","","","13454","99","7","4","lose","no-go","1"
"pit-trial","218","1315122","0.0-104.0","battery-v0.2","","""event"",""trial"",""time""
""fullscreenenter"",""1"",""2566""
","
","
","""event"",""trial"",""time""
""fullscreenenter"",""1"",""2566""
","
","","","575.5","","","18","13454","5881","z","elianto","#3366ff99","-1"," ","0","0","[1426.800000000745]","1","2","","","13454","100","5","2","win","no-go","0"
"pit-trial","219","1318464","0.0-105.0","battery-v0.2","","""event"",""trial"",""time""
""fullscreenenter"",""1"",""2566""
","
","
","""event"",""trial"",""time""
""fullscreenenter"",""1"",""2566""
","
","","","481.5","","","18","13454","5881","z","elianto","#3366ff99","-1"," ","0","0","[1331.699999999255]","1","2","","","13454","101","5","2","win","no-go","0"
"pit-trial","220","1322271","0.0-106.0","battery-v0.2","","""event"",""trial"",""time""
""fullscreenenter"",""1"",""2566""
","
","
","""event"",""trial"",""time""
""fullscreenenter"",""1"",""2566""
","
","","","946.2000000029802","","","18","13454","5881","r","elianto","#3366ff99"," "," ","1","0","[1797.5]","1","2","","","13454","102","8","1","win","go","1"
"pit-trial","221","1325787","0.0-107.0","battery-v0.2","","""event"",""trial"",""time""
""fullscreenenter"",""1"",""2566""
","
","
","""event"",""trial"",""time""
""fullscreenenter"",""1"",""2566""
","
","","","654","","","18","13454","5881","m","elianto","#3366ff99"," "," ","1","+10","[1505.800000000745]","1","2","","","13454","103","9","1","win","go","0"
"pit-trial","222","1330649","0.0-108.0","battery-v0.2","","""event"",""trial"",""time""
""fullscreenenter"",""1"",""2566""
","
","
","""event"",""trial"",""time""
""fullscreenenter"",""1"",""2566""
","
","","","-1","","","18","13454","5881","y","elianto","#f73b6a7A","-1","-1","1","-10","[]","0","2","","","13454","104","7","4","lose","no-go","1"
"pit-trial","223","1334297","0.0-109.0","battery-v0.2","","""event"",""trial"",""time""
""fullscreenenter"",""1"",""2566""
","
","
","""event"",""trial"",""time""
""fullscreenenter"",""1"",""2566""
","
","","","784.8999999985099","","","18","13454","5881","h","elianto","#f73b6a7A"," "," ","1","0","[1636.199999999255]","1","2","","","13454","105","6","3","lose","go","0"
"pit-trial","224","1337785","0.0-110.0","battery-v0.2","","""event"",""trial"",""time""
""fullscreenenter"",""1"",""2566""
","
","
","""event"",""trial"",""time""
""fullscreenenter"",""1"",""2566""
","
","","","627.7999999970198","","","18","13454","5881","c","elianto","#3366ff99"," "," ","1","+10","[1478.699999999255]","1","2","","","13454","106","4","1","win","go","0"
"pit-trial","225","1341582","0.0-111.0","battery-v0.2","","""event"",""trial"",""time""
""fullscreenenter"",""1"",""2566""
","
","
","""event"",""trial"",""time""
""fullscreenenter"",""1"",""2566""
","
","","","935.5","","","18","13454","5881","m","elianto","#3366ff99"," "," ","1","+10","[1786.8999999985099]","1","2","","","13454","107","9","1","win","go","0"
"pit-trial","226","1345186","0.0-112.0","battery-v0.2","","""event"",""trial"",""time""
""fullscreenenter"",""1"",""2566""
","
","
","""event"",""trial"",""time""
""fullscreenenter"",""1"",""2566""
","
","","","742.4000000022352","","","18","13454","5881","r","elianto","#3366ff99"," "," ","1","+10","[1593.800000000745]","1","2","","","13454","108","8","1","win","go","0"
"pit-trial","227","1348813","0.0-113.0","battery-v0.2","","""event"",""trial"",""time""
""fullscreenenter"",""1"",""2566""
","
","
","""event"",""trial"",""time""
""fullscreenenter"",""1"",""2566""
","
","","","764.6000000014901","","","18","13454","5881","r","elianto","#3366ff99"," "," ","1","+10","[1616]","1","2","","","13454","109","8","1","win","go","0"
"pit-trial","228","1352284","0.0-114.0","battery-v0.2","","""event"",""trial"",""time""
""fullscreenenter"",""1"",""2566""
","
","
","""event"",""trial"",""time""
""fullscreenenter"",""1"",""2566""
","
","","","609.5","","","18","13454","5881","m","elianto","#3366ff99"," "," ","1","+10","[1460.6000000014901]","1","2","","","13454","110","9","1","win","go","0"
"pit-trial","229","1357147","0.0-115.0","battery-v0.2","","""event"",""trial"",""time""
""fullscreenenter"",""1"",""2566""
","
","
","""event"",""trial"",""time""
""fullscreenenter"",""1"",""2566""
","
","","","-1","","","18","13454","5881","h","elianto","#f73b6a7A"," ","-1","0","0","[]","0","2","","","13454","111","6","3","lose","go","1"
"pit-trial","230","1361124","0.0-116.0","battery-v0.2","","""event"",""trial"",""time""
""fullscreenenter"",""1"",""2566""
","
","
","""event"",""trial"",""time""
""fullscreenenter"",""1"",""2566""
","
","","","1115.300000000745","","","18","13454","5881","z","elianto","#3366ff99","-1"," ","0","+10","[1966.699999999255]","1","2","","","13454","112","5","2","win","no-go","1"
"pit-trial","231","1365986","0.0-117.0","battery-v0.2","","""event"",""trial"",""time""
""fullscreenenter"",""1"",""2566""
","
","
","""event"",""trial"",""time""
""fullscreenenter"",""1"",""2566""
","
","","","-1","","","18","13454","5881","h","elianto","#f73b6a7A"," ","-1","0","0","[]","0","2","","","13454","113","6","3","lose","go","1"
"pit-trial","232","1369490","0.0-118.0","battery-v0.2","","""event"",""trial"",""time""
""fullscreenenter"",""1"",""2566""
","
","
","""event"",""trial"",""time""
""fullscreenenter"",""1"",""2566""
","
","","","640.6999999992549","","","18","13454","5881","r","elianto","#3366ff99"," "," ","1","+10","[1492.699999999255]","1","2","","","13454","114","8","1","win","go","0"
"pit-trial","233","1372896","0.0-119.0","battery-v0.2","","""event"",""trial"",""time""
""fullscreenenter"",""1"",""2566""
","
","
","""event"",""trial"",""time""
""fullscreenenter"",""1"",""2566""
","
","","","543.6000000014901","","","18","13454","5881","m","elianto","#3366ff99"," "," ","1","+10","[1394.6000000014901]","1","2","","","13454","115","9","1","win","go","0"
"pit-trial","234","1376582","0.0-120.0","battery-v0.2","","""event"",""trial"",""time""
""fullscreenenter"",""1"",""2566""
","
","
","""event"",""trial"",""time""
""fullscreenenter"",""1"",""2566""
","
","","","825.5","","","18","13454","5881","z","elianto","#3366ff99","-1"," ","0","0","[1676]","1","2","","","13454","116","5","2","win","no-go","0"
"pit-trial","235","1380541","0.0-121.0","battery-v0.2","","""event"",""trial"",""time""
""fullscreenenter"",""1"",""2566""
","
","
","""event"",""trial"",""time""
""fullscreenenter"",""1"",""2566""
","
","","","1097.5","","","18","13454","5881","m","elianto","#3366ff99"," "," ","1","+10","[1948.5]","1","2","","","13454","117","9","1","win","go","0"
"pit-trial","236","1385402","0.0-122.0","battery-v0.2","","""event"",""trial"",""time""
""fullscreenenter"",""1"",""2566""
","
","
","""event"",""trial"",""time""
""fullscreenenter"",""1"",""2566""
","
","","","-1","","","18","13454","5881","h","elianto","#f73b6a7A"," ","-1","0","-10","[]","0","2","","","13454","118","6","3","lose","go","0"
"pit-trial","237","1388897","0.0-123.0","battery-v0.2","","""event"",""trial"",""time""
""fullscreenenter"",""1"",""2566""
","
","
","""event"",""trial"",""time""
""fullscreenenter"",""1"",""2566""
","
","","","631.8000000007451","","","18","13454","5881","r","elianto","#3366ff99"," "," ","1","0","[1483.800000000745]","1","2","","","13454","119","8","1","win","go","1"
"pit-trial","238","1392321","0.0-124.0","battery-v0.2","","""event"",""trial"",""time""
""fullscreenenter"",""1"",""2566""
","
","
","""event"",""trial"",""time""
""fullscreenenter"",""1"",""2566""
","
","","","562.3000000007451","","","18","13454","5881","z","elianto","#3366ff99","-1"," ","0","0","[1414.1000000014901]","1","2","","","13454","120","5","2","win","no-go","0"
"pit-trial","239","1395726","0.0-125.0","battery-v0.2","","""event"",""trial"",""time""
""fullscreenenter"",""1"",""2566""
","
","
","""event"",""trial"",""time""
""fullscreenenter"",""1"",""2566""
","
","","","543.3000000007451","","","18","13454","5881","m","elianto","#3366ff99"," "," ","1","+10","[1394.4000000022352]","1","2","","","13454","121","9","1","win","go","0"
"pit-trial","240","1399242","0.0-126.0","battery-v0.2","","""event"",""trial"",""time""
""fullscreenenter"",""1"",""2566""
","
","
","""event"",""trial"",""time""
""fullscreenenter"",""1"",""2566""
","
","","","655.6000000014901","","","18","13454","5881","r","elianto","#3366ff99"," "," ","1","+10","[1505.5999999977648]","1","2","","","13454","122","8","1","win","go","0"
"pit-trial","241","1403072","0.0-127.0","battery-v0.2","","""event"",""trial"",""time""
""fullscreenenter"",""1"",""2566""
","
","
","""event"",""trial"",""time""
""fullscreenenter"",""1"",""2566""
","
","","","968.1999999992549","","","18","13454","5881","h","elianto","#f73b6a7A"," "," ","1","0","[1818.4000000022352]","1","2","","","13454","123","6","3","lose","go","0"
"pit-trial","242","1407934","0.0-128.0","battery-v0.2","","""event"",""trial"",""time""
""fullscreenenter"",""1"",""2566""
","
","
","""event"",""trial"",""time""
""fullscreenenter"",""1"",""2566""
","
","","","-1","","","18","13454","5881","y","elianto","#f73b6a7A","-1","-1","1","0","[]","0","2","","","13454","124","7","4","lose","no-go","0"
"pit-trial","243","1411447","0.0-129.0","battery-v0.2","","""event"",""trial"",""time""
""fullscreenenter"",""1"",""2566""
","
","
","""event"",""trial"",""time""
""fullscreenenter"",""1"",""2566""
","
","","","651.4000000022352","","","18","13454","5881","r","elianto","#3366ff99"," "," ","1","+10","[1503.199999999255]","1","2","","","13454","125","8","1","win","go","0"
"pit-trial","244","1415146","0.0-130.0","battery-v0.2","","""event"",""trial"",""time""
""fullscreenenter"",""1"",""2566""
","
","
","""event"",""trial"",""time""
""fullscreenenter"",""1"",""2566""
","
","","","838.7000000029802","","","18","13454","5881","m","elianto","#3366ff99"," "," ","1","0","[1689.6000000014901]","1","2","","","13454","126","9","1","win","go","1"
"pit-trial","245","1419011","0.0-131.0","battery-v0.2","","""event"",""trial"",""time""
""fullscreenenter"",""1"",""2566""
","
","
","""event"",""trial"",""time""
""fullscreenenter"",""1"",""2566""
","
","","","1003.9000000022352","","","18","13454","5881","h","elianto","#f73b6a7A"," "," ","1","0","[1854.5]","1","2","","","13454","127","6","3","lose","go","0"
"pit-trial","246","1423873","0.0-132.0","battery-v0.2","","""event"",""trial"",""time""
""fullscreenenter"",""1"",""2566""
","
","
","""event"",""trial"",""time""
""fullscreenenter"",""1"",""2566""
","
","","","-1","","","18","13454","5881","y","elianto","#f73b6a7A","-1","-1","1","-10","[]","0","2","","","13454","128","7","4","lose","no-go","1"
"pit-trial","247","1427875","0.0-133.0","battery-v0.2","","""event"",""trial"",""time""
""fullscreenenter"",""1"",""2566""
","
","
","""event"",""trial"",""time""
""fullscreenenter"",""1"",""2566""
","
","","","1143.7000000029802","","","18","13454","5881","y","elianto","#f73b6a7A","-1"," ","0","-10","[1994.5]","1","2","","","13454","129","7","4","lose","no-go","0"
"pit-trial","248","1431282","0.0-134.0","battery-v0.2","","""event"",""trial"",""time""
""fullscreenenter"",""1"",""2566""
","
","
","""event"",""trial"",""time""
""fullscreenenter"",""1"",""2566""
","
","","","550.6999999992549","","","18","13454","5881","r","elianto","#3366ff99"," "," ","1","+10","[1402]","1","2","","","13454","130","8","1","win","go","0"
"pit-trial","249","1435155","0.0-135.0","battery-v0.2","","""event"",""trial"",""time""
""fullscreenenter"",""1"",""2566""
","
","
","""event"",""trial"",""time""
""fullscreenenter"",""1"",""2566""
","
","","","1012.3999999985099","","","18","13454","5881","h","elianto","#f73b6a7A"," "," ","1","-10","[1863.5]","1","2","","","13454","131","6","3","lose","go","1"
"pit-trial","250","1438562","0.0-136.0","battery-v0.2","","""event"",""trial"",""time""
""fullscreenenter"",""1"",""2566""
","
","
","""event"",""trial"",""time""
""fullscreenenter"",""1"",""2566""
","
","","","545.5","","","18","13454","5881","m","elianto","#3366ff99"," "," ","1","+10","[1396.5]","1","2","","","13454","132","9","1","win","go","0"
"pit-trial","251","1443418","0.0-137.0","battery-v0.2","","""event"",""trial"",""time""
""fullscreenenter"",""1"",""2566""
","
","
","""event"",""trial"",""time""
""fullscreenenter"",""1"",""2566""
","
","","","-1","","","18","13454","5881","y","elianto","#f73b6a7A","-1","-1","1","0","[]","0","2","","","13454","133","7","4","lose","no-go","0"
"pit-trial","252","1447733","0.0-138.0","battery-v0.2","","""event"",""trial"",""time""
""fullscreenenter"",""1"",""2566""
","
","
","""event"",""trial"",""time""
""fullscreenenter"",""1"",""2566""
","
","","","1454.5","","","18","13454","5881","h","elianto","#f73b6a7A"," "," ","1","0","[2306.300000000745]","1","2","","","13454","134","6","3","lose","go","0"
"pit-trial","253","1451309","0.0-139.0","battery-v0.2","","""event"",""trial"",""time""
""fullscreenenter"",""1"",""2566""
","
","
","""event"",""trial"",""time""
""fullscreenenter"",""1"",""2566""
","
","","","712.5","","","18","13454","5881","m","elianto","#3366ff99"," "," ","1","0","[1563.9000000022352]","1","2","","","13454","135","9","1","win","go","1"
"pit-trial","254","1454934","0.0-140.0","battery-v0.2","","""event"",""trial"",""time""
""fullscreenenter"",""1"",""2566""
","
","
","""event"",""trial"",""time""
""fullscreenenter"",""1"",""2566""
","
","","","763.6999999992549","","","18","13454","5881","r","elianto","#3366ff99"," "," ","1","+10","[1614.300000000745]","1","2","","","13454","136","8","1","win","go","0"
"pit-trial","255","1457996","0.0-141.0","battery-v0.2","","""event"",""trial"",""time""
""fullscreenenter"",""1"",""2566""
","
","
","""event"",""trial"",""time""
""fullscreenenter"",""1"",""2566""
","
","","","200.89999999850988","","","18","13454","5881","h","elianto","#f73b6a7A"," "," ","1","0","[1052.300000000745]","1","2","","","13454","137","6","3","lose","go","0"
"pit-trial","256","1461658","0.0-142.0","battery-v0.2","","""event"",""trial"",""time""
""fullscreenenter"",""1"",""2566""
","
","
","""event"",""trial"",""time""
""fullscreenenter"",""1"",""2566""
","
","","","800.1999999992549","","","18","13454","5881","r","elianto","#3366ff99"," "," ","1","+10","[1651.8999999985099]","1","2","","","13454","138","8","1","win","go","0"
"pit-trial","257","1465722","0.0-143.0","battery-v0.2","","""event"",""trial"",""time""
""fullscreenenter"",""1"",""2566""
","
","
","""event"",""trial"",""time""
""fullscreenenter"",""1"",""2566""
","
","","","1203","","","18","13454","5881","m","elianto","#3366ff99"," "," ","1","+10","[2053.10000000149]","1","2","","","13454","139","9","1","win","go","0"
"pit-trial","258","1470583","0.0-144.0","battery-v0.2","","""event"",""trial"",""time""
""fullscreenenter"",""1"",""2566""
""blur"",""259"",""1724749""
""focus"",""259"",""1729132""
","""event"",""trial"",""time""
""blur"",""259"",""1724749""
","""event"",""trial"",""time""
""focus"",""259"",""1729132""
","""event"",""trial"",""time""
""fullscreenenter"",""1"",""2566""
","
","","","-1","","","18","13454","5881","y","elianto","#f73b6a7A","-1","-1","1","0","[]","0","2","","","13454","140","7","4","lose","no-go","0"
"pit-instructions","259","1740422","0.0-145.0","battery-v0.2","","""event"",""trial"",""time""
""fullscreenenter"",""1"",""2566""
""blur"",""259"",""1724749""
""focus"",""259"",""1729132""
","""event"",""trial"",""time""
""blur"",""259"",""1724749""
","""event"",""trial"",""time""
""focus"",""259"",""1729132""
","""event"",""trial"",""time""
""fullscreenenter"",""1"",""2566""
","
","","[{""page_index"":0,""viewing_time"":261649.30000000075},{""page_index"":1,""viewing_time"":8177.300000000745}]","269827","","","","","","","","","","","","","","","","","","","","","","","",""
"pit-trial","260","1743975","0.0-146.0","battery-v0.2","","""event"",""trial"",""time""
""fullscreenenter"",""1"",""2566""
""blur"",""259"",""1724749""
""focus"",""259"",""1729132""
","""event"",""trial"",""time""
""blur"",""259"",""1724749""
","""event"",""trial"",""time""
""focus"",""259"",""1729132""
","""event"",""trial"",""time""
""fullscreenenter"",""1"",""2566""
","
","","","691.5","","","18","13454","5881","e","elianto","#f73b6a7A","-1"," ","0","-10","[1542.8999999985099]","1","3","","","13454","141","2","4","lose","no-go","0"
"pit-trial","261","1747754","0.0-147.0","battery-v0.2","","""event"",""trial"",""time""
""fullscreenenter"",""1"",""2566""
""blur"",""259"",""1724749""
""focus"",""259"",""1729132""
","""event"",""trial"",""time""
""blur"",""259"",""1724749""
","""event"",""trial"",""time""
""focus"",""259"",""1729132""
","""event"",""trial"",""time""
""fullscreenenter"",""1"",""2566""
","
","","","918.5","","","18","13454","5881","j","elianto","#f73b6a7A","-1"," ","0","-10","[1770.4000000022352]","1","3","","","13454","142","0","4","lose","no-go","0"
"pit-trial","262","1751294","0.0-148.0","battery-v0.2","","""event"",""trial"",""time""
""fullscreenenter"",""1"",""2566""
""blur"",""259"",""1724749""
""focus"",""259"",""1729132""
","""event"",""trial"",""time""
""blur"",""259"",""1724749""
","""event"",""trial"",""time""
""focus"",""259"",""1729132""
","""event"",""trial"",""time""
""fullscreenenter"",""1"",""2566""
","
","","","678.0999999977648","","","18","13454","5881","d","elianto","#3366ff99"," "," ","1","+10","[1529.5]","1","3","","","13454","143","1","1","win","go","0"
"pit-trial","263","1755122","0.0-149.0","battery-v0.2","","""event"",""trial"",""time""
""fullscreenenter"",""1"",""2566""
""blur"",""259"",""1724749""
""focus"",""259"",""1729132""
","""event"",""trial"",""time""
""blur"",""259"",""1724749""
","""event"",""trial"",""time""
""focus"",""259"",""1729132""
","""event"",""trial"",""time""
""fullscreenenter"",""1"",""2566""
","
