"trial_type","trial_index","time_elapsed","internal_node_id","task_version","subject_id","interactions","blur_events","focus_events","fullscreenenter_events","fullscreenexit_events","success","view_history","rt","responses","num_errors","age","subject","participantId","rune","rune_set","hex","correct","choice","accuracy","outcome","keys","total_keys","block","practice","value","sub","trial","stimulus","robot","valence","action","sham"
"pavlovia","0","14","0.0-0.0","battery-v0.2","","""event"",""trial"",""time""
""fullscreenenter"",""1"",""1347""
","
","
","""event"",""trial"",""time""
""fullscreenenter"",""1"",""1347""
","
","","","","","","","","","","","","","","","","","","","","","","","","","","",""
"fullscreen","1","2352","0.0-1.0","battery-v0.2","","""event"",""trial"",""time""
""fullscreenenter"",""1"",""1347""
","
","
","""event"",""trial"",""time""
""fullscreenenter"",""1"",""1347""
","
","true","","","","","","","","","","","","","","","","","","","","","","","","","",""
"pit-instructions","2","8035","0.0-2.0-0.0","battery-v0.2","","""event"",""trial"",""time""
""fullscreenenter"",""1"",""1347""
","
","
","""event"",""trial"",""time""
""fullscreenenter"",""1"",""1347""
","
","","[{""page_index"":0,""viewing_time"":5675.800000011921}]","5676.599999964237","","","","","","","","","","","","","","","","","","","","","","","",""
"pit-comprehension","3","11736","0.0-2.0-1.0-0.0","battery-v0.2","","""event"",""trial"",""time""
""fullscreenenter"",""1"",""1347""
","
","
","""event"",""trial"",""time""
""fullscreenenter"",""1"",""1347""
","
","","","3695","[""shark""]","0","18","7686","3910","","","","","","","","","","","","","","","","","","",""
"pit-instructions","4","17814","0.0-2.0-1.0-1.0","battery-v0.2","","""event"",""trial"",""time""
""fullscreenenter"",""1"",""1347""
","
","
","""event"",""trial"",""time""
""fullscreenenter"",""1"",""1347""
","
","","[{""page_index"":0,""viewing_time"":6059.5}]","6060.400000035763","","","","","","","","","","","","","","","","","","","","","","","",""
"pit-comprehension","5","20350","0.0-2.0-2.0-0.0","battery-v0.2","","""event"",""trial"",""time""
""fullscreenenter"",""1"",""1347""
","
","
","""event"",""trial"",""time""
""fullscreenenter"",""1"",""1347""
","
","","","2530.600000023842","[""tiger""]","0","18","7686","3910","","","","","","","","","","","","","","","","","","",""
"pit-instructions","6","21366","0.0-2.0-2.0-1.0","battery-v0.2","","""event"",""trial"",""time""
""fullscreenenter"",""1"",""1347""
""blur"",""7"",""88016""
""focus"",""7"",""89528""
","""event"",""trial"",""time""
""blur"",""7"",""88016""
","""event"",""trial"",""time""
""focus"",""7"",""89528""
","""event"",""trial"",""time""
""fullscreenenter"",""1"",""1347""
","
","","[{""page_index"":0,""viewing_time"":1011.6999999880791}]","1012.1000000238419","","","","","","","","","","","","","","","","","","","","","","","",""
"pit-instructions","7","130394","0.0-2.0-3.0","battery-v0.2","","""event"",""trial"",""time""
""fullscreenenter"",""1"",""1347""
""blur"",""7"",""88016""
""focus"",""7"",""89528""
","""event"",""trial"",""time""
""blur"",""7"",""88016""
","""event"",""trial"",""time""
""focus"",""7"",""89528""
","""event"",""trial"",""time""
""fullscreenenter"",""1"",""1347""
","
","","[{""page_index"":0,""viewing_time"":8463.300000011921},{""page_index"":1,""viewing_time"":8134.099999964237},{""page_index"":2,""viewing_time"":6853.5},{""page_index"":3,""viewing_time"":5646.700000047684},{""page_index"":4,""viewing_time"":7022.899999976158},{""page_index"":5,""viewing_time"":6355},{""page_index"":6,""viewing_time"":7522},{""page_index"":7,""viewing_time"":7919.899999976158},{""page_index"":8,""viewing_time"":8213.700000047684},{""page_index"":9,""viewing_time"":10599.299999952316},{""page_index"":10,""viewing_time"":10232.700000047684},{""page_index"":11,""viewing_time"":7589.099999964237},{""page_index"":12,""viewing_time"":8340.5},{""page_index"":13,""viewing_time"":6132.300000011921}]","109025.60000002384","","","","","","","","","","","","","","","","","","","","","","","",""
"pit-trial","8","133930","0.0-2.0-4.0-0.0","battery-v0.2","","""event"",""trial"",""time""
""fullscreenenter"",""1"",""1347""
""blur"",""7"",""88016""
""focus"",""7"",""89528""
","""event"",""trial"",""time""
""blur"",""7"",""88016""
","""event"",""trial"",""time""
""focus"",""7"",""89528""
","""event"",""trial"",""time""
""fullscreenenter"",""1"",""1347""
","
","","","675","","","18","7686","3910","&#9784;","elianto","#FFFFF080"," "," ","1","&#10004","[1526.3999999761581]","1","0","0","","","","","","","",""
"pit-trial","9","137310","0.0-2.0-4.1-0.1","battery-v0.2","","""event"",""trial"",""time""
""fullscreenenter"",""1"",""1347""
""blur"",""7"",""88016""
""focus"",""7"",""89528""
","""event"",""trial"",""time""
""blur"",""7"",""88016""
","""event"",""trial"",""time""
""focus"",""7"",""89528""
","""event"",""trial"",""time""
""fullscreenenter"",""1"",""1347""
","
","","","508.89999997615814","","","18","7686","3910","&#9784;","elianto","#FFFFF080"," "," ","1","&#10004","[1364.699999988079]","1","0","0","","","","","","","",""
"pit-trial","10","140570","0.0-2.0-4.2-0.2","battery-v0.2","","""event"",""trial"",""time""
""fullscreenenter"",""1"",""1347""
""blur"",""7"",""88016""
""focus"",""7"",""89528""
","""event"",""trial"",""time""
""blur"",""7"",""88016""
","""event"",""trial"",""time""
""focus"",""7"",""89528""
","""event"",""trial"",""time""
""fullscreenenter"",""1"",""1347""
","
","","","393","","","18","7686","3910","&#9784;","elianto","#FFFFF080"," "," ","1","&#10004","[1248.5]","1","0","0","","","","","","","",""
"pit-trial","11","144036","0.0-2.0-4.3-0.3","battery-v0.2","","""event"",""trial"",""time""
""fullscreenenter"",""1"",""1347""
""blur"",""7"",""88016""
""focus"",""7"",""89528""
","""event"",""trial"",""time""
""blur"",""7"",""88016""
","""event"",""trial"",""time""
""focus"",""7"",""89528""
","""event"",""trial"",""time""
""fullscreenenter"",""1"",""1347""
","
","","","600.5","","","18","7686","3910","&#9784;","elianto","#FFFFF080"," "," ","1","&#10004","[1454.5]","1","0","0","","","","","","","",""
"pit-trial","12","147395","0.0-2.0-4.4-0.4","battery-v0.2","","""event"",""trial"",""time""
""fullscreenenter"",""1"",""1347""
""blur"",""7"",""88016""
""focus"",""7"",""89528""
","""event"",""trial"",""time""
""blur"",""7"",""88016""
","""event"",""trial"",""time""
""focus"",""7"",""89528""
","""event"",""trial"",""time""
""fullscreenenter"",""1"",""1347""
","
","","","491.80000001192093","","","18","7686","3910","&#9784;","elianto","#FFFFF080"," "," ","1","&#10004","[1346.2999999523163]","1","0","0","","","","","","","",""
"pit-instructions","13","172201","0.0-2.0-5.0","battery-v0.2","","""event"",""trial"",""time""
""fullscreenenter"",""1"",""1347""
""blur"",""7"",""88016""
""focus"",""7"",""89528""
","""event"",""trial"",""time""
""blur"",""7"",""88016""
","""event"",""trial"",""time""
""focus"",""7"",""89528""
","""event"",""trial"",""time""
""fullscreenenter"",""1"",""1347""
","
","","[{""page_index"":0,""viewing_time"":5669.400000035763},{""page_index"":1,""viewing_time"":5821.399999976158},{""page_index"":2,""viewing_time"":7180.100000023842},{""page_index"":3,""viewing_time"":6129.699999988079}]","24801.100000023842","","","","","","","","","","","","","","","","","","","","","","","",""
"pit-trial","14","177070","0.0-2.0-6.0-0.0","battery-v0.2","","""event"",""trial"",""time""
""fullscreenenter"",""1"",""1347""
""blur"",""7"",""88016""
""focus"",""7"",""89528""
","""event"",""trial"",""time""
""blur"",""7"",""88016""
","""event"",""trial"",""time""
""focus"",""7"",""89528""
","""event"",""trial"",""time""
""fullscreenenter"",""1"",""1347""
","
","","","-1","","","18","7686","3910","&#9854;","elianto","#FFFFF080","-1","-1","1","&#10004","[]","0","0","1","","","","","","","",""
"pit-trial","15","181940","0.0-2.0-6.1-0.1","battery-v0.2","","""event"",""trial"",""time""
""fullscreenenter"",""1"",""1347""
""blur"",""7"",""88016""
""focus"",""7"",""89528""
","""event"",""trial"",""time""
""blur"",""7"",""88016""
","""event"",""trial"",""time""
""focus"",""7"",""89528""
","""event"",""trial"",""time""
""fullscreenenter"",""1"",""1347""
","
","","","-1","","","18","7686","3910","&#9854;","elianto","#FFFFF080","-1","-1","1","&#10004","[]","0","0","1","","","","","","","",""
"pit-trial","16","186813","0.0-2.0-6.2-0.2","battery-v0.2","","""event"",""trial"",""time""
""fullscreenenter"",""1"",""1347""
""blur"",""7"",""88016""
""focus"",""7"",""89528""
","""event"",""trial"",""time""
""blur"",""7"",""88016""
","""event"",""trial"",""time""
""focus"",""7"",""89528""
","""event"",""trial"",""time""
""fullscreenenter"",""1"",""1347""
","
","","","-1","","","18","7686","3910","&#9854;","elianto","#FFFFF080","-1","-1","1","&#10004","[]","0","0","1","","","","","","","",""
"pit-trial","17","191686","0.0-2.0-6.3-0.3","battery-v0.2","","""event"",""trial"",""time""
""fullscreenenter"",""1"",""1347""
""blur"",""7"",""88016""
""focus"",""7"",""89528""
","""event"",""trial"",""time""
""blur"",""7"",""88016""
","""event"",""trial"",""time""
""focus"",""7"",""89528""
","""event"",""trial"",""time""
""fullscreenenter"",""1"",""1347""
","
","","","-1","","","18","7686","3910","&#9854;","elianto","#FFFFF080","-1","-1","1","&#10004","[]","0","0","1","","","","","","","",""
"pit-trial","18","196555","0.0-2.0-6.4-0.4","battery-v0.2","","""event"",""trial"",""time""
""fullscreenenter"",""1"",""1347""
""blur"",""7"",""88016""
""focus"",""7"",""89528""
","""event"",""trial"",""time""
""blur"",""7"",""88016""
","""event"",""trial"",""time""
""focus"",""7"",""89528""
","""event"",""trial"",""time""
""fullscreenenter"",""1"",""1347""
","
","","","-1","","","18","7686","3910","&#9854;","elianto","#FFFFF080","-1","-1","1","&#10004","[]","0","0","1","","","","","","","",""
"pit-instructions","19","319161","0.0-2.0-7.0","battery-v0.2","","""event"",""trial"",""time""
""fullscreenenter"",""1"",""1347""
""blur"",""7"",""88016""
""focus"",""7"",""89528""
","""event"",""trial"",""time""
""blur"",""7"",""88016""
","""event"",""trial"",""time""
""focus"",""7"",""89528""
","""event"",""trial"",""time""
""fullscreenenter"",""1"",""1347""
","
","","[{""page_index"":0,""viewing_time"":6347.800000011921},{""page_index"":1,""viewing_time"":8545.600000023842},{""page_index"":2,""viewing_time"":6949.099999964237},{""page_index"":3,""viewing_time"":7303.600000023842},{""page_index"":4,""viewing_time"":5552.5},{""page_index"":5,""viewing_time"":6103.800000011921},{""page_index"":6,""viewing_time"":4795.199999988079},{""page_index"":7,""viewing_time"":8104.399999976158},{""page_index"":8,""viewing_time"":7662.400000035763},{""page_index"":9,""viewing_time"":6006.5},{""page_index"":10,""viewing_time"":6708.099999964237},{""page_index"":11,""viewing_time"":4511},{""page_index"":12,""viewing_time"":7004.600000023842},{""page_index"":13,""viewing_time"":7209.600000023842},{""page_index"":14,""viewing_time"":7668.299999952316},{""page_index"":15,""viewing_time"":7153.900000035763},{""page_index"":16,""viewing_time"":6720.899999976158},{""page_index"":17,""viewing_time"":8253.400000035763}]","122601.70000004768","","","","","","","","","","","","","","","","","","","","","","","",""
"pit-trial","20","322764","0.0-2.0-8.0-0.0","battery-v0.2","","""event"",""trial"",""time""
""fullscreenenter"",""1"",""1347""
""blur"",""7"",""88016""
""focus"",""7"",""89528""
","""event"",""trial"",""time""
""blur"",""7"",""88016""
","""event"",""trial"",""time""
""focus"",""7"",""89528""
","""event"",""trial"",""time""
""fullscreenenter"",""1"",""1347""
","
","","","743","","","18","7686","3910","&#9776;","elianto","#3366ff99"," "," ","1","+10","[1592.800000011921]","1","0","1","","","","","","","",""
"pit-trial","21","326069","0.0-2.0-8.0-1.0","battery-v0.2","","""event"",""trial"",""time""
""fullscreenenter"",""1"",""1347""
""blur"",""7"",""88016""
""focus"",""7"",""89528""
","""event"",""trial"",""time""
""blur"",""7"",""88016""
","""event"",""trial"",""time""
""focus"",""7"",""89528""
","""event"",""trial"",""time""
""fullscreenenter"",""1"",""1347""
","
","","","428.30000001192093","","","18","7686","3910","&#9776;","elianto","#3366ff99"," "," ","1","+10","[1290.300000011921]","1","0","1","","","","","","","",""
"pit-trial","22","329258","0.0-2.0-8.0-2.0","battery-v0.2","","""event"",""trial"",""time""
""fullscreenenter"",""1"",""1347""
""blur"",""7"",""88016""
""focus"",""7"",""89528""
","""event"",""trial"",""time""
""blur"",""7"",""88016""
","""event"",""trial"",""time""
""focus"",""7"",""89528""
","""event"",""trial"",""time""
""fullscreenenter"",""1"",""1347""
","
","","","322.30000001192093","","","18","7686","3910","&#9776;","elianto","#3366ff99"," "," ","1","+10","[1178.9000000357628]","1","0","1","","","","","","","",""
"pit-trial","23","332379","0.0-2.0-8.0-3.0","battery-v0.2","","""event"",""trial"",""time""
""fullscreenenter"",""1"",""1347""
""blur"",""7"",""88016""
""focus"",""7"",""89528""
","""event"",""trial"",""time""
""blur"",""7"",""88016""
","""event"",""trial"",""time""
""focus"",""7"",""89528""
","""event"",""trial"",""time""
""fullscreenenter"",""1"",""1347""
","
","","","256.5999999642372","","","18","7686","3910","&#9776;","elianto","#3366ff99"," "," ","1","0","[1108.800000011921]","1","0","1","","","","","","","",""
"pit-trial","24","335484","0.0-2.0-8.0-4.0","battery-v0.2","","""event"",""trial"",""time""
""fullscreenenter"",""1"",""1347""
""blur"",""7"",""88016""
""focus"",""7"",""89528""
","""event"",""trial"",""time""
""blur"",""7"",""88016""
","""event"",""trial"",""time""
""focus"",""7"",""89528""
","""event"",""trial"",""time""
""fullscreenenter"",""1"",""1347""
","
","","","237.5","","","18","7686","3910","&#9776;","elianto","#3366ff99"," "," ","1","+10","[1090.699999988079]","1","0","1","","","","","","","",""
"pit-trial","25","338873","0.0-2.0-8.1-0.1","battery-v0.2","","""event"",""trial"",""time""
""fullscreenenter"",""1"",""1347""
""blur"",""7"",""88016""
""focus"",""7"",""89528""
","""event"",""trial"",""time""
""blur"",""7"",""88016""
","""event"",""trial"",""time""
""focus"",""7"",""89528""
","""event"",""trial"",""time""
""fullscreenenter"",""1"",""1347""
","
","","","521.6000000238419","","","18","7686","3910","&#9776;","elianto","#3366ff99"," "," ","1","+10","[1377.199999988079]","1","0","1","","","","","","","",""
"pit-trial","26","342684","0.0-2.0-8.1-1.1","battery-v0.2","","""event"",""trial"",""time""
""fullscreenenter"",""1"",""1347""
""blur"",""7"",""88016""
""focus"",""7"",""89528""
","""event"",""trial"",""time""
""blur"",""7"",""88016""
","""event"",""trial"",""time""
""focus"",""7"",""89528""
","""event"",""trial"",""time""
""fullscreenenter"",""1"",""1347""
","
","","","944.3999999761581","","","18","7686","3910","&#9776;","elianto","#3366ff99"," "," ","1","+10","[1796.3999999761581]","1","0","1","","","","","","","",""
"pit-trial","27","346243","0.0-2.0-8.1-2.1","battery-v0.2","","""event"",""trial"",""time""
""fullscreenenter"",""1"",""1347""
""blur"",""7"",""88016""
""focus"",""7"",""89528""
","""event"",""trial"",""time""
""blur"",""7"",""88016""
","""event"",""trial"",""time""
""focus"",""7"",""89528""
","""event"",""trial"",""time""
""fullscreenenter"",""1"",""1347""
","
","","","693.4000000357628","","","18","7686","3910","&#9776;","elianto","#3366ff99"," "," ","1","+10","[1551.3999999761581]","1","0","1","","","","","","","",""
"pit-trial","28","349489","0.0-2.0-8.1-3.1","battery-v0.2","","""event"",""trial"",""time""
""fullscreenenter"",""1"",""1347""
""blur"",""7"",""88016""
""focus"",""7"",""89528""
","""event"",""trial"",""time""
""blur"",""7"",""88016""
","""event"",""trial"",""time""
""focus"",""7"",""89528""
","""event"",""trial"",""time""
""fullscreenenter"",""1"",""1347""
","
","","","388.5999999642372","","","18","7686","3910","&#9776;","elianto","#3366ff99"," "," ","1","0","[1238.699999988079]","1","0","1","","","","","","","",""
"pit-trial","29","353028","0.0-2.0-8.1-4.1","battery-v0.2","","""event"",""trial"",""time""
""fullscreenenter"",""1"",""1347""
""blur"",""7"",""88016""
""focus"",""7"",""89528""
","""event"",""trial"",""time""
""blur"",""7"",""88016""
","""event"",""trial"",""time""
""focus"",""7"",""89528""
","""event"",""trial"",""time""
""fullscreenenter"",""1"",""1347""
","
","","","673.8000000119209","","","18","7686","3910","&#9776;","elianto","#3366ff99"," "," ","1","+10","[1527.300000011921]","1","0","1","","","","","","","",""
"pit-trial","30","356692","0.0-2.0-8.2-0.2","battery-v0.2","","""event"",""trial"",""time""
""fullscreenenter"",""1"",""1347""
""blur"",""7"",""88016""
""focus"",""7"",""89528""
","""event"",""trial"",""time""
""blur"",""7"",""88016""
","""event"",""trial"",""time""
""focus"",""7"",""89528""
","""event"",""trial"",""time""
""fullscreenenter"",""1"",""1347""
","
","","","787.9000000357628","","","18","7686","3910","&#9776;","elianto","#3366ff99"," "," ","1","+10","[1648.5999999642372]","1","0","1","","","","","","","",""
"pit-trial","31","360076","0.0-2.0-8.2-1.2","battery-v0.2","","""event"",""trial"",""time""
""fullscreenenter"",""1"",""1347""
""blur"",""7"",""88016""
""focus"",""7"",""89528""
","""event"",""trial"",""time""
""blur"",""7"",""88016""
","""event"",""trial"",""time""
""focus"",""7"",""89528""
","""event"",""trial"",""time""
""fullscreenenter"",""1"",""1347""
","
","","","522.1999999880791","","","18","7686","3910","&#9776;","elianto","#3366ff99"," "," ","1","+10","[1372.7999999523163]","1","0","1","","","","","","","",""
"pit-trial","32","363418","0.0-2.0-8.2-2.2","battery-v0.2","","""event"",""trial"",""time""
""fullscreenenter"",""1"",""1347""
""blur"",""7"",""88016""
""focus"",""7"",""89528""
","""event"",""trial"",""time""
""blur"",""7"",""88016""
","""event"",""trial"",""time""
""focus"",""7"",""89528""
","""event"",""trial"",""time""
""fullscreenenter"",""1"",""1347""
","
","","","479.30000001192093","","","18","7686","3910","&#9776;","elianto","#3366ff99"," "," ","1","+10","[1329.7999999523163]","1","0","1","","","","","","","",""
"pit-trial","33","366724","0.0-2.0-8.2-3.2","battery-v0.2","","""event"",""trial"",""time""
""fullscreenenter"",""1"",""1347""
""blur"",""7"",""88016""
""focus"",""7"",""89528""
","""event"",""trial"",""time""
""blur"",""7"",""88016""
","""event"",""trial"",""time""
""focus"",""7"",""89528""
","""event"",""trial"",""time""
""fullscreenenter"",""1"",""1347""
","
","","","441.89999997615814","","","18","7686","3910","&#9776;","elianto","#3366ff99"," "," ","1","0","[1297.5999999642372]","1","0","1","","","","","","","",""
"pit-trial","34","369899","0.0-2.0-8.2-4.2","battery-v0.2","","""event"",""trial"",""time""
""fullscreenenter"",""1"",""1347""
""blur"",""7"",""88016""
""focus"",""7"",""89528""
","""event"",""trial"",""time""
""blur"",""7"",""88016""
","""event"",""trial"",""time""
""focus"",""7"",""89528""
","""event"",""trial"",""time""
""fullscreenenter"",""1"",""1347""
","
","","","315.69999998807907","","","18","7686","3910","&#9776;","elianto","#3366ff99"," "," ","1","+10","[1166.9000000357628]","1","0","1","","","","","","","",""
"call-function","35","369901","0.0-2.0-9.0","battery-v0.2","","""event"",""trial"",""time""
""fullscreenenter"",""1"",""1347""
""blur"",""7"",""88016""
""focus"",""7"",""89528""
","""event"",""trial"",""time""
""blur"",""7"",""88016""
","""event"",""trial"",""time""
""focus"",""7"",""89528""
","""event"",""trial"",""time""
""fullscreenenter"",""1"",""1347""
","
","","","","","","","","","","","","","","","","","","","","","","","","","","",""
"pit-instructions","36","412623","0.0-2.0-10.0","battery-v0.2","","""event"",""trial"",""time""
""fullscreenenter"",""1"",""1347""
""blur"",""7"",""88016""
""focus"",""7"",""89528""
","""event"",""trial"",""time""
""blur"",""7"",""88016""
","""event"",""trial"",""time""
""focus"",""7"",""89528""
","""event"",""trial"",""time""
""fullscreenenter"",""1"",""1347""
","
","","[{""page_index"":0,""viewing_time"":6153.099999964237},{""page_index"":1,""viewing_time"":7054},{""page_index"":2,""viewing_time"":9795.100000023842},{""page_index"":3,""viewing_time"":11679.300000011921},{""page_index"":4,""viewing_time"":8038.699999988079}]","42720.799999952316","","","","","","","","","","","","","","","","","","","","","","","",""
"pit-trial","37","417490","0.0-2.0-11.0-0.0","battery-v0.2","","""event"",""trial"",""time""
""fullscreenenter"",""1"",""1347""
""blur"",""7"",""88016""
""focus"",""7"",""89528""
","""event"",""trial"",""time""
""blur"",""7"",""88016""
","""event"",""trial"",""time""
""focus"",""7"",""89528""
","""event"",""trial"",""time""
""fullscreenenter"",""1"",""1347""
","
","","","-1","","","18","7686","3910","&#9761;","elianto","#3366ff99","-1","-1","1","+10","[]","0","0","2","","","","","","","",""
"pit-trial","38","422354","0.0-2.0-11.0-1.0","battery-v0.2","","""event"",""trial"",""time""
""fullscreenenter"",""1"",""1347""
""blur"",""7"",""88016""
""focus"",""7"",""89528""
","""event"",""trial"",""time""
""blur"",""7"",""88016""
","""event"",""trial"",""time""
""focus"",""7"",""89528""
","""event"",""trial"",""time""
""fullscreenenter"",""1"",""1347""
","
","","","-1","","","18","7686","3910","&#9761;","elianto","#3366ff99","-1","-1","1","+10","[]","0","0","2","","","","","","","",""
"pit-trial","39","427225","0.0-2.0-11.0-2.0","battery-v0.2","","""event"",""trial"",""time""
""fullscreenenter"",""1"",""1347""
""blur"",""7"",""88016""
""focus"",""7"",""89528""
","""event"",""trial"",""time""
""blur"",""7"",""88016""
","""event"",""trial"",""time""
""focus"",""7"",""89528""
","""event"",""trial"",""time""
""fullscreenenter"",""1"",""1347""
","
","","","-1","","","18","7686","3910","&#9761;","elianto","#3366ff99","-1","-1","1","+10","[]","0","0","2","","","","","","","",""
"pit-trial","40","432090","0.0-2.0-11.0-3.0","battery-v0.2","","""event"",""trial"",""time""
""fullscreenenter"",""1"",""1347""
""blur"",""7"",""88016""
""focus"",""7"",""89528""
","""event"",""trial"",""time""
""blur"",""7"",""88016""
","""event"",""trial"",""time""
""focus"",""7"",""89528""
","""event"",""trial"",""time""
""fullscreenenter"",""1"",""1347""
","
","","","-1","","","18","7686","3910","&#9761;","elianto","#3366ff99","-1","-1","1","0","[]","0","0","2","","","","","","","",""
"pit-trial","41","436954","0.0-2.0-11.0-4.0","battery-v0.2","","""event"",""trial"",""time""
""fullscreenenter"",""1"",""1347""
""blur"",""7"",""88016""
""focus"",""7"",""89528""
","""event"",""trial"",""time""
""blur"",""7"",""88016""
","""event"",""trial"",""time""
""focus"",""7"",""89528""
","""event"",""trial"",""time""
""fullscreenenter"",""1"",""1347""
","
","","","-1","","","18","7686","3910","&#9761;","elianto","#3366ff99","-1","-1","1","+10","[]","0","0","2","","","","","","","",""
"pit-trial","42","441825","0.0-2.0-11.1-0.1","battery-v0.2","","""event"",""trial"",""time""
""fullscreenenter"",""1"",""1347""
""blur"",""7"",""88016""
""focus"",""7"",""89528""
","""event"",""trial"",""time""
""blur"",""7"",""88016""
","""event"",""trial"",""time""
""focus"",""7"",""89528""
","""event"",""trial"",""time""
""fullscreenenter"",""1"",""1347""
","
","","","-1","","","18","7686","3910","&#9761;","elianto","#3366ff99","-1","-1","1","+10","[]","0","0","2","","","","","","","",""
"pit-trial","43","446691","0.0-2.0-11.1-1.1","battery-v0.2","","""event"",""trial"",""time""
""fullscreenenter"",""1"",""1347""
""blur"",""7"",""88016""
""focus"",""7"",""89528""
","""event"",""trial"",""time""
""blur"",""7"",""88016""
","""event"",""trial"",""time""
""focus"",""7"",""89528""
","""event"",""trial"",""time""
""fullscreenenter"",""1"",""1347""
","
","","","-1","","","18","7686","3910","&#9761;","elianto","#3366ff99","-1","-1","1","+10","[]","0","0","2","","","","","","","",""
"pit-trial","44","451562","0.0-2.0-11.1-2.1","battery-v0.2","","""event"",""trial"",""time""
""fullscreenenter"",""1"",""1347""
""blur"",""7"",""88016""
""focus"",""7"",""89528""
","""event"",""trial"",""time""
""blur"",""7"",""88016""
","""event"",""trial"",""time""
""focus"",""7"",""89528""
","""event"",""trial"",""time""
""fullscreenenter"",""1"",""1347""
","
","","","-1","","","18","7686","3910","&#9761;","elianto","#3366ff99","-1","-1","1","+10","[]","0","0","2","","","","","","","",""
"pit-trial","45","456434","0.0-2.0-11.1-3.1","battery-v0.2","","""event"",""trial"",""time""
""fullscreenenter"",""1"",""1347""
""blur"",""7"",""88016""
""focus"",""7"",""89528""
","""event"",""trial"",""time""
""blur"",""7"",""88016""
","""event"",""trial"",""time""
""focus"",""7"",""89528""
","""event"",""trial"",""time""
""fullscreenenter"",""1"",""1347""
","
","","","-1","","","18","7686","3910","&#9761;","elianto","#3366ff99","-1","-1","1","0","[]","0","0","2","","","","","","","",""
"pit-trial","46","461305","0.0-2.0-11.1-4.1","battery-v0.2","","""event"",""trial"",""time""
""fullscreenenter"",""1"",""1347""
""blur"",""7"",""88016""
""focus"",""7"",""89528""
","""event"",""trial"",""time""
""blur"",""7"",""88016""
","""event"",""trial"",""time""
""focus"",""7"",""89528""
","""event"",""trial"",""time""
""fullscreenenter"",""1"",""1347""
","
","","","-1","","","18","7686","3910","&#9761;","elianto","#3366ff99","-1","-1","1","+10","[]","0","0","2","","","","","","","",""
"pit-trial","47","466180","0.0-2.0-11.2-0.2","battery-v0.2","","""event"",""trial"",""time""
""fullscreenenter"",""1"",""1347""
""blur"",""7"",""88016""
""focus"",""7"",""89528""
","""event"",""trial"",""time""
""blur"",""7"",""88016""
","""event"",""trial"",""time""
""focus"",""7"",""89528""
","""event"",""trial"",""time""
""fullscreenenter"",""1"",""1347""
","
","","","-1","","","18","7686","3910","&#9761;","elianto","#3366ff99","-1","-1","1","+10","[]","0","0","2","","","","","","","",""
"pit-trial","48","471050","0.0-2.0-11.2-1.2","battery-v0.2","","""event"",""trial"",""time""
""fullscreenenter"",""1"",""1347""
""blur"",""7"",""88016""
""focus"",""7"",""89528""
","""event"",""trial"",""time""
""blur"",""7"",""88016""
","""event"",""trial"",""time""
""focus"",""7"",""89528""
","""event"",""trial"",""time""
""fullscreenenter"",""1"",""1347""
","
","","","-1","","","18","7686","3910","&#9761;","elianto","#3366ff99","-1","-1","1","+10","[]","0","0","2","","","","","","","",""
"pit-trial","49","475919","0.0-2.0-11.2-2.2","battery-v0.2","","""event"",""trial"",""time""
""fullscreenenter"",""1"",""1347""
""blur"",""7"",""88016""
""focus"",""7"",""89528""
","""event"",""trial"",""time""
""blur"",""7"",""88016""
","""event"",""trial"",""time""
""focus"",""7"",""89528""
","""event"",""trial"",""time""
""fullscreenenter"",""1"",""1347""
","
","","","-1","","","18","7686","3910","&#9761;","elianto","#3366ff99","-1","-1","1","+10","[]","0","0","2","","","","","","","",""
"pit-trial","50","480784","0.0-2.0-11.2-3.2","battery-v0.2","","""event"",""trial"",""time""
""fullscreenenter"",""1"",""1347""
""blur"",""7"",""88016""
""focus"",""7"",""89528""
","""event"",""trial"",""time""
""blur"",""7"",""88016""
","""event"",""trial"",""time""
""focus"",""7"",""89528""
","""event"",""trial"",""time""
""fullscreenenter"",""1"",""1347""
","
","","","-1","","","18","7686","3910","&#9761;","elianto","#3366ff99","-1","-1","1","0","[]","0","0","2","","","","","","","",""
"pit-trial","51","485650","0.0-2.0-11.2-4.2","battery-v0.2","","""event"",""trial"",""time""
""fullscreenenter"",""1"",""1347""
""blur"",""7"",""88016""
""focus"",""7"",""89528""
","""event"",""trial"",""time""
""blur"",""7"",""88016""
","""event"",""trial"",""time""
""focus"",""7"",""89528""
","""event"",""trial"",""time""
""fullscreenenter"",""1"",""1347""
","
","","","-1","","","18","7686","3910","&#9761;","elianto","#3366ff99","-1","-1","1","+10","[]","0","0","2","","","","","","","",""
"pit-trial","52","490519","0.0-2.0-11.3-0.3","battery-v0.2","","""event"",""trial"",""time""
""fullscreenenter"",""1"",""1347""
""blur"",""7"",""88016""
""focus"",""7"",""89528""
","""event"",""trial"",""time""
""blur"",""7"",""88016""
","""event"",""trial"",""time""
""focus"",""7"",""89528""
","""event"",""trial"",""time""
""fullscreenenter"",""1"",""1347""
","
","","","-1","","","18","7686","3910","&#9761;","elianto","#3366ff99","-1","-1","1","+10","[]","0","0","2","","","","","","","",""
"pit-trial","53","495384","0.0-2.0-11.3-1.3","battery-v0.2","","""event"",""trial"",""time""
""fullscreenenter"",""1"",""1347""
""blur"",""7"",""88016""
""focus"",""7"",""89528""
","""event"",""trial"",""time""
""blur"",""7"",""88016""
","""event"",""trial"",""time""
""focus"",""7"",""89528""
","""event"",""trial"",""time""
""fullscreenenter"",""1"",""1347""
","
","","","-1","","","18","7686","3910","&#9761;","elianto","#3366ff99","-1","-1","1","+10","[]","0","0","2","","","","","","","",""
"pit-trial","54","500250","0.0-2.0-11.3-2.3","battery-v0.2","","""event"",""trial"",""time""
""fullscreenenter"",""1"",""1347""
""blur"",""7"",""88016""
""focus"",""7"",""89528""
","""event"",""trial"",""time""
""blur"",""7"",""88016""
","""event"",""trial"",""time""
""focus"",""7"",""89528""
","""event"",""trial"",""time""
""fullscreenenter"",""1"",""1347""
","
","","","-1","","","18","7686","3910","&#9761;","elianto","#3366ff99","-1","-1","1","+10","[]","0","0","2","","","","","","","",""
"pit-trial","55","505124","0.0-2.0-11.3-3.3","battery-v0.2","","""event"",""trial"",""time""
""fullscreenenter"",""1"",""1347""
""blur"",""7"",""88016""
""focus"",""7"",""89528""
","""event"",""trial"",""time""
""blur"",""7"",""88016""
","""event"",""trial"",""time""
""focus"",""7"",""89528""
","""event"",""trial"",""time""
""fullscreenenter"",""1"",""1347""
","
","","","-1","","","18","7686","3910","&#9761;","elianto","#3366ff99","-1","-1","1","0","[]","0","0","2","","","","","","","",""
"pit-trial","56","509994","0.0-2.0-11.3-4.3","battery-v0.2","","""event"",""trial"",""time""
""fullscreenenter"",""1"",""1347""
""blur"",""7"",""88016""
""focus"",""7"",""89528""
","""event"",""trial"",""time""
""blur"",""7"",""88016""
","""event"",""trial"",""time""
""focus"",""7"",""89528""
","""event"",""trial"",""time""
""fullscreenenter"",""1"",""1347""
","
","","","-1","","","18","7686","3910","&#9761;","elianto","#3366ff99","-1","-1","1","+10","[]","0","0","2","","","","","","","",""
"call-function","57","509998","0.0-2.0-12.0","battery-v0.2","","""event"",""trial"",""time""
""fullscreenenter"",""1"",""1347""
""blur"",""7"",""88016""
""focus"",""7"",""89528""
","""event"",""trial"",""time""
""blur"",""7"",""88016""
","""event"",""trial"",""time""
""focus"",""7"",""89528""
","""event"",""trial"",""time""
""fullscreenenter"",""1"",""1347""
","
","","","","","","","","","","","","","","","","","","","","","","","","","","",""
"pit-instructions","58","543104","0.0-2.0-13.0","battery-v0.2","","""event"",""trial"",""time""
""fullscreenenter"",""1"",""1347""
""blur"",""7"",""88016""
""focus"",""7"",""89528""
","""event"",""trial"",""time""
""blur"",""7"",""88016""
","""event"",""trial"",""time""
""focus"",""7"",""89528""
","""event"",""trial"",""time""
""fullscreenenter"",""1"",""1347""
","
","","[{""page_index"":0,""viewing_time"":4839.600000023842},{""page_index"":1,""viewing_time"":7307.599999964237},{""page_index"":2,""viewing_time"":3224.600000023842},{""page_index"":3,""viewing_time"":11526.399999976158},{""page_index"":4,""viewing_time"":6206.300000011921}]","33105.10000002384","","","","","","","","","","","","","","","","","","","","","","","",""
"pit-trial","59","546889","0.0-2.0-14.0-0.0","battery-v0.2","","""event"",""trial"",""time""
""fullscreenenter"",""1"",""1347""
""blur"",""7"",""88016""
""focus"",""7"",""89528""
","""event"",""trial"",""time""
""blur"",""7"",""88016""
","""event"",""trial"",""time""
""focus"",""7"",""89528""
","""event"",""trial"",""time""
""fullscreenenter"",""1"",""1347""
","
","","","922.7000000476837","","","18","7686","3910","&#9826;","elianto","#f73b6a7A","-1"," ","0","-10","[1774.800000011921]","1","0","3","","","","","","","",""
"pit-trial","60","551754","0.0-2.0-14.0-1.0","battery-v0.2","","""event"",""trial"",""time""
""fullscreenenter"",""1"",""1347""
""blur"",""7"",""88016""
""focus"",""7"",""89528""
","""event"",""trial"",""time""
""blur"",""7"",""88016""
","""event"",""trial"",""time""
""focus"",""7"",""89528""
","""event"",""trial"",""time""
""fullscreenenter"",""1"",""1347""
","
","","","-1","","","18","7686","3910","&#9826;","elianto","#f73b6a7A","-1","-1","1","0","[]","0","0","3","","","","","","","",""
"pit-trial","61","556624","0.0-2.0-14.0-2.0","battery-v0.2","","""event"",""trial"",""time""
""fullscreenenter"",""1"",""1347""
""blur"",""7"",""88016""
""focus"",""7"",""89528""
","""event"",""trial"",""time""
""blur"",""7"",""88016""
","""event"",""trial"",""time""
""focus"",""7"",""89528""
","""event"",""trial"",""time""
""fullscreenenter"",""1"",""1347""
","
","","","-1","","","18","7686","3910","&#9826;","elianto","#f73b6a7A","-1","-1","1","0","[]","0","0","3","","","","","","","",""
"pit-trial","62","561489","0.0-2.0-14.0-3.0","battery-v0.2","","""event"",""trial"",""time""
""fullscreenenter"",""1"",""1347""
""blur"",""7"",""88016""
""focus"",""7"",""89528""
","""event"",""trial"",""time""
""blur"",""7"",""88016""
","""event"",""trial"",""time""
""focus"",""7"",""89528""
","""event"",""trial"",""time""
""fullscreenenter"",""1"",""1347""
","
","","","-1","","","18","7686","3910","&#9826;","elianto","#f73b6a7A","-1","-1","1","-10","[]","0","0","3","","","","","","","",""
"pit-trial","63","566353","0.0-2.0-14.0-4.0","battery-v0.2","","""event"",""trial"",""time""
""fullscreenenter"",""1"",""1347""
""blur"",""7"",""88016""
""focus"",""7"",""89528""
","""event"",""trial"",""time""
""blur"",""7"",""88016""
","""event"",""trial"",""time""
""focus"",""7"",""89528""
","""event"",""trial"",""time""
""fullscreenenter"",""1"",""1347""
","
","","","-1","","","18","7686","3910","&#9826;","elianto","#f73b6a7A","-1","-1","1","0","[]","0","0","3","","","","","","","",""
"pit-trial","64","571224","0.0-2.0-14.1-0.1","battery-v0.2","","""event"",""trial"",""time""
""fullscreenenter"",""1"",""1347""
""blur"",""7"",""88016""
""focus"",""7"",""89528""
","""event"",""trial"",""time""
""blur"",""7"",""88016""
","""event"",""trial"",""time""
""focus"",""7"",""89528""
","""event"",""trial"",""time""
""fullscreenenter"",""1"",""1347""
","
","","","-1","","","18","7686","3910","&#9826;","elianto","#f73b6a7A","-1","-1","1","0","[]","0","0","3","","","","","","","",""
"pit-trial","65","576089","0.0-2.0-14.1-1.1","battery-v0.2","","""event"",""trial"",""time""
""fullscreenenter"",""1"",""1347""
""blur"",""7"",""88016""
""focus"",""7"",""89528""
","""event"",""trial"",""time""
""blur"",""7"",""88016""
","""event"",""trial"",""time""
""focus"",""7"",""89528""
","""event"",""trial"",""time""
""fullscreenenter"",""1"",""1347""
","
","","","-1","","","18","7686","3910","&#9826;","elianto","#f73b6a7A","-1","-1","1","0","[]","0","0","3","","","","","","","",""
"pit-trial","66","580961","0.0-2.0-14.1-2.1","battery-v0.2","","""event"",""trial"",""time""
""fullscreenenter"",""1"",""1347""
""blur"",""7"",""88016""
""focus"",""7"",""89528""
","""event"",""trial"",""time""
""blur"",""7"",""88016""
","""event"",""trial"",""time""
""focus"",""7"",""89528""
","""event"",""trial"",""time""
""fullscreenenter"",""1"",""1347""
","
","","","-1","","","18","7686","3910","&#9826;","elianto","#f73b6a7A","-1","-1","1","0","[]","0","0","3","","","","","","","",""
"pit-trial","67","585825","0.0-2.0-14.1-3.1","battery-v0.2","","""event"",""trial"",""time""
""fullscreenenter"",""1"",""1347""
""blur"",""7"",""88016""
""focus"",""7"",""89528""
","""event"",""trial"",""time""
""blur"",""7"",""88016""
","""event"",""trial"",""time""
""focus"",""7"",""89528""
","""event"",""trial"",""time""
""fullscreenenter"",""1"",""1347""
","
","","","-1","","","18","7686","3910","&#9826;","elianto","#f73b6a7A","-1","-1","1","-10","[]","0","0","3","","","","","","","",""
"pit-trial","68","590699","0.0-2.0-14.1-4.1","battery-v0.2","","""event"",""trial"",""time""
""fullscreenenter"",""1"",""1347""
""blur"",""7"",""88016""
""focus"",""7"",""89528""
","""event"",""trial"",""time""
""blur"",""7"",""88016""
","""event"",""trial"",""time""
""focus"",""7"",""89528""
","""event"",""trial"",""time""
""fullscreenenter"",""1"",""1347""
","
","","","-1","","","18","7686","3910","&#9826;","elianto","#f73b6a7A","-1","-1","1","0","[]","0","0","3","","","","","","","",""
"pit-trial","69","595568","0.0-2.0-14.2-0.2","battery-v0.2","","""event"",""trial"",""time""
""fullscreenenter"",""1"",""1347""
""blur"",""7"",""88016""
""focus"",""7"",""89528""
","""event"",""trial"",""time""
""blur"",""7"",""88016""
","""event"",""trial"",""time""
""focus"",""7"",""89528""
","""event"",""trial"",""time""
""fullscreenenter"",""1"",""1347""
","
","","","-1","","","18","7686","3910","&#9826;","elianto","#f73b6a7A","-1","-1","1","0","[]","0","0","3","","","","","","","",""
"pit-trial","70","600433","0.0-2.0-14.2-1.2","battery-v0.2","","""event"",""trial"",""time""
""fullscreenenter"",""1"",""1347""
""blur"",""7"",""88016""
""focus"",""7"",""89528""
","""event"",""trial"",""time""
""blur"",""7"",""88016""
","""event"",""trial"",""time""
""focus"",""7"",""89528""
","""event"",""trial"",""time""
""fullscreenenter"",""1"",""1347""
","
","","","-1","","","18","7686","3910","&#9826;","elianto","#f73b6a7A","-1","-1","1","0","[]","0","0","3","","","","","","","",""
"pit-trial","71","605307","0.0-2.0-14.2-2.2","battery-v0.2","","""event"",""trial"",""time""
""fullscreenenter"",""1"",""1347""
""blur"",""7"",""88016""
""focus"",""7"",""89528""
","""event"",""trial"",""time""
""blur"",""7"",""88016""
","""event"",""trial"",""time""
""focus"",""7"",""89528""
","""event"",""trial"",""time""
""fullscreenenter"",""1"",""1347""
","
","","","-1","","","18","7686","3910","&#9826;","elianto","#f73b6a7A","-1","-1","1","0","[]","0","0","3","","","","","","","",""
"pit-trial","72","610178","0.0-2.0-14.2-3.2","battery-v0.2","","""event"",""trial"",""time""
""fullscreenenter"",""1"",""1347""
""blur"",""7"",""88016""
""focus"",""7"",""89528""
","""event"",""trial"",""time""
""blur"",""7"",""88016""
","""event"",""trial"",""time""
""focus"",""7"",""89528""
","""event"",""trial"",""time""
""fullscreenenter"",""1"",""1347""
","
","","","-1","","","18","7686","3910","&#9826;","elianto","#f73b6a7A","-1","-1","1","-10","[]","0","0","3","","","","","","","",""
"pit-trial","73","615049","0.0-2.0-14.2-4.2","battery-v0.2","","""event"",""trial"",""time""
""fullscreenenter"",""1"",""1347""
""blur"",""7"",""88016""
""focus"",""7"",""89528""
","""event"",""trial"",""time""
""blur"",""7"",""88016""
","""event"",""trial"",""time""
""focus"",""7"",""89528""
","""event"",""trial"",""time""
""fullscreenenter"",""1"",""1347""
","
","","","-1","","","18","7686","3910","&#9826;","elianto","#f73b6a7A","-1","-1","1","0","[]","0","0","3","","","","","","","",""
"pit-trial","74","619918","0.0-2.0-14.3-0.3","battery-v0.2","","""event"",""trial"",""time""
""fullscreenenter"",""1"",""1347""
""blur"",""7"",""88016""
""focus"",""7"",""89528""
","""event"",""trial"",""time""
""blur"",""7"",""88016""
","""event"",""trial"",""time""
""focus"",""7"",""89528""
","""event"",""trial"",""time""
""fullscreenenter"",""1"",""1347""
","
","","","-1","","","18","7686","3910","&#9826;","elianto","#f73b6a7A","-1","-1","1","0","[]","0","0","3","","","","","","","",""
"pit-trial","75","624783","0.0-2.0-14.3-1.3","battery-v0.2","","""event"",""trial"",""time""
""fullscreenenter"",""1"",""1347""
""blur"",""7"",""88016""
""focus"",""7"",""89528""
","""event"",""trial"",""time""
""blur"",""7"",""88016""
","""event"",""trial"",""time""
""focus"",""7"",""89528""
","""event"",""trial"",""time""
""fullscreenenter"",""1"",""1347""
","
","","","-1","","","18","7686","3910","&#9826;","elianto","#f73b6a7A","-1","-1","1","0","[]","0","0","3","","","","","","","",""
"pit-trial","76","629649","0.0-2.0-14.3-2.3","battery-v0.2","","""event"",""trial"",""time""
""fullscreenenter"",""1"",""1347""
""blur"",""7"",""88016""
""focus"",""7"",""89528""
","""event"",""trial"",""time""
""blur"",""7"",""88016""
","""event"",""trial"",""time""
""focus"",""7"",""89528""
","""event"",""trial"",""time""
""fullscreenenter"",""1"",""1347""
","
","","","-1","","","18","7686","3910","&#9826;","elianto","#f73b6a7A","-1","-1","1","0","[]","0","0","3","","","","","","","",""
"pit-trial","77","634518","0.0-2.0-14.3-3.3","battery-v0.2","","""event"",""trial"",""time""
""fullscreenenter"",""1"",""1347""
""blur"",""7"",""88016""
""focus"",""7"",""89528""
","""event"",""trial"",""time""
""blur"",""7"",""88016""
","""event"",""trial"",""time""
""focus"",""7"",""89528""
","""event"",""trial"",""time""
""fullscreenenter"",""1"",""1347""
","
","","","-1","","","18","7686","3910","&#9826;","elianto","#f73b6a7A","-1","-1","1","-10","[]","0","0","3","","","","","","","",""
"pit-trial","78","639383","0.0-2.0-14.3-4.3","battery-v0.2","","""event"",""trial"",""time""
""fullscreenenter"",""1"",""1347""
""blur"",""7"",""88016""
""focus"",""7"",""89528""
","""event"",""trial"",""time""
""blur"",""7"",""88016""
","""event"",""trial"",""time""
""focus"",""7"",""89528""
","""event"",""trial"",""time""
""fullscreenenter"",""1"",""1347""
","
","","","-1","","","18","7686","3910","&#9826;","elianto","#f73b6a7A","-1","-1","1","0","[]","0","0","3","","","","","","","",""
"call-function","79","639387","0.0-2.0-15.0","battery-v0.2","","""event"",""trial"",""time""
""fullscreenenter"",""1"",""1347""
""blur"",""7"",""88016""
""focus"",""7"",""89528""
","""event"",""trial"",""time""
""blur"",""7"",""88016""
","""event"",""trial"",""time""
""focus"",""7"",""89528""
","""event"",""trial"",""time""
""fullscreenenter"",""1"",""1347""
","
","","","","","","","","","","","","","","","","","","","","","","","","","","",""
"pit-instructions","80","665235","0.0-2.0-16.0","battery-v0.2","","""event"",""trial"",""time""
""fullscreenenter"",""1"",""1347""
""blur"",""7"",""88016""
""focus"",""7"",""89528""
","""event"",""trial"",""time""
""blur"",""7"",""88016""
","""event"",""trial"",""time""
""focus"",""7"",""89528""
","""event"",""trial"",""time""
""fullscreenenter"",""1"",""1347""
","
","","[{""page_index"":0,""viewing_time"":7925.299999952316},{""page_index"":1,""viewing_time"":8117.400000035763},{""page_index"":2,""viewing_time"":4582.099999964237},{""page_index"":3,""viewing_time"":5221.700000047684}]","25847.399999976158","","","","","","","","","","","","","","","","","","","","","","","",""
"pit-trial","81","670103","0.0-2.0-17.0-0.0","battery-v0.2","","""event"",""trial"",""time""
""fullscreenenter"",""1"",""1347""
""blur"",""7"",""88016""
""focus"",""7"",""89528""
","""event"",""trial"",""time""
""blur"",""7"",""88016""
","""event"",""trial"",""time""
""focus"",""7"",""89528""
","""event"",""trial"",""time""
""fullscreenenter"",""1"",""1347""
","
","","","-1","","","18","7686","3910","&#9789;","elianto","#f73b6a7A"," ","-1","0","-10","[3215.199999988079]","1","0","4","","","","","","","",""
"pit-trial","82","673338","0.0-2.0-17.0-1.0","battery-v0.2","","""event"",""trial"",""time""
""fullscreenenter"",""1"",""1347""
""blur"",""7"",""88016""
""focus"",""7"",""89528""
","""event"",""trial"",""time""
""blur"",""7"",""88016""
","""event"",""trial"",""time""
""focus"",""7"",""89528""
","""event"",""trial"",""time""
""fullscreenenter"",""1"",""1347""
","
","","","371","","","18","7686","3910","&#9789;","elianto","#f73b6a7A"," "," ","1","0","[1222.0999999642372]","1","0","4","","","","","","","",""
"pit-trial","83","676458","0.0-2.0-17.0-2.0","battery-v0.2","","""event"",""trial"",""time""
""fullscreenenter"",""1"",""1347""
""blur"",""7"",""88016""
""focus"",""7"",""89528""
","""event"",""trial"",""time""
""blur"",""7"",""88016""
","""event"",""trial"",""time""
""focus"",""7"",""89528""
","""event"",""trial"",""time""
""fullscreenenter"",""1"",""1347""
","
","","","255.10000002384186","","","18","7686","3910","&#9789;","elianto","#f73b6a7A"," "," ","1","0","[1106.8999999761581]","1","0","4","","","","","","","",""
"pit-trial","84","679682","0.0-2.0-17.0-3.0","battery-v0.2","","""event"",""trial"",""time""
""fullscreenenter"",""1"",""1347""
""blur"",""7"",""88016""
""focus"",""7"",""89528""
","""event"",""trial"",""time""
""blur"",""7"",""88016""
","""event"",""trial"",""time""
""focus"",""7"",""89528""
","""event"",""trial"",""time""
""fullscreenenter"",""1"",""1347""
","
","","","362.10000002384186","","","18","7686","3910","&#9789;","elianto","#f73b6a7A"," "," ","1","-10","[1213.5]","1","0","4","","","","","","","",""
"pit-trial","85","682633","0.0-2.0-17.0-4.0","battery-v0.2","","""event"",""trial"",""time""
""fullscreenenter"",""1"",""1347""
""blur"",""7"",""88016""
""focus"",""7"",""89528""
","""event"",""trial"",""time""
""blur"",""7"",""88016""
","""event"",""trial"",""time""
""focus"",""7"",""89528""
","""event"",""trial"",""time""
""fullscreenenter"",""1"",""1347""
","
","","","81.19999998807907","","","18","7686","3910","&#9789;","elianto","#f73b6a7A"," "," ","1","0","[939.1999999880791]","1","0","4","","","","","","","",""
"pit-trial","86","685538","0.0-2.0-17.1-0.1","battery-v0.2","","""event"",""trial"",""time""
""fullscreenenter"",""1"",""1347""
""blur"",""7"",""88016""
""focus"",""7"",""89528""
","""event"",""trial"",""time""
""blur"",""7"",""88016""
","""event"",""trial"",""time""
""focus"",""7"",""89528""
","""event"",""trial"",""time""
""fullscreenenter"",""1"",""1347""
","
","","","38.10000002384186","","","18","7686","3910","&#9789;","elianto","#f73b6a7A"," "," ","1","0","[893.2999999523163,1280.2999999523163]","2","0","4","","","","","","","",""
"pit-trial","87","688728","0.0-2.0-17.1-1.1","battery-v0.2","","""event"",""trial"",""time""
""fullscreenenter"",""1"",""1347""
""blur"",""7"",""88016""
""focus"",""7"",""89528""
","""event"",""trial"",""time""
""blur"",""7"",""88016""
","""event"",""trial"",""time""
""focus"",""7"",""89528""
","""event"",""trial"",""time""
""fullscreenenter"",""1"",""1347""
","
","","","329.30000001192093","","","18","7686","3910","&#9789;","elianto","#f73b6a7A"," "," ","1","0","[1182.0999999642372]","1","0","4","","","","","","","",""
"pit-trial","88","692128","0.0-2.0-17.1-2.1","battery-v0.2","","""event"",""trial"",""time""
""fullscreenenter"",""1"",""1347""
""blur"",""7"",""88016""
""focus"",""7"",""89528""
","""event"",""trial"",""time""
""blur"",""7"",""88016""
","""event"",""trial"",""time""
""focus"",""7"",""89528""
","""event"",""trial"",""time""
""fullscreenenter"",""1"",""1347""
","
","","","536.0999999642372","","","18","7686","3910","&#9789;","elianto","#f73b6a7A"," "," ","1","0","[1387.8999999761581]","1","0","4","","","","","","","",""
"pit-trial","89","695322","0.0-2.0-17.1-3.1","battery-v0.2","","""event"",""trial"",""time""
""fullscreenenter"",""1"",""1347""
""blur"",""7"",""88016""
""focus"",""7"",""89528""
","""event"",""trial"",""time""
""blur"",""7"",""88016""
","""event"",""trial"",""time""
""focus"",""7"",""89528""
","""event"",""trial"",""time""
""fullscreenenter"",""1"",""1347""
","
","","","333.9000000357628","","","18","7686","3910","&#9789;","elianto","#f73b6a7A"," "," ","1","-10","[1185.5]","1","0","4","","","","","","","",""
"pit-trial","90","698378","0.0-2.0-17.1-4.1","battery-v0.2","","""event"",""trial"",""time""
""fullscreenenter"",""1"",""1347""
""blur"",""7"",""88016""
""focus"",""7"",""89528""
","""event"",""trial"",""time""
""blur"",""7"",""88016""
","""event"",""trial"",""time""
""focus"",""7"",""89528""
","""event"",""trial"",""time""
""fullscreenenter"",""1"",""1347""
","
","","","190.19999998807907","","","18","7686","3910","&#9789;","elianto","#f73b6a7A"," "," ","1","0","[1041.3999999761581]","1","0","4","","","","","","","",""
"pit-trial","91","701626","0.0-2.0-17.2-0.2","battery-v0.2","","""event"",""trial"",""time""
""fullscreenenter"",""1"",""1347""
""blur"",""7"",""88016""
""focus"",""7"",""89528""
","""event"",""trial"",""time""
""blur"",""7"",""88016""
","""event"",""trial"",""time""
""focus"",""7"",""89528""
","""event"",""trial"",""time""
""fullscreenenter"",""1"",""1347""
","
","","","376.69999998807907","","","18","7686","3910","&#9789;","elianto","#f73b6a7A"," "," ","1","0","[1235.5]","1","0","4","","","","","","","",""
"pit-trial","92","704913","0.0-2.0-17.2-1.2","battery-v0.2","","""event"",""trial"",""time""
""fullscreenenter"",""1"",""1347""
""blur"",""7"",""88016""
""focus"",""7"",""89528""
","""event"",""trial"",""time""
""blur"",""7"",""88016""
","""event"",""trial"",""time""
""focus"",""7"",""89528""
","""event"",""trial"",""time""
""fullscreenenter"",""1"",""1347""
","
","","","428.39999997615814","","","18","7686","3910","&#9789;","elianto","#f73b6a7A"," "," ","1","0","[1278.5]","1","0","4","","","","","","","",""
"pit-trial","93","708138","0.0-2.0-17.2-2.2","battery-v0.2","","""event"",""trial"",""time""
""fullscreenenter"",""1"",""1347""
""blur"",""7"",""88016""
""focus"",""7"",""89528""
","""event"",""trial"",""time""
""blur"",""7"",""88016""
","""event"",""trial"",""time""
""focus"",""7"",""89528""
","""event"",""trial"",""time""
""fullscreenenter"",""1"",""1347""
","
","","","349.80000001192093","","","18","7686","3910","&#9789;","elianto","#f73b6a7A"," "," ","1","0","[1210.699999988079]","1","0","4","","","","","","","",""
"pit-trial","94","711728","0.0-2.0-17.2-3.2","battery-v0.2","","""event"",""trial"",""time""
""fullscreenenter"",""1"",""1347""
""blur"",""7"",""88016""
""focus"",""7"",""89528""
","""event"",""trial"",""time""
""blur"",""7"",""88016""
","""event"",""trial"",""time""
""focus"",""7"",""89528""
","""event"",""trial"",""time""
""fullscreenenter"",""1"",""1347""
","
","","","727.1999999880791","","","18","7686","3910","&#9789;","elianto","#f73b6a7A"," "," ","1","-10","[1579.699999988079]","1","0","4","","","","","","","",""
"pit-trial","95","716053","0.0-2.0-17.2-4.2","battery-v0.2","","""event"",""trial"",""time""
""fullscreenenter"",""1"",""1347""
""blur"",""7"",""88016""
""focus"",""7"",""89528""
","""event"",""trial"",""time""
""blur"",""7"",""88016""
","""event"",""trial"",""time""
""focus"",""7"",""89528""
","""event"",""trial"",""time""
""fullscreenenter"",""1"",""1347""
","
","","","1465.1000000238419","","","18","7686","3910","&#9789;","elianto","#f73b6a7A"," "," ","1","0","[2319.699999988079]","1","0","4","","","","","","","",""
"pit-trial","96","719817","0.0-2.0-17.3-0.3","battery-v0.2","","""event"",""trial"",""time""
""fullscreenenter"",""1"",""1347""
""blur"",""7"",""88016""
""focus"",""7"",""89528""
","""event"",""trial"",""time""
""blur"",""7"",""88016""
","""event"",""trial"",""time""
""focus"",""7"",""89528""
","""event"",""trial"",""time""
""fullscreenenter"",""1"",""1347""
","
","","","901.6000000238419","","","18","7686","3910","&#9789;","elianto","#f73b6a7A"," "," ","1","0","[1752.2999999523163]","1","0","4","","","","","","","",""
"pit-trial","97","723302","0.0-2.0-17.3-1.3","battery-v0.2","","""event"",""trial"",""time""
""fullscreenenter"",""1"",""1347""
""blur"",""7"",""88016""
""focus"",""7"",""89528""
","""event"",""trial"",""time""
""blur"",""7"",""88016""
","""event"",""trial"",""time""
""focus"",""7"",""89528""
","""event"",""trial"",""time""
""fullscreenenter"",""1"",""1347""
","
","","","615.6999999880791","","","18","7686","3910","&#9789;","elianto","#f73b6a7A"," "," ","1","0","[1472.699999988079]","1","0","4","","","","","","","",""
"pit-trial","98","726751","0.0-2.0-17.3-2.3","battery-v0.2","","""event"",""trial"",""time""
""fullscreenenter"",""1"",""1347""
""blur"",""7"",""88016""
""focus"",""7"",""89528""
","""event"",""trial"",""time""
""blur"",""7"",""88016""
","""event"",""trial"",""time""
""focus"",""7"",""89528""
","""event"",""trial"",""time""
""fullscreenenter"",""1"",""1347""
","
","","","581.8999999761581","","","18","7686","3910","&#9789;","elianto","#f73b6a7A"," "," ","1","0","[1436.699999988079]","1","0","4","","","","","","","",""
"pit-trial","99","730177","0.0-2.0-17.3-3.3","battery-v0.2","","""event"",""trial"",""time""
""fullscreenenter"",""1"",""1347""
""blur"",""7"",""88016""
""focus"",""7"",""89528""
","""event"",""trial"",""time""
""blur"",""7"",""88016""
","""event"",""trial"",""time""
""focus"",""7"",""89528""
","""event"",""trial"",""time""
""fullscreenenter"",""1"",""1347""
","
","","","558.3000000119209","","","18","7686","3910","&#9789;","elianto","#f73b6a7A"," "," ","1","-10","[1412.699999988079]","1","0","4","","","","","","","",""
"pit-trial","100","733297","0.0-2.0-17.3-4.3","battery-v0.2","","""event"",""trial"",""time""
""fullscreenenter"",""1"",""1347""
""blur"",""7"",""88016""
""focus"",""7"",""89528""
","""event"",""trial"",""time""
""blur"",""7"",""88016""
","""event"",""trial"",""time""
""focus"",""7"",""89528""
","""event"",""trial"",""time""
""fullscreenenter"",""1"",""1347""
","
","","","248.30000001192093","","","18","7686","3910","&#9789;","elianto","#f73b6a7A"," "," ","1","0","[1108.5]","1","0","4","","","","","","","",""
"call-function","101","733301","0.0-2.0-18.0","battery-v0.2","","""event"",""trial"",""time""
""fullscreenenter"",""1"",""1347""
""blur"",""7"",""88016""
""focus"",""7"",""89528""
","""event"",""trial"",""time""
""blur"",""7"",""88016""
","""event"",""trial"",""time""
""focus"",""7"",""89528""
","""event"",""trial"",""time""
""fullscreenenter"",""1"",""1347""
","
","","","","","","","","","","","","","","","","","","","","","","","","","","",""
"pit-instructions","102","795012","0.0-2.0-19.0","battery-v0.2","","""event"",""trial"",""time""
""fullscreenenter"",""1"",""1347""
""blur"",""7"",""88016""
""focus"",""7"",""89528""
","""event"",""trial"",""time""
""blur"",""7"",""88016""
","""event"",""trial"",""time""
""focus"",""7"",""89528""
","""event"",""trial"",""time""
""fullscreenenter"",""1"",""1347""
","
","","[{""page_index"":0,""viewing_time"":6382.899999976158},{""page_index"":1,""viewing_time"":4471.200000047684},{""page_index"":2,""viewing_time"":13451},{""page_index"":3,""viewing_time"":6222.5},{""page_index"":4,""viewing_time"":6069.799999952316},{""page_index"":5,""viewing_time"":8388.700000047684},{""page_index"":6,""viewing_time"":7024.199999988079},{""page_index"":7,""viewing_time"":5392.899999976158},{""page_index"":8,""viewing_time"":4306.699999988079}]","61710.80000001192","","","","","","","","","","","","","","","","","","","","","","","",""
"pit-comprehension","103","799627","0.0-2.0-20.0-0.0","battery-v0.2","","""event"",""trial"",""time""
""fullscreenenter"",""1"",""1347""
""blur"",""7"",""88016""
""focus"",""7"",""89528""
","""event"",""trial"",""time""
""blur"",""7"",""88016""
","""event"",""trial"",""time""
""focus"",""7"",""89528""
","""event"",""trial"",""time""
""fullscreenenter"",""1"",""1347""
","
","","","4607.599999964237","[""SPACE""]","0","18","7686","3910","","","","","","","","","","","","","","","","","","",""
"pit-instructions","104","802730","0.0-2.0-20.0-1.0","battery-v0.2","","""event"",""trial"",""time""
""fullscreenenter"",""1"",""1347""
""blur"",""7"",""88016""
""focus"",""7"",""89528""
","""event"",""trial"",""time""
""blur"",""7"",""88016""
","""event"",""trial"",""time""
""focus"",""7"",""89528""
","""event"",""trial"",""time""
""fullscreenenter"",""1"",""1347""
","
","","[{""page_index"":0,""viewing_time"":3064.600000023842}]","3065.2000000476837","","","","","","","","","","","","","","","","","","","","","","","",""
"pit-comprehension","105","808295","0.0-2.0-21.0-0.0","battery-v0.2","","""event"",""trial"",""time""
""fullscreenenter"",""1"",""1347""
""blur"",""7"",""88016""
""focus"",""7"",""89528""
","""event"",""trial"",""time""
""blur"",""7"",""88016""
","""event"",""trial"",""time""
""focus"",""7"",""89528""
","""event"",""trial"",""time""
""fullscreenenter"",""1"",""1347""
","
","","","5559.200000047684","[""10""]","0","18","7686","3910","","","","","","","","","","","","","","","","","","",""
"pit-instructions","106","810035","0.0-2.0-21.0-1.0","battery-v0.2","","""event"",""trial"",""time""
""fullscreenenter"",""1"",""1347""
""blur"",""7"",""88016""
""focus"",""7"",""89528""
","""event"",""trial"",""time""
""blur"",""7"",""88016""
","""event"",""trial"",""time""
""focus"",""7"",""89528""
","""event"",""trial"",""time""
""fullscreenenter"",""1"",""1347""
","
","","[{""page_index"":0,""viewing_time"":1704.9000000357628}]","1705.300000011921","","","","","","","","","","","","","","","","","","","","","","","",""
"pit-comprehension","107","816511","0.0-2.0-22.0-0.0","battery-v0.2","","""event"",""trial"",""time""
""fullscreenenter"",""1"",""1347""
""blur"",""7"",""88016""
""focus"",""7"",""89528""
","""event"",""trial"",""time""
""blur"",""7"",""88016""
","""event"",""trial"",""time""
""focus"",""7"",""89528""
","""event"",""trial"",""time""
""fullscreenenter"",""1"",""1347""
","
","","","6470.899999976158","[""0""]","0","18","7686","3910","","","","","","","","","","","","","","","","","","",""
"pit-instructions","108","817942","0.0-2.0-22.0-1.0","battery-v0.2","","""event"",""trial"",""time""
""fullscreenenter"",""1"",""1347""
""blur"",""7"",""88016""
""focus"",""7"",""89528""
","""event"",""trial"",""time""
""blur"",""7"",""88016""
","""event"",""trial"",""time""
""focus"",""7"",""89528""
","""event"",""trial"",""time""
""fullscreenenter"",""1"",""1347""
","
","","[{""page_index"":0,""viewing_time"":1395.800000011921}]","1396.199999988079","","","","","","","","","","","","","","","","","","","","","","","",""
"pit-comprehension","109","826491","0.0-2.0-23.0-0.0","battery-v0.2","","""event"",""trial"",""time""
""fullscreenenter"",""1"",""1347""
""blur"",""7"",""88016""
""focus"",""7"",""89528""
","""event"",""trial"",""time""
""blur"",""7"",""88016""
","""event"",""trial"",""time""
""focus"",""7"",""89528""
","""event"",""trial"",""time""
""fullscreenenter"",""1"",""1347""
","
","","","8544.5","[""True""]","0","18","7686","3910","","","","","","","","","","","","","","","","","","",""
"pit-instructions","110","827971","0.0-2.0-23.0-1.0","battery-v0.2","","""event"",""trial"",""time""
""fullscreenenter"",""1"",""1347""
""blur"",""7"",""88016""
""focus"",""7"",""89528""
","""event"",""trial"",""time""
""blur"",""7"",""88016""
","""event"",""trial"",""time""
""focus"",""7"",""89528""
","""event"",""trial"",""time""
""fullscreenenter"",""1"",""1347""
","
","","[{""page_index"":0,""viewing_time"":1443.9000000357628}]","1444.5","","","","","","","","","","","","","","","","","","","","","","","",""
"pit-comprehension","111","836000","0.0-2.0-24.0-0.0","battery-v0.2","","""event"",""trial"",""time""
""fullscreenenter"",""1"",""1347""
""blur"",""7"",""88016""
""focus"",""7"",""89528""
","""event"",""trial"",""time""
""blur"",""7"",""88016""
","""event"",""trial"",""time""
""focus"",""7"",""89528""
","""event"",""trial"",""time""
""fullscreenenter"",""1"",""1347""
","
","","","8024","[""True""]","0","18","7686","3910","","","","","","","","","","","","","","","","","","",""
"pit-instructions","112","837368","0.0-2.0-24.0-1.0","battery-v0.2","","""event"",""trial"",""time""
""fullscreenenter"",""1"",""1347""
""blur"",""7"",""88016""
""focus"",""7"",""89528""
","""event"",""trial"",""time""
""blur"",""7"",""88016""
","""event"",""trial"",""time""
""focus"",""7"",""89528""
","""event"",""trial"",""time""
""fullscreenenter"",""1"",""1347""
","
","","[{""page_index"":0,""viewing_time"":1331.9000000357628}]","1332.4000000357628","","","","","","","","","","","","","","","","","","","","","","","",""
"pit-comprehension","113","843734","0.0-2.0-25.0-0.0","battery-v0.2","","""event"",""trial"",""time""
""fullscreenenter"",""1"",""1347""
""blur"",""7"",""88016""
""focus"",""7"",""89528""
","""event"",""trial"",""time""
""blur"",""7"",""88016""
","""event"",""trial"",""time""
""focus"",""7"",""89528""
","""event"",""trial"",""time""
""fullscreenenter"",""1"",""1347""
","
","","","6361.900000035763","[""True""]","0","18","7686","3910","","","","","","","","","","","","","","","","","","",""
"pit-instructions","114","845120","0.0-2.0-25.0-1.0","battery-v0.2","","""event"",""trial"",""time""
""fullscreenenter"",""1"",""1347""
""blur"",""7"",""88016""
""focus"",""7"",""89528""
","""event"",""trial"",""time""
""blur"",""7"",""88016""
","""event"",""trial"",""time""
""focus"",""7"",""89528""
","""event"",""trial"",""time""
""fullscreenenter"",""1"",""1347""
","
","","[{""page_index"":0,""viewing_time"":1357.300000011921}]","1357.800000011921","","","","","","","","","","","","","","","","","","","","","","","",""
"pit-comprehension","115","849735","0.0-2.0-26.0-0.0","battery-v0.2","","""event"",""trial"",""time""
""fullscreenenter"",""1"",""1347""
""blur"",""7"",""88016""
""focus"",""7"",""89528""
","""event"",""trial"",""time""
""blur"",""7"",""88016""
","""event"",""trial"",""time""
""focus"",""7"",""89528""
","""event"",""trial"",""time""
""fullscreenenter"",""1"",""1347""
","
","","","4610.5","[""False""]","0","18","7686","3910","","","","","","","","","","","","","","","","","","",""
"pit-instructions","116","851135","0.0-2.0-26.0-1.0","battery-v0.2","","""event"",""trial"",""time""
""fullscreenenter"",""1"",""1347""
""blur"",""7"",""88016""
""focus"",""7"",""89528""
","""event"",""trial"",""time""
""blur"",""7"",""88016""
","""event"",""trial"",""time""
""focus"",""7"",""89528""
","""event"",""trial"",""time""
""fullscreenenter"",""1"",""1347""
","
","","[{""page_index"":0,""viewing_time"":1364.3999999761581}]","1364.800000011921","","","","","","","","","","","","","","","","","","","","","","","",""
"pit-instructions","117","867853","0.0-3.0","battery-v0.2","","""event"",""trial"",""time""
""fullscreenenter"",""1"",""1347""
""blur"",""7"",""88016""
""focus"",""7"",""89528""
","""event"",""trial"",""time""
""blur"",""7"",""88016""
","""event"",""trial"",""time""
""focus"",""7"",""89528""
","""event"",""trial"",""time""
""fullscreenenter"",""1"",""1347""
","
","","[{""page_index"":0,""viewing_time"":3712.099999964237},{""page_index"":1,""viewing_time"":5294.300000011921},{""page_index"":2,""viewing_time"":7708}]","16715","","","","","","","","","","","","","","","","","","","","","","","",""
"pit-trial","118","871686","0.0-4.0","battery-v0.2","","""event"",""trial"",""time""
""fullscreenenter"",""1"",""1347""
""blur"",""7"",""88016""
""focus"",""7"",""89528""
","""event"",""trial"",""time""
""blur"",""7"",""88016""
","""event"",""trial"",""time""
""focus"",""7"",""89528""
","""event"",""trial"",""time""
""fullscreenenter"",""1"",""1347""
","
","","","962.0999999642372","","","18","7686","3910","&#9752;","elianto","#f73b6a7A"," "," ","1","0","[1817.8999999761581]","1","1","","","7686","1","3","3","lose","go","0"
"pit-trial","119","875216","0.0-5.0","battery-v0.2","","""event"",""trial"",""time""
""fullscreenenter"",""1"",""1347""
""blur"",""7"",""88016""
""focus"",""7"",""89528""
","""event"",""trial"",""time""
""blur"",""7"",""88016""
","""event"",""trial"",""time""
""focus"",""7"",""89528""
","""event"",""trial"",""time""
""fullscreenenter"",""1"",""1347""
","
","","","664.8000000119209","","","18","7686","3910","&#9730;","elianto","#3366ff99"," "," ","1","+10","[1516.8999999761581]","1","1","","","7686","2","1","1","win","go","0"
"pit-trial","120","878702","0.0-6.0","battery-v0.2","","""event"",""trial"",""time""
""fullscreenenter"",""1"",""1347""
""blur"",""7"",""88016""
""focus"",""7"",""89528""
","""event"",""trial"",""time""
""blur"",""7"",""88016""
","""event"",""trial"",""time""
""focus"",""7"",""89528""
","""event"",""trial"",""time""
""fullscreenenter"",""1"",""1347""
","
","","","618.5","","","18","7686","3910","&#9728;","elianto","#f73b6a7A","-1"," ","0","-10","[1474.199999988079]","1","1","","","7686","3","0","4","lose","no-go","0"
"pit-trial","121","882246","0.0-7.0","battery-v0.2","","""event"",""trial"",""time""
""fullscreenenter"",""1"",""1347""
""blur"",""7"",""88016""
""focus"",""7"",""89528""
","""event"",""trial"",""time""
""blur"",""7"",""88016""
","""event"",""trial"",""time""
""focus"",""7"",""89528""
","""event"",""trial"",""time""
""fullscreenenter"",""1"",""1347""
","
","","","685.5999999642372","","","18","7686","3910","&#9733;","elianto","#3366ff99","-1"," ","0","0","[1536.300000011921]","1","1","","","7686","4","2","2","win","no-go","0"
"pit-trial","122","885886","0.0-8.0","battery-v0.2","","""event"",""trial"",""time""
""fullscreenenter"",""1"",""1347""
""blur"",""7"",""88016""
""focus"",""7"",""89528""
","""event"",""trial"",""time""
""blur"",""7"",""88016""
","""event"",""trial"",""time""
""focus"",""7"",""89528""
","""event"",""trial"",""time""
""fullscreenenter"",""1"",""1347""
","
","","","780.6999999880791","","","18","7686","3910","&#9733;","elianto","#3366ff99","-1"," ","0","0","[1632.5]","1","1","","","7686","5","2","2","win","no-go","0"
"pit-trial","123","889664","0.0-9.0","battery-v0.2","","""event"",""trial"",""time""
""fullscreenenter"",""1"",""1347""
""blur"",""7"",""88016""
""focus"",""7"",""89528""
","""event"",""trial"",""time""
""blur"",""7"",""88016""
","""event"",""trial"",""time""
""focus"",""7"",""89528""
","""event"",""trial"",""time""
""fullscreenenter"",""1"",""1347""
","
","","","917.4000000357628","","","18","7686","3910","&#9730;","elianto","#3366ff99"," "," ","1","+10","[1769.3999999761581]","1","1","","","7686","6","1","1","win","go","0"
"pit-trial","124","894536","0.0-10.0","battery-v0.2","","""event"",""trial"",""time""
""fullscreenenter"",""1"",""1347""
""blur"",""7"",""88016""
""focus"",""7"",""89528""
","""event"",""trial"",""time""
""blur"",""7"",""88016""
","""event"",""trial"",""time""
""focus"",""7"",""89528""
","""event"",""trial"",""time""
""fullscreenenter"",""1"",""1347""
","
","","","-1","","","18","7686","3910","&#9728;","elianto","#f73b6a7A","-1","-1","1","0","[]","0","1","","","7686","7","0","4","lose","no-go","0"
"pit-trial","125","898872","0.0-11.0","battery-v0.2","","""event"",""trial"",""time""
""fullscreenenter"",""1"",""1347""
""blur"",""7"",""88016""
""focus"",""7"",""89528""
","""event"",""trial"",""time""
""blur"",""7"",""88016""
","""event"",""trial"",""time""
""focus"",""7"",""89528""
","""event"",""trial"",""time""
""fullscreenenter"",""1"",""1347""
","
","","","1466.9000000357628","","","18","7686","3910","&#9752;","elianto","#f73b6a7A"," "," ","1","0","[2320.2000000476837]","1","1","","","7686","8","3","3","lose","go","0"
"pit-trial","126","902447","0.0-12.0","battery-v0.2","","""event"",""trial"",""time""
""fullscreenenter"",""1"",""1347""
""blur"",""7"",""88016""
""focus"",""7"",""89528""
","""event"",""trial"",""time""
""blur"",""7"",""88016""
","""event"",""trial"",""time""
""focus"",""7"",""89528""
","""event"",""trial"",""time""
""fullscreenenter"",""1"",""1347""
","
","","","717.1999999880791","","","18","7686","3910","&#9730;","elianto","#3366ff99"," "," ","1","+10","[1567.4000000357628]","1","1","","","7686","9","1","1","win","go","0"
"pit-trial","127","907316","0.0-13.0","battery-v0.2","","""event"",""trial"",""time""
""fullscreenenter"",""1"",""1347""
""blur"",""7"",""88016""
""focus"",""7"",""89528""
","""event"",""trial"",""time""
""blur"",""7"",""88016""
","""event"",""trial"",""time""
""focus"",""7"",""89528""
","""event"",""trial"",""time""
""fullscreenenter"",""1"",""1347""
","
","","","-1","","","18","7686","3910","&#9752;","elianto","#f73b6a7A"," ","-1","0","-10","[3026.300000011921]","1","1","","","7686","10","3","3","lose","go","0"
"pit-trial","128","912180","0.0-14.0","battery-v0.2","","""event"",""trial"",""time""
""fullscreenenter"",""1"",""1347""
""blur"",""7"",""88016""
""focus"",""7"",""89528""
","""event"",""trial"",""time""
""blur"",""7"",""88016""
","""event"",""trial"",""time""
""focus"",""7"",""89528""
","""event"",""trial"",""time""
""fullscreenenter"",""1"",""1347""
","
","","","-1","","","18","7686","3910","&#9728;","elianto","#f73b6a7A","-1","-1","1","0","[]","0","1","","","7686","11","0","4","lose","no-go","0"
"pit-trial","129","917047","0.0-15.0","battery-v0.2","","""event"",""trial"",""time""
""fullscreenenter"",""1"",""1347""
""blur"",""7"",""88016""
""focus"",""7"",""89528""
","""event"",""trial"",""time""
""blur"",""7"",""88016""
","""event"",""trial"",""time""
""focus"",""7"",""89528""
","""event"",""trial"",""time""
""fullscreenenter"",""1"",""1347""
","
","","","-1","","","18","7686","3910","&#9733;","elianto","#3366ff99","-1","-1","1","+10","[]","0","1","","","7686","12","2","2","win","no-go","0"
"pit-trial","130","920638","0.0-16.0","battery-v0.2","","""event"",""trial"",""time""
""fullscreenenter"",""1"",""1347""
""blur"",""7"",""88016""
""focus"",""7"",""89528""
","""event"",""trial"",""time""
""blur"",""7"",""88016""
","""event"",""trial"",""time""
""focus"",""7"",""89528""
","""event"",""trial"",""time""
""fullscreenenter"",""1"",""1347""
","
","","","722.8000000119209","","","18","7686","3910","&#9730;","elianto","#3366ff99"," "," ","1","0","[1581]","1","1","","","7686","13","1","1","win","go","1"
"pit-trial","131","925511","0.0-17.0","battery-v0.2","","""event"",""trial"",""time""
""fullscreenenter"",""1"",""1347""
""blur"",""7"",""88016""
""focus"",""7"",""89528""
","""event"",""trial"",""time""
""blur"",""7"",""88016""
","""event"",""trial"",""time""
""focus"",""7"",""89528""
","""event"",""trial"",""time""
""fullscreenenter"",""1"",""1347""
","
","","","-1","","","18","7686","3910","&#9733;","elianto","#3366ff99","-1","-1","1","0","[]","0","1","","","7686","14","2","2","win","no-go","1"
"pit-trial","132","930380","0.0-18.0","battery-v0.2","","""event"",""trial"",""time""
""fullscreenenter"",""1"",""1347""
""blur"",""7"",""88016""
""focus"",""7"",""89528""
","""event"",""trial"",""time""
""blur"",""7"",""88016""
","""event"",""trial"",""time""
""focus"",""7"",""89528""
","""event"",""trial"",""time""
""fullscreenenter"",""1"",""1347""
","
","","","-1","","","18","7686","3910","&#9728;","elianto","#f73b6a7A","-1","-1","1","0","[]","0","1","","","7686","15","0","4","lose","no-go","0"
"pit-trial","133","933984","0.0-19.0","battery-v0.2","","""event"",""trial"",""time""
""fullscreenenter"",""1"",""1347""
""blur"",""7"",""88016""
""focus"",""7"",""89528""
","""event"",""trial"",""time""
""blur"",""7"",""88016""
","""event"",""trial"",""time""
""focus"",""7"",""89528""
","""event"",""trial"",""time""
""fullscreenenter"",""1"",""1347""
","
","","","738.3999999761581","","","18","7686","3910","&#9752;","elianto","#f73b6a7A"," "," ","1","0","[1593.8999999761581]","1","1","","","7686","16","3","3","lose","go","0"
"pit-trial","134","937701","0.0-20.0","battery-v0.2","","""event"",""trial"",""time""
""fullscreenenter"",""1"",""1347""
""blur"",""7"",""88016""
""focus"",""7"",""89528""
","""event"",""trial"",""time""
""blur"",""7"",""88016""
","""event"",""trial"",""time""
""focus"",""7"",""89528""
","""event"",""trial"",""time""
""fullscreenenter"",""1"",""1347""
","
","","","858.5999999642372","","","18","7686","3910","&#9733;","elianto","#3366ff99","-1"," ","0","+10","[1710.4000000357628]","1","1","","","7686","17","2","2","win","no-go","1"
"pit-trial","135","941768","0.0-21.0","battery-v0.2","","""event"",""trial"",""time""
""fullscreenenter"",""1"",""1347""
""blur"",""7"",""88016""
""focus"",""7"",""89528""
","""event"",""trial"",""time""
""blur"",""7"",""88016""
","""event"",""trial"",""time""
""focus"",""7"",""89528""
","""event"",""trial"",""time""
""fullscreenenter"",""1"",""1347""
","
","","","1202.199999988079","","","18","7686","3910","&#9752;","elianto","#f73b6a7A"," "," ","1","0","[2055.099999964237]","1","1","","","7686","18","3","3","lose","go","0"
"pit-trial","136","946639","0.0-22.0","battery-v0.2","","""event"",""trial"",""time""
""fullscreenenter"",""1"",""1347""
""blur"",""7"",""88016""
""focus"",""7"",""89528""
","""event"",""trial"",""time""
""blur"",""7"",""88016""
","""event"",""trial"",""time""
""focus"",""7"",""89528""
","""event"",""trial"",""time""
""fullscreenenter"",""1"",""1347""
","
","","","-1","","","18","7686","3910","&#9728;","elianto","#f73b6a7A","-1","-1","1","0","[]","0","1","","","7686","19","0","4","lose","no-go","0"
"pit-trial","137","950141","0.0-23.0","battery-v0.2","","""event"",""trial"",""time""
""fullscreenenter"",""1"",""1347""
""blur"",""7"",""88016""
""focus"",""7"",""89528""
","""event"",""trial"",""time""
""blur"",""7"",""88016""
","""event"",""trial"",""time""
""focus"",""7"",""89528""
","""event"",""trial"",""time""
""fullscreenenter"",""1"",""1347""
","
","","","645.4000000357628","","","18","7686","3910","&#9730;","elianto","#3366ff99"," "," ","1","+10","[1495.800000011921]","1","1","","","7686","20","1","1","win","go","0"
"pit-instructions","138","964421","0.0-24.0","battery-v0.2","","""event"",""trial"",""time""
""fullscreenenter"",""1"",""1347""
""blur"",""7"",""88016""
""focus"",""7"",""89528""
","""event"",""trial"",""time""
""blur"",""7"",""88016""
","""event"",""trial"",""time""
""focus"",""7"",""89528""
","""event"",""trial"",""time""
""fullscreenenter"",""1"",""1347""
","
","","[{""page_index"":0,""viewing_time"":6808.400000035763},{""page_index"":1,""viewing_time"":7468.899999976158}]","14277.699999988079","","","","","","","","","","","","","","","","","","","","","","","",""
"pit-trial","139","968222","0.0-25.0","battery-v0.2","","""event"",""trial"",""time""
""fullscreenenter"",""1"",""1347""
""blur"",""7"",""88016""
""focus"",""7"",""89528""
","""event"",""trial"",""time""
""blur"",""7"",""88016""
","""event"",""trial"",""time""
""focus"",""7"",""89528""
","""event"",""trial"",""time""
""fullscreenenter"",""1"",""1347""
","
","","","926.8000000119209","","","18","7686","3910","w","elianto","#f73b6a7A"," "," ","1","-10","[1786.1000000238419]","1","2","","","7686","21","3","3","lose","go","1"
"pit-trial","140","972263","0.0-26.0","battery-v0.2","","""event"",""trial"",""time""
""fullscreenenter"",""1"",""1347""
""blur"",""7"",""88016""
""focus"",""7"",""89528""
","""event"",""trial"",""time""
""blur"",""7"",""88016""
","""event"",""trial"",""time""
""focus"",""7"",""89528""
","""event"",""trial"",""time""
""fullscreenenter"",""1"",""1347""
","
","","","1178.7999999523163","","","18","7686","3910","d","elianto","#3366ff99"," "," ","1","0","[2029.300000011921]","1","2","","","7686","22","1","1","win","go","1"
"pit-trial","141","976820","0.0-27.0","battery-v0.2","","""event"",""trial"",""time""
""fullscreenenter"",""1"",""1347""
""blur"",""7"",""88016""
""focus"",""7"",""89528""
","""event"",""trial"",""time""
""blur"",""7"",""88016""
","""event"",""trial"",""time""
""focus"",""7"",""89528""
","""event"",""trial"",""time""
""fullscreenenter"",""1"",""1347""
","
","","","1687.699999988079","","","18","7686","3910","j","elianto","#f73b6a7A","-1"," ","0","-10","[2544.699999988079]","1","2","","","7686","23","0","4","lose","no-go","0"
"pit-trial","142","981500","0.0-28.0","battery-v0.2","","""event"",""trial"",""time""
""fullscreenenter"",""1"",""1347""
""blur"",""7"",""88016""
""focus"",""7"",""89528""
","""event"",""trial"",""time""
""blur"",""7"",""88016""
","""event"",""trial"",""time""
""focus"",""7"",""89528""
","""event"",""trial"",""time""
""fullscreenenter"",""1"",""1347""
","
","","","1822.5","","","18","7686","3910","e","elianto","#f73b6a7A","-1"," ","0","-10","[2675.400000035763]","1","2","","","7686","24","2","4","lose","no-go","0"
"pit-trial","143","985515","0.0-29.0","battery-v0.2","","""event"",""trial"",""time""
""fullscreenenter"",""1"",""1347""
""blur"",""7"",""88016""
""focus"",""7"",""89528""
","""event"",""trial"",""time""
""blur"",""7"",""88016""
","""event"",""trial"",""time""
""focus"",""7"",""89528""
","""event"",""trial"",""time""
""fullscreenenter"",""1"",""1347""
","
","","","1157.0999999642372","","","18","7686","3910","e","elianto","#f73b6a7A","-1"," ","0","0","[2008.800000011921]","1","2","","","7686","25","2","4","lose","no-go","1"
"pit-trial","144","989175","0.0-30.0","battery-v0.2","","""event"",""trial"",""time""
""fullscreenenter"",""1"",""1347""
""blur"",""7"",""88016""
""focus"",""7"",""89528""
","""event"",""trial"",""time""
""blur"",""7"",""88016""
","""event"",""trial"",""time""
""focus"",""7"",""89528""
","""event"",""trial"",""time""
""fullscreenenter"",""1"",""1347""
","
","","","789.5","","","18","7686","3910","d","elianto","#3366ff99"," "," ","1","+10","[1646.0999999642372]","1","2","","","7686","26","1","1","win","go","0"
"pit-trial","145","994059","0.0-31.0","battery-v0.2","","""event"",""trial"",""time""
""fullscreenenter"",""1"",""1347""
""blur"",""7"",""88016""
""focus"",""7"",""89528""
","""event"",""trial"",""time""
""blur"",""7"",""88016""
","""event"",""trial"",""time""
""focus"",""7"",""89528""
","""event"",""trial"",""time""
""fullscreenenter"",""1"",""1347""
","
","","","-1","","","18","7686","3910","j","elianto","#f73b6a7A","-1","-1","1","0","[]","0","2","","","7686","27","0","4","lose","no-go","0"
"pit-trial","146","998926","0.0-32.0","battery-v0.2","","""event"",""trial"",""time""
""fullscreenenter"",""1"",""1347""
""blur"",""7"",""88016""
""focus"",""7"",""89528""
","""event"",""trial"",""time""
""blur"",""7"",""88016""
","""event"",""trial"",""time""
""focus"",""7"",""89528""
","""event"",""trial"",""time""
""fullscreenenter"",""1"",""1347""
","
","","","-1","","","18","7686","3910","w","elianto","#f73b6a7A"," ","-1","0","-10","[]","0","2","","","7686","28","3","3","lose","go","0"
"pit-trial","147","1003790","0.0-33.0","battery-v0.2","","""event"",""trial"",""time""
""fullscreenenter"",""1"",""1347""
""blur"",""7"",""88016""
""focus"",""7"",""89528""
","""event"",""trial"",""time""
""blur"",""7"",""88016""
","""event"",""trial"",""time""
""focus"",""7"",""89528""
","""event"",""trial"",""time""
""fullscreenenter"",""1"",""1347""
","
","","","-1","","","18","7686","3910","j","elianto","#f73b6a7A","-1","-1","1","-10","[]","0","2","","","7686","29","0","4","lose","no-go","1"
"pit-trial","148","1007677","0.0-34.0","battery-v0.2","","""event"",""trial"",""time""
""fullscreenenter"",""1"",""1347""
""blur"",""7"",""88016""
""focus"",""7"",""89528""
","""event"",""trial"",""time""
""blur"",""7"",""88016""
","""event"",""trial"",""time""
""focus"",""7"",""89528""
","""event"",""trial"",""time""
""fullscreenenter"",""1"",""1347""
","
","","","1012.5","","","18","7686","3910","d","elianto","#3366ff99"," "," ","1","+10","[1874.300000011921]","1","2","","","7686","30","1","1","win","go","0"
"pit-trial","149","1012551","0.0-35.0","battery-v0.2","","""event"",""trial"",""time""
""fullscreenenter"",""1"",""1347""
""blur"",""7"",""88016""
""focus"",""7"",""89528""
","""event"",""trial"",""time""
""blur"",""7"",""88016""
","""event"",""trial"",""time""
""focus"",""7"",""89528""
","""event"",""trial"",""time""
""fullscreenenter"",""1"",""1347""
","
","","","-1","","","18","7686","3910","w","elianto","#f73b6a7A"," ","-1","0","-10","[]","0","2","","","7686","31","3","3","lose","go","0"
"pit-trial","150","1017422","0.0-36.0","battery-v0.2","","""event"",""trial"",""time""
""fullscreenenter"",""1"",""1347""
""blur"",""7"",""88016""
""focus"",""7"",""89528""
","""event"",""trial"",""time""
""blur"",""7"",""88016""
","""event"",""trial"",""time""
""focus"",""7"",""89528""
","""event"",""trial"",""time""
""fullscreenenter"",""1"",""1347""
","
","","","-1","","","18","7686","3910","e","elianto","#f73b6a7A","-1","-1","1","0","[]","0","2","","","7686","32","2","4","lose","no-go","0"
"pit-trial","151","1021380","0.0-37.0","battery-v0.2","","""event"",""trial"",""time""
""fullscreenenter"",""1"",""1347""
""blur"",""7"",""88016""
""focus"",""7"",""89528""
","""event"",""trial"",""time""
""blur"",""7"",""88016""
","""event"",""trial"",""time""
""focus"",""7"",""89528""
","""event"",""trial"",""time""
""fullscreenenter"",""1"",""1347""
","
","","","1094.800000011921","","","18","7686","3910","d","elianto","#3366ff99"," "," ","1","+10","[1945.0999999642372]","1","2","","","7686","33","1","1","win","go","0"
"pit-trial","152","1025862","0.0-38.0","battery-v0.2","","""event"",""trial"",""time""
""fullscreenenter"",""1"",""1347""
""blur"",""7"",""88016""
""focus"",""7"",""89528""
","""event"",""trial"",""time""
""blur"",""7"",""88016""
","""event"",""trial"",""time""
""focus"",""7"",""89528""
","""event"",""trial"",""time""
""fullscreenenter"",""1"",""1347""
","
","","","1606.1000000238419","","","18","7686","3910","w","elianto","#f73b6a7A"," "," ","1","0","[2463.899999976158]","1","2","","","7686","34","3","3","lose","go","0"
"pit-trial","153","1030734","0.0-39.0","battery-v0.2","","""event"",""trial"",""time""
""fullscreenenter"",""1"",""1347""
""blur"",""7"",""88016""
""focus"",""7"",""89528""
","""event"",""trial"",""time""
""blur"",""7"",""88016""
","""event"",""trial"",""time""
""focus"",""7"",""89528""
","""event"",""trial"",""time""
""fullscreenenter"",""1"",""1347""
","
","","","-1","","","18","7686","3910","j","elianto","#f73b6a7A","-1","-1","1","0","[]","0","2","","","7686","35","0","4","lose","no-go","0"
"pit-trial","154","1035600","0.0-40.0","battery-v0.2","","""event"",""trial"",""time""
""fullscreenenter"",""1"",""1347""
""blur"",""7"",""88016""
""focus"",""7"",""89528""
","""event"",""trial"",""time""
""blur"",""7"",""88016""
","""event"",""trial"",""time""
""focus"",""7"",""89528""
","""event"",""trial"",""time""
""fullscreenenter"",""1"",""1347""
","
","","","-1","","","18","7686","3910","e","elianto","#f73b6a7A","-1","-1","1","0","[]","0","2","","","7686","36","2","4","lose","no-go","0"
"pit-trial","155","1040474","0.0-41.0","battery-v0.2","","""event"",""trial"",""time""
""fullscreenenter"",""1"",""1347""
""blur"",""7"",""88016""
""focus"",""7"",""89528""
","""event"",""trial"",""time""
""blur"",""7"",""88016""
","""event"",""trial"",""time""
""focus"",""7"",""89528""
","""event"",""trial"",""time""
""fullscreenenter"",""1"",""1347""
","
","","","-1","","","18","7686","3910","w","elianto","#f73b6a7A"," ","-1","0","-10","[]","0","2","","","7686","37","3","3","lose","go","0"
"pit-trial","156","1045347","0.0-42.0","battery-v0.2","","""event"",""trial"",""time""
""fullscreenenter"",""1"",""1347""
""blur"",""7"",""88016""
""focus"",""7"",""89528""
","""event"",""trial"",""time""
""blur"",""7"",""88016""
","""event"",""trial"",""time""
""focus"",""7"",""89528""
","""event"",""trial"",""time""
""fullscreenenter"",""1"",""1347""
","
","","","-1","","","18","7686","3910","e","elianto","#f73b6a7A","-1","-1","1","0","[]","0","2","","","7686","38","2","4","lose","no-go","0"
"pit-trial","157","1048747","0.0-43.0","battery-v0.2","","""event"",""trial"",""time""
""fullscreenenter"",""1"",""1347""
""blur"",""7"",""88016""
""focus"",""7"",""89528""
","""event"",""trial"",""time""
""blur"",""7"",""88016""
","""event"",""trial"",""time""
""focus"",""7"",""89528""
","""event"",""trial"",""time""
""fullscreenenter"",""1"",""1347""
","
","","","535.3999999761581","","","18","7686","3910","d","elianto","#3366ff99"," "," ","1","+10","[1386.800000011921]","1","2","","","7686","39","1","1","win","go","0"
"pit-trial","158","1053619","0.0-44.0","battery-v0.2","","""event"",""trial"",""time""
""fullscreenenter"",""1"",""1347""
""blur"",""7"",""88016""
""focus"",""7"",""89528""
","""event"",""trial"",""time""
""blur"",""7"",""88016""
","""event"",""trial"",""time""
""focus"",""7"",""89528""
","""event"",""trial"",""time""
""fullscreenenter"",""1"",""1347""
","
","","","-1","","","18","7686","3910","j","elianto","#f73b6a7A","-1","-1","1","0","[]","0","2","","","7686","40","0","4","lose","no-go","0"
"pit-trial","159","1058490","0.0-45.0","battery-v0.2","","""event"",""trial"",""time""
""fullscreenenter"",""1"",""1347""
""blur"",""7"",""88016""
""focus"",""7"",""89528""
","""event"",""trial"",""time""
""blur"",""7"",""88016""
","""event"",""trial"",""time""
""focus"",""7"",""89528""
","""event"",""trial"",""time""
""fullscreenenter"",""1"",""1347""
","
","","","-1","","","18","7686","3910","j","elianto","#f73b6a7A","-1","-1","1","0","[]","0","2","","","7686","41","0","4","lose","no-go","0"
"pit-trial","160","1062003","0.0-46.0","battery-v0.2","","""event"",""trial"",""time""
""fullscreenenter"",""1"",""1347""
""blur"",""7"",""88016""
""focus"",""7"",""89528""
","""event"",""trial"",""time""
""blur"",""7"",""88016""
","""event"",""trial"",""time""
""focus"",""7"",""89528""
","""event"",""trial"",""time""
""fullscreenenter"",""1"",""1347""
","
","","","645.1000000238419","","","18","7686","3910","d","elianto","#3366ff99"," "," ","1","+10","[1500]","1","2","","","7686","42","1","1","win","go","0"
"pit-trial","161","1066876","0.0-47.0","battery-v0.2","","""event"",""trial"",""time""
""fullscreenenter"",""1"",""1347""
""blur"",""7"",""88016""
""focus"",""7"",""89528""
","""event"",""trial"",""time""
""blur"",""7"",""88016""
","""event"",""trial"",""time""
""focus"",""7"",""89528""
","""event"",""trial"",""time""
""fullscreenenter"",""1"",""1347""
","
","","","-1","","","18","7686","3910","e","elianto","#f73b6a7A","-1","-1","1","0","[]","0","2","","","7686","43","2","4","lose","no-go","0"
"pit-trial","162","1070276","0.0-48.0","battery-v0.2","","""event"",""trial"",""time""
""fullscreenenter"",""1"",""1347""
""blur"",""7"",""88016""
""focus"",""7"",""89528""
","""event"",""trial"",""time""
""blur"",""7"",""88016""
","""event"",""trial"",""time""
""focus"",""7"",""89528""
","""event"",""trial"",""time""
""fullscreenenter"",""1"",""1347""
","
","","","533.5","","","18","7686","3910","w","elianto","#f73b6a7A"," "," ","1","0","[1392]","1","2","","","7686","44","3","3","lose","go","0"
"pit-trial","163","1075148","0.0-49.0","battery-v0.2","","""event"",""trial"",""time""
""fullscreenenter"",""1"",""1347""
""blur"",""7"",""88016""
""focus"",""7"",""89528""
","""event"",""trial"",""time""
""blur"",""7"",""88016""
","""event"",""trial"",""time""
""focus"",""7"",""89528""
","""event"",""trial"",""time""
""fullscreenenter"",""1"",""1347""
","
","","","-1","","","18","7686","3910","e","elianto","#f73b6a7A","-1","-1","1","0","[]","0","2","","","7686","45","2","4","lose","no-go","0"
"pit-trial","164","1080021","0.0-50.0","battery-v0.2","","""event"",""trial"",""time""
""fullscreenenter"",""1"",""1347""
""blur"",""7"",""88016""
""focus"",""7"",""89528""
","""event"",""trial"",""time""
""blur"",""7"",""88016""
","""event"",""trial"",""time""
""focus"",""7"",""89528""
","""event"",""trial"",""time""
""fullscreenenter"",""1"",""1347""
","
","","","-1","","","18","7686","3910","j","elianto","#f73b6a7A","-1","-1","1","0","[]","0","2","","","7686","46","0","4","lose","no-go","0"
"pit-trial","165","1084788","0.0-51.0","battery-v0.2","","""event"",""trial"",""time""
""fullscreenenter"",""1"",""1347""
""blur"",""7"",""88016""
""focus"",""7"",""89528""
","""event"",""trial"",""time""
""blur"",""7"",""88016""
","""event"",""trial"",""time""
""focus"",""7"",""89528""
","""event"",""trial"",""time""
""fullscreenenter"",""1"",""1347""
","
","","","1893","","","18","7686","3910","w","elianto","#f73b6a7A"," "," ","1","0","[2753.600000023842]","1","2","","","7686","47","3","3","lose","go","0"
"pit-trial","166","1088619","0.0-52.0","battery-v0.2","","""event"",""trial"",""time""
""fullscreenenter"",""1"",""1347""
""blur"",""7"",""88016""
""focus"",""7"",""89528""
","""event"",""trial"",""time""
""blur"",""7"",""88016""
","""event"",""trial"",""time""
""focus"",""7"",""89528""
","""event"",""trial"",""time""
""fullscreenenter"",""1"",""1347""
","
","","","960.3999999761581","","","18","7686","3910","s","elianto","#3366ff99","-1"," ","0","0","[1819.699999988079]","1","2","","","7686","48","4","2","win","no-go","0"
"pit-trial","167","1093484","0.0-53.0","battery-v0.2","","""event"",""trial"",""time""
""fullscreenenter"",""1"",""1347""
""blur"",""7"",""88016""
""focus"",""7"",""89528""
","""event"",""trial"",""time""
""blur"",""7"",""88016""
","""event"",""trial"",""time""
""focus"",""7"",""89528""
","""event"",""trial"",""time""
""fullscreenenter"",""1"",""1347""
","
","","","-1","","","18","7686","3910","s","elianto","#3366ff99","-1","-1","1","+10","[]","0","2","","","7686","49","4","2","win","no-go","0"
"pit-trial","168","1097153","0.0-54.0","battery-v0.2","","""event"",""trial"",""time""
""fullscreenenter"",""1"",""1347""
""blur"",""7"",""88016""
""focus"",""7"",""89528""
","""event"",""trial"",""time""
""blur"",""7"",""88016""
","""event"",""trial"",""time""
""focus"",""7"",""89528""
","""event"",""trial"",""time""
""fullscreenenter"",""1"",""1347""
","
","","","807.7999999523163","","","18","7686","3910","d","elianto","#3366ff99"," "," ","1","+10","[1659]","1","2","","","7686","50","1","1","win","go","0"
"pit-trial","169","1102018","0.0-55.0","battery-v0.2","","""event"",""trial"",""time""
""fullscreenenter"",""1"",""1347""
""blur"",""7"",""88016""
""focus"",""7"",""89528""
","""event"",""trial"",""time""
""blur"",""7"",""88016""
","""event"",""trial"",""time""
""focus"",""7"",""89528""
","""event"",""trial"",""time""
""fullscreenenter"",""1"",""1347""
","
","","","-1","","","18","7686","3910","j","elianto","#f73b6a7A","-1","-1","1","0","[]","0","2","","","7686","51","0","4","lose","no-go","0"
"pit-trial","170","1105928","0.0-56.0","battery-v0.2","","""event"",""trial"",""time""
""fullscreenenter"",""1"",""1347""
""blur"",""7"",""88016""
""focus"",""7"",""89528""
","""event"",""trial"",""time""
""blur"",""7"",""88016""
","""event"",""trial"",""time""
""focus"",""7"",""89528""
","""event"",""trial"",""time""
""fullscreenenter"",""1"",""1347""
","
","","","1053","","","18","7686","3910","w","elianto","#f73b6a7A"," "," ","1","0","[1904.4000000357628]","1","2","","","7686","52","3","3","lose","go","0"
"pit-trial","171","1110793","0.0-57.0","battery-v0.2","","""event"",""trial"",""time""
""fullscreenenter"",""1"",""1347""
""blur"",""7"",""88016""
""focus"",""7"",""89528""
","""event"",""trial"",""time""
""blur"",""7"",""88016""
","""event"",""trial"",""time""
""focus"",""7"",""89528""
","""event"",""trial"",""time""
""fullscreenenter"",""1"",""1347""
","
","","","-1","","","18","7686","3910","j","elianto","#f73b6a7A","-1","-1","1","-10","[]","0","2","","","7686","53","0","4","lose","no-go","1"
"pit-trial","172","1115660","0.0-58.0","battery-v0.2","","""event"",""trial"",""time""
""fullscreenenter"",""1"",""1347""
""blur"",""7"",""88016""
""focus"",""7"",""89528""
","""event"",""trial"",""time""
""blur"",""7"",""88016""
","""event"",""trial"",""time""
""focus"",""7"",""89528""
","""event"",""trial"",""time""
""fullscreenenter"",""1"",""1347""
","
","","","-1","","","18","7686","3910","s","elianto","#3366ff99","-1","-1","1","+10","[]","0","2","","","7686","54","4","2","win","no-go","0"
"pit-trial","173","1119593","0.0-59.0","battery-v0.2","","""event"",""trial"",""time""
""fullscreenenter"",""1"",""1347""
""blur"",""7"",""88016""
""focus"",""7"",""89528""
","""event"",""trial"",""time""
""blur"",""7"",""88016""
","""event"",""trial"",""time""
""focus"",""7"",""89528""
","""event"",""trial"",""time""
""fullscreenenter"",""1"",""1347""
","
","","","1070.199999988079","","","18","7686","3910","d","elianto","#3366ff99"," "," ","1","+10","[1926.699999988079]","1","2","","","7686","55","1","1","win","go","0"
"pit-trial","174","1124460","0.0-60.0","battery-v0.2","","""event"",""trial"",""time""
""fullscreenenter"",""1"",""1347""
""blur"",""7"",""88016""
""focus"",""7"",""89528""
","""event"",""trial"",""time""
""blur"",""7"",""88016""
","""event"",""trial"",""time""
""focus"",""7"",""89528""
","""event"",""trial"",""time""
""fullscreenenter"",""1"",""1347""
","
","","","-1","","","18","7686","3910","e","elianto","#f73b6a7A","-1","-1","1","0","[]","0","2","","","7686","56","2","4","lose","no-go","0"
"pit-trial","175","1128669","0.0-61.0","battery-v0.2","","""event"",""trial"",""time""
""fullscreenenter"",""1"",""1347""
""blur"",""7"",""88016""
""focus"",""7"",""89528""
","""event"",""trial"",""time""
""blur"",""7"",""88016""
","""event"",""trial"",""time""
""focus"",""7"",""89528""
","""event"",""trial"",""time""
""fullscreenenter"",""1"",""1347""
","
","","","1350.0999999642372","","","18","7686","3910","w","elianto","#f73b6a7A"," "," ","1","0","[2200.2000000476837]","1","2","","","7686","57","3","3","lose","go","0"
"pit-trial","176","1133538","0.0-62.0","battery-v0.2","","""event"",""trial"",""time""
""fullscreenenter"",""1"",""1347""
""blur"",""7"",""88016""
""focus"",""7"",""89528""
","""event"",""trial"",""time""
""blur"",""7"",""88016""
","""event"",""trial"",""time""
""focus"",""7"",""89528""
","""event"",""trial"",""time""
""fullscreenenter"",""1"",""1347""
","
","","","-1","","","18","7686","3910","s","elianto","#3366ff99","-1","-1","1","+10","[]","0","2","","","7686","58","4","2","win","no-go","0"
"pit-trial","177","1137188","0.0-63.0","battery-v0.2","","""event"",""trial"",""time""
""fullscreenenter"",""1"",""1347""
""blur"",""7"",""88016""
""focus"",""7"",""89528""
","""event"",""trial"",""time""
""blur"",""7"",""88016""
","""event"",""trial"",""time""
""focus"",""7"",""89528""
","""event"",""trial"",""time""
""fullscreenenter"",""1"",""1347""
","
","","","782.1999999880791","","","18","7686","3910","d","elianto","#3366ff99"," "," ","1","+10","[1636.199999988079]","1","2","","","7686","59","1","1","win","go","0"
"pit-trial","178","1142059","0.0-64.0","battery-v0.2","","""event"",""trial"",""time""
""fullscreenenter"",""1"",""1347""
""blur"",""7"",""88016""
""focus"",""7"",""89528""
","""event"",""trial"",""time""
""blur"",""7"",""88016""
","""event"",""trial"",""time""
""focus"",""7"",""89528""
","""event"",""trial"",""time""
""fullscreenenter"",""1"",""1347""
","
","","","-1","","","18","7686","3910","j","elianto","#f73b6a7A","-1","-1","1","0","[]","0","2","","","7686","60","0","4","lose","no-go","0"
"pit-trial","179","1146928","0.0-65.0","battery-v0.2","","""event"",""trial"",""time""
""fullscreenenter"",""1"",""1347""
""blur"",""7"",""88016""
""focus"",""7"",""89528""
","""event"",""trial"",""time""
""blur"",""7"",""88016""
","""event"",""trial"",""time""
""focus"",""7"",""89528""
","""event"",""trial"",""time""
""fullscreenenter"",""1"",""1347""
","
","","","-1","","","18","7686","3910","e","elianto","#f73b6a7A","-1","-1","1","0","[]","0","2","","","7686","61","2","4","lose","no-go","0"
"pit-trial","180","1150628","0.0-66.0","battery-v0.2","","""event"",""trial"",""time""
""fullscreenenter"",""1"",""1347""
""blur"",""7"",""88016""
""focus"",""7"",""89528""
","""event"",""trial"",""time""
""blur"",""7"",""88016""
","""event"",""trial"",""time""
""focus"",""7"",""89528""
","""event"",""trial"",""time""
""fullscreenenter"",""1"",""1347""
","
","","","836.6999999880791","","","18","7686","3910","d","elianto","#3366ff99"," "," ","1","+10","[1690.300000011921]","1","2","","","7686","62","1","1","win","go","0"
"pit-trial","181","1154628","0.0-67.0","battery-v0.2","","""event"",""trial"",""time""
""fullscreenenter"",""1"",""1347""
""blur"",""7"",""88016""
""focus"",""7"",""89528""
","""event"",""trial"",""time""
""blur"",""7"",""88016""
","""event"",""trial"",""time""
""focus"",""7"",""89528""
","""event"",""trial"",""time""
""fullscreenenter"",""1"",""1347""
","
","","","1136.199999988079","","","18","7686","3910","w","elianto","#f73b6a7A"," "," ","1","0","[1989.9000000357628]","1","2","","","7686","63","3","3","lose","go","0"
"pit-trial","182","1159498","0.0-68.0","battery-v0.2","","""event"",""trial"",""time""
""fullscreenenter"",""1"",""1347""
""blur"",""7"",""88016""
""focus"",""7"",""89528""
","""event"",""trial"",""time""
""blur"",""7"",""88016""
","""event"",""trial"",""time""
""focus"",""7"",""89528""
","""event"",""trial"",""time""
""fullscreenenter"",""1"",""1347""
","
","","","-1","","","18","7686","3910","s","elianto","#3366ff99","-1","-1","1","+10","[]","0","2","","","7686","64","4","2","win","no-go","0"
"pit-trial","183","1164363","0.0-69.0","battery-v0.2","","""event"",""trial"",""time""
""fullscreenenter"",""1"",""1347""
""blur"",""7"",""88016""
""focus"",""7"",""89528""
","""event"",""trial"",""time""
""blur"",""7"",""88016""
","""event"",""trial"",""time""
""focus"",""7"",""89528""
","""event"",""trial"",""time""
""fullscreenenter"",""1"",""1347""
","
","","","-1","","","18","7686","3910","e","elianto","#f73b6a7A","-1","-1","1","0","[]","0","2","","","7686","65","2","4","lose","no-go","0"
"pit-trial","184","1168188","0.0-70.0","battery-v0.2","","""event"",""trial"",""time""
""fullscreenenter"",""1"",""1347""
""blur"",""7"",""88016""
""focus"",""7"",""89528""
","""event"",""trial"",""time""
""blur"",""7"",""88016""
","""event"",""trial"",""time""
""focus"",""7"",""89528""
","""event"",""trial"",""time""
""fullscreenenter"",""1"",""1347""
","
","","","955.5","","","18","7686","3910","w","elianto","#f73b6a7A"," "," ","1","0","[1810.699999988079]","1","2","","","7686","66","3","3","lose","go","0"
"pit-trial","185","1171788","0.0-71.0","battery-v0.2","","""event"",""trial"",""time""
""fullscreenenter"",""1"",""1347""
""blur"",""7"",""88016""
""focus"",""7"",""89528""
","""event"",""trial"",""time""
""blur"",""7"",""88016""
","""event"",""trial"",""time""
""focus"",""7"",""89528""
","""event"",""trial"",""time""
""fullscreenenter"",""1"",""1347""
","
","","","736.3000000119209","","","18","7686","3910","d","elianto","#3366ff99"," "," ","1","+10","[1588.5]","1","2","","","7686","67","1","1","win","go","0"
"pit-trial","186","1176660","0.0-72.0","battery-v0.2","","""event"",""trial"",""time""
""fullscreenenter"",""1"",""1347""
""blur"",""7"",""88016""
""focus"",""7"",""89528""
","""event"",""trial"",""time""
""blur"",""7"",""88016""
","""event"",""trial"",""time""
""focus"",""7"",""89528""
","""event"",""trial"",""time""
""fullscreenenter"",""1"",""1347""
","
","","","-1","","","18","7686","3910","s","elianto","#3366ff99","-1","-1","1","+10","[]","0","2","","","7686","68","4","2","win","no-go","0"
"pit-trial","187","1180251","0.0-73.0","battery-v0.2","","""event"",""trial"",""time""
""fullscreenenter"",""1"",""1347""
""blur"",""7"",""88016""
""focus"",""7"",""89528""
","""event"",""trial"",""time""
""blur"",""7"",""88016""
","""event"",""trial"",""time""
""focus"",""7"",""89528""
