"trial_type","trial_index","time_elapsed","internal_node_id","task_version","subject_id","interactions","blur_events","focus_events","fullscreenenter_events","fullscreenexit_events","success","view_history","rt","responses","num_errors","age","subject","participantId","rune","rune_set","hex","correct","choice","accuracy","outcome","keys","total_keys","block","practice","value","sub","trial","stimulus","robot","valence","action","sham"
"pavlovia","0","80","0.0-0.0","battery-v0.2","","""event"",""trial"",""time""
""fullscreenenter"",""1"",""2242""
","
","
","""event"",""trial"",""time""
""fullscreenenter"",""1"",""2242""
","
","","","","","","","","","","","","","","","","","","","","","","","","","","",""
"fullscreen","1","3122","0.0-1.0","battery-v0.2","","""event"",""trial"",""time""
""fullscreenenter"",""1"",""2242""
","
","
","""event"",""trial"",""time""
""fullscreenenter"",""1"",""2242""
","
","true","","","","","","","","","","","","","","","","","","","","","","","","","",""
"pit-instructions","2","10586","0.0-2.0-0.0","battery-v0.2","","""event"",""trial"",""time""
""fullscreenenter"",""1"",""2242""
""blur"",""3"",""14746""
""focus"",""3"",""14818""
","""event"",""trial"",""time""
""blur"",""3"",""14746""
","""event"",""trial"",""time""
""focus"",""3"",""14818""
","""event"",""trial"",""time""
""fullscreenenter"",""1"",""2242""
","
","","[{""page_index"":0,""viewing_time"":7326.699999999255}]","7347","","","","","","","","","","","","","","","","","","","","","","","",""
"pit-comprehension","3","15974","0.0-2.0-1.0-0.0","battery-v0.2","","""event"",""trial"",""time""
""fullscreenenter"",""1"",""2242""
""blur"",""3"",""14746""
""focus"",""3"",""14818""
","""event"",""trial"",""time""
""blur"",""3"",""14746""
","""event"",""trial"",""time""
""focus"",""3"",""14818""
","""event"",""trial"",""time""
""fullscreenenter"",""1"",""2242""
","
","","","5354.199999999255","[""shark""]","0","19","10615","4924","","","","","","","","","","","","","","","","","","",""
"pit-instructions","4","17881","0.0-2.0-1.0-1.0","battery-v0.2","","""event"",""trial"",""time""
""fullscreenenter"",""1"",""2242""
""blur"",""3"",""14746""
""focus"",""3"",""14818""
","""event"",""trial"",""time""
""blur"",""3"",""14746""
","""event"",""trial"",""time""
""focus"",""3"",""14818""
","""event"",""trial"",""time""
""fullscreenenter"",""1"",""2242""
","
","","[{""page_index"":0,""viewing_time"":1807.6000000014901}]","1807.8999999985099","","","","","","","","","","","","","","","","","","","","","","","",""
"pit-comprehension","5","20634","0.0-2.0-2.0-0.0","battery-v0.2","","""event"",""trial"",""time""
""fullscreenenter"",""1"",""2242""
""blur"",""3"",""14746""
""focus"",""3"",""14818""
","""event"",""trial"",""time""
""blur"",""3"",""14746""
","""event"",""trial"",""time""
""focus"",""3"",""14818""
","""event"",""trial"",""time""
""fullscreenenter"",""1"",""2242""
","
","","","2748.39999999851","[""tiger""]","0","19","10615","4924","","","","","","","","","","","","","","","","","","",""
"pit-instructions","6","21366","0.0-2.0-2.0-1.0","battery-v0.2","","""event"",""trial"",""time""
""fullscreenenter"",""1"",""2242""
""blur"",""3"",""14746""
""focus"",""3"",""14818""
","""event"",""trial"",""time""
""blur"",""3"",""14746""
","""event"",""trial"",""time""
""focus"",""3"",""14818""
","""event"",""trial"",""time""
""fullscreenenter"",""1"",""2242""
","
","","[{""page_index"":0,""viewing_time"":727.1999999992549}]","727.5","","","","","","","","","","","","","","","","","","","","","","","",""
"pit-instructions","7","118805","0.0-2.0-3.0","battery-v0.2","","""event"",""trial"",""time""
""fullscreenenter"",""1"",""2242""
""blur"",""3"",""14746""
""focus"",""3"",""14818""
","""event"",""trial"",""time""
""blur"",""3"",""14746""
","""event"",""trial"",""time""
""focus"",""3"",""14818""
","""event"",""trial"",""time""
""fullscreenenter"",""1"",""2242""
","
","","[{""page_index"":0,""viewing_time"":8943.60000000149},{""page_index"":1,""viewing_time"":7165},{""page_index"":2,""viewing_time"":9932.29999999702},{""page_index"":3,""viewing_time"":5017.70000000298},{""page_index"":4,""viewing_time"":6374.29999999702},{""page_index"":5,""viewing_time"":7000.400000002235},{""page_index"":6,""viewing_time"":6715.5},{""page_index"":7,""viewing_time"":6577.800000000745},{""page_index"":8,""viewing_time"":6178.099999997765},{""page_index"":9,""viewing_time"":8921.800000000745},{""page_index"":10,""viewing_time"":7589.60000000149},{""page_index"":11,""viewing_time"":4706},{""page_index"":12,""viewing_time"":7201},{""page_index"":13,""viewing_time"":5095.599999997765}]","97429.80000000075","","","","","","","","","","","","","","","","","","","","","","","",""
"pit-trial","8","122456","0.0-2.0-4.0-0.0","battery-v0.2","","""event"",""trial"",""time""
""fullscreenenter"",""1"",""2242""
""blur"",""3"",""14746""
""focus"",""3"",""14818""
","""event"",""trial"",""time""
""blur"",""3"",""14746""
","""event"",""trial"",""time""
""focus"",""3"",""14818""
","""event"",""trial"",""time""
""fullscreenenter"",""1"",""2242""
","
","","","754","","","19","10615","4924","&#9784;","elianto","#FFFFF080"," "," ","1","&#10004","[1601]","1","0","0","","","","","","","",""
"pit-trial","9","125824","0.0-2.0-4.1-0.1","battery-v0.2","","""event"",""trial"",""time""
""fullscreenenter"",""1"",""2242""
""blur"",""3"",""14746""
""focus"",""3"",""14818""
","""event"",""trial"",""time""
""blur"",""3"",""14746""
","""event"",""trial"",""time""
""focus"",""3"",""14818""
","""event"",""trial"",""time""
""fullscreenenter"",""1"",""2242""
","
","","","486.80000000074506","","","19","10615","4924","&#9784;","elianto","#FFFFF080"," "," ","1","&#10004","[1338.199999999255]","1","0","0","","","","","","","",""
"pit-trial","10","129138","0.0-2.0-4.2-0.2","battery-v0.2","","""event"",""trial"",""time""
""fullscreenenter"",""1"",""2242""
""blur"",""3"",""14746""
""focus"",""3"",""14818""
","""event"",""trial"",""time""
""blur"",""3"",""14746""
","""event"",""trial"",""time""
""focus"",""3"",""14818""
","""event"",""trial"",""time""
""fullscreenenter"",""1"",""2242""
","
","","","459.19999999925494","","","19","10615","4924","&#9784;","elianto","#FFFFF080"," "," ","1","&#10004","[1310.2999999970198]","1","0","0","","","","","","","",""
"pit-trial","11","132404","0.0-2.0-4.3-0.3","battery-v0.2","","""event"",""trial"",""time""
""fullscreenenter"",""1"",""2242""
""blur"",""3"",""14746""
""focus"",""3"",""14818""
","""event"",""trial"",""time""
""blur"",""3"",""14746""
","""event"",""trial"",""time""
""focus"",""3"",""14818""
","""event"",""trial"",""time""
""fullscreenenter"",""1"",""2242""
","
","","","410.3999999985099","","","19","10615","4924","&#9784;","elianto","#FFFFF080"," "," ","1","&#10004","[1260.7999999970198]","1","0","0","","","","","","","",""
"pit-trial","12","135750","0.0-2.0-4.4-0.4","battery-v0.2","","""event"",""trial"",""time""
""fullscreenenter"",""1"",""2242""
""blur"",""3"",""14746""
""focus"",""3"",""14818""
","""event"",""trial"",""time""
""blur"",""3"",""14746""
","""event"",""trial"",""time""
""focus"",""3"",""14818""
","""event"",""trial"",""time""
""fullscreenenter"",""1"",""2242""
","
","","","488.3999999985099","","","19","10615","4924","&#9784;","elianto","#FFFFF080"," "," ","1","&#10004","[1343.699999999255]","1","0","0","","","","","","","",""
"pit-instructions","13","157831","0.0-2.0-5.0","battery-v0.2","","""event"",""trial"",""time""
""fullscreenenter"",""1"",""2242""
""blur"",""3"",""14746""
""focus"",""3"",""14818""
","""event"",""trial"",""time""
""blur"",""3"",""14746""
","""event"",""trial"",""time""
""focus"",""3"",""14818""
","""event"",""trial"",""time""
""fullscreenenter"",""1"",""2242""
","
","","[{""page_index"":0,""viewing_time"":4910.800000000745},{""page_index"":1,""viewing_time"":5867.199999999255},{""page_index"":2,""viewing_time"":5125.5},{""page_index"":3,""viewing_time"":6138.699999999255}]","22045.400000002235","","","","","","","","","","","","","","","","","","","","","","","",""
"pit-trial","14","162693","0.0-2.0-6.0-0.0","battery-v0.2","","""event"",""trial"",""time""
""fullscreenenter"",""1"",""2242""
""blur"",""3"",""14746""
""focus"",""3"",""14818""
","""event"",""trial"",""time""
""blur"",""3"",""14746""
","""event"",""trial"",""time""
""focus"",""3"",""14818""
","""event"",""trial"",""time""
""fullscreenenter"",""1"",""2242""
","
","","","-1","","","19","10615","4924","&#9854;","elianto","#FFFFF080","-1","-1","1","&#10004","[]","0","0","1","","","","","","","",""
"pit-trial","15","167556","0.0-2.0-6.1-0.1","battery-v0.2","","""event"",""trial"",""time""
""fullscreenenter"",""1"",""2242""
""blur"",""3"",""14746""
""focus"",""3"",""14818""
","""event"",""trial"",""time""
""blur"",""3"",""14746""
","""event"",""trial"",""time""
""focus"",""3"",""14818""
","""event"",""trial"",""time""
""fullscreenenter"",""1"",""2242""
","
","","","-1","","","19","10615","4924","&#9854;","elianto","#FFFFF080","-1","-1","1","&#10004","[]","0","0","1","","","","","","","",""
"pit-trial","16","172419","0.0-2.0-6.2-0.2","battery-v0.2","","""event"",""trial"",""time""
""fullscreenenter"",""1"",""2242""
""blur"",""3"",""14746""
""focus"",""3"",""14818""
","""event"",""trial"",""time""
""blur"",""3"",""14746""
","""event"",""trial"",""time""
""focus"",""3"",""14818""
","""event"",""trial"",""time""
""fullscreenenter"",""1"",""2242""
","
","","","-1","","","19","10615","4924","&#9854;","elianto","#FFFFF080","-1","-1","1","&#10004","[]","0","0","1","","","","","","","",""
"pit-trial","17","177307","0.0-2.0-6.3-0.3","battery-v0.2","","""event"",""trial"",""time""
""fullscreenenter"",""1"",""2242""
""blur"",""3"",""14746""
""focus"",""3"",""14818""
","""event"",""trial"",""time""
""blur"",""3"",""14746""
","""event"",""trial"",""time""
""focus"",""3"",""14818""
","""event"",""trial"",""time""
""fullscreenenter"",""1"",""2242""
","
","","","-1","","","19","10615","4924","&#9854;","elianto","#FFFFF080","-1","-1","1","&#10004","[]","0","0","1","","","","","","","",""
"pit-trial","18","182191","0.0-2.0-6.4-0.4","battery-v0.2","","""event"",""trial"",""time""
""fullscreenenter"",""1"",""2242""
""blur"",""3"",""14746""
""focus"",""3"",""14818""
","""event"",""trial"",""time""
""blur"",""3"",""14746""
","""event"",""trial"",""time""
""focus"",""3"",""14818""
","""event"",""trial"",""time""
""fullscreenenter"",""1"",""2242""
","
","","","-1","","","19","10615","4924","&#9854;","elianto","#FFFFF080","-1","-1","1","&#10004","[]","0","0","1","","","","","","","",""
"pit-instructions","19","319296","0.0-2.0-7.0","battery-v0.2","","""event"",""trial"",""time""
""fullscreenenter"",""1"",""2242""
""blur"",""3"",""14746""
""focus"",""3"",""14818""
","""event"",""trial"",""time""
""blur"",""3"",""14746""
","""event"",""trial"",""time""
""focus"",""3"",""14818""
","""event"",""trial"",""time""
""fullscreenenter"",""1"",""2242""
","
","","[{""page_index"":0,""viewing_time"":5879},{""page_index"":1,""viewing_time"":7345.89999999851},{""page_index"":2,""viewing_time"":8480.699999999255},{""page_index"":3,""viewing_time"":6807.300000000745},{""page_index"":4,""viewing_time"":5692.400000002235},{""page_index"":5,""viewing_time"":6199.89999999851},{""page_index"":6,""viewing_time"":5669.300000000745},{""page_index"":7,""viewing_time"":9034.39999999851},{""page_index"":8,""viewing_time"":7586.800000000745},{""page_index"":9,""viewing_time"":6751.300000000745},{""page_index"":10,""viewing_time"":7601},{""page_index"":11,""viewing_time"":6814.300000000745},{""page_index"":12,""viewing_time"":8312},{""page_index"":13,""viewing_time"":8438.39999999851},{""page_index"":14,""viewing_time"":8540.199999999255},{""page_index"":15,""viewing_time"":7247.60000000149},{""page_index"":16,""viewing_time"":7394.099999997765},{""page_index"":17,""viewing_time"":13291.20000000298}]","137090.19999999925","","","","","","","","","","","","","","","","","","","","","","","",""
"pit-trial","20","324171","0.0-2.0-8.0-0.0","battery-v0.2","","""event"",""trial"",""time""
""fullscreenenter"",""1"",""2242""
""blur"",""3"",""14746""
""focus"",""3"",""14818""
","""event"",""trial"",""time""
""blur"",""3"",""14746""
","""event"",""trial"",""time""
""focus"",""3"",""14818""
","""event"",""trial"",""time""
""fullscreenenter"",""1"",""2242""
","
","","","-1","","","19","10615","4924","&#9776;","elianto","#3366ff99"," ","-1","0","0","[3079.60000000149]","1","0","1","","","","","","","",""
"pit-trial","21","327674","0.0-2.0-8.0-1.0","battery-v0.2","","""event"",""trial"",""time""
""fullscreenenter"",""1"",""2242""
""blur"",""3"",""14746""
""focus"",""3"",""14818""
","""event"",""trial"",""time""
""blur"",""3"",""14746""
","""event"",""trial"",""time""
""focus"",""3"",""14818""
","""event"",""trial"",""time""
""fullscreenenter"",""1"",""2242""
","
","","","648.5999999977648","","","19","10615","4924","&#9776;","elianto","#3366ff99"," "," ","1","+10","[1499.800000000745]","1","0","1","","","","","","","",""
"pit-trial","22","331086","0.0-2.0-8.0-2.0","battery-v0.2","","""event"",""trial"",""time""
""fullscreenenter"",""1"",""2242""
""blur"",""3"",""14746""
""focus"",""3"",""14818""
","""event"",""trial"",""time""
""blur"",""3"",""14746""
","""event"",""trial"",""time""
""focus"",""3"",""14818""
","""event"",""trial"",""time""
""fullscreenenter"",""1"",""2242""
","
","","","557.5999999977648","","","19","10615","4924","&#9776;","elianto","#3366ff99"," "," ","1","+10","[1408.300000000745]","1","0","1","","","","","","","",""
"pit-trial","23","334495","0.0-2.0-8.0-3.0","battery-v0.2","","""event"",""trial"",""time""
""fullscreenenter"",""1"",""2242""
""blur"",""3"",""14746""
""focus"",""3"",""14818""
","""event"",""trial"",""time""
""blur"",""3"",""14746""
","""event"",""trial"",""time""
""focus"",""3"",""14818""
","""event"",""trial"",""time""
""fullscreenenter"",""1"",""2242""
","
","","","554.6000000014901","","","19","10615","4924","&#9776;","elianto","#3366ff99"," "," ","1","0","[1405.5]","1","0","1","","","","","","","",""
"pit-trial","24","338024","0.0-2.0-8.0-4.0","battery-v0.2","","""event"",""trial"",""time""
""fullscreenenter"",""1"",""2242""
""blur"",""3"",""14746""
""focus"",""3"",""14818""
","""event"",""trial"",""time""
""blur"",""3"",""14746""
","""event"",""trial"",""time""
""focus"",""3"",""14818""
","""event"",""trial"",""time""
""fullscreenenter"",""1"",""2242""
","
","","","675.8000000007451","","","19","10615","4924","&#9776;","elianto","#3366ff99"," "," ","1","+10","[1525.800000000745]","1","0","1","","","","","","","",""
"pit-trial","25","341564","0.0-2.0-8.1-0.1","battery-v0.2","","""event"",""trial"",""time""
""fullscreenenter"",""1"",""2242""
""blur"",""3"",""14746""
""focus"",""3"",""14818""
","""event"",""trial"",""time""
""blur"",""3"",""14746""
","""event"",""trial"",""time""
""focus"",""3"",""14818""
","""event"",""trial"",""time""
""fullscreenenter"",""1"",""2242""
","
","","","674.0999999977648","","","19","10615","4924","&#9776;","elianto","#3366ff99"," "," ","1","+10","[1524.7999999970198]","1","0","1","","","","","","","",""
"pit-trial","26","344968","0.0-2.0-8.1-1.1","battery-v0.2","","""event"",""trial"",""time""
""fullscreenenter"",""1"",""2242""
""blur"",""3"",""14746""
""focus"",""3"",""14818""
","""event"",""trial"",""time""
""blur"",""3"",""14746""
","""event"",""trial"",""time""
""focus"",""3"",""14818""
","""event"",""trial"",""time""
""fullscreenenter"",""1"",""2242""
","
","","","548.5","","","19","10615","4924","&#9776;","elianto","#3366ff99"," "," ","1","+10","[1399.4000000022352]","1","0","1","","","","","","","",""
"pit-trial","27","348303","0.0-2.0-8.1-2.1","battery-v0.2","","""event"",""trial"",""time""
""fullscreenenter"",""1"",""2242""
""blur"",""3"",""14746""
""focus"",""3"",""14818""
","""event"",""trial"",""time""
""blur"",""3"",""14746""
","""event"",""trial"",""time""
""focus"",""3"",""14818""
","""event"",""trial"",""time""
""fullscreenenter"",""1"",""2242""
","
","","","469.30000000074506","","","19","10615","4924","&#9776;","elianto","#3366ff99"," "," ","1","+10","[1320.300000000745]","1","0","1","","","","","","","",""
"pit-trial","28","352404","0.0-2.0-8.1-3.1","battery-v0.2","","""event"",""trial"",""time""
""fullscreenenter"",""1"",""2242""
""blur"",""3"",""14746""
""focus"",""3"",""14818""
","""event"",""trial"",""time""
""blur"",""3"",""14746""
","""event"",""trial"",""time""
""focus"",""3"",""14818""
","""event"",""trial"",""time""
""fullscreenenter"",""1"",""2242""
","
","","","1247.5999999977648","","","19","10615","4924","&#9776;","elianto","#3366ff99"," "," ","1","0","[2098]","1","0","1","","","","","","","",""
"pit-trial","29","355622","0.0-2.0-8.1-4.1","battery-v0.2","","""event"",""trial"",""time""
""fullscreenenter"",""1"",""2242""
""blur"",""3"",""14746""
""focus"",""3"",""14818""
","""event"",""trial"",""time""
""blur"",""3"",""14746""
","""event"",""trial"",""time""
""focus"",""3"",""14818""
","""event"",""trial"",""time""
""fullscreenenter"",""1"",""2242""
","
","","","364.69999999925494","","","19","10615","4924","&#9776;","elianto","#3366ff99"," "," ","1","+10","[1215.800000000745]","1","0","1","","","","","","","",""
"pit-trial","30","358946","0.0-2.0-8.2-0.2","battery-v0.2","","""event"",""trial"",""time""
""fullscreenenter"",""1"",""2242""
""blur"",""3"",""14746""
""focus"",""3"",""14818""
","""event"",""trial"",""time""
""blur"",""3"",""14746""
","""event"",""trial"",""time""
""focus"",""3"",""14818""
","""event"",""trial"",""time""
""fullscreenenter"",""1"",""2242""
","
","","","462.1000000014901","","","19","10615","4924","&#9776;","elianto","#3366ff99"," "," ","1","+10","[1312.5]","1","0","1","","","","","","","",""
"pit-trial","31","362210","0.0-2.0-8.2-1.2","battery-v0.2","","""event"",""trial"",""time""
""fullscreenenter"",""1"",""2242""
""blur"",""3"",""14746""
""focus"",""3"",""14818""
","""event"",""trial"",""time""
""blur"",""3"",""14746""
","""event"",""trial"",""time""
""focus"",""3"",""14818""
","""event"",""trial"",""time""
""fullscreenenter"",""1"",""2242""
","
","","","409","","","19","10615","4924","&#9776;","elianto","#3366ff99"," "," ","1","+10","[1260.3999999985099]","1","0","1","","","","","","","",""
"pit-trial","32","365302","0.0-2.0-8.2-2.2","battery-v0.2","","""event"",""trial"",""time""
""fullscreenenter"",""1"",""2242""
""blur"",""3"",""14746""
""focus"",""3"",""14818""
","""event"",""trial"",""time""
""blur"",""3"",""14746""
","""event"",""trial"",""time""
""focus"",""3"",""14818""
","""event"",""trial"",""time""
""fullscreenenter"",""1"",""2242""
","
","","","238.40000000223517","","","19","10615","4924","&#9776;","elianto","#3366ff99"," "," ","1","+10","[1089.699999999255]","1","0","1","","","","","","","",""
"pit-trial","33","368419","0.0-2.0-8.2-3.2","battery-v0.2","","""event"",""trial"",""time""
""fullscreenenter"",""1"",""2242""
""blur"",""3"",""14746""
""focus"",""3"",""14818""
","""event"",""trial"",""time""
""blur"",""3"",""14746""
","""event"",""trial"",""time""
""focus"",""3"",""14818""
","""event"",""trial"",""time""
""fullscreenenter"",""1"",""2242""
","
","","","263.80000000074506","","","19","10615","4924","&#9776;","elianto","#3366ff99"," "," ","1","0","[1114]","1","0","1","","","","","","","",""
"pit-trial","34","371760","0.0-2.0-8.2-4.2","battery-v0.2","","""event"",""trial"",""time""
""fullscreenenter"",""1"",""2242""
""blur"",""3"",""14746""
""focus"",""3"",""14818""
","""event"",""trial"",""time""
""blur"",""3"",""14746""
","""event"",""trial"",""time""
""focus"",""3"",""14818""
","""event"",""trial"",""time""
""fullscreenenter"",""1"",""2242""
","
","","","486.69999999925494","","","19","10615","4924","&#9776;","elianto","#3366ff99"," "," ","1","+10","[1337.800000000745]","1","0","1","","","","","","","",""
"call-function","35","371762","0.0-2.0-9.0","battery-v0.2","","""event"",""trial"",""time""
""fullscreenenter"",""1"",""2242""
""blur"",""3"",""14746""
""focus"",""3"",""14818""
","""event"",""trial"",""time""
""blur"",""3"",""14746""
","""event"",""trial"",""time""
""focus"",""3"",""14818""
","""event"",""trial"",""time""
""fullscreenenter"",""1"",""2242""
","
","","","","","","","","","","","","","","","","","","","","","","","","","","",""
"pit-instructions","36","411300","0.0-2.0-10.0","battery-v0.2","","""event"",""trial"",""time""
""fullscreenenter"",""1"",""2242""
""blur"",""3"",""14746""
""focus"",""3"",""14818""
","""event"",""trial"",""time""
""blur"",""3"",""14746""
","""event"",""trial"",""time""
""focus"",""3"",""14818""
","""event"",""trial"",""time""
""fullscreenenter"",""1"",""2242""
","
","","[{""page_index"":0,""viewing_time"":5810.39999999851},{""page_index"":1,""viewing_time"":6132.89999999851},{""page_index"":2,""viewing_time"":9835.400000002235},{""page_index"":3,""viewing_time"":9932},{""page_index"":4,""viewing_time"":7815.599999997765}]","39526.79999999702","","","","","","","","","","","","","","","","","","","","","","","",""
"pit-trial","37","414726","0.0-2.0-11.0-0.0","battery-v0.2","","""event"",""trial"",""time""
""fullscreenenter"",""1"",""2242""
""blur"",""3"",""14746""
""focus"",""3"",""14818""
","""event"",""trial"",""time""
""blur"",""3"",""14746""
","""event"",""trial"",""time""
""focus"",""3"",""14818""
","""event"",""trial"",""time""
""fullscreenenter"",""1"",""2242""
","
","","","558.3999999985099","","","19","10615","4924","&#9761;","elianto","#3366ff99","-1"," ","0","0","[1409.9000000022352]","1","0","2","","","","","","","",""
"pit-trial","38","419612","0.0-2.0-11.0-1.0","battery-v0.2","","""event"",""trial"",""time""
""fullscreenenter"",""1"",""2242""
""blur"",""3"",""14746""
""focus"",""3"",""14818""
","""event"",""trial"",""time""
""blur"",""3"",""14746""
","""event"",""trial"",""time""
""focus"",""3"",""14818""
","""event"",""trial"",""time""
""fullscreenenter"",""1"",""2242""
","
","","","-1","","","19","10615","4924","&#9761;","elianto","#3366ff99","-1","-1","1","+10","[]","0","0","2","","","","","","","",""
"pit-trial","39","423141","0.0-2.0-11.0-2.0","battery-v0.2","","""event"",""trial"",""time""
""fullscreenenter"",""1"",""2242""
""blur"",""3"",""14746""
""focus"",""3"",""14818""
","""event"",""trial"",""time""
""blur"",""3"",""14746""
","""event"",""trial"",""time""
""focus"",""3"",""14818""
","""event"",""trial"",""time""
""fullscreenenter"",""1"",""2242""
","
","","","653.0999999977648","","","19","10615","4924","&#9761;","elianto","#3366ff99","-1"," ","0","0","[1503.5999999977648]","1","0","2","","","","","","","",""
"pit-trial","40","426503","0.0-2.0-11.0-3.0","battery-v0.2","","""event"",""trial"",""time""
""fullscreenenter"",""1"",""2242""
""blur"",""3"",""14746""
""focus"",""3"",""14818""
","""event"",""trial"",""time""
""blur"",""3"",""14746""
","""event"",""trial"",""time""
""focus"",""3"",""14818""
","""event"",""trial"",""time""
""fullscreenenter"",""1"",""2242""
","
","","","506.70000000298023","","","19","10615","4924","&#9761;","elianto","#3366ff99","-1"," ","0","+10","[1357]","1","0","2","","","","","","","",""
"pit-trial","41","429609","0.0-2.0-11.0-4.0","battery-v0.2","","""event"",""trial"",""time""
""fullscreenenter"",""1"",""2242""
""blur"",""3"",""14746""
""focus"",""3"",""14818""
","""event"",""trial"",""time""
""blur"",""3"",""14746""
","""event"",""trial"",""time""
""focus"",""3"",""14818""
","""event"",""trial"",""time""
""fullscreenenter"",""1"",""2242""
","
","","","253.19999999925494","","","19","10615","4924","&#9761;","elianto","#3366ff99","-1"," ","0","0","[1103.699999999255]","1","0","2","","","","","","","",""
"pit-trial","42","433148","0.0-2.0-11.1-0.1","battery-v0.2","","""event"",""trial"",""time""
""fullscreenenter"",""1"",""2242""
""blur"",""3"",""14746""
""focus"",""3"",""14818""
","""event"",""trial"",""time""
""blur"",""3"",""14746""
","""event"",""trial"",""time""
""focus"",""3"",""14818""
","""event"",""trial"",""time""
""fullscreenenter"",""1"",""2242""
","
","","","634.5","","","19","10615","4924","&#9761;","elianto","#3366ff99","-1"," ","0","0","[1485.300000000745]","1","0","2","","","","","","","",""
"pit-trial","43","438003","0.0-2.0-11.1-1.1","battery-v0.2","","""event"",""trial"",""time""
""fullscreenenter"",""1"",""2242""
""blur"",""3"",""14746""
""focus"",""3"",""14818""
","""event"",""trial"",""time""
""blur"",""3"",""14746""
","""event"",""trial"",""time""
""focus"",""3"",""14818""
","""event"",""trial"",""time""
""fullscreenenter"",""1"",""2242""
","
","","","-1","","","19","10615","4924","&#9761;","elianto","#3366ff99","-1","-1","1","+10","[]","0","0","2","","","","","","","",""
"pit-trial","44","442857","0.0-2.0-11.1-2.1","battery-v0.2","","""event"",""trial"",""time""
""fullscreenenter"",""1"",""2242""
""blur"",""3"",""14746""
""focus"",""3"",""14818""
","""event"",""trial"",""time""
""blur"",""3"",""14746""
","""event"",""trial"",""time""
""focus"",""3"",""14818""
","""event"",""trial"",""time""
""fullscreenenter"",""1"",""2242""
","
","","","-1","","","19","10615","4924","&#9761;","elianto","#3366ff99","-1","-1","1","+10","[]","0","0","2","","","","","","","",""
"pit-trial","45","447711","0.0-2.0-11.1-3.1","battery-v0.2","","""event"",""trial"",""time""
""fullscreenenter"",""1"",""2242""
""blur"",""3"",""14746""
""focus"",""3"",""14818""
","""event"",""trial"",""time""
""blur"",""3"",""14746""
","""event"",""trial"",""time""
""focus"",""3"",""14818""
","""event"",""trial"",""time""
""fullscreenenter"",""1"",""2242""
","
","","","-1","","","19","10615","4924","&#9761;","elianto","#3366ff99","-1","-1","1","0","[]","0","0","2","","","","","","","",""
"pit-trial","46","451811","0.0-2.0-11.1-4.1","battery-v0.2","","""event"",""trial"",""time""
""fullscreenenter"",""1"",""2242""
""blur"",""3"",""14746""
""focus"",""3"",""14818""
","""event"",""trial"",""time""
""blur"",""3"",""14746""
","""event"",""trial"",""time""
""focus"",""3"",""14818""
","""event"",""trial"",""time""
""fullscreenenter"",""1"",""2242""
","
","","","1149.0999999977648","","","19","10615","4924","&#9761;","elianto","#3366ff99","-1"," ","0","0","[1991.7000000029802]","1","0","2","","","","","","","",""
"pit-trial","47","456693","0.0-2.0-11.2-0.2","battery-v0.2","","""event"",""trial"",""time""
""fullscreenenter"",""1"",""2242""
""blur"",""3"",""14746""
""focus"",""3"",""14818""
","""event"",""trial"",""time""
""blur"",""3"",""14746""
","""event"",""trial"",""time""
""focus"",""3"",""14818""
","""event"",""trial"",""time""
""fullscreenenter"",""1"",""2242""
","
","","","-1","","","19","10615","4924","&#9761;","elianto","#3366ff99","-1","-1","1","+10","[]","0","0","2","","","","","","","",""
"pit-trial","48","461546","0.0-2.0-11.2-1.2","battery-v0.2","","""event"",""trial"",""time""
""fullscreenenter"",""1"",""2242""
""blur"",""3"",""14746""
""focus"",""3"",""14818""
","""event"",""trial"",""time""
""blur"",""3"",""14746""
","""event"",""trial"",""time""
""focus"",""3"",""14818""
","""event"",""trial"",""time""
""fullscreenenter"",""1"",""2242""
","
","","","-1","","","19","10615","4924","&#9761;","elianto","#3366ff99","-1","-1","1","+10","[]","0","0","2","","","","","","","",""
"pit-trial","49","466400","0.0-2.0-11.2-2.2","battery-v0.2","","""event"",""trial"",""time""
""fullscreenenter"",""1"",""2242""
""blur"",""3"",""14746""
""focus"",""3"",""14818""
","""event"",""trial"",""time""
""blur"",""3"",""14746""
","""event"",""trial"",""time""
""focus"",""3"",""14818""
","""event"",""trial"",""time""
""fullscreenenter"",""1"",""2242""
","
","","","-1","","","19","10615","4924","&#9761;","elianto","#3366ff99","-1","-1","1","+10","[]","0","0","2","","","","","","","",""
"pit-trial","50","471253","0.0-2.0-11.2-3.2","battery-v0.2","","""event"",""trial"",""time""
""fullscreenenter"",""1"",""2242""
""blur"",""3"",""14746""
""focus"",""3"",""14818""
","""event"",""trial"",""time""
""blur"",""3"",""14746""
","""event"",""trial"",""time""
""focus"",""3"",""14818""
","""event"",""trial"",""time""
""fullscreenenter"",""1"",""2242""
","
","","","-1","","","19","10615","4924","&#9761;","elianto","#3366ff99","-1","-1","1","0","[]","0","0","2","","","","","","","",""
"pit-trial","51","476108","0.0-2.0-11.2-4.2","battery-v0.2","","""event"",""trial"",""time""
""fullscreenenter"",""1"",""2242""
""blur"",""3"",""14746""
""focus"",""3"",""14818""
","""event"",""trial"",""time""
""blur"",""3"",""14746""
","""event"",""trial"",""time""
""focus"",""3"",""14818""
","""event"",""trial"",""time""
""fullscreenenter"",""1"",""2242""
","
","","","-1","","","19","10615","4924","&#9761;","elianto","#3366ff99","-1","-1","1","+10","[4493.60000000149]","1","0","2","","","","","","","",""
"pit-trial","52","480962","0.0-2.0-11.3-0.3","battery-v0.2","","""event"",""trial"",""time""
""fullscreenenter"",""1"",""2242""
""blur"",""3"",""14746""
""focus"",""3"",""14818""
","""event"",""trial"",""time""
""blur"",""3"",""14746""
","""event"",""trial"",""time""
""focus"",""3"",""14818""
","""event"",""trial"",""time""
""fullscreenenter"",""1"",""2242""
","
","","","-1","","","19","10615","4924","&#9761;","elianto","#3366ff99","-1","-1","1","+10","[83.10000000149012]","1","0","2","","","","","","","",""
"pit-trial","53","484452","0.0-2.0-11.3-1.3","battery-v0.2","","""event"",""trial"",""time""
""fullscreenenter"",""1"",""2242""
""blur"",""3"",""14746""
""focus"",""3"",""14818""
","""event"",""trial"",""time""
""blur"",""3"",""14746""
","""event"",""trial"",""time""
""focus"",""3"",""14818""
","""event"",""trial"",""time""
""fullscreenenter"",""1"",""2242""
","
","","","634.5","","","19","10615","4924","&#9761;","elianto","#3366ff99","-1"," ","0","0","[1484.8999999985099]","1","0","2","","","","","","","",""
"pit-trial","54","489379","0.0-2.0-11.3-2.3","battery-v0.2","","""event"",""trial"",""time""
""fullscreenenter"",""1"",""2242""
""blur"",""3"",""14746""
""focus"",""3"",""14818""
","""event"",""trial"",""time""
""blur"",""3"",""14746""
","""event"",""trial"",""time""
""focus"",""3"",""14818""
","""event"",""trial"",""time""
""fullscreenenter"",""1"",""2242""
","
","","","-1","","","19","10615","4924","&#9761;","elianto","#3366ff99","-1","-1","1","+10","[]","0","0","2","","","","","","","",""
"pit-trial","55","494233","0.0-2.0-11.3-3.3","battery-v0.2","","""event"",""trial"",""time""
""fullscreenenter"",""1"",""2242""
""blur"",""3"",""14746""
""focus"",""3"",""14818""
","""event"",""trial"",""time""
""blur"",""3"",""14746""
","""event"",""trial"",""time""
""focus"",""3"",""14818""
","""event"",""trial"",""time""
""fullscreenenter"",""1"",""2242""
","
","","","-1","","","19","10615","4924","&#9761;","elianto","#3366ff99","-1","-1","1","0","[]","0","0","2","","","","","","","",""
"pit-trial","56","499088","0.0-2.0-11.3-4.3","battery-v0.2","","""event"",""trial"",""time""
""fullscreenenter"",""1"",""2242""
""blur"",""3"",""14746""
""focus"",""3"",""14818""
","""event"",""trial"",""time""
""blur"",""3"",""14746""
","""event"",""trial"",""time""
""focus"",""3"",""14818""
","""event"",""trial"",""time""
""fullscreenenter"",""1"",""2242""
","
","","","-1","","","19","10615","4924","&#9761;","elianto","#3366ff99","-1","-1","1","+10","[]","0","0","2","","","","","","","",""
"call-function","57","499090","0.0-2.0-12.0","battery-v0.2","","""event"",""trial"",""time""
""fullscreenenter"",""1"",""2242""
""blur"",""3"",""14746""
""focus"",""3"",""14818""
","""event"",""trial"",""time""
""blur"",""3"",""14746""
","""event"",""trial"",""time""
""focus"",""3"",""14818""
","""event"",""trial"",""time""
""fullscreenenter"",""1"",""2242""
","
","","","","","","","","","","","","","","","","","","","","","","","","","","",""
"pit-instructions","58","538046","0.0-2.0-13.0","battery-v0.2","","""event"",""trial"",""time""
""fullscreenenter"",""1"",""2242""
""blur"",""3"",""14746""
""focus"",""3"",""14818""
","""event"",""trial"",""time""
""blur"",""3"",""14746""
","""event"",""trial"",""time""
""focus"",""3"",""14818""
","""event"",""trial"",""time""
""fullscreenenter"",""1"",""2242""
","
","","[{""page_index"":0,""viewing_time"":6476.89999999851},{""page_index"":1,""viewing_time"":6193.5},{""page_index"":2,""viewing_time"":3468.900000002235},{""page_index"":3,""viewing_time"":14508.099999997765},{""page_index"":4,""viewing_time"":8270.60000000149}]","38918.5","","","","","","","","","","","","","","","","","","","","","","","",""
"pit-trial","59","542912","0.0-2.0-14.0-0.0","battery-v0.2","","""event"",""trial"",""time""
""fullscreenenter"",""1"",""2242""
""blur"",""3"",""14746""
""focus"",""3"",""14818""
","""event"",""trial"",""time""
""blur"",""3"",""14746""
","""event"",""trial"",""time""
""focus"",""3"",""14818""
","""event"",""trial"",""time""
""fullscreenenter"",""1"",""2242""
","
","","","-1","","","19","10615","4924","&#9826;","elianto","#f73b6a7A","-1","-1","1","0","[]","0","0","3","","","","","","","",""
"pit-trial","60","547766","0.0-2.0-14.0-1.0","battery-v0.2","","""event"",""trial"",""time""
""fullscreenenter"",""1"",""2242""
""blur"",""3"",""14746""
""focus"",""3"",""14818""
","""event"",""trial"",""time""
""blur"",""3"",""14746""
","""event"",""trial"",""time""
""focus"",""3"",""14818""
","""event"",""trial"",""time""
""fullscreenenter"",""1"",""2242""
","
","","","-1","","","19","10615","4924","&#9826;","elianto","#f73b6a7A","-1","-1","1","0","[]","0","0","3","","","","","","","",""
"pit-trial","61","552619","0.0-2.0-14.0-2.0","battery-v0.2","","""event"",""trial"",""time""
""fullscreenenter"",""1"",""2242""
""blur"",""3"",""14746""
""focus"",""3"",""14818""
","""event"",""trial"",""time""
""blur"",""3"",""14746""
","""event"",""trial"",""time""
""focus"",""3"",""14818""
","""event"",""trial"",""time""
""fullscreenenter"",""1"",""2242""
","
","","","-1","","","19","10615","4924","&#9826;","elianto","#f73b6a7A","-1","-1","1","0","[]","0","0","3","","","","","","","",""
"pit-trial","62","557487","0.0-2.0-14.0-3.0","battery-v0.2","","""event"",""trial"",""time""
""fullscreenenter"",""1"",""2242""
""blur"",""3"",""14746""
""focus"",""3"",""14818""
","""event"",""trial"",""time""
""blur"",""3"",""14746""
","""event"",""trial"",""time""
""focus"",""3"",""14818""
","""event"",""trial"",""time""
""fullscreenenter"",""1"",""2242""
","
","","","-1","","","19","10615","4924","&#9826;","elianto","#f73b6a7A","-1","-1","1","-10","[]","0","0","3","","","","","","","",""
"pit-trial","63","562352","0.0-2.0-14.0-4.0","battery-v0.2","","""event"",""trial"",""time""
""fullscreenenter"",""1"",""2242""
""blur"",""3"",""14746""
""focus"",""3"",""14818""
","""event"",""trial"",""time""
""blur"",""3"",""14746""
","""event"",""trial"",""time""
""focus"",""3"",""14818""
","""event"",""trial"",""time""
""fullscreenenter"",""1"",""2242""
","
","","","-1","","","19","10615","4924","&#9826;","elianto","#f73b6a7A","-1","-1","1","0","[]","0","0","3","","","","","","","",""
"pit-trial","64","565856","0.0-2.0-14.1-0.1","battery-v0.2","","""event"",""trial"",""time""
""fullscreenenter"",""1"",""2242""
""blur"",""3"",""14746""
""focus"",""3"",""14818""
","""event"",""trial"",""time""
""blur"",""3"",""14746""
","""event"",""trial"",""time""
""focus"",""3"",""14818""
","""event"",""trial"",""time""
""fullscreenenter"",""1"",""2242""
","
","","","603.0999999977648","","","19","10615","4924","&#9826;","elianto","#f73b6a7A","-1"," ","0","-10","[1455.6000000014901]","1","0","3","","","","","","","",""
"pit-trial","65","570771","0.0-2.0-14.1-1.1","battery-v0.2","","""event"",""trial"",""time""
""fullscreenenter"",""1"",""2242""
""blur"",""3"",""14746""
""focus"",""3"",""14818""
","""event"",""trial"",""time""
""blur"",""3"",""14746""
","""event"",""trial"",""time""
""focus"",""3"",""14818""
","""event"",""trial"",""time""
""fullscreenenter"",""1"",""2242""
","
","","","-1","","","19","10615","4924","&#9826;","elianto","#f73b6a7A","-1","-1","1","0","[]","0","0","3","","","","","","","",""
"pit-trial","66","575635","0.0-2.0-14.1-2.1","battery-v0.2","","""event"",""trial"",""time""
""fullscreenenter"",""1"",""2242""
""blur"",""3"",""14746""
""focus"",""3"",""14818""
","""event"",""trial"",""time""
""blur"",""3"",""14746""
","""event"",""trial"",""time""
""focus"",""3"",""14818""
","""event"",""trial"",""time""
""fullscreenenter"",""1"",""2242""
","
","","","-1","","","19","10615","4924","&#9826;","elianto","#f73b6a7A","-1","-1","1","0","[]","0","0","3","","","","","","","",""
"pit-trial","67","580490","0.0-2.0-14.1-3.1","battery-v0.2","","""event"",""trial"",""time""
""fullscreenenter"",""1"",""2242""
""blur"",""3"",""14746""
""focus"",""3"",""14818""
","""event"",""trial"",""time""
""blur"",""3"",""14746""
","""event"",""trial"",""time""
""focus"",""3"",""14818""
","""event"",""trial"",""time""
""fullscreenenter"",""1"",""2242""
","
","","","-1","","","19","10615","4924","&#9826;","elianto","#f73b6a7A","-1","-1","1","-10","[]","0","0","3","","","","","","","",""
"pit-trial","68","585343","0.0-2.0-14.1-4.1","battery-v0.2","","""event"",""trial"",""time""
""fullscreenenter"",""1"",""2242""
""blur"",""3"",""14746""
""focus"",""3"",""14818""
","""event"",""trial"",""time""
""blur"",""3"",""14746""
","""event"",""trial"",""time""
""focus"",""3"",""14818""
","""event"",""trial"",""time""
""fullscreenenter"",""1"",""2242""
","
","","","-1","","","19","10615","4924","&#9826;","elianto","#f73b6a7A","-1","-1","1","0","[]","0","0","3","","","","","","","",""
"pit-trial","69","590266","0.0-2.0-14.2-0.2","battery-v0.2","","""event"",""trial"",""time""
""fullscreenenter"",""1"",""2242""
""blur"",""3"",""14746""
""focus"",""3"",""14818""
","""event"",""trial"",""time""
""blur"",""3"",""14746""
","""event"",""trial"",""time""
""focus"",""3"",""14818""
","""event"",""trial"",""time""
""fullscreenenter"",""1"",""2242""
","
","","","-1","","","19","10615","4924","&#9826;","elianto","#f73b6a7A","-1","-1","1","0","[]","0","0","3","","","","","","","",""
"pit-trial","70","595130","0.0-2.0-14.2-1.2","battery-v0.2","","""event"",""trial"",""time""
""fullscreenenter"",""1"",""2242""
""blur"",""3"",""14746""
""focus"",""3"",""14818""
","""event"",""trial"",""time""
""blur"",""3"",""14746""
","""event"",""trial"",""time""
""focus"",""3"",""14818""
","""event"",""trial"",""time""
""fullscreenenter"",""1"",""2242""
","
","","","-1","","","19","10615","4924","&#9826;","elianto","#f73b6a7A","-1","-1","1","0","[]","0","0","3","","","","","","","",""
"pit-trial","71","599994","0.0-2.0-14.2-2.2","battery-v0.2","","""event"",""trial"",""time""
""fullscreenenter"",""1"",""2242""
""blur"",""3"",""14746""
""focus"",""3"",""14818""
","""event"",""trial"",""time""
""blur"",""3"",""14746""
","""event"",""trial"",""time""
""focus"",""3"",""14818""
","""event"",""trial"",""time""
""fullscreenenter"",""1"",""2242""
","
","","","-1","","","19","10615","4924","&#9826;","elianto","#f73b6a7A","-1","-1","1","0","[]","0","0","3","","","","","","","",""
"pit-trial","72","604847","0.0-2.0-14.2-3.2","battery-v0.2","","""event"",""trial"",""time""
""fullscreenenter"",""1"",""2242""
""blur"",""3"",""14746""
""focus"",""3"",""14818""
","""event"",""trial"",""time""
""blur"",""3"",""14746""
","""event"",""trial"",""time""
""focus"",""3"",""14818""
","""event"",""trial"",""time""
""fullscreenenter"",""1"",""2242""
","
","","","-1","","","19","10615","4924","&#9826;","elianto","#f73b6a7A","-1","-1","1","-10","[]","0","0","3","","","","","","","",""
"pit-trial","73","609701","0.0-2.0-14.2-4.2","battery-v0.2","","""event"",""trial"",""time""
""fullscreenenter"",""1"",""2242""
""blur"",""3"",""14746""
""focus"",""3"",""14818""
","""event"",""trial"",""time""
""blur"",""3"",""14746""
","""event"",""trial"",""time""
""focus"",""3"",""14818""
","""event"",""trial"",""time""
""fullscreenenter"",""1"",""2242""
","
","","","-1","","","19","10615","4924","&#9826;","elianto","#f73b6a7A","-1","-1","1","0","[]","0","0","3","","","","","","","",""
"pit-trial","74","614555","0.0-2.0-14.3-0.3","battery-v0.2","","""event"",""trial"",""time""
""fullscreenenter"",""1"",""2242""
""blur"",""3"",""14746""
""focus"",""3"",""14818""
","""event"",""trial"",""time""
""blur"",""3"",""14746""
","""event"",""trial"",""time""
""focus"",""3"",""14818""
","""event"",""trial"",""time""
""fullscreenenter"",""1"",""2242""
","
","","","-1","","","19","10615","4924","&#9826;","elianto","#f73b6a7A","-1","-1","1","0","[]","0","0","3","","","","","","","",""
"pit-trial","75","619408","0.0-2.0-14.3-1.3","battery-v0.2","","""event"",""trial"",""time""
""fullscreenenter"",""1"",""2242""
""blur"",""3"",""14746""
""focus"",""3"",""14818""
","""event"",""trial"",""time""
""blur"",""3"",""14746""
","""event"",""trial"",""time""
""focus"",""3"",""14818""
","""event"",""trial"",""time""
""fullscreenenter"",""1"",""2242""
","
","","","-1","","","19","10615","4924","&#9826;","elianto","#f73b6a7A","-1","-1","1","0","[]","0","0","3","","","","","","","",""
"pit-trial","76","624263","0.0-2.0-14.3-2.3","battery-v0.2","","""event"",""trial"",""time""
""fullscreenenter"",""1"",""2242""
""blur"",""3"",""14746""
""focus"",""3"",""14818""
","""event"",""trial"",""time""
""blur"",""3"",""14746""
","""event"",""trial"",""time""
""focus"",""3"",""14818""
","""event"",""trial"",""time""
""fullscreenenter"",""1"",""2242""
","
","","","-1","","","19","10615","4924","&#9826;","elianto","#f73b6a7A","-1","-1","1","0","[]","0","0","3","","","","","","","",""
"pit-trial","77","629117","0.0-2.0-14.3-3.3","battery-v0.2","","""event"",""trial"",""time""
""fullscreenenter"",""1"",""2242""
""blur"",""3"",""14746""
""focus"",""3"",""14818""
","""event"",""trial"",""time""
""blur"",""3"",""14746""
","""event"",""trial"",""time""
""focus"",""3"",""14818""
","""event"",""trial"",""time""
""fullscreenenter"",""1"",""2242""
","
","","","-1","","","19","10615","4924","&#9826;","elianto","#f73b6a7A","-1","-1","1","-10","[]","0","0","3","","","","","","","",""
"pit-trial","78","633970","0.0-2.0-14.3-4.3","battery-v0.2","","""event"",""trial"",""time""
""fullscreenenter"",""1"",""2242""
""blur"",""3"",""14746""
""focus"",""3"",""14818""
","""event"",""trial"",""time""
""blur"",""3"",""14746""
","""event"",""trial"",""time""
""focus"",""3"",""14818""
","""event"",""trial"",""time""
""fullscreenenter"",""1"",""2242""
","
","","","-1","","","19","10615","4924","&#9826;","elianto","#f73b6a7A","-1","-1","1","0","[]","0","0","3","","","","","","","",""
"call-function","79","633973","0.0-2.0-15.0","battery-v0.2","","""event"",""trial"",""time""
""fullscreenenter"",""1"",""2242""
""blur"",""3"",""14746""
""focus"",""3"",""14818""
","""event"",""trial"",""time""
""blur"",""3"",""14746""
","""event"",""trial"",""time""
""focus"",""3"",""14818""
","""event"",""trial"",""time""
""fullscreenenter"",""1"",""2242""
","
","","","","","","","","","","","","","","","","","","","","","","","","","","",""
"pit-instructions","80","670611","0.0-2.0-16.0","battery-v0.2","","""event"",""trial"",""time""
""fullscreenenter"",""1"",""2242""
""blur"",""3"",""14746""
""focus"",""3"",""14818""
","""event"",""trial"",""time""
""blur"",""3"",""14746""
","""event"",""trial"",""time""
""focus"",""3"",""14818""
","""event"",""trial"",""time""
""fullscreenenter"",""1"",""2242""
","
","","[{""page_index"":0,""viewing_time"":8771.599999997765},{""page_index"":1,""viewing_time"":10330.300000000745},{""page_index"":2,""viewing_time"":10395.199999999255},{""page_index"":3,""viewing_time"":7131.10000000149}]","36628.699999999255","","","","","","","","","","","","","","","","","","","","","","","",""
"pit-trial","81","674569","0.0-2.0-17.0-0.0","battery-v0.2","","""event"",""trial"",""time""
""fullscreenenter"",""1"",""2242""
""blur"",""3"",""14746""
""focus"",""3"",""14818""
","""event"",""trial"",""time""
""blur"",""3"",""14746""
","""event"",""trial"",""time""
""focus"",""3"",""14818""
","""event"",""trial"",""time""
""fullscreenenter"",""1"",""2242""
","
","","","1090.1000000014901","","","19","10615","4924","&#9789;","elianto","#f73b6a7A"," "," ","1","0","[1943]","1","0","4","","","","","","","",""
"pit-trial","82","677829","0.0-2.0-17.0-1.0","battery-v0.2","","""event"",""trial"",""time""
""fullscreenenter"",""1"",""2242""
""blur"",""3"",""14746""
""focus"",""3"",""14818""
","""event"",""trial"",""time""
""blur"",""3"",""14746""
","""event"",""trial"",""time""
""focus"",""3"",""14818""
","""event"",""trial"",""time""
""fullscreenenter"",""1"",""2242""
","
","","","405.9000000022352","","","19","10615","4924","&#9789;","elianto","#f73b6a7A"," "," ","1","0","[1257.1000000014901]","1","0","4","","","","","","","",""
"pit-trial","83","681125","0.0-2.0-17.0-2.0","battery-v0.2","","""event"",""trial"",""time""
""fullscreenenter"",""1"",""2242""
""blur"",""3"",""14746""
""focus"",""3"",""14818""
","""event"",""trial"",""time""
""blur"",""3"",""14746""
","""event"",""trial"",""time""
""focus"",""3"",""14818""
","""event"",""trial"",""time""
""fullscreenenter"",""1"",""2242""
","
","","","442.4000000022352","","","19","10615","4924","&#9789;","elianto","#f73b6a7A"," "," ","1","0","[1293.3999999985099]","1","0","4","","","","","","","",""
"pit-trial","84","684655","0.0-2.0-17.0-3.0","battery-v0.2","","""event"",""trial"",""time""
""fullscreenenter"",""1"",""2242""
""blur"",""3"",""14746""
""focus"",""3"",""14818""
","""event"",""trial"",""time""
""blur"",""3"",""14746""
","""event"",""trial"",""time""
""focus"",""3"",""14818""
","""event"",""trial"",""time""
""fullscreenenter"",""1"",""2242""
","
","","","675.6999999992549","","","19","10615","4924","&#9789;","elianto","#f73b6a7A"," "," ","1","-10","[1526.8999999985099]","1","0","4","","","","","","","",""
"pit-trial","85","687978","0.0-2.0-17.0-4.0","battery-v0.2","","""event"",""trial"",""time""
""fullscreenenter"",""1"",""2242""
""blur"",""3"",""14746""
""focus"",""3"",""14818""
","""event"",""trial"",""time""
""blur"",""3"",""14746""
","""event"",""trial"",""time""
""focus"",""3"",""14818""
","""event"",""trial"",""time""
""fullscreenenter"",""1"",""2242""
","
","","","468.9000000022352","","","19","10615","4924","&#9789;","elianto","#f73b6a7A"," "," ","1","0","[1320.3999999985099]","1","0","4","","","","","","","",""
"pit-trial","86","692857","0.0-2.0-17.1-0.1","battery-v0.2","","""event"",""trial"",""time""
""fullscreenenter"",""1"",""2242""
""blur"",""3"",""14746""
""focus"",""3"",""14818""
","""event"",""trial"",""time""
""blur"",""3"",""14746""
","""event"",""trial"",""time""
""focus"",""3"",""14818""
","""event"",""trial"",""time""
""fullscreenenter"",""1"",""2242""
","
","","","-1","","","19","10615","4924","&#9789;","elianto","#f73b6a7A"," ","-1","0","-10","[]","0","0","4","","","","","","","",""
"pit-trial","87","697727","0.0-2.0-17.1-1.1","battery-v0.2","","""event"",""trial"",""time""
""fullscreenenter"",""1"",""2242""
""blur"",""3"",""14746""
""focus"",""3"",""14818""
","""event"",""trial"",""time""
""blur"",""3"",""14746""
","""event"",""trial"",""time""
""focus"",""3"",""14818""
","""event"",""trial"",""time""
""fullscreenenter"",""1"",""2242""
","
","","","-1","","","19","10615","4924","&#9789;","elianto","#f73b6a7A"," ","-1","0","-10","[]","0","0","4","","","","","","","",""
"pit-trial","88","702580","0.0-2.0-17.1-2.1","battery-v0.2","","""event"",""trial"",""time""
""fullscreenenter"",""1"",""2242""
""blur"",""3"",""14746""
""focus"",""3"",""14818""
","""event"",""trial"",""time""
""blur"",""3"",""14746""
","""event"",""trial"",""time""
""focus"",""3"",""14818""
","""event"",""trial"",""time""
""fullscreenenter"",""1"",""2242""
","
","","","-1","","","19","10615","4924","&#9789;","elianto","#f73b6a7A"," ","-1","0","-10","[]","0","0","4","","","","","","","",""
"pit-trial","89","707434","0.0-2.0-17.1-3.1","battery-v0.2","","""event"",""trial"",""time""
""fullscreenenter"",""1"",""2242""
""blur"",""3"",""14746""
""focus"",""3"",""14818""
","""event"",""trial"",""time""
""blur"",""3"",""14746""
","""event"",""trial"",""time""
""focus"",""3"",""14818""
","""event"",""trial"",""time""
""fullscreenenter"",""1"",""2242""
","
","","","-1","","","19","10615","4924","&#9789;","elianto","#f73b6a7A"," ","-1","0","0","[]","0","0","4","","","","","","","",""
"pit-trial","90","712288","0.0-2.0-17.1-4.1","battery-v0.2","","""event"",""trial"",""time""
""fullscreenenter"",""1"",""2242""
""blur"",""3"",""14746""
""focus"",""3"",""14818""
","""event"",""trial"",""time""
""blur"",""3"",""14746""
","""event"",""trial"",""time""
""focus"",""3"",""14818""
","""event"",""trial"",""time""
""fullscreenenter"",""1"",""2242""
","
","","","-1","","","19","10615","4924","&#9789;","elianto","#f73b6a7A"," ","-1","0","-10","[]","0","0","4","","","","","","","",""
"pit-trial","91","715661","0.0-2.0-17.2-0.2","battery-v0.2","","""event"",""trial"",""time""
""fullscreenenter"",""1"",""2242""
""blur"",""3"",""14746""
""focus"",""3"",""14818""
","""event"",""trial"",""time""
""blur"",""3"",""14746""
","""event"",""trial"",""time""
""focus"",""3"",""14818""
","""event"",""trial"",""time""
""fullscreenenter"",""1"",""2242""
","
","","","515.6999999992549","","","19","10615","4924","&#9789;","elianto","#f73b6a7A"," "," ","1","0","[1.5,1367.1000000014901]","2","0","4","","","","","","","",""
"pit-trial","92","720515","0.0-2.0-17.2-1.2","battery-v0.2","","""event"",""trial"",""time""
""fullscreenenter"",""1"",""2242""
""blur"",""3"",""14746""
""focus"",""3"",""14818""
","""event"",""trial"",""time""
""blur"",""3"",""14746""
","""event"",""trial"",""time""
""focus"",""3"",""14818""
","""event"",""trial"",""time""
""fullscreenenter"",""1"",""2242""
","
","","","-1","","","19","10615","4924","&#9789;","elianto","#f73b6a7A"," ","-1","0","-10","[]","0","0","4","","","","","","","",""
"pit-trial","93","725370","0.0-2.0-17.2-2.2","battery-v0.2","","""event"",""trial"",""time""
""fullscreenenter"",""1"",""2242""
""blur"",""3"",""14746""
""focus"",""3"",""14818""
","""event"",""trial"",""time""
""blur"",""3"",""14746""
","""event"",""trial"",""time""
""focus"",""3"",""14818""
","""event"",""trial"",""time""
""fullscreenenter"",""1"",""2242""
","
","","","-1","","","19","10615","4924","&#9789;","elianto","#f73b6a7A"," ","-1","0","-10","[]","0","0","4","","","","","","","",""
"pit-trial","94","730224","0.0-2.0-17.2-3.2","battery-v0.2","","""event"",""trial"",""time""
""fullscreenenter"",""1"",""2242""
""blur"",""3"",""14746""
""focus"",""3"",""14818""
","""event"",""trial"",""time""
""blur"",""3"",""14746""
","""event"",""trial"",""time""
""focus"",""3"",""14818""
","""event"",""trial"",""time""
""fullscreenenter"",""1"",""2242""
","
","","","-1","","","19","10615","4924","&#9789;","elianto","#f73b6a7A"," ","-1","0","0","[]","0","0","4","","","","","","","",""
"pit-trial","95","734581","0.0-2.0-17.2-4.2","battery-v0.2","","""event"",""trial"",""time""
""fullscreenenter"",""1"",""2242""
""blur"",""3"",""14746""
""focus"",""3"",""14818""
","""event"",""trial"",""time""
""blur"",""3"",""14746""
","""event"",""trial"",""time""
""focus"",""3"",""14818""
","""event"",""trial"",""time""
""fullscreenenter"",""1"",""2242""
","
","","","1503.3999999985099","","","19","10615","4924","&#9789;","elianto","#f73b6a7A"," "," ","1","0","[2353.800000000745]","1","0","4","","","","","","","",""
"pit-trial","96","738938","0.0-2.0-17.3-0.3","battery-v0.2","","""event"",""trial"",""time""
""fullscreenenter"",""1"",""2242""
""blur"",""3"",""14746""
""focus"",""3"",""14818""
","""event"",""trial"",""time""
""blur"",""3"",""14746""
","""event"",""trial"",""time""
""focus"",""3"",""14818""
","""event"",""trial"",""time""
""fullscreenenter"",""1"",""2242""
","
","","","1502.8999999985099","","","19","10615","4924","&#9789;","elianto","#f73b6a7A"," "," ","1","0","[2354.199999999255]","1","0","4","","","","","","","",""
"pit-trial","97","743791","0.0-2.0-17.3-1.3","battery-v0.2","","""event"",""trial"",""time""
""fullscreenenter"",""1"",""2242""
""blur"",""3"",""14746""
""focus"",""3"",""14818""
","""event"",""trial"",""time""
""blur"",""3"",""14746""
","""event"",""trial"",""time""
""focus"",""3"",""14818""
","""event"",""trial"",""time""
""fullscreenenter"",""1"",""2242""
","
","","","-1","","","19","10615","4924","&#9789;","elianto","#f73b6a7A"," ","-1","0","-10","[4622.900000002235]","1","0","4","","","","","","","",""
"pit-trial","98","748646","0.0-2.0-17.3-2.3","battery-v0.2","","""event"",""trial"",""time""
""fullscreenenter"",""1"",""2242""
""blur"",""3"",""14746""
""focus"",""3"",""14818""
","""event"",""trial"",""time""
""blur"",""3"",""14746""
","""event"",""trial"",""time""
""focus"",""3"",""14818""
","""event"",""trial"",""time""
""fullscreenenter"",""1"",""2242""
","
","","","-1","","","19","10615","4924","&#9789;","elianto","#f73b6a7A"," ","-1","0","-10","[]","0","0","4","","","","","","","",""
"pit-trial","99","753498","0.0-2.0-17.3-3.3","battery-v0.2","","""event"",""trial"",""time""
""fullscreenenter"",""1"",""2242""
""blur"",""3"",""14746""
""focus"",""3"",""14818""
","""event"",""trial"",""time""
""blur"",""3"",""14746""
","""event"",""trial"",""time""
""focus"",""3"",""14818""
","""event"",""trial"",""time""
""fullscreenenter"",""1"",""2242""
","
","","","-1","","","19","10615","4924","&#9789;","elianto","#f73b6a7A"," ","-1","0","0","[258.80000000074506]","1","0","4","","","","","","","",""
"pit-trial","100","758361","0.0-2.0-17.3-4.3","battery-v0.2","","""event"",""trial"",""time""
""fullscreenenter"",""1"",""2242""
""blur"",""3"",""14746""
""focus"",""3"",""14818""
","""event"",""trial"",""time""
""blur"",""3"",""14746""
","""event"",""trial"",""time""
""focus"",""3"",""14818""
","""event"",""trial"",""time""
""fullscreenenter"",""1"",""2242""
","
","","","-1","","","19","10615","4924","&#9789;","elianto","#f73b6a7A"," ","-1","0","-10","[]","0","0","4","","","","","","","",""
"call-function","101","758363","0.0-2.0-18.0","battery-v0.2","","""event"",""trial"",""time""
""fullscreenenter"",""1"",""2242""
""blur"",""3"",""14746""
""focus"",""3"",""14818""
","""event"",""trial"",""time""
""blur"",""3"",""14746""
","""event"",""trial"",""time""
""focus"",""3"",""14818""
","""event"",""trial"",""time""
""fullscreenenter"",""1"",""2242""
","
","","","","","","","","","","","","","","","","","","","","","","","","","","",""
"pit-instructions","102","831453","0.0-2.0-19.0","battery-v0.2","","""event"",""trial"",""time""
""fullscreenenter"",""1"",""2242""
""blur"",""3"",""14746""
""focus"",""3"",""14818""
","""event"",""trial"",""time""
""blur"",""3"",""14746""
","""event"",""trial"",""time""
""focus"",""3"",""14818""
","""event"",""trial"",""time""
""fullscreenenter"",""1"",""2242""
","
","","[{""page_index"":0,""viewing_time"":22234.199999999255},{""page_index"":1,""viewing_time"":6937.599999997765},{""page_index"":2,""viewing_time"":8284},{""page_index"":3,""viewing_time"":8718.300000000745},{""page_index"":4,""viewing_time"":6396.400000002235},{""page_index"":5,""viewing_time"":8381.89999999851},{""page_index"":6,""viewing_time"":4550.60000000149},{""page_index"":7,""viewing_time"":4399.699999999255},{""page_index"":8,""viewing_time"":3175.800000000745}]","73079.5","","","","","","","","","","","","","","","","","","","","","","","",""
"pit-comprehension","103","835976","0.0-2.0-20.0-0.0","battery-v0.2","","""event"",""trial"",""time""
""fullscreenenter"",""1"",""2242""
""blur"",""3"",""14746""
""focus"",""3"",""14818""
","""event"",""trial"",""time""
""blur"",""3"",""14746""
","""event"",""trial"",""time""
""focus"",""3"",""14818""
","""event"",""trial"",""time""
""fullscreenenter"",""1"",""2242""
","
","","","4496.199999999255","[""SPACE""]","0","19","10615","4924","","","","","","","","","","","","","","","","","","",""
"pit-instructions","104","839169","0.0-2.0-20.0-1.0","battery-v0.2","","""event"",""trial"",""time""
""fullscreenenter"",""1"",""2242""
""blur"",""3"",""14746""
""focus"",""3"",""14818""
","""event"",""trial"",""time""
""blur"",""3"",""14746""
","""event"",""trial"",""time""
""focus"",""3"",""14818""
","""event"",""trial"",""time""
""fullscreenenter"",""1"",""2242""
","
","","[{""page_index"":0,""viewing_time"":3109.2999999970198}]","3109.699999999255","","","","","","","","","","","","","","","","","","","","","","","",""
"pit-comprehension","105","844063","0.0-2.0-21.0-0.0","battery-v0.2","","""event"",""trial"",""time""
""fullscreenenter"",""1"",""2242""
""blur"",""3"",""14746""
""focus"",""3"",""14818""
","""event"",""trial"",""time""
""blur"",""3"",""14746""
","""event"",""trial"",""time""
""focus"",""3"",""14818""
","""event"",""trial"",""time""
""fullscreenenter"",""1"",""2242""
","
","","","4887.60000000149","[""10""]","0","19","10615","4924","","","","","","","","","","","","","","","","","","",""
"pit-instructions","106","847872","0.0-2.0-21.0-1.0","battery-v0.2","","""event"",""trial"",""time""
""fullscreenenter"",""1"",""2242""
""blur"",""3"",""14746""
""focus"",""3"",""14818""
","""event"",""trial"",""time""
""blur"",""3"",""14746""
","""event"",""trial"",""time""
""focus"",""3"",""14818""
","""event"",""trial"",""time""
""fullscreenenter"",""1"",""2242""
","
","","[{""page_index"":0,""viewing_time"":3745.199999999255}]","3745.699999999255","","","","","","","","","","","","","","","","","","","","","","","",""
"pit-comprehension","107","857855","0.0-2.0-22.0-0.0","battery-v0.2","","""event"",""trial"",""time""
""fullscreenenter"",""1"",""2242""
""blur"",""3"",""14746""
""focus"",""3"",""14818""
","""event"",""trial"",""time""
""blur"",""3"",""14746""
","""event"",""trial"",""time""
""focus"",""3"",""14818""
","""event"",""trial"",""time""
""fullscreenenter"",""1"",""2242""
","
","","","9961.300000000745","[""0""]","0","19","10615","4924","","","","","","","","","","","","","","","","","","",""
"pit-instructions","108","862740","0.0-2.0-22.0-1.0","battery-v0.2","","""event"",""trial"",""time""
""fullscreenenter"",""1"",""2242""
""blur"",""3"",""14746""
""focus"",""3"",""14818""
","""event"",""trial"",""time""
""blur"",""3"",""14746""
","""event"",""trial"",""time""
""focus"",""3"",""14818""
","""event"",""trial"",""time""
""fullscreenenter"",""1"",""2242""
","
","","[{""page_index"":0,""viewing_time"":4736.900000002235}]","4737.20000000298","","","","","","","","","","","","","","","","","","","","","","","",""
"pit-comprehension","109","872139","0.0-2.0-23.0-0.0","battery-v0.2","","""event"",""trial"",""time""
""fullscreenenter"",""1"",""2242""
""blur"",""3"",""14746""
""focus"",""3"",""14818""
","""event"",""trial"",""time""
""blur"",""3"",""14746""
","""event"",""trial"",""time""
""focus"",""3"",""14818""
","""event"",""trial"",""time""
""fullscreenenter"",""1"",""2242""
","
","","","9387.599999997765","[""True""]","0","19","10615","4924","","","","","","","","","","","","","","","","","","",""
"pit-instructions","110","875004","0.0-2.0-23.0-1.0","battery-v0.2","","""event"",""trial"",""time""
""fullscreenenter"",""1"",""2242""
""blur"",""3"",""14746""
""focus"",""3"",""14818""
","""event"",""trial"",""time""
""blur"",""3"",""14746""
","""event"",""trial"",""time""
""focus"",""3"",""14818""
","""event"",""trial"",""time""
""fullscreenenter"",""1"",""2242""
","
","","[{""page_index"":0,""viewing_time"":2771.7000000029802}]","2772","","","","","","","","","","","","","","","","","","","","","","","",""
"pit-comprehension","111","882829","0.0-2.0-24.0-0.0","battery-v0.2","","""event"",""trial"",""time""
""fullscreenenter"",""1"",""2242""
""blur"",""3"",""14746""
""focus"",""3"",""14818""
","""event"",""trial"",""time""
""blur"",""3"",""14746""
","""event"",""trial"",""time""
""focus"",""3"",""14818""
","""event"",""trial"",""time""
""fullscreenenter"",""1"",""2242""
","
","","","7799.800000000745","[""True""]","0","19","10615","4924","","","","","","","","","","","","","","","","","","",""
"pit-instructions","112","885000","0.0-2.0-24.0-1.0","battery-v0.2","","""event"",""trial"",""time""
""fullscreenenter"",""1"",""2242""
""blur"",""3"",""14746""
""focus"",""3"",""14818""
","""event"",""trial"",""time""
""blur"",""3"",""14746""
","""event"",""trial"",""time""
""focus"",""3"",""14818""
","""event"",""trial"",""time""
""fullscreenenter"",""1"",""2242""
","
","","[{""page_index"":0,""viewing_time"":2113}]","2113.39999999851","","","","","","","","","","","","","","","","","","","","","","","",""
"pit-comprehension","113","891450","0.0-2.0-25.0-0.0","battery-v0.2","","""event"",""trial"",""time""
""fullscreenenter"",""1"",""2242""
""blur"",""3"",""14746""
""focus"",""3"",""14818""
","""event"",""trial"",""time""
""blur"",""3"",""14746""
","""event"",""trial"",""time""
""focus"",""3"",""14818""
","""event"",""trial"",""time""
""fullscreenenter"",""1"",""2242""
","
","","","6444.800000000745","[""True""]","0","19","10615","4924","","","","","","","","","","","","","","","","","","",""
"pit-instructions","114","893608","0.0-2.0-25.0-1.0","battery-v0.2","","""event"",""trial"",""time""
""fullscreenenter"",""1"",""2242""
""blur"",""3"",""14746""
""focus"",""3"",""14818""
","""event"",""trial"",""time""
""blur"",""3"",""14746""
","""event"",""trial"",""time""
""focus"",""3"",""14818""
","""event"",""trial"",""time""
""fullscreenenter"",""1"",""2242""
","
","","[{""page_index"":0,""viewing_time"":2090.300000000745}]","2093.5","","","","","","","","","","","","","","","","","","","","","","","",""
"pit-comprehension","115","899690","0.0-2.0-26.0-0.0","battery-v0.2","","""event"",""trial"",""time""
""fullscreenenter"",""1"",""2242""
""blur"",""3"",""14746""
""focus"",""3"",""14818""
","""event"",""trial"",""time""
""blur"",""3"",""14746""
","""event"",""trial"",""time""
""focus"",""3"",""14818""
","""event"",""trial"",""time""
""fullscreenenter"",""1"",""2242""
","
","","","5844.400000002235","[""False""]","0","19","10615","4924","","","","","","","","","","","","","","","","","","",""
"pit-instructions","116","901864","0.0-2.0-26.0-1.0","battery-v0.2","","""event"",""trial"",""time""
""fullscreenenter"",""1"",""2242""
""blur"",""3"",""14746""
""focus"",""3"",""14818""
","""event"",""trial"",""time""
""blur"",""3"",""14746""
","""event"",""trial"",""time""
""focus"",""3"",""14818""
","""event"",""trial"",""time""
""fullscreenenter"",""1"",""2242""
","
","","[{""page_index"":0,""viewing_time"":1985.5}]","1985.8999999985099","","","","","","","","","","","","","","","","","","","","","","","",""
"pit-instructions","117","921563","0.0-3.0","battery-v0.2","","""event"",""trial"",""time""
""fullscreenenter"",""1"",""2242""
""blur"",""3"",""14746""
""focus"",""3"",""14818""
","""event"",""trial"",""time""
""blur"",""3"",""14746""
","""event"",""trial"",""time""
""focus"",""3"",""14818""
","""event"",""trial"",""time""
""fullscreenenter"",""1"",""2242""
","
","","[{""page_index"":0,""viewing_time"":4859.5},{""page_index"":1,""viewing_time"":5381.900000002235},{""page_index"":2,""viewing_time"":9446.099999997765}]","19688.199999999255","","","","","","","","","","","","","","","","","","","","","","","",""
"pit-trial","118","925368","0.0-4.0","battery-v0.2","","""event"",""trial"",""time""
""fullscreenenter"",""1"",""2242""
""blur"",""3"",""14746""
""focus"",""3"",""14818""
","""event"",""trial"",""time""
""blur"",""3"",""14746""
","""event"",""trial"",""time""
""focus"",""3"",""14818""
","""event"",""trial"",""time""
""fullscreenenter"",""1"",""2242""
","
","","","910.8000000007451","","","19","10615","4924","&#9730;","elianto","#3366ff99"," "," ","1","0","[1761.6000000014901]","1","1","","","10615","1","1","1","win","go","1"
"pit-trial","119","928995","0.0-5.0","battery-v0.2","","""event"",""trial"",""time""
""fullscreenenter"",""1"",""2242""
""blur"",""3"",""14746""
""focus"",""3"",""14818""
","""event"",""trial"",""time""
""blur"",""3"",""14746""
","""event"",""trial"",""time""
""focus"",""3"",""14818""
","""event"",""trial"",""time""
""fullscreenenter"",""1"",""2242""
","
","","","767.5999999977648","","","19","10615","4924","&#9733;","elianto","#3366ff99","-1"," ","0","0","[1619.4000000022352]","1","1","","","10615","2","2","2","win","no-go","0"
"pit-trial","120","933850","0.0-6.0","battery-v0.2","","""event"",""trial"",""time""
""fullscreenenter"",""1"",""2242""
""blur"",""3"",""14746""
""focus"",""3"",""14818""
","""event"",""trial"",""time""
""blur"",""3"",""14746""
","""event"",""trial"",""time""
""focus"",""3"",""14818""
","""event"",""trial"",""time""
""fullscreenenter"",""1"",""2242""
","
","","","-1","","","19","10615","4924","&#9728;","elianto","#f73b6a7A","-1","-1","1","0","[]","0","1","","","10615","3","0","4","lose","no-go","0"
"pit-trial","121","937964","0.0-7.0","battery-v0.2","","""event"",""trial"",""time""
""fullscreenenter"",""1"",""2242""
""blur"",""3"",""14746""
""focus"",""3"",""14818""
","""event"",""trial"",""time""
""blur"",""3"",""14746""
","""event"",""trial"",""time""
""focus"",""3"",""14818""
","""event"",""trial"",""time""
""fullscreenenter"",""1"",""2242""
","
","","","1261","","","19","10615","4924","&#9752;","elianto","#f73b6a7A"," "," ","1","0","[2111]","1","1","","","10615","4","3","3","lose","go","0"
"pit-trial","122","942819","0.0-8.0","battery-v0.2","","""event"",""trial"",""time""
""fullscreenenter"",""1"",""2242""
""blur"",""3"",""14746""
""focus"",""3"",""14818""
","""event"",""trial"",""time""
""blur"",""3"",""14746""
","""event"",""trial"",""time""
""focus"",""3"",""14818""
","""event"",""trial"",""time""
""fullscreenenter"",""1"",""2242""
","
","","","-1","","","19","10615","4924","&#9733;","elianto","#3366ff99","-1","-1","1","+10","[]","0","1","","","10615","5","2","2","win","no-go","0"
"pit-trial","123","947673","0.0-9.0","battery-v0.2","","""event"",""trial"",""time""
""fullscreenenter"",""1"",""2242""
""blur"",""3"",""14746""
""focus"",""3"",""14818""
","""event"",""trial"",""time""
""blur"",""3"",""14746""
","""event"",""trial"",""time""
""focus"",""3"",""14818""
","""event"",""trial"",""time""
""fullscreenenter"",""1"",""2242""
","
","","","-1","","","19","10615","4924","&#9730;","elianto","#3366ff99"," ","-1","0","0","[]","0","1","","","10615","6","1","1","win","go","0"
"pit-trial","124","952527","0.0-10.0","battery-v0.2","","""event"",""trial"",""time""
""fullscreenenter"",""1"",""2242""
""blur"",""3"",""14746""
""focus"",""3"",""14818""
","""event"",""trial"",""time""
""blur"",""3"",""14746""
","""event"",""trial"",""time""
""focus"",""3"",""14818""
","""event"",""trial"",""time""
""fullscreenenter"",""1"",""2242""
","
","","","-1","","","19","10615","4924","&#9752;","elianto","#f73b6a7A"," ","-1","0","-10","[]","0","1","","","10615","7","3","3","lose","go","0"
"pit-trial","125","956899","0.0-11.0","battery-v0.2","","""event"",""trial"",""time""
""fullscreenenter"",""1"",""2242""
""blur"",""3"",""14746""
""focus"",""3"",""14818""
","""event"",""trial"",""time""
""blur"",""3"",""14746""
","""event"",""trial"",""time""
""focus"",""3"",""14818""
","""event"",""trial"",""time""
""fullscreenenter"",""1"",""2242""
","
","","","1517.699999999255","","","19","10615","4924","&#9728;","elianto","#f73b6a7A","-1"," ","0","-10","[2368.800000000745]","1","1","","","10615","8","0","4","lose","no-go","0"
"pit-trial","126","960845","0.0-12.0","battery-v0.2","","""event"",""trial"",""time""
""fullscreenenter"",""1"",""2242""
""blur"",""3"",""14746""
""focus"",""3"",""14818""
","""event"",""trial"",""time""
""blur"",""3"",""14746""
","""event"",""trial"",""time""
""focus"",""3"",""14818""
","""event"",""trial"",""time""
""fullscreenenter"",""1"",""2242""
","
","","","1091.300000000745","","","19","10615","4924","&#9733;","elianto","#3366ff99","-1"," ","0","0","[1943.2000000029802]","1","1","","","10615","9","2","2","win","no-go","0"
"pit-trial","127","964272","0.0-13.0","battery-v0.2","","""event"",""trial"",""time""
""fullscreenenter"",""1"",""2242""
""blur"",""3"",""14746""
""focus"",""3"",""14818""
","""event"",""trial"",""time""
""blur"",""3"",""14746""
","""event"",""trial"",""time""
""focus"",""3"",""14818""
","""event"",""trial"",""time""
""fullscreenenter"",""1"",""2242""
","
","","","572.6999999992549","","","19","10615","4924","&#9730;","elianto","#3366ff99"," "," ","1","+10","[1423.3999999985099]","1","1","","","10615","10","1","1","win","go","0"
"pit-trial","128","969126","0.0-14.0","battery-v0.2","","""event"",""trial"",""time""
""fullscreenenter"",""1"",""2242""
""blur"",""3"",""14746""
""focus"",""3"",""14818""
","""event"",""trial"",""time""
""blur"",""3"",""14746""
","""event"",""trial"",""time""
""focus"",""3"",""14818""
","""event"",""trial"",""time""
""fullscreenenter"",""1"",""2242""
","
","","","-1","","","19","10615","4924","&#9752;","elianto","#f73b6a7A"," ","-1","0","0","[]","0","1","","","10615","11","3","3","lose","go","1"
"pit-trial","129","973532","0.0-15.0","battery-v0.2","","""event"",""trial"",""time""
""fullscreenenter"",""1"",""2242""
""blur"",""3"",""14746""
""focus"",""3"",""14818""
","""event"",""trial"",""time""
""blur"",""3"",""14746""
","""event"",""trial"",""time""
""focus"",""3"",""14818""
","""event"",""trial"",""time""
""fullscreenenter"",""1"",""2242""
","
","","","1550.1000000014901","","","19","10615","4924","&#9728;","elianto","#f73b6a7A","-1"," ","0","0","[2402.7000000029802]","1","1","","","10615","12","0","4","lose","no-go","1"
"pit-trial","130","977379","0.0-16.0","battery-v0.2","","""event"",""trial"",""time""
""fullscreenenter"",""1"",""2242""
""blur"",""3"",""14746""
""focus"",""3"",""14818""
","""event"",""trial"",""time""
""blur"",""3"",""14746""
","""event"",""trial"",""time""
""focus"",""3"",""14818""
","""event"",""trial"",""time""
""fullscreenenter"",""1"",""2242""
","
","","","993.4000000022352","","","19","10615","4924","&#9728;","elianto","#f73b6a7A","-1"," ","0","-10","[1844.5]","1","1","","","10615","13","0","4","lose","no-go","0"
"pit-trial","131","982101","0.0-17.0","battery-v0.2","","""event"",""trial"",""time""
""fullscreenenter"",""1"",""2242""
""blur"",""3"",""14746""
""focus"",""3"",""14818""
","""event"",""trial"",""time""
""blur"",""3"",""14746""
","""event"",""trial"",""time""
""focus"",""3"",""14818""
","""event"",""trial"",""time""
""fullscreenenter"",""1"",""2242""
","
","","","1868.7000000029802","","","19","10615","4924","&#9730;","elianto","#3366ff99"," "," ","1","+10","[2719.60000000149]","1","1","","","10615","14","1","1","win","go","0"
"pit-trial","132","986956","0.0-18.0","battery-v0.2","","""event"",""trial"",""time""
""fullscreenenter"",""1"",""2242""
""blur"",""3"",""14746""
""focus"",""3"",""14818""
","""event"",""trial"",""time""
""blur"",""3"",""14746""
","""event"",""trial"",""time""
""focus"",""3"",""14818""
","""event"",""trial"",""time""
""fullscreenenter"",""1"",""2242""
","
","","","-1","","","19","10615","4924","&#9752;","elianto","#f73b6a7A"," ","-1","0","-10","[]","0","1","","","10615","15","3","3","lose","go","0"
"pit-trial","133","990937","0.0-19.0","battery-v0.2","","""event"",""trial"",""time""
""fullscreenenter"",""1"",""2242""
""blur"",""3"",""14746""
""focus"",""3"",""14818""
","""event"",""trial"",""time""
""blur"",""3"",""14746""
","""event"",""trial"",""time""
""focus"",""3"",""14818""
","""event"",""trial"",""time""
""fullscreenenter"",""1"",""2242""
","
","","","1126.5999999977648","","","19","10615","4924","&#9733;","elianto","#3366ff99","-1"," ","0","0","[1978.4000000022352]","1","1","","","10615","16","2","2","win","no-go","0"
"pit-trial","134","995792","0.0-20.0","battery-v0.2","","""event"",""trial"",""time""
""fullscreenenter"",""1"",""2242""
""blur"",""3"",""14746""
""focus"",""3"",""14818""
","""event"",""trial"",""time""
""blur"",""3"",""14746""
","""event"",""trial"",""time""
""focus"",""3"",""14818""
","""event"",""trial"",""time""
""fullscreenenter"",""1"",""2242""
","
","","","-1","","","19","10615","4924","&#9752;","elianto","#f73b6a7A"," ","-1","0","-10","[]","0","1","","","10615","17","3","3","lose","go","0"
"pit-trial","135","1000645","0.0-21.0","battery-v0.2","","""event"",""trial"",""time""
""fullscreenenter"",""1"",""2242""
""blur"",""3"",""14746""
""focus"",""3"",""14818""
","""event"",""trial"",""time""
""blur"",""3"",""14746""
","""event"",""trial"",""time""
""focus"",""3"",""14818""
","""event"",""trial"",""time""
""fullscreenenter"",""1"",""2242""
","
","","","-1","","","19","10615","4924","&#9730;","elianto","#3366ff99"," ","-1","0","0","[2947.300000000745]","1","1","","","10615","18","1","1","win","go","0"
"pit-trial","136","1004871","0.0-22.0","battery-v0.2","","""event"",""trial"",""time""
""fullscreenenter"",""1"",""2242""
""blur"",""3"",""14746""
""focus"",""3"",""14818""
","""event"",""trial"",""time""
""blur"",""3"",""14746""
","""event"",""trial"",""time""
""focus"",""3"",""14818""
","""event"",""trial"",""time""
""fullscreenenter"",""1"",""2242""
","
","","","1372.3999999985099","","","19","10615","4924","&#9728;","elianto","#f73b6a7A","-1"," ","0","0","[2223.39999999851]","1","1","","","10615","19","0","4","lose","no-go","1"
"pit-trial","137","1008350","0.0-23.0","battery-v0.2","","""event"",""trial"",""time""
""fullscreenenter"",""1"",""2242""
""blur"",""3"",""14746""
""focus"",""3"",""14818""
","""event"",""trial"",""time""
""blur"",""3"",""14746""
","""event"",""trial"",""time""
""focus"",""3"",""14818""
","""event"",""trial"",""time""
""fullscreenenter"",""1"",""2242""
","
","","","624.8000000007451","","","19","10615","4924","&#9733;","elianto","#3366ff99","-1"," ","0","+10","[1475.5999999977648]","1","1","","","10615","20","2","2","win","no-go","1"
"pit-instructions","138","1021279","0.0-24.0","battery-v0.2","","""event"",""trial"",""time""
""fullscreenenter"",""1"",""2242""
""blur"",""3"",""14746""
""focus"",""3"",""14818""
","""event"",""trial"",""time""
""blur"",""3"",""14746""
","""event"",""trial"",""time""
""focus"",""3"",""14818""
","""event"",""trial"",""time""
""fullscreenenter"",""1"",""2242""
","
","","[{""page_index"":0,""viewing_time"":5666.300000000745},{""page_index"":1,""viewing_time"":7259.800000000745}]","12926.5","","","","","","","","","","","","","","","","","","","","","","","",""
"pit-trial","139","1026136","0.0-25.0","battery-v0.2","","""event"",""trial"",""time""
""fullscreenenter"",""1"",""2242""
""blur"",""3"",""14746""
""focus"",""3"",""14818""
","""event"",""trial"",""time""
""blur"",""3"",""14746""
","""event"",""trial"",""time""
""focus"",""3"",""14818""
","""event"",""trial"",""time""
""fullscreenenter"",""1"",""2242""
","
","","","-1","","","19","10615","4924","t","elianto","#f73b6a7A","-1","-1","1","-10","[]","0","2","","","10615","21","2","4","lose","no-go","1"
"pit-trial","140","1030060","0.0-26.0","battery-v0.2","","""event"",""trial"",""time""
""fullscreenenter"",""1"",""2242""
""blur"",""3"",""14746""
""focus"",""3"",""14818""
","""event"",""trial"",""time""
""blur"",""3"",""14746""
","""event"",""trial"",""time""
""focus"",""3"",""14818""
","""event"",""trial"",""time""
""fullscreenenter"",""1"",""2242""
","
","","","1024.9000000022352","","","19","10615","4924","f","elianto","#3366ff99"," "," ","1","+10","[1875.199999999255]","1","2","","","10615","22","1","1","win","go","0"
"pit-trial","141","1034312","0.0-27.0","battery-v0.2","","""event"",""trial"",""time""
""fullscreenenter"",""1"",""2242""
""blur"",""3"",""14746""
""focus"",""3"",""14818""
","""event"",""trial"",""time""
""blur"",""3"",""14746""
","""event"",""trial"",""time""
""focus"",""3"",""14818""
","""event"",""trial"",""time""
""fullscreenenter"",""1"",""2242""
","
","","","1250.300000000745","","","19","10615","4924","b","elianto","#f73b6a7A"," "," ","1","-10","[2098.5]","1","2","","","10615","23","3","3","lose","go","1"
"pit-trial","142","1039166","0.0-28.0","battery-v0.2","","""event"",""trial"",""time""
""fullscreenenter"",""1"",""2242""
""blur"",""3"",""14746""
""focus"",""3"",""14818""
","""event"",""trial"",""time""
""blur"",""3"",""14746""
","""event"",""trial"",""time""
""focus"",""3"",""14818""
","""event"",""trial"",""time""
""fullscreenenter"",""1"",""2242""
","
","","","-1","","","19","10615","4924","n","elianto","#f73b6a7A","-1","-1","1","0","[]","0","2","","","10615","24","0","4","lose","no-go","0"
"pit-trial","143","1042875","0.0-29.0","battery-v0.2","","""event"",""trial"",""time""
""fullscreenenter"",""1"",""2242""
""blur"",""3"",""14746""
""focus"",""3"",""14818""
","""event"",""trial"",""time""
""blur"",""3"",""14746""
","""event"",""trial"",""time""
""focus"",""3"",""14818""
","""event"",""trial"",""time""
""fullscreenenter"",""1"",""2242""
","
","","","845.3000000007451","","","19","10615","4924","f","elianto","#3366ff99"," "," ","1","+10","[1696.699999999255]","1","2","","","10615","25","1","1","win","go","0"
"pit-trial","144","1047730","0.0-30.0","battery-v0.2","","""event"",""trial"",""time""
""fullscreenenter"",""1"",""2242""
""blur"",""3"",""14746""
""focus"",""3"",""14818""
","""event"",""trial"",""time""
""blur"",""3"",""14746""
","""event"",""trial"",""time""
""focus"",""3"",""14818""
","""event"",""trial"",""time""
""fullscreenenter"",""1"",""2242""
","
","","","-1","","","19","10615","4924","b","elianto","#f73b6a7A"," ","-1","0","-10","[]","0","2","","","10615","26","3","3","lose","go","0"
"pit-trial","145","1052418","0.0-31.0","battery-v0.2","","""event"",""trial"",""time""
""fullscreenenter"",""1"",""2242""
""blur"",""3"",""14746""
""focus"",""3"",""14818""
","""event"",""trial"",""time""
""blur"",""3"",""14746""
","""event"",""trial"",""time""
""focus"",""3"",""14818""
","""event"",""trial"",""time""
""fullscreenenter"",""1"",""2242""
","
","","","1832.800000000745","","","19","10615","4924","n","elianto","#f73b6a7A","-1"," ","0","0","[2685.199999999255]","1","2","","","10615","27","0","4","lose","no-go","1"
"pit-trial","146","1057273","0.0-32.0","battery-v0.2","","""event"",""trial"",""time""
""fullscreenenter"",""1"",""2242""
""blur"",""3"",""14746""
""focus"",""3"",""14818""
","""event"",""trial"",""time""
""blur"",""3"",""14746""
","""event"",""trial"",""time""
""focus"",""3"",""14818""
","""event"",""trial"",""time""
""fullscreenenter"",""1"",""2242""
","
","","","-1","","","19","10615","4924","t","elianto","#f73b6a7A","-1","-1","1","0","[]","0","2","","","10615","28","2","4","lose","no-go","0"
"pit-trial","147","1062126","0.0-33.0","battery-v0.2","","""event"",""trial"",""time""
""fullscreenenter"",""1"",""2242""
""blur"",""3"",""14746""
""focus"",""3"",""14818""
","""event"",""trial"",""time""
""blur"",""3"",""14746""
","""event"",""trial"",""time""
""focus"",""3"",""14818""
","""event"",""trial"",""time""
""fullscreenenter"",""1"",""2242""
","
","","","-1","","","19","10615","4924","b","elianto","#f73b6a7A"," ","-1","0","-10","[]","0","2","","","10615","29","3","3","lose","go","0"
"pit-trial","148","1067003","0.0-34.0","battery-v0.2","","""event"",""trial"",""time""
""fullscreenenter"",""1"",""2242""
""blur"",""3"",""14746""
""focus"",""3"",""14818""
","""event"",""trial"",""time""
""blur"",""3"",""14746""
","""event"",""trial"",""time""
""focus"",""3"",""14818""
","""event"",""trial"",""time""
""fullscreenenter"",""1"",""2242""
","
","","","-1","","","19","10615","4924","t","elianto","#f73b6a7A","-1","-1","1","-10","[]","0","2","","","10615","30","2","4","lose","no-go","1"
"pit-trial","149","1070798","0.0-35.0","battery-v0.2","","""event"",""trial"",""time""
""fullscreenenter"",""1"",""2242""
""blur"",""3"",""14746""
""focus"",""3"",""14818""
","""event"",""trial"",""time""
""blur"",""3"",""14746""
","""event"",""trial"",""time""
""focus"",""3"",""14818""
","""event"",""trial"",""time""
""fullscreenenter"",""1"",""2242""
","
","","","940.3000000007451","","","19","10615","4924","n","elianto","#f73b6a7A","-1"," ","0","-10","[1791.8999999985099]","1","2","","","10615","31","0","4","lose","no-go","0"
"pit-trial","150","1074314","0.0-36.0","battery-v0.2","","""event"",""trial"",""time""
""fullscreenenter"",""1"",""2242""
""blur"",""3"",""14746""
""focus"",""3"",""14818""
","""event"",""trial"",""time""
""blur"",""3"",""14746""
","""event"",""trial"",""time""
""focus"",""3"",""14818""
","""event"",""trial"",""time""
""fullscreenenter"",""1"",""2242""
","
","","","661.8999999985099","","","19","10615","4924","f","elianto","#3366ff99"," "," ","1","0","[1512.699999999255]","1","2","","","10615","32","1","1","win","go","1"
"pit-trial","151","1079169","0.0-37.0","battery-v0.2","","""event"",""trial"",""time""
""fullscreenenter"",""1"",""2242""
""blur"",""3"",""14746""
""focus"",""3"",""14818""
","""event"",""trial"",""time""
""blur"",""3"",""14746""
","""event"",""trial"",""time""
""focus"",""3"",""14818""
","""event"",""trial"",""time""
""fullscreenenter"",""1"",""2242""
","
","","","-1","","","19","10615","4924","t","elianto","#f73b6a7A","-1","-1","1","0","[]","0","2","","","10615","33","2","4","lose","no-go","0"
"pit-trial","152","1084024","0.0-38.0","battery-v0.2","","""event"",""trial"",""time""
""fullscreenenter"",""1"",""2242""
""blur"",""3"",""14746""
""focus"",""3"",""14818""
","""event"",""trial"",""time""
""blur"",""3"",""14746""
","""event"",""trial"",""time""
""focus"",""3"",""14818""
","""event"",""trial"",""time""
""fullscreenenter"",""1"",""2242""
","
","","","-1","","","19","10615","4924","n","elianto","#f73b6a7A","-1","-1","1","0","[]","0","2","","","10615","34","0","4","lose","no-go","0"
"pit-trial","153","1088878","0.0-39.0","battery-v0.2","","""event"",""trial"",""time""
""fullscreenenter"",""1"",""2242""
""blur"",""3"",""14746""
""focus"",""3"",""14818""
","""event"",""trial"",""time""
""blur"",""3"",""14746""
","""event"",""trial"",""time""
""focus"",""3"",""14818""
","""event"",""trial"",""time""
""fullscreenenter"",""1"",""2242""
","
","","","-1","","","19","10615","4924","b","elianto","#f73b6a7A"," ","-1","0","0","[]","0","2","","","10615","35","3","3","lose","go","1"
"pit-trial","154","1092689","0.0-40.0","battery-v0.2","","""event"",""trial"",""time""
""fullscreenenter"",""1"",""2242""
""blur"",""3"",""14746""
""focus"",""3"",""14818""
","""event"",""trial"",""time""
""blur"",""3"",""14746""
","""event"",""trial"",""time""
""focus"",""3"",""14818""
","""event"",""trial"",""time""
""fullscreenenter"",""1"",""2242""
","
","","","957.1999999992549","","","19","10615","4924","f","elianto","#3366ff99"," "," ","1","+10","[1808.0999999977648]","1","2","","","10615","36","1","1","win","go","0"
"pit-trial","155","1097574","0.0-41.0","battery-v0.2","","""event"",""trial"",""time""
""fullscreenenter"",""1"",""2242""
""blur"",""3"",""14746""
""focus"",""3"",""14818""
","""event"",""trial"",""time""
""blur"",""3"",""14746""
","""event"",""trial"",""time""
""focus"",""3"",""14818""
","""event"",""trial"",""time""
""fullscreenenter"",""1"",""2242""
","
","","","-1","","","19","10615","4924","t","elianto","#f73b6a7A","-1","-1","1","0","[]","0","2","","","10615","37","2","4","lose","no-go","0"
"pit-trial","156","1101539","0.0-42.0","battery-v0.2","","""event"",""trial"",""time""
""fullscreenenter"",""1"",""2242""
""blur"",""3"",""14746""
""focus"",""3"",""14818""
","""event"",""trial"",""time""
""blur"",""3"",""14746""
","""event"",""trial"",""time""
""focus"",""3"",""14818""
","""event"",""trial"",""time""
""fullscreenenter"",""1"",""2242""
","
","","","1037.699999999255","","","19","10615","4924","f","elianto","#3366ff99"," "," ","1","+10","[1884.699999999255]","1","2","","","10615","38","1","1","win","go","0"
"pit-trial","157","1106402","0.0-43.0","battery-v0.2","","""event"",""trial"",""time""
""fullscreenenter"",""1"",""2242""
""blur"",""3"",""14746""
""focus"",""3"",""14818""
","""event"",""trial"",""time""
""blur"",""3"",""14746""
","""event"",""trial"",""time""
""focus"",""3"",""14818""
","""event"",""trial"",""time""
""fullscreenenter"",""1"",""2242""
","
","","","-1","","","19","10615","4924","n","elianto","#f73b6a7A","-1","-1","1","0","[]","0","2","","","10615","39","0","4","lose","no-go","0"
"pit-trial","158","1111257","0.0-44.0","battery-v0.2","","""event"",""trial"",""time""
""fullscreenenter"",""1"",""2242""
""blur"",""3"",""14746""
""focus"",""3"",""14818""
","""event"",""trial"",""time""
""blur"",""3"",""14746""
","""event"",""trial"",""time""
""focus"",""3"",""14818""
","""event"",""trial"",""time""
""fullscreenenter"",""1"",""2242""
","
","","","-1","","","19","10615","4924","b","elianto","#f73b6a7A"," ","-1","0","0","[]","0","2","","","10615","40","3","3","lose","go","1"
"pit-trial","159","1116110","0.0-45.0","battery-v0.2","","""event"",""trial"",""time""
""fullscreenenter"",""1"",""2242""
""blur"",""3"",""14746""
""focus"",""3"",""14818""
","""event"",""trial"",""time""
""blur"",""3"",""14746""
","""event"",""trial"",""time""
""focus"",""3"",""14818""
","""event"",""trial"",""time""
""fullscreenenter"",""1"",""2242""
","
","","","-1","","","19","10615","4924","n","elianto","#f73b6a7A","-1","-1","1","0","[]","0","2","","","10615","41","0","4","lose","no-go","0"
"pit-trial","160","1120963","0.0-46.0","battery-v0.2","","""event"",""trial"",""time""
""fullscreenenter"",""1"",""2242""
""blur"",""3"",""14746""
""focus"",""3"",""14818""
","""event"",""trial"",""time""
""blur"",""3"",""14746""
","""event"",""trial"",""time""
""focus"",""3"",""14818""
","""event"",""trial"",""time""
""fullscreenenter"",""1"",""2242""
","
","","","-1","","","19","10615","4924","t","elianto","#f73b6a7A","-1","-1","1","0","[]","0","2","","","10615","42","2","4","lose","no-go","0"
"pit-trial","161","1125817","0.0-47.0","battery-v0.2","","""event"",""trial"",""time""
""fullscreenenter"",""1"",""2242""
""blur"",""3"",""14746""
""focus"",""3"",""14818""
","""event"",""trial"",""time""
""blur"",""3"",""14746""
","""event"",""trial"",""time""
""focus"",""3"",""14818""
","""event"",""trial"",""time""
""fullscreenenter"",""1"",""2242""
","
","","","-1","","","19","10615","4924","b","elianto","#f73b6a7A"," ","-1","0","-10","[]","0","2","","","10615","43","3","3","lose","go","0"
"pit-trial","162","1129225","0.0-48.0","battery-v0.2","","""event"",""trial"",""time""
""fullscreenenter"",""1"",""2242""
""blur"",""3"",""14746""
""focus"",""3"",""14818""
","""event"",""trial"",""time""
""blur"",""3"",""14746""
","""event"",""trial"",""time""
""focus"",""3"",""14818""
","""event"",""trial"",""time""
""fullscreenenter"",""1"",""2242""
","
","","","554.0999999977648","","","19","10615","4924","f","elianto","#3366ff99"," "," ","1","+10","[1405.8999999985099]","1","2","","","10615","44","1","1","win","go","0"
"pit-trial","163","1134118","0.0-49.0","battery-v0.2","","""event"",""trial"",""time""
""fullscreenenter"",""1"",""2242""
""blur"",""3"",""14746""
""focus"",""3"",""14818""
","""event"",""trial"",""time""
""blur"",""3"",""14746""
","""event"",""trial"",""time""
""focus"",""3"",""14818""
","""event"",""trial"",""time""
""fullscreenenter"",""1"",""2242""
","
","","","-1","","","19","10615","4924","b","elianto","#f73b6a7A"," ","-1","0","-10","[]","0","2","","","10615","45","3","3","lose","go","0"
"pit-trial","164","1138976","0.0-50.0","battery-v0.2","","""event"",""trial"",""time""
""fullscreenenter"",""1"",""2242""
""blur"",""3"",""14746""
""focus"",""3"",""14818""
","""event"",""trial"",""time""
""blur"",""3"",""14746""
","""event"",""trial"",""time""
""focus"",""3"",""14818""
","""event"",""trial"",""time""
""fullscreenenter"",""1"",""2242""
","
","","","-1","","","19","10615","4924","n","elianto","#f73b6a7A","-1","-1","1","0","[]","0","2","","","10615","46","0","4","lose","no-go","0"
"pit-trial","165","1142911","0.0-51.0","battery-v0.2","","""event"",""trial"",""time""
""fullscreenenter"",""1"",""2242""
""blur"",""3"",""14746""
""focus"",""3"",""14818""
","""event"",""trial"",""time""
""blur"",""3"",""14746""
","""event"",""trial"",""time""
""focus"",""3"",""14818""
","""event"",""trial"",""time""
""fullscreenenter"",""1"",""2242""
","
","","","1081.9000000022352","","","19","10615","4924","c","elianto","#3366ff99","-1"," ","0","0","[1932.6000000014901]","1","2","","","10615","47","4","2","win","no-go","0"
"pit-trial","166","1147766","0.0-52.0","battery-v0.2","","""event"",""trial"",""time""
""fullscreenenter"",""1"",""2242""
""blur"",""3"",""14746""
""focus"",""3"",""14818""
","""event"",""trial"",""time""
""blur"",""3"",""14746""
","""event"",""trial"",""time""
""focus"",""3"",""14818""
","""event"",""trial"",""time""
""fullscreenenter"",""1"",""2242""
","
","","","-1","","","19","10615","4924","t","elianto","#f73b6a7A","-1","-1","1","0","[]","0","2","","","10615","48","2","4","lose","no-go","0"
"pit-trial","167","1151348","0.0-53.0","battery-v0.2","","""event"",""trial"",""time""
""fullscreenenter"",""1"",""2242""
""blur"",""3"",""14746""
""focus"",""3"",""14818""
","""event"",""trial"",""time""
""blur"",""3"",""14746""
","""event"",""trial"",""time""
""focus"",""3"",""14818""
","""event"",""trial"",""time""
""fullscreenenter"",""1"",""2242""
","
","","","727","","","19","10615","4924","b","elianto","#f73b6a7A"," "," ","1","-10","[1578.3999999985099]","1","2","","","10615","49","3","3","lose","go","1"
"pit-trial","168","1154862","0.0-54.0","battery-v0.2","","""event"",""trial"",""time""
""fullscreenenter"",""1"",""2242""
""blur"",""3"",""14746""
""focus"",""3"",""14818""
","""event"",""trial"",""time""
""blur"",""3"",""14746""
","""event"",""trial"",""time""
""focus"",""3"",""14818""
","""event"",""trial"",""time""
""fullscreenenter"",""1"",""2242""
","
","","","659.8999999985099","","","19","10615","4924","c","elianto","#3366ff99","-1"," ","0","0","[1509.5]","1","2","","","10615","50","4","2","win","no-go","0"
"pit-trial","169","1159717","0.0-55.0","battery-v0.2","","""event"",""trial"",""time""
""fullscreenenter"",""1"",""2242""
""blur"",""3"",""14746""
""focus"",""3"",""14818""
","""event"",""trial"",""time""
""blur"",""3"",""14746""
","""event"",""trial"",""time""
""focus"",""3"",""14818""
","""event"",""trial"",""time""
""fullscreenenter"",""1"",""2242""
","
","","","-1","","","19","10615","4924","n","elianto","#f73b6a7A","-1","-1","1","-10","[]","0","2","","","10615","51","0","4","lose","no-go","1"
"pit-trial","170","1163214","0.0-56.0","battery-v0.2","","""event"",""trial"",""time""
""fullscreenenter"",""1"",""2242""
""blur"",""3"",""14746""
""focus"",""3"",""14818""
","""event"",""trial"",""time""
""blur"",""3"",""14746""
","""event"",""trial"",""time""
""focus"",""3"",""14818""
","""event"",""trial"",""time""
""fullscreenenter"",""1"",""2242""
","
","","","643.8000000007451","","","19","10615","4924","f","elianto","#3366ff99"," "," ","1","+10","[1494.699999999255]","1","2","","","10615","52","1","1","win","go","0"
"pit-trial","171","1166718","0.0-57.0","battery-v0.2","","""event"",""trial"",""time""
""fullscreenenter"",""1"",""2242""
""blur"",""3"",""14746""
""focus"",""3"",""14818""
","""event"",""trial"",""time""
""blur"",""3"",""14746""
","""event"",""trial"",""time""
""focus"",""3"",""14818""
","""event"",""trial"",""time""
""fullscreenenter"",""1"",""2242""
","
","","","633.8000000007451","","","19","10615","4924","c","elianto","#3366ff99","-1"," ","0","0","[1488.4000000022352]","1","2","","","10615","53","4","2","win","no-go","0"
"pit-trial","172","1171671","0.0-58.0","battery-v0.2","","""event"",""trial"",""time""
""fullscreenenter"",""1"",""2242""
""blur"",""3"",""14746""
""focus"",""3"",""14818""
","""event"",""trial"",""time""
""blur"",""3"",""14746""
","""event"",""trial"",""time""
""focus"",""3"",""14818""
","""event"",""trial"",""time""
""fullscreenenter"",""1"",""2242""
","
","","","-1","","","19","10615","4924","n","elianto","#f73b6a7A","-1","-1","1","0","[]","0","2","","","10615","54","0","4","lose","no-go","0"
"pit-trial","173","1176525","0.0-59.0","battery-v0.2","","""event"",""trial"",""time""
""fullscreenenter"",""1"",""2242""
""blur"",""3"",""14746""
""focus"",""3"",""14818""
","""event"",""trial"",""time""
""blur"",""3"",""14746""
","""event"",""trial"",""time""
""focus"",""3"",""14818""
","""event"",""trial"",""time""
""fullscreenenter"",""1"",""2242""
","
","","","-1","","","19","10615","4924","t","elianto","#f73b6a7A","-1","-1","1","0","[]","0","2","","","10615","55","2","4","lose","no-go","0"
"pit-trial","174","1180644","0.0-60.0","battery-v0.2","","""event"",""trial"",""time""
""fullscreenenter"",""1"",""2242""
""blur"",""3"",""14746""
""focus"",""3"",""14818""
","""event"",""trial"",""time""
""blur"",""3"",""14746""
","""event"",""trial"",""time""
""focus"",""3"",""14818""
","""event"",""trial"",""time""
""fullscreenenter"",""1"",""2242""
","
","","","1265.1000000014901","","","19","10615","4924","f","elianto","#3366ff99"," "," ","1","+10","[2115.5]","1","2","","","10615","56","1","1","win","go","0"
"pit-trial","175","1185498","0.0-61.0","battery-v0.2","","""event"",""trial"",""time""
""fullscreenenter"",""1"",""2242""
""blur"",""3"",""14746""
""focus"",""3"",""14818""
","""event"",""trial"",""time""
""blur"",""3"",""14746""
","""event"",""trial"",""time""
""focus"",""3"",""14818""
","""event"",""trial"",""time""
""fullscreenenter"",""1"",""2242""
","
","","","-1","","","19","10615","4924","c","elianto","#3366ff99","-1","-1","1","+10","[]","0","2","","","10615","57","4","2","win","no-go","0"
"pit-trial","176","1189538","0.0-62.0","battery-v0.2","","""event"",""trial"",""time""
""fullscreenenter"",""1"",""2242""
""blur"",""3"",""14746""
""focus"",""3"",""14818""
","""event"",""trial"",""time""
""blur"",""3"",""14746""
","""event"",""trial"",""time""
""focus"",""3"",""14818""
","""event"",""trial"",""time""
""fullscreenenter"",""1"",""2242""
","
","","","1187.5","","","19","10615","4924","f","elianto","#3366ff99"," "," ","1","+10","[2037.6000000014901]","1","2","","","10615","58","1","1","win","go","0"
"pit-trial","177","1194099","0.0-63.0","battery-v0.2","","""event"",""trial"",""time""
""fullscreenenter"",""1"",""2242""
""blur"",""3"",""14746""
""focus"",""3"",""14818""
","""event"",""trial"",""time""
""blur"",""3"",""14746""
","""event"",""trial"",""time""
""focus"",""3"",""14818""
","""event"",""trial"",""time""
""fullscreenenter"",""1"",""2242""
","
","","","1706.699999999255","","","19","10615","4924","b","elianto","#f73b6a7A"," "," ","1","0","[2557.5]","1","2","","","10615","59","3","3","lose","go","0"
"pit-trial","178","1198953","0.0-64.0","battery-v0.2","","""event"",""trial"",""time""
""fullscreenenter"",""1"",""2242""
""blur"",""3"",""14746""
""focus"",""3"",""14818""
","""event"",""trial"",""time""
""blur"",""3"",""14746""
","""event"",""trial"",""time""
""focus"",""3"",""14818""
","""event"",""trial"",""time""
""fullscreenenter"",""1"",""2242""
","
","","","-1","","","19","10615","4924","n","elianto","#f73b6a7A","-1","-1","1","0","[]","0","2","","","10615","60","0","4","lose","no-go","0"
"pit-trial","179","1203822","0.0-65.0","battery-v0.2","","""event"",""trial"",""time""
""fullscreenenter"",""1"",""2242""
""blur"",""3"",""14746""
""focus"",""3"",""14818""
","""event"",""trial"",""time""
""blur"",""3"",""14746""
","""event"",""trial"",""time""
""focus"",""3"",""14818""
","""event"",""trial"",""time""
""fullscreenenter"",""1"",""2242""
","
","","","-1","","","19","10615","4924","t","elianto","#f73b6a7A","-1","-1","1","-10","[]","0","2","","","10615","61","2","4","lose","no-go","1"
"pit-trial","180","1207592","0.0-66.0","battery-v0.2","","""event"",""trial"",""time""
""fullscreenenter"",""1"",""2242""
""blur"",""3"",""14746""
""focus"",""3"",""14818""
","""event"",""trial"",""time""
""blur"",""3"",""14746""
","""event"",""trial"",""time""
""focus"",""3"",""14818""
","""event"",""trial"",""time""
""fullscreenenter"",""1"",""2242""
","
","","","916.0999999977648","","","19","10615","4924","f","elianto","#3366ff99"," "," ","1","+10","[1766.699999999255]","1","2","","","10615","62","1","1","win","go","0"
"pit-trial","181","1212446","0.0-67.0","battery-v0.2","","""event"",""trial"",""time""
""fullscreenenter"",""1"",""2242""
""blur"",""3"",""14746""
""focus"",""3"",""14818""
","""event"",""trial"",""time""
""blur"",""3"",""14746""
","""event"",""trial"",""time""
""focus"",""3"",""14818""
","""event"",""trial"",""time""
""fullscreenenter"",""1"",""2242""
","
","","","-1","","","19","10615","4924","c","elianto","#3366ff99","-1","-1","1","+10","[]","0","2","","","10615","63","4","2","win","no-go","0"
"pit-trial","182","1216294","0.0-68.0","battery-v0.2","","""event"",""trial"",""time""
""fullscreenenter"",""1"",""2242""
""blur"",""3"",""14746""
""focus"",""3"",""14818""
","""event"",""trial"",""time""
""blur"",""3"",""14746""
","""event"",""trial"",""time""
""focus"",""3"",""14818""
","""event"",""trial"",""time""
""fullscreenenter"",""1"",""2242""
","
","","","994.5999999977648","","","19","10615","4924","b","elianto","#f73b6a7A"," "," ","1","0","[1845.800000000745]","1","2","","","10615","64","3","3","lose","go","0"
"pit-trial","183","1221150","0.0-69.0","battery-v0.2","","""event"",""trial"",""time""
""fullscreenenter"",""1"",""2242""
""blur"",""3"",""14746""
""focus"",""3"",""14818""
","""event"",""trial"",""time""
""blur"",""3"",""14746""
","""event"",""trial"",""time""
""focus"",""3"",""14818""
","""event"",""trial"",""time""
""fullscreenenter"",""1"",""2242""
","
","","","-1","","","19","10615","4924","c","elianto","#3366ff99","-1","-1","1","0","[]","0","2","","","10615","65","4","2","win","no-go","1"
"pit-trial","184","1224915","0.0-70.0","battery-v0.2","","""event"",""trial"",""time""
""fullscreenenter"",""1"",""2242""
""blur"",""3"",""14746""
""focus"",""3"",""14818""
","""event"",""trial"",""time""
""blur"",""3"",""14746""
","""event"",""trial"",""time""
""focus"",""3"",""14818""
","""event"",""trial"",""time""
""fullscreenenter"",""1"",""2242""
","
","","","911.0999999977648","","","19","10615","4924","f","elianto","#3366ff99"," "," ","1","+10","[1762.2000000029802]","1","2","","","10615","66","1","1","win","go","0"
"pit-trial","185","1229770","0.0-71.0","battery-v0.2","","""event"",""trial"",""time""
""fullscreenenter"",""1"",""2242""
""blur"",""3"",""14746""
""focus"",""3"",""14818""
","""event"",""trial"",""time""
""blur"",""3"",""14746""
","""event"",""trial"",""time""
""focus"",""3"",""14818""
","""event"",""trial"",""time""
""fullscreenenter"",""1"",""2242""
","
","","","-1","","","19","10615","4924","t","elianto","#f73b6a7A","-1","-1","1","0","[]","0","2","","","10615","67","2","4","lose","no-go","0"
"pit-trial","186","1234102","0.0-72.0","battery-v0.2","","""event"",""trial"",""time""
""fullscreenenter"",""1"",""2242""
""blur"",""3"",""14746""
