"trial_type","trial_index","time_elapsed","internal_node_id","task_version","subject_id","interactions","blur_events","focus_events","fullscreenenter_events","fullscreenexit_events","success","view_history","rt","responses","num_errors","age","subject","participantId","rune","rune_set","hex","correct","choice","accuracy","outcome","keys","total_keys","block","practice","value","sub","trial","stimulus","robot","valence","action","sham"
"pavlovia","0","67","0.0-0.0","battery-v0.2","","""event"",""trial"",""time""
""fullscreenenter"",""1"",""5644""
","
","
","""event"",""trial"",""time""
""fullscreenenter"",""1"",""5644""
","
","","","","","","","","","","","","","","","","","","","","","","","","","","",""
"fullscreen","1","6604","0.0-1.0","battery-v0.2","","""event"",""trial"",""time""
""fullscreenenter"",""1"",""5644""
","
","
","""event"",""trial"",""time""
""fullscreenenter"",""1"",""5644""
","
","true","","","","","","","","","","","","","","","","","","","","","","","","","",""
"pit-instructions","2","12662","0.0-2.0-0.0","battery-v0.2","","""event"",""trial"",""time""
""fullscreenenter"",""1"",""5644""
","
","
","""event"",""trial"",""time""
""fullscreenenter"",""1"",""5644""
","
","","[{""page_index"":0,""viewing_time"":6040.900000095367}]","6043.200000047684","","","","","","","","","","","","","","","","","","","","","","","",""
"pit-comprehension","3","19121","0.0-2.0-1.0-0.0","battery-v0.2","","""event"",""trial"",""time""
""fullscreenenter"",""1"",""5644""
","
","
","""event"",""trial"",""time""
""fullscreenenter"",""1"",""5644""
","
","","","6446.700000047684","[""shark""]","0","14","3498","2165","","","","","","","","","","","","","","","","","","",""
"pit-instructions","4","23950","0.0-2.0-1.0-1.0","battery-v0.2","","""event"",""trial"",""time""
""fullscreenenter"",""1"",""5644""
","
","
","""event"",""trial"",""time""
""fullscreenenter"",""1"",""5644""
","
","","[{""page_index"":0,""viewing_time"":4780.799999952316}]","4781.799999952316","","","","","","","","","","","","","","","","","","","","","","","",""
"pit-comprehension","5","28721","0.0-2.0-2.0-0.0","battery-v0.2","","""event"",""trial"",""time""
""fullscreenenter"",""1"",""5644""
","
","
","""event"",""trial"",""time""
""fullscreenenter"",""1"",""5644""
","
","","","4754.599999904633","[""tiger""]","0","14","3498","2165","","","","","","","","","","","","","","","","","","",""
"pit-instructions","6","31664","0.0-2.0-2.0-1.0","battery-v0.2","","""event"",""trial"",""time""
""fullscreenenter"",""1"",""5644""
""blur"",""7"",""1042926""
""focus"",""7"",""1042985""
""blur"",""7"",""1043256""
""focus"",""7"",""1045283""
","""event"",""trial"",""time""
""blur"",""7"",""1042926""
""blur"",""7"",""1043256""
","""event"",""trial"",""time""
""focus"",""7"",""1042985""
""focus"",""7"",""1045283""
","""event"",""trial"",""time""
""fullscreenenter"",""1"",""5644""
","
","","[{""page_index"":0,""viewing_time"":2929.399999856949}]","2930.7000000476837","","","","","","","","","","","","","","","","","","","","","","","",""
"pit-instructions","7","1128114","0.0-2.0-3.0","battery-v0.2","","""event"",""trial"",""time""
""fullscreenenter"",""1"",""5644""
""blur"",""7"",""1042926""
""focus"",""7"",""1042985""
""blur"",""7"",""1043256""
""focus"",""7"",""1045283""
","""event"",""trial"",""time""
""blur"",""7"",""1042926""
""blur"",""7"",""1043256""
","""event"",""trial"",""time""
""focus"",""7"",""1042985""
""focus"",""7"",""1045283""
","""event"",""trial"",""time""
""fullscreenenter"",""1"",""5644""
","
","","[{""page_index"":0,""viewing_time"":86619.09999990463},{""page_index"":1,""viewing_time"":273476.10000014305},{""page_index"":2,""viewing_time"":8689.099999904633},{""page_index"":3,""viewing_time"":5791.299999952316},{""page_index"":4,""viewing_time"":7431.600000143051},{""page_index"":5,""viewing_time"":6378.5},{""page_index"":6,""viewing_time"":7003},{""page_index"":7,""viewing_time"":589168.5},{""page_index"":8,""viewing_time"":6718.899999856949},{""page_index"":9,""viewing_time"":10563.800000190735},{""page_index"":10,""viewing_time"":7362.799999952316},{""page_index"":11,""viewing_time"":7930.899999856949},{""page_index"":12,""viewing_time"":6179.700000047684},{""page_index"":13,""viewing_time"":73126.29999995232}]","1096441","","","","","","","","","","","","","","","","","","","","","","","",""
"pit-trial","8","1131894","0.0-2.0-4.0-0.0","battery-v0.2","","""event"",""trial"",""time""
""fullscreenenter"",""1"",""5644""
""blur"",""7"",""1042926""
""focus"",""7"",""1042985""
""blur"",""7"",""1043256""
""focus"",""7"",""1045283""
","""event"",""trial"",""time""
""blur"",""7"",""1042926""
""blur"",""7"",""1043256""
","""event"",""trial"",""time""
""focus"",""7"",""1042985""
""focus"",""7"",""1045283""
","""event"",""trial"",""time""
""fullscreenenter"",""1"",""5644""
","
","","","914.7000000476837","","","14","3498","2165","&#9784;","elianto","#FFFFF080"," "," ","1","&#10004","[1769.2000000476837]","1","0","0","","","","","","","",""
"pit-trial","9","1135503","0.0-2.0-4.1-0.1","battery-v0.2","","""event"",""trial"",""time""
""fullscreenenter"",""1"",""5644""
""blur"",""7"",""1042926""
""focus"",""7"",""1042985""
""blur"",""7"",""1043256""
""focus"",""7"",""1045283""
","""event"",""trial"",""time""
""blur"",""7"",""1042926""
""blur"",""7"",""1043256""
","""event"",""trial"",""time""
""focus"",""7"",""1042985""
""focus"",""7"",""1045283""
","""event"",""trial"",""time""
""fullscreenenter"",""1"",""5644""
","
","","","743.8999998569489","","","14","3498","2165","&#9784;","elianto","#FFFFF080"," "," ","1","&#10004","[225.39999985694885,1595.2999999523163]","2","0","0","","","","","","","",""
"pit-trial","10","1139022","0.0-2.0-4.2-0.2","battery-v0.2","","""event"",""trial"",""time""
""fullscreenenter"",""1"",""5644""
""blur"",""7"",""1042926""
""focus"",""7"",""1042985""
""blur"",""7"",""1043256""
""focus"",""7"",""1045283""
","""event"",""trial"",""time""
""blur"",""7"",""1042926""
""blur"",""7"",""1043256""
","""event"",""trial"",""time""
""focus"",""7"",""1042985""
""focus"",""7"",""1045283""
","""event"",""trial"",""time""
""fullscreenenter"",""1"",""5644""
","
","","","662.0999999046326","","","14","3498","2165","&#9784;","elianto","#FFFFF080"," "," ","1","&#10004","[1512.6000001430511]","1","0","0","","","","","","","",""
"pit-trial","11","1142649","0.0-2.0-4.3-0.3","battery-v0.2","","""event"",""trial"",""time""
""fullscreenenter"",""1"",""5644""
""blur"",""7"",""1042926""
""focus"",""7"",""1042985""
""blur"",""7"",""1043256""
""focus"",""7"",""1045283""
","""event"",""trial"",""time""
""blur"",""7"",""1042926""
""blur"",""7"",""1043256""
","""event"",""trial"",""time""
""focus"",""7"",""1042985""
""focus"",""7"",""1045283""
","""event"",""trial"",""time""
""fullscreenenter"",""1"",""5644""
","
","","","761.7999999523163","","","14","3498","2165","&#9784;","elianto","#FFFFF080"," "," ","1","&#10004","[1614.2999999523163]","1","0","0","","","","","","","",""
"pit-trial","12","1146343","0.0-2.0-4.4-0.4","battery-v0.2","","""event"",""trial"",""time""
""fullscreenenter"",""1"",""5644""
""blur"",""7"",""1042926""
""focus"",""7"",""1042985""
""blur"",""7"",""1043256""
""focus"",""7"",""1045283""
","""event"",""trial"",""time""
""blur"",""7"",""1042926""
""blur"",""7"",""1043256""
","""event"",""trial"",""time""
""focus"",""7"",""1042985""
""focus"",""7"",""1045283""
","""event"",""trial"",""time""
""fullscreenenter"",""1"",""5644""
","
","","","832.2999999523163","","","14","3498","2165","&#9784;","elianto","#FFFFF080"," "," ","1","&#10004","[1685.9000000953674]","1","0","0","","","","","","","",""
"pit-instructions","13","1246887","0.0-2.0-5.0","battery-v0.2","","""event"",""trial"",""time""
""fullscreenenter"",""1"",""5644""
""blur"",""7"",""1042926""
""focus"",""7"",""1042985""
""blur"",""7"",""1043256""
""focus"",""7"",""1045283""
","""event"",""trial"",""time""
""blur"",""7"",""1042926""
""blur"",""7"",""1043256""
","""event"",""trial"",""time""
""focus"",""7"",""1042985""
""focus"",""7"",""1045283""
","""event"",""trial"",""time""
""fullscreenenter"",""1"",""5644""
","
","","[{""page_index"":0,""viewing_time"":5988.900000095367},{""page_index"":1,""viewing_time"":5194.5},{""page_index"":2,""viewing_time"":83774},{""page_index"":3,""viewing_time"":5576.5}]","100536.5","","","","","","","","","","","","","","","","","","","","","","","",""
"pit-trial","14","1251758","0.0-2.0-6.0-0.0","battery-v0.2","","""event"",""trial"",""time""
""fullscreenenter"",""1"",""5644""
""blur"",""7"",""1042926""
""focus"",""7"",""1042985""
""blur"",""7"",""1043256""
""focus"",""7"",""1045283""
","""event"",""trial"",""time""
""blur"",""7"",""1042926""
""blur"",""7"",""1043256""
","""event"",""trial"",""time""
""focus"",""7"",""1042985""
""focus"",""7"",""1045283""
","""event"",""trial"",""time""
""fullscreenenter"",""1"",""5644""
","
","","","-1","","","14","3498","2165","&#9854;","elianto","#FFFFF080","-1","-1","1","&#10004","[]","0","0","1","","","","","","","",""
"pit-trial","15","1256627","0.0-2.0-6.1-0.1","battery-v0.2","","""event"",""trial"",""time""
""fullscreenenter"",""1"",""5644""
""blur"",""7"",""1042926""
""focus"",""7"",""1042985""
""blur"",""7"",""1043256""
""focus"",""7"",""1045283""
","""event"",""trial"",""time""
""blur"",""7"",""1042926""
""blur"",""7"",""1043256""
","""event"",""trial"",""time""
""focus"",""7"",""1042985""
""focus"",""7"",""1045283""
","""event"",""trial"",""time""
""fullscreenenter"",""1"",""5644""
","
","","","-1","","","14","3498","2165","&#9854;","elianto","#FFFFF080","-1","-1","1","&#10004","[]","0","0","1","","","","","","","",""
"pit-trial","16","1261497","0.0-2.0-6.2-0.2","battery-v0.2","","""event"",""trial"",""time""
""fullscreenenter"",""1"",""5644""
""blur"",""7"",""1042926""
""focus"",""7"",""1042985""
""blur"",""7"",""1043256""
""focus"",""7"",""1045283""
","""event"",""trial"",""time""
""blur"",""7"",""1042926""
""blur"",""7"",""1043256""
","""event"",""trial"",""time""
""focus"",""7"",""1042985""
""focus"",""7"",""1045283""
","""event"",""trial"",""time""
""fullscreenenter"",""1"",""5644""
","
","","","-1","","","14","3498","2165","&#9854;","elianto","#FFFFF080","-1","-1","1","&#10004","[]","0","0","1","","","","","","","",""
"pit-trial","17","1266366","0.0-2.0-6.3-0.3","battery-v0.2","","""event"",""trial"",""time""
""fullscreenenter"",""1"",""5644""
""blur"",""7"",""1042926""
""focus"",""7"",""1042985""
""blur"",""7"",""1043256""
""focus"",""7"",""1045283""
","""event"",""trial"",""time""
""blur"",""7"",""1042926""
""blur"",""7"",""1043256""
","""event"",""trial"",""time""
""focus"",""7"",""1042985""
""focus"",""7"",""1045283""
","""event"",""trial"",""time""
""fullscreenenter"",""1"",""5644""
","
","","","-1","","","14","3498","2165","&#9854;","elianto","#FFFFF080","-1","-1","1","&#10004","[]","0","0","1","","","","","","","",""
"pit-trial","18","1271237","0.0-2.0-6.4-0.4","battery-v0.2","","""event"",""trial"",""time""
""fullscreenenter"",""1"",""5644""
""blur"",""7"",""1042926""
""focus"",""7"",""1042985""
""blur"",""7"",""1043256""
""focus"",""7"",""1045283""
""blur"",""19"",""2335397""
""focus"",""19"",""40431603""
","""event"",""trial"",""time""
""blur"",""7"",""1042926""
""blur"",""7"",""1043256""
""blur"",""19"",""2335397""
","""event"",""trial"",""time""
""focus"",""7"",""1042985""
""focus"",""7"",""1045283""
""focus"",""19"",""40431603""
","""event"",""trial"",""time""
""fullscreenenter"",""1"",""5644""
","
","","","-1","","","14","3498","2165","&#9854;","elianto","#FFFFF080","-1","-1","1","&#10004","[]","0","0","1","","","","","","","",""
"pit-instructions","19","40481545","0.0-2.0-7.0","battery-v0.2","","""event"",""trial"",""time""
""fullscreenenter"",""1"",""5644""
""blur"",""7"",""1042926""
""focus"",""7"",""1042985""
""blur"",""7"",""1043256""
""focus"",""7"",""1045283""
""blur"",""19"",""2335397""
""focus"",""19"",""40431603""
","""event"",""trial"",""time""
""blur"",""7"",""1042926""
""blur"",""7"",""1043256""
""blur"",""19"",""2335397""
","""event"",""trial"",""time""
""focus"",""7"",""1042985""
""focus"",""7"",""1045283""
""focus"",""19"",""40431603""
","""event"",""trial"",""time""
""fullscreenenter"",""1"",""5644""
","
","","[{""page_index"":0,""viewing_time"":10450.099999904633},{""page_index"":1,""viewing_time"":24994},{""page_index"":2,""viewing_time"":6205.099999904633},{""page_index"":3,""viewing_time"":9794.200000047684},{""page_index"":4,""viewing_time"":5071.5},{""page_index"":5,""viewing_time"":6823.799999952316},{""page_index"":6,""viewing_time"":7866.900000095367},{""page_index"":7,""viewing_time"":14154.900000095367},{""page_index"":8,""viewing_time"":10456.399999856949},{""page_index"":9,""viewing_time"":6894.400000095367},{""page_index"":10,""viewing_time"":6617.700000047684},{""page_index"":11,""viewing_time"":4127.099999904633},{""page_index"":12,""viewing_time"":6813.5},{""page_index"":13,""viewing_time"":14105},{""page_index"":14,""viewing_time"":39051585.20000005},{""page_index"":15,""viewing_time"":6275.299999952316},{""page_index"":16,""viewing_time"":7895.400000095367},{""page_index"":17,""viewing_time"":10181.799999952316}]","39210312.69999981","","","","","","","","","","","","","","","","","","","","","","","",""
"pit-trial","20","40485390","0.0-2.0-8.0-0.0","battery-v0.2","","""event"",""trial"",""time""
""fullscreenenter"",""1"",""5644""
""blur"",""7"",""1042926""
""focus"",""7"",""1042985""
""blur"",""7"",""1043256""
""focus"",""7"",""1045283""
""blur"",""19"",""2335397""
""focus"",""19"",""40431603""
","""event"",""trial"",""time""
""blur"",""7"",""1042926""
""blur"",""7"",""1043256""
""blur"",""19"",""2335397""
","""event"",""trial"",""time""
""focus"",""7"",""1042985""
""focus"",""7"",""1045283""
""focus"",""19"",""40431603""
","""event"",""trial"",""time""
""fullscreenenter"",""1"",""5644""
","
","","","980.8999998569489","","","14","3498","2165","&#9776;","elianto","#3366ff99"," "," ","1","+10","[1831.3999998569489]","1","0","1","","","","","","","",""
"pit-trial","21","40488730","0.0-2.0-8.0-1.0","battery-v0.2","","""event"",""trial"",""time""
""fullscreenenter"",""1"",""5644""
""blur"",""7"",""1042926""
""focus"",""7"",""1042985""
""blur"",""7"",""1043256""
""focus"",""7"",""1045283""
""blur"",""19"",""2335397""
""focus"",""19"",""40431603""
","""event"",""trial"",""time""
""blur"",""7"",""1042926""
""blur"",""7"",""1043256""
""blur"",""19"",""2335397""
","""event"",""trial"",""time""
""focus"",""7"",""1042985""
""focus"",""7"",""1045283""
""focus"",""19"",""40431603""
","""event"",""trial"",""time""
""fullscreenenter"",""1"",""5644""
","
","","","474.2000000476837","","","14","3498","2165","&#9776;","elianto","#3366ff99"," "," ","1","+10","[1326.3999998569489]","1","0","1","","","","","","","",""
"pit-trial","22","40492083","0.0-2.0-8.0-2.0","battery-v0.2","","""event"",""trial"",""time""
""fullscreenenter"",""1"",""5644""
""blur"",""7"",""1042926""
""focus"",""7"",""1042985""
""blur"",""7"",""1043256""
""focus"",""7"",""1045283""
""blur"",""19"",""2335397""
""focus"",""19"",""40431603""
","""event"",""trial"",""time""
""blur"",""7"",""1042926""
""blur"",""7"",""1043256""
""blur"",""19"",""2335397""
","""event"",""trial"",""time""
""focus"",""7"",""1042985""
""focus"",""7"",""1045283""
""focus"",""19"",""40431603""
","""event"",""trial"",""time""
""fullscreenenter"",""1"",""5644""
","
","","","485.80000019073486","","","14","3498","2165","&#9776;","elianto","#3366ff99"," "," ","1","+10","[1342.3000001907349]","1","0","1","","","","","","","",""
"pit-trial","23","40495493","0.0-2.0-8.0-3.0","battery-v0.2","","""event"",""trial"",""time""
""fullscreenenter"",""1"",""5644""
""blur"",""7"",""1042926""
""focus"",""7"",""1042985""
""blur"",""7"",""1043256""
""focus"",""7"",""1045283""
""blur"",""19"",""2335397""
""focus"",""19"",""40431603""
","""event"",""trial"",""time""
""blur"",""7"",""1042926""
""blur"",""7"",""1043256""
""blur"",""19"",""2335397""
","""event"",""trial"",""time""
""focus"",""7"",""1042985""
""focus"",""7"",""1045283""
""focus"",""19"",""40431603""
","""event"",""trial"",""time""
""fullscreenenter"",""1"",""5644""
","
","","","549.7999999523163","","","14","3498","2165","&#9776;","elianto","#3366ff99"," "," ","1","0","[1403.0999999046326]","1","0","1","","","","","","","",""
"pit-trial","24","40499192","0.0-2.0-8.0-4.0","battery-v0.2","","""event"",""trial"",""time""
""fullscreenenter"",""1"",""5644""
""blur"",""7"",""1042926""
""focus"",""7"",""1042985""
""blur"",""7"",""1043256""
""focus"",""7"",""1045283""
""blur"",""19"",""2335397""
""focus"",""19"",""40431603""
","""event"",""trial"",""time""
""blur"",""7"",""1042926""
""blur"",""7"",""1043256""
""blur"",""19"",""2335397""
","""event"",""trial"",""time""
""focus"",""7"",""1042985""
""focus"",""7"",""1045283""
""focus"",""19"",""40431603""
","""event"",""trial"",""time""
""fullscreenenter"",""1"",""5644""
","
","","","836.0999999046326","","","14","3498","2165","&#9776;","elianto","#3366ff99"," "," ","1","+10","[1690.2999999523163]","1","0","1","","","","","","","",""
"pit-trial","25","40503473","0.0-2.0-8.1-0.1","battery-v0.2","","""event"",""trial"",""time""
""fullscreenenter"",""1"",""5644""
""blur"",""7"",""1042926""
""focus"",""7"",""1042985""
""blur"",""7"",""1043256""
""focus"",""7"",""1045283""
""blur"",""19"",""2335397""
""focus"",""19"",""40431603""
","""event"",""trial"",""time""
""blur"",""7"",""1042926""
""blur"",""7"",""1043256""
""blur"",""19"",""2335397""
","""event"",""trial"",""time""
""focus"",""7"",""1042985""
""focus"",""7"",""1045283""
""focus"",""19"",""40431603""
","""event"",""trial"",""time""
""fullscreenenter"",""1"",""5644""
","
","","","1418.5","","","14","3498","2165","&#9776;","elianto","#3366ff99"," "," ","1","+10","[2272.0999999046326]","1","0","1","","","","","","","",""
"pit-trial","26","40506912","0.0-2.0-8.1-1.1","battery-v0.2","","""event"",""trial"",""time""
""fullscreenenter"",""1"",""5644""
""blur"",""7"",""1042926""
""focus"",""7"",""1042985""
""blur"",""7"",""1043256""
""focus"",""7"",""1045283""
""blur"",""19"",""2335397""
""focus"",""19"",""40431603""
","""event"",""trial"",""time""
""blur"",""7"",""1042926""
""blur"",""7"",""1043256""
""blur"",""19"",""2335397""
","""event"",""trial"",""time""
""focus"",""7"",""1042985""
""focus"",""7"",""1045283""
""focus"",""19"",""40431603""
","""event"",""trial"",""time""
""fullscreenenter"",""1"",""5644""
","
","","","580.0999999046326","","","14","3498","2165","&#9776;","elianto","#3366ff99"," "," ","1","+10","[1434]","1","0","1","","","","","","","",""
"pit-trial","27","40510612","0.0-2.0-8.1-2.1","battery-v0.2","","""event"",""trial"",""time""
""fullscreenenter"",""1"",""5644""
""blur"",""7"",""1042926""
""focus"",""7"",""1042985""
""blur"",""7"",""1043256""
""focus"",""7"",""1045283""
""blur"",""19"",""2335397""
""focus"",""19"",""40431603""
","""event"",""trial"",""time""
""blur"",""7"",""1042926""
""blur"",""7"",""1043256""
""blur"",""19"",""2335397""
","""event"",""trial"",""time""
""focus"",""7"",""1042985""
""focus"",""7"",""1045283""
""focus"",""19"",""40431603""
","""event"",""trial"",""time""
""fullscreenenter"",""1"",""5644""
","
","","","834.2999999523163","","","14","3498","2165","&#9776;","elianto","#3366ff99"," "," ","1","+10","[1690.8999998569489]","1","0","1","","","","","","","",""
"pit-trial","28","40514290","0.0-2.0-8.1-3.1","battery-v0.2","","""event"",""trial"",""time""
""fullscreenenter"",""1"",""5644""
""blur"",""7"",""1042926""
""focus"",""7"",""1042985""
""blur"",""7"",""1043256""
""focus"",""7"",""1045283""
""blur"",""19"",""2335397""
""focus"",""19"",""40431603""
","""event"",""trial"",""time""
""blur"",""7"",""1042926""
""blur"",""7"",""1043256""
""blur"",""19"",""2335397""
","""event"",""trial"",""time""
""focus"",""7"",""1042985""
""focus"",""7"",""1045283""
""focus"",""19"",""40431603""
","""event"",""trial"",""time""
""fullscreenenter"",""1"",""5644""
","
","","","818.7000000476837","","","14","3498","2165","&#9776;","elianto","#3366ff99"," "," ","1","0","[1672.4000000953674]","1","0","1","","","","","","","",""
"pit-trial","29","40517687","0.0-2.0-8.1-4.1","battery-v0.2","","""event"",""trial"",""time""
""fullscreenenter"",""1"",""5644""
""blur"",""7"",""1042926""
""focus"",""7"",""1042985""
""blur"",""7"",""1043256""
""focus"",""7"",""1045283""
""blur"",""19"",""2335397""
""focus"",""19"",""40431603""
","""event"",""trial"",""time""
""blur"",""7"",""1042926""
""blur"",""7"",""1043256""
""blur"",""19"",""2335397""
","""event"",""trial"",""time""
""focus"",""7"",""1042985""
""focus"",""7"",""1045283""
""focus"",""19"",""40431603""
","""event"",""trial"",""time""
""fullscreenenter"",""1"",""5644""
","
","","","531.2999999523163","","","14","3498","2165","&#9776;","elianto","#3366ff99"," "," ","1","+10","[1385.0999999046326]","1","0","1","","","","","","","",""
"pit-trial","30","40521191","0.0-2.0-8.2-0.2","battery-v0.2","","""event"",""trial"",""time""
""fullscreenenter"",""1"",""5644""
""blur"",""7"",""1042926""
""focus"",""7"",""1042985""
""blur"",""7"",""1043256""
""focus"",""7"",""1045283""
""blur"",""19"",""2335397""
""focus"",""19"",""40431603""
","""event"",""trial"",""time""
""blur"",""7"",""1042926""
""blur"",""7"",""1043256""
""blur"",""19"",""2335397""
","""event"",""trial"",""time""
""focus"",""7"",""1042985""
""focus"",""7"",""1045283""
""focus"",""19"",""40431603""
","""event"",""trial"",""time""
""fullscreenenter"",""1"",""5644""
","
","","","640.2000000476837","","","14","3498","2165","&#9776;","elianto","#3366ff99"," "," ","1","+10","[1490.8999998569489]","1","0","1","","","","","","","",""
"pit-trial","31","40524698","0.0-2.0-8.2-1.2","battery-v0.2","","""event"",""trial"",""time""
""fullscreenenter"",""1"",""5644""
""blur"",""7"",""1042926""
""focus"",""7"",""1042985""
""blur"",""7"",""1043256""
""focus"",""7"",""1045283""
""blur"",""19"",""2335397""
""focus"",""19"",""40431603""
","""event"",""trial"",""time""
""blur"",""7"",""1042926""
""blur"",""7"",""1043256""
""blur"",""19"",""2335397""
","""event"",""trial"",""time""
""focus"",""7"",""1042985""
""focus"",""7"",""1045283""
""focus"",""19"",""40431603""
","""event"",""trial"",""time""
""fullscreenenter"",""1"",""5644""
","
","","","647.7999999523163","","","14","3498","2165","&#9776;","elianto","#3366ff99"," "," ","1","+10","[1500.9000000953674]","1","0","1","","","","","","","",""
"pit-trial","32","40528584","0.0-2.0-8.2-2.2","battery-v0.2","","""event"",""trial"",""time""
""fullscreenenter"",""1"",""5644""
""blur"",""7"",""1042926""
""focus"",""7"",""1042985""
""blur"",""7"",""1043256""
""focus"",""7"",""1045283""
""blur"",""19"",""2335397""
""focus"",""19"",""40431603""
","""event"",""trial"",""time""
""blur"",""7"",""1042926""
""blur"",""7"",""1043256""
""blur"",""19"",""2335397""
","""event"",""trial"",""time""
""focus"",""7"",""1042985""
""focus"",""7"",""1045283""
""focus"",""19"",""40431603""
","""event"",""trial"",""time""
""fullscreenenter"",""1"",""5644""
","
","","","1031","","","14","3498","2165","&#9776;","elianto","#3366ff99"," "," ","1","+10","[1881]","1","0","1","","","","","","","",""
"pit-trial","33","40532723","0.0-2.0-8.2-3.2","battery-v0.2","","""event"",""trial"",""time""
""fullscreenenter"",""1"",""5644""
""blur"",""7"",""1042926""
""focus"",""7"",""1042985""
""blur"",""7"",""1043256""
""focus"",""7"",""1045283""
""blur"",""19"",""2335397""
""focus"",""19"",""40431603""
","""event"",""trial"",""time""
""blur"",""7"",""1042926""
""blur"",""7"",""1043256""
""blur"",""19"",""2335397""
","""event"",""trial"",""time""
""focus"",""7"",""1042985""
""focus"",""7"",""1045283""
""focus"",""19"",""40431603""
","""event"",""trial"",""time""
""fullscreenenter"",""1"",""5644""
","
","","","1278","","","14","3498","2165","&#9776;","elianto","#3366ff99"," "," ","1","0","[2130.7000000476837]","1","0","1","","","","","","","",""
"pit-trial","34","40537597","0.0-2.0-8.2-4.2","battery-v0.2","","""event"",""trial"",""time""
""fullscreenenter"",""1"",""5644""
""blur"",""7"",""1042926""
""focus"",""7"",""1042985""
""blur"",""7"",""1043256""
""focus"",""7"",""1045283""
""blur"",""19"",""2335397""
""focus"",""19"",""40431603""
","""event"",""trial"",""time""
""blur"",""7"",""1042926""
""blur"",""7"",""1043256""
""blur"",""19"",""2335397""
","""event"",""trial"",""time""
""focus"",""7"",""1042985""
""focus"",""7"",""1045283""
""focus"",""19"",""40431603""
","""event"",""trial"",""time""
""fullscreenenter"",""1"",""5644""
","
","","","-1","","","14","3498","2165","&#9776;","elianto","#3366ff99"," ","-1","0","0","[]","0","0","1","","","","","","","",""
"call-function","35","40537602","0.0-2.0-9.0","battery-v0.2","","""event"",""trial"",""time""
""fullscreenenter"",""1"",""5644""
""blur"",""7"",""1042926""
""focus"",""7"",""1042985""
""blur"",""7"",""1043256""
""focus"",""7"",""1045283""
""blur"",""19"",""2335397""
""focus"",""19"",""40431603""
","""event"",""trial"",""time""
""blur"",""7"",""1042926""
""blur"",""7"",""1043256""
""blur"",""19"",""2335397""
","""event"",""trial"",""time""
""focus"",""7"",""1042985""
""focus"",""7"",""1045283""
""focus"",""19"",""40431603""
","""event"",""trial"",""time""
""fullscreenenter"",""1"",""5644""
","
","","","","","","","","","","","","","","","","","","","","","","","","","","",""
"pit-instructions","36","40581712","0.0-2.0-10.0","battery-v0.2","","""event"",""trial"",""time""
""fullscreenenter"",""1"",""5644""
""blur"",""7"",""1042926""
""focus"",""7"",""1042985""
""blur"",""7"",""1043256""
""focus"",""7"",""1045283""
""blur"",""19"",""2335397""
""focus"",""19"",""40431603""
","""event"",""trial"",""time""
""blur"",""7"",""1042926""
""blur"",""7"",""1043256""
""blur"",""19"",""2335397""
","""event"",""trial"",""time""
""focus"",""7"",""1042985""
""focus"",""7"",""1045283""
""focus"",""19"",""40431603""
","""event"",""trial"",""time""
""fullscreenenter"",""1"",""5644""
","
","","[{""page_index"":0,""viewing_time"":6192.700000047684},{""page_index"":1,""viewing_time"":7513.200000047684},{""page_index"":2,""viewing_time"":13589.899999856949},{""page_index"":3,""viewing_time"":8857.400000095367},{""page_index"":4,""viewing_time"":7953.200000047684}]","44107.90000009537","","","","","","","","","","","","","","","","","","","","","","","",""
"pit-trial","37","40585065","0.0-2.0-11.0-0.0","battery-v0.2","","""event"",""trial"",""time""
""fullscreenenter"",""1"",""5644""
""blur"",""7"",""1042926""
""focus"",""7"",""1042985""
""blur"",""7"",""1043256""
""focus"",""7"",""1045283""
""blur"",""19"",""2335397""
""focus"",""19"",""40431603""
","""event"",""trial"",""time""
""blur"",""7"",""1042926""
""blur"",""7"",""1043256""
""blur"",""19"",""2335397""
","""event"",""trial"",""time""
""focus"",""7"",""1042985""
""focus"",""7"",""1045283""
""focus"",""19"",""40431603""
","""event"",""trial"",""time""
""fullscreenenter"",""1"",""5644""
","
","","","488.5","","","14","3498","2165","&#9761;","elianto","#3366ff99","-1"," ","0","0","[1340.4000000953674]","1","0","2","","","","","","","",""
"pit-trial","38","40588445","0.0-2.0-11.0-1.0","battery-v0.2","","""event"",""trial"",""time""
""fullscreenenter"",""1"",""5644""
""blur"",""7"",""1042926""
""focus"",""7"",""1042985""
""blur"",""7"",""1043256""
""focus"",""7"",""1045283""
""blur"",""19"",""2335397""
""focus"",""19"",""40431603""
","""event"",""trial"",""time""
""blur"",""7"",""1042926""
""blur"",""7"",""1043256""
""blur"",""19"",""2335397""
","""event"",""trial"",""time""
""focus"",""7"",""1042985""
""focus"",""7"",""1045283""
""focus"",""19"",""40431603""
","""event"",""trial"",""time""
""fullscreenenter"",""1"",""5644""
","
","","","515","","","14","3498","2165","&#9761;","elianto","#3366ff99","-1"," ","0","0","[1370.7999999523163]","1","0","2","","","","","","","",""
"pit-trial","39","40593325","0.0-2.0-11.0-2.0","battery-v0.2","","""event"",""trial"",""time""
""fullscreenenter"",""1"",""5644""
""blur"",""7"",""1042926""
""focus"",""7"",""1042985""
""blur"",""7"",""1043256""
""focus"",""7"",""1045283""
""blur"",""19"",""2335397""
""focus"",""19"",""40431603""
","""event"",""trial"",""time""
""blur"",""7"",""1042926""
""blur"",""7"",""1043256""
""blur"",""19"",""2335397""
","""event"",""trial"",""time""
""focus"",""7"",""1042985""
""focus"",""7"",""1045283""
""focus"",""19"",""40431603""
","""event"",""trial"",""time""
""fullscreenenter"",""1"",""5644""
","
","","","-1","","","14","3498","2165","&#9761;","elianto","#3366ff99","-1","-1","1","+10","[]","0","0","2","","","","","","","",""
"pit-trial","40","40598196","0.0-2.0-11.0-3.0","battery-v0.2","","""event"",""trial"",""time""
""fullscreenenter"",""1"",""5644""
""blur"",""7"",""1042926""
""focus"",""7"",""1042985""
""blur"",""7"",""1043256""
""focus"",""7"",""1045283""
""blur"",""19"",""2335397""
""focus"",""19"",""40431603""
","""event"",""trial"",""time""
""blur"",""7"",""1042926""
""blur"",""7"",""1043256""
""blur"",""19"",""2335397""
","""event"",""trial"",""time""
""focus"",""7"",""1042985""
""focus"",""7"",""1045283""
""focus"",""19"",""40431603""
","""event"",""trial"",""time""
""fullscreenenter"",""1"",""5644""
","
","","","-1","","","14","3498","2165","&#9761;","elianto","#3366ff99","-1","-1","1","0","[]","0","0","2","","","","","","","",""
"pit-trial","41","40603076","0.0-2.0-11.0-4.0","battery-v0.2","","""event"",""trial"",""time""
""fullscreenenter"",""1"",""5644""
""blur"",""7"",""1042926""
""focus"",""7"",""1042985""
""blur"",""7"",""1043256""
""focus"",""7"",""1045283""
""blur"",""19"",""2335397""
""focus"",""19"",""40431603""
","""event"",""trial"",""time""
""blur"",""7"",""1042926""
""blur"",""7"",""1043256""
""blur"",""19"",""2335397""
","""event"",""trial"",""time""
""focus"",""7"",""1042985""
""focus"",""7"",""1045283""
""focus"",""19"",""40431603""
","""event"",""trial"",""time""
""fullscreenenter"",""1"",""5644""
","
","","","-1","","","14","3498","2165","&#9761;","elianto","#3366ff99","-1","-1","1","+10","[]","0","0","2","","","","","","","",""
"pit-trial","42","40607956","0.0-2.0-11.1-0.1","battery-v0.2","","""event"",""trial"",""time""
""fullscreenenter"",""1"",""5644""
""blur"",""7"",""1042926""
""focus"",""7"",""1042985""
""blur"",""7"",""1043256""
""focus"",""7"",""1045283""
""blur"",""19"",""2335397""
""focus"",""19"",""40431603""
","""event"",""trial"",""time""
""blur"",""7"",""1042926""
""blur"",""7"",""1043256""
""blur"",""19"",""2335397""
","""event"",""trial"",""time""
""focus"",""7"",""1042985""
""focus"",""7"",""1045283""
""focus"",""19"",""40431603""
","""event"",""trial"",""time""
""fullscreenenter"",""1"",""5644""
","
","","","-1","","","14","3498","2165","&#9761;","elianto","#3366ff99","-1","-1","1","+10","[]","0","0","2","","","","","","","",""
"pit-trial","43","40612831","0.0-2.0-11.1-1.1","battery-v0.2","","""event"",""trial"",""time""
""fullscreenenter"",""1"",""5644""
""blur"",""7"",""1042926""
""focus"",""7"",""1042985""
""blur"",""7"",""1043256""
""focus"",""7"",""1045283""
""blur"",""19"",""2335397""
""focus"",""19"",""40431603""
","""event"",""trial"",""time""
""blur"",""7"",""1042926""
""blur"",""7"",""1043256""
""blur"",""19"",""2335397""
","""event"",""trial"",""time""
""focus"",""7"",""1042985""
""focus"",""7"",""1045283""
""focus"",""19"",""40431603""
","""event"",""trial"",""time""
""fullscreenenter"",""1"",""5644""
","
","","","-1","","","14","3498","2165","&#9761;","elianto","#3366ff99","-1","-1","1","+10","[]","0","0","2","","","","","","","",""
"pit-trial","44","40617693","0.0-2.0-11.1-2.1","battery-v0.2","","""event"",""trial"",""time""
""fullscreenenter"",""1"",""5644""
""blur"",""7"",""1042926""
""focus"",""7"",""1042985""
""blur"",""7"",""1043256""
""focus"",""7"",""1045283""
""blur"",""19"",""2335397""
""focus"",""19"",""40431603""
","""event"",""trial"",""time""
""blur"",""7"",""1042926""
""blur"",""7"",""1043256""
""blur"",""19"",""2335397""
","""event"",""trial"",""time""
""focus"",""7"",""1042985""
""focus"",""7"",""1045283""
""focus"",""19"",""40431603""
","""event"",""trial"",""time""
""fullscreenenter"",""1"",""5644""
","
","","","-1","","","14","3498","2165","&#9761;","elianto","#3366ff99","-1","-1","1","+10","[]","0","0","2","","","","","","","",""
"pit-trial","45","40622558","0.0-2.0-11.1-3.1","battery-v0.2","","""event"",""trial"",""time""
""fullscreenenter"",""1"",""5644""
""blur"",""7"",""1042926""
""focus"",""7"",""1042985""
""blur"",""7"",""1043256""
""focus"",""7"",""1045283""
""blur"",""19"",""2335397""
""focus"",""19"",""40431603""
","""event"",""trial"",""time""
""blur"",""7"",""1042926""
""blur"",""7"",""1043256""
""blur"",""19"",""2335397""
","""event"",""trial"",""time""
""focus"",""7"",""1042985""
""focus"",""7"",""1045283""
""focus"",""19"",""40431603""
","""event"",""trial"",""time""
""fullscreenenter"",""1"",""5644""
","
","","","-1","","","14","3498","2165","&#9761;","elianto","#3366ff99","-1","-1","1","0","[]","0","0","2","","","","","","","",""
"pit-trial","46","40627424","0.0-2.0-11.1-4.1","battery-v0.2","","""event"",""trial"",""time""
""fullscreenenter"",""1"",""5644""
""blur"",""7"",""1042926""
""focus"",""7"",""1042985""
""blur"",""7"",""1043256""
""focus"",""7"",""1045283""
""blur"",""19"",""2335397""
""focus"",""19"",""40431603""
","""event"",""trial"",""time""
""blur"",""7"",""1042926""
""blur"",""7"",""1043256""
""blur"",""19"",""2335397""
","""event"",""trial"",""time""
""focus"",""7"",""1042985""
""focus"",""7"",""1045283""
""focus"",""19"",""40431603""
","""event"",""trial"",""time""
""fullscreenenter"",""1"",""5644""
","
","","","-1","","","14","3498","2165","&#9761;","elianto","#3366ff99","-1","-1","1","+10","[]","0","0","2","","","","","","","",""
"pit-trial","47","40632295","0.0-2.0-11.2-0.2","battery-v0.2","","""event"",""trial"",""time""
""fullscreenenter"",""1"",""5644""
""blur"",""7"",""1042926""
""focus"",""7"",""1042985""
""blur"",""7"",""1043256""
""focus"",""7"",""1045283""
""blur"",""19"",""2335397""
""focus"",""19"",""40431603""
","""event"",""trial"",""time""
""blur"",""7"",""1042926""
""blur"",""7"",""1043256""
""blur"",""19"",""2335397""
","""event"",""trial"",""time""
""focus"",""7"",""1042985""
""focus"",""7"",""1045283""
""focus"",""19"",""40431603""
","""event"",""trial"",""time""
""fullscreenenter"",""1"",""5644""
","
","","","-1","","","14","3498","2165","&#9761;","elianto","#3366ff99","-1","-1","1","+10","[]","0","0","2","","","","","","","",""
"pit-trial","48","40637163","0.0-2.0-11.2-1.2","battery-v0.2","","""event"",""trial"",""time""
""fullscreenenter"",""1"",""5644""
""blur"",""7"",""1042926""
""focus"",""7"",""1042985""
""blur"",""7"",""1043256""
""focus"",""7"",""1045283""
""blur"",""19"",""2335397""
""focus"",""19"",""40431603""
","""event"",""trial"",""time""
""blur"",""7"",""1042926""
""blur"",""7"",""1043256""
""blur"",""19"",""2335397""
","""event"",""trial"",""time""
""focus"",""7"",""1042985""
""focus"",""7"",""1045283""
""focus"",""19"",""40431603""
","""event"",""trial"",""time""
""fullscreenenter"",""1"",""5644""
","
","","","-1","","","14","3498","2165","&#9761;","elianto","#3366ff99","-1","-1","1","+10","[]","0","0","2","","","","","","","",""
"pit-trial","49","40642028","0.0-2.0-11.2-2.2","battery-v0.2","","""event"",""trial"",""time""
""fullscreenenter"",""1"",""5644""
""blur"",""7"",""1042926""
""focus"",""7"",""1042985""
""blur"",""7"",""1043256""
""focus"",""7"",""1045283""
""blur"",""19"",""2335397""
""focus"",""19"",""40431603""
","""event"",""trial"",""time""
""blur"",""7"",""1042926""
""blur"",""7"",""1043256""
""blur"",""19"",""2335397""
","""event"",""trial"",""time""
""focus"",""7"",""1042985""
""focus"",""7"",""1045283""
""focus"",""19"",""40431603""
","""event"",""trial"",""time""
""fullscreenenter"",""1"",""5644""
","
","","","-1","","","14","3498","2165","&#9761;","elianto","#3366ff99","-1","-1","1","+10","[]","0","0","2","","","","","","","",""
"pit-trial","50","40646900","0.0-2.0-11.2-3.2","battery-v0.2","","""event"",""trial"",""time""
""fullscreenenter"",""1"",""5644""
""blur"",""7"",""1042926""
""focus"",""7"",""1042985""
""blur"",""7"",""1043256""
""focus"",""7"",""1045283""
""blur"",""19"",""2335397""
""focus"",""19"",""40431603""
","""event"",""trial"",""time""
""blur"",""7"",""1042926""
""blur"",""7"",""1043256""
""blur"",""19"",""2335397""
","""event"",""trial"",""time""
""focus"",""7"",""1042985""
""focus"",""7"",""1045283""
""focus"",""19"",""40431603""
","""event"",""trial"",""time""
""fullscreenenter"",""1"",""5644""
","
","","","-1","","","14","3498","2165","&#9761;","elianto","#3366ff99","-1","-1","1","0","[]","0","0","2","","","","","","","",""
"pit-trial","51","40651772","0.0-2.0-11.2-4.2","battery-v0.2","","""event"",""trial"",""time""
""fullscreenenter"",""1"",""5644""
""blur"",""7"",""1042926""
""focus"",""7"",""1042985""
""blur"",""7"",""1043256""
""focus"",""7"",""1045283""
""blur"",""19"",""2335397""
""focus"",""19"",""40431603""
","""event"",""trial"",""time""
""blur"",""7"",""1042926""
""blur"",""7"",""1043256""
""blur"",""19"",""2335397""
","""event"",""trial"",""time""
""focus"",""7"",""1042985""
""focus"",""7"",""1045283""
""focus"",""19"",""40431603""
","""event"",""trial"",""time""
""fullscreenenter"",""1"",""5644""
","
","","","-1","","","14","3498","2165","&#9761;","elianto","#3366ff99","-1","-1","1","+10","[]","0","0","2","","","","","","","",""
"pit-trial","52","40656643","0.0-2.0-11.3-0.3","battery-v0.2","","""event"",""trial"",""time""
""fullscreenenter"",""1"",""5644""
""blur"",""7"",""1042926""
""focus"",""7"",""1042985""
""blur"",""7"",""1043256""
""focus"",""7"",""1045283""
""blur"",""19"",""2335397""
""focus"",""19"",""40431603""
","""event"",""trial"",""time""
""blur"",""7"",""1042926""
""blur"",""7"",""1043256""
""blur"",""19"",""2335397""
","""event"",""trial"",""time""
""focus"",""7"",""1042985""
""focus"",""7"",""1045283""
""focus"",""19"",""40431603""
","""event"",""trial"",""time""
""fullscreenenter"",""1"",""5644""
","
","","","-1","","","14","3498","2165","&#9761;","elianto","#3366ff99","-1","-1","1","+10","[]","0","0","2","","","","","","","",""
"pit-trial","53","40661512","0.0-2.0-11.3-1.3","battery-v0.2","","""event"",""trial"",""time""
""fullscreenenter"",""1"",""5644""
""blur"",""7"",""1042926""
""focus"",""7"",""1042985""
""blur"",""7"",""1043256""
""focus"",""7"",""1045283""
""blur"",""19"",""2335397""
""focus"",""19"",""40431603""
","""event"",""trial"",""time""
""blur"",""7"",""1042926""
""blur"",""7"",""1043256""
""blur"",""19"",""2335397""
","""event"",""trial"",""time""
""focus"",""7"",""1042985""
""focus"",""7"",""1045283""
""focus"",""19"",""40431603""
","""event"",""trial"",""time""
""fullscreenenter"",""1"",""5644""
","
","","","-1","","","14","3498","2165","&#9761;","elianto","#3366ff99","-1","-1","1","+10","[]","0","0","2","","","","","","","",""
"pit-trial","54","40666373","0.0-2.0-11.3-2.3","battery-v0.2","","""event"",""trial"",""time""
""fullscreenenter"",""1"",""5644""
""blur"",""7"",""1042926""
""focus"",""7"",""1042985""
""blur"",""7"",""1043256""
""focus"",""7"",""1045283""
""blur"",""19"",""2335397""
""focus"",""19"",""40431603""
","""event"",""trial"",""time""
""blur"",""7"",""1042926""
""blur"",""7"",""1043256""
""blur"",""19"",""2335397""
","""event"",""trial"",""time""
""focus"",""7"",""1042985""
""focus"",""7"",""1045283""
""focus"",""19"",""40431603""
","""event"",""trial"",""time""
""fullscreenenter"",""1"",""5644""
","
","","","-1","","","14","3498","2165","&#9761;","elianto","#3366ff99","-1","-1","1","+10","[]","0","0","2","","","","","","","",""
"pit-trial","55","40671235","0.0-2.0-11.3-3.3","battery-v0.2","","""event"",""trial"",""time""
""fullscreenenter"",""1"",""5644""
""blur"",""7"",""1042926""
""focus"",""7"",""1042985""
""blur"",""7"",""1043256""
""focus"",""7"",""1045283""
""blur"",""19"",""2335397""
""focus"",""19"",""40431603""
","""event"",""trial"",""time""
""blur"",""7"",""1042926""
""blur"",""7"",""1043256""
""blur"",""19"",""2335397""
","""event"",""trial"",""time""
""focus"",""7"",""1042985""
""focus"",""7"",""1045283""
""focus"",""19"",""40431603""
","""event"",""trial"",""time""
""fullscreenenter"",""1"",""5644""
","
","","","-1","","","14","3498","2165","&#9761;","elianto","#3366ff99","-1","-1","1","0","[]","0","0","2","","","","","","","",""
"pit-trial","56","40676103","0.0-2.0-11.3-4.3","battery-v0.2","","""event"",""trial"",""time""
""fullscreenenter"",""1"",""5644""
""blur"",""7"",""1042926""
""focus"",""7"",""1042985""
""blur"",""7"",""1043256""
""focus"",""7"",""1045283""
""blur"",""19"",""2335397""
""focus"",""19"",""40431603""
","""event"",""trial"",""time""
""blur"",""7"",""1042926""
""blur"",""7"",""1043256""
""blur"",""19"",""2335397""
","""event"",""trial"",""time""
""focus"",""7"",""1042985""
""focus"",""7"",""1045283""
""focus"",""19"",""40431603""
","""event"",""trial"",""time""
""fullscreenenter"",""1"",""5644""
","
","","","-1","","","14","3498","2165","&#9761;","elianto","#3366ff99","-1","-1","1","+10","[]","0","0","2","","","","","","","",""
"call-function","57","40676106","0.0-2.0-12.0","battery-v0.2","","""event"",""trial"",""time""
""fullscreenenter"",""1"",""5644""
""blur"",""7"",""1042926""
""focus"",""7"",""1042985""
""blur"",""7"",""1043256""
""focus"",""7"",""1045283""
""blur"",""19"",""2335397""
""focus"",""19"",""40431603""
","""event"",""trial"",""time""
""blur"",""7"",""1042926""
""blur"",""7"",""1043256""
""blur"",""19"",""2335397""
","""event"",""trial"",""time""
""focus"",""7"",""1042985""
""focus"",""7"",""1045283""
""focus"",""19"",""40431603""
","""event"",""trial"",""time""
""fullscreenenter"",""1"",""5644""
","
","","","","","","","","","","","","","","","","","","","","","","","","","","",""
"pit-instructions","58","40706888","0.0-2.0-13.0","battery-v0.2","","""event"",""trial"",""time""
""fullscreenenter"",""1"",""5644""
""blur"",""7"",""1042926""
""focus"",""7"",""1042985""
""blur"",""7"",""1043256""
""focus"",""7"",""1045283""
""blur"",""19"",""2335397""
""focus"",""19"",""40431603""
","""event"",""trial"",""time""
""blur"",""7"",""1042926""
""blur"",""7"",""1043256""
""blur"",""19"",""2335397""
","""event"",""trial"",""time""
""focus"",""7"",""1042985""
""focus"",""7"",""1045283""
""focus"",""19"",""40431603""
","""event"",""trial"",""time""
""fullscreenenter"",""1"",""5644""
","
","","[{""page_index"":0,""viewing_time"":6295.400000095367},{""page_index"":1,""viewing_time"":6079.799999952316},{""page_index"":2,""viewing_time"":3875.7000000476837},{""page_index"":3,""viewing_time"":10297.599999904633},{""page_index"":4,""viewing_time"":4229.5}]","30779.400000095367","","","","","","","","","","","","","","","","","","","","","","","",""
"pit-trial","59","40711263","0.0-2.0-14.0-0.0","battery-v0.2","","""event"",""trial"",""time""
""fullscreenenter"",""1"",""5644""
""blur"",""7"",""1042926""
""focus"",""7"",""1042985""
""blur"",""7"",""1043256""
""focus"",""7"",""1045283""
""blur"",""19"",""2335397""
""focus"",""19"",""40431603""
","""event"",""trial"",""time""
""blur"",""7"",""1042926""
""blur"",""7"",""1043256""
""blur"",""19"",""2335397""
","""event"",""trial"",""time""
""focus"",""7"",""1042985""
""focus"",""7"",""1045283""
""focus"",""19"",""40431603""
","""event"",""trial"",""time""
""fullscreenenter"",""1"",""5644""
","
","","","1513.6999998092651","","","14","3498","2165","&#9826;","elianto","#f73b6a7A","-1"," ","0","-10","[2364.5,3659.5]","2","0","3","","","","","","","",""
"pit-trial","60","40716133","0.0-2.0-14.0-1.0","battery-v0.2","","""event"",""trial"",""time""
""fullscreenenter"",""1"",""5644""
""blur"",""7"",""1042926""
""focus"",""7"",""1042985""
""blur"",""7"",""1043256""
""focus"",""7"",""1045283""
""blur"",""19"",""2335397""
""focus"",""19"",""40431603""
","""event"",""trial"",""time""
""blur"",""7"",""1042926""
""blur"",""7"",""1043256""
""blur"",""19"",""2335397""
","""event"",""trial"",""time""
""focus"",""7"",""1042985""
""focus"",""7"",""1045283""
""focus"",""19"",""40431603""
","""event"",""trial"",""time""
""fullscreenenter"",""1"",""5644""
","
","","","-1","","","14","3498","2165","&#9826;","elianto","#f73b6a7A","-1","-1","1","0","[]","0","0","3","","","","","","","",""
"pit-trial","61","40721003","0.0-2.0-14.0-2.0","battery-v0.2","","""event"",""trial"",""time""
""fullscreenenter"",""1"",""5644""
""blur"",""7"",""1042926""
""focus"",""7"",""1042985""
""blur"",""7"",""1043256""
""focus"",""7"",""1045283""
""blur"",""19"",""2335397""
""focus"",""19"",""40431603""
","""event"",""trial"",""time""
""blur"",""7"",""1042926""
""blur"",""7"",""1043256""
""blur"",""19"",""2335397""
","""event"",""trial"",""time""
""focus"",""7"",""1042985""
""focus"",""7"",""1045283""
""focus"",""19"",""40431603""
","""event"",""trial"",""time""
""fullscreenenter"",""1"",""5644""
","
","","","-1","","","14","3498","2165","&#9826;","elianto","#f73b6a7A","-1","-1","1","0","[]","0","0","3","","","","","","","",""
"pit-trial","62","40725873","0.0-2.0-14.0-3.0","battery-v0.2","","""event"",""trial"",""time""
""fullscreenenter"",""1"",""5644""
""blur"",""7"",""1042926""
""focus"",""7"",""1042985""
""blur"",""7"",""1043256""
""focus"",""7"",""1045283""
""blur"",""19"",""2335397""
""focus"",""19"",""40431603""
","""event"",""trial"",""time""
""blur"",""7"",""1042926""
""blur"",""7"",""1043256""
""blur"",""19"",""2335397""
","""event"",""trial"",""time""
""focus"",""7"",""1042985""
""focus"",""7"",""1045283""
""focus"",""19"",""40431603""
","""event"",""trial"",""time""
""fullscreenenter"",""1"",""5644""
","
","","","-1","","","14","3498","2165","&#9826;","elianto","#f73b6a7A","-1","-1","1","-10","[]","0","0","3","","","","","","","",""
"pit-trial","63","40730743","0.0-2.0-14.0-4.0","battery-v0.2","","""event"",""trial"",""time""
""fullscreenenter"",""1"",""5644""
""blur"",""7"",""1042926""
""focus"",""7"",""1042985""
""blur"",""7"",""1043256""
""focus"",""7"",""1045283""
""blur"",""19"",""2335397""
""focus"",""19"",""40431603""
","""event"",""trial"",""time""
""blur"",""7"",""1042926""
""blur"",""7"",""1043256""
""blur"",""19"",""2335397""
","""event"",""trial"",""time""
""focus"",""7"",""1042985""
""focus"",""7"",""1045283""
""focus"",""19"",""40431603""
","""event"",""trial"",""time""
""fullscreenenter"",""1"",""5644""
","
","","","-1","","","14","3498","2165","&#9826;","elianto","#f73b6a7A","-1","-1","1","0","[]","0","0","3","","","","","","","",""
"pit-trial","64","40735613","0.0-2.0-14.1-0.1","battery-v0.2","","""event"",""trial"",""time""
""fullscreenenter"",""1"",""5644""
""blur"",""7"",""1042926""
""focus"",""7"",""1042985""
""blur"",""7"",""1043256""
""focus"",""7"",""1045283""
""blur"",""19"",""2335397""
""focus"",""19"",""40431603""
","""event"",""trial"",""time""
""blur"",""7"",""1042926""
""blur"",""7"",""1043256""
""blur"",""19"",""2335397""
","""event"",""trial"",""time""
""focus"",""7"",""1042985""
""focus"",""7"",""1045283""
""focus"",""19"",""40431603""
","""event"",""trial"",""time""
""fullscreenenter"",""1"",""5644""
","
","","","-1","","","14","3498","2165","&#9826;","elianto","#f73b6a7A","-1","-1","1","0","[]","0","0","3","","","","","","","",""
"pit-trial","65","40740487","0.0-2.0-14.1-1.1","battery-v0.2","","""event"",""trial"",""time""
""fullscreenenter"",""1"",""5644""
""blur"",""7"",""1042926""
""focus"",""7"",""1042985""
""blur"",""7"",""1043256""
""focus"",""7"",""1045283""
""blur"",""19"",""2335397""
""focus"",""19"",""40431603""
","""event"",""trial"",""time""
""blur"",""7"",""1042926""
""blur"",""7"",""1043256""
""blur"",""19"",""2335397""
","""event"",""trial"",""time""
""focus"",""7"",""1042985""
""focus"",""7"",""1045283""
""focus"",""19"",""40431603""
","""event"",""trial"",""time""
""fullscreenenter"",""1"",""5644""
","
","","","-1","","","14","3498","2165","&#9826;","elianto","#f73b6a7A","-1","-1","1","0","[]","0","0","3","","","","","","","",""
"pit-trial","66","40745352","0.0-2.0-14.1-2.1","battery-v0.2","","""event"",""trial"",""time""
""fullscreenenter"",""1"",""5644""
""blur"",""7"",""1042926""
""focus"",""7"",""1042985""
""blur"",""7"",""1043256""
""focus"",""7"",""1045283""
""blur"",""19"",""2335397""
""focus"",""19"",""40431603""
","""event"",""trial"",""time""
""blur"",""7"",""1042926""
""blur"",""7"",""1043256""
""blur"",""19"",""2335397""
","""event"",""trial"",""time""
""focus"",""7"",""1042985""
""focus"",""7"",""1045283""
""focus"",""19"",""40431603""
","""event"",""trial"",""time""
""fullscreenenter"",""1"",""5644""
","
","","","-1","","","14","3498","2165","&#9826;","elianto","#f73b6a7A","-1","-1","1","0","[]","0","0","3","","","","","","","",""
"pit-trial","67","40750216","0.0-2.0-14.1-3.1","battery-v0.2","","""event"",""trial"",""time""
""fullscreenenter"",""1"",""5644""
""blur"",""7"",""1042926""
""focus"",""7"",""1042985""
""blur"",""7"",""1043256""
""focus"",""7"",""1045283""
""blur"",""19"",""2335397""
""focus"",""19"",""40431603""
","""event"",""trial"",""time""
""blur"",""7"",""1042926""
""blur"",""7"",""1043256""
""blur"",""19"",""2335397""
","""event"",""trial"",""time""
""focus"",""7"",""1042985""
""focus"",""7"",""1045283""
""focus"",""19"",""40431603""
","""event"",""trial"",""time""
""fullscreenenter"",""1"",""5644""
","
","","","-1","","","14","3498","2165","&#9826;","elianto","#f73b6a7A","-1","-1","1","-10","[]","0","0","3","","","","","","","",""
"pit-trial","68","40755076","0.0-2.0-14.1-4.1","battery-v0.2","","""event"",""trial"",""time""
""fullscreenenter"",""1"",""5644""
""blur"",""7"",""1042926""
""focus"",""7"",""1042985""
""blur"",""7"",""1043256""
""focus"",""7"",""1045283""
""blur"",""19"",""2335397""
""focus"",""19"",""40431603""
","""event"",""trial"",""time""
""blur"",""7"",""1042926""
""blur"",""7"",""1043256""
""blur"",""19"",""2335397""
","""event"",""trial"",""time""
""focus"",""7"",""1042985""
""focus"",""7"",""1045283""
""focus"",""19"",""40431603""
","""event"",""trial"",""time""
""fullscreenenter"",""1"",""5644""
","
","","","-1","","","14","3498","2165","&#9826;","elianto","#f73b6a7A","-1","-1","1","0","[]","0","0","3","","","","","","","",""
"pit-trial","69","40759951","0.0-2.0-14.2-0.2","battery-v0.2","","""event"",""trial"",""time""
""fullscreenenter"",""1"",""5644""
""blur"",""7"",""1042926""
""focus"",""7"",""1042985""
""blur"",""7"",""1043256""
""focus"",""7"",""1045283""
""blur"",""19"",""2335397""
""focus"",""19"",""40431603""
","""event"",""trial"",""time""
""blur"",""7"",""1042926""
""blur"",""7"",""1043256""
""blur"",""19"",""2335397""
","""event"",""trial"",""time""
""focus"",""7"",""1042985""
""focus"",""7"",""1045283""
""focus"",""19"",""40431603""
","""event"",""trial"",""time""
""fullscreenenter"",""1"",""5644""
","
","","","-1","","","14","3498","2165","&#9826;","elianto","#f73b6a7A","-1","-1","1","0","[]","0","0","3","","","","","","","",""
"pit-trial","70","40764818","0.0-2.0-14.2-1.2","battery-v0.2","","""event"",""trial"",""time""
""fullscreenenter"",""1"",""5644""
""blur"",""7"",""1042926""
""focus"",""7"",""1042985""
""blur"",""7"",""1043256""
""focus"",""7"",""1045283""
""blur"",""19"",""2335397""
""focus"",""19"",""40431603""
","""event"",""trial"",""time""
""blur"",""7"",""1042926""
""blur"",""7"",""1043256""
""blur"",""19"",""2335397""
","""event"",""trial"",""time""
""focus"",""7"",""1042985""
""focus"",""7"",""1045283""
""focus"",""19"",""40431603""
","""event"",""trial"",""time""
""fullscreenenter"",""1"",""5644""
","
","","","-1","","","14","3498","2165","&#9826;","elianto","#f73b6a7A","-1","-1","1","0","[]","0","0","3","","","","","","","",""
"pit-trial","71","40769678","0.0-2.0-14.2-2.2","battery-v0.2","","""event"",""trial"",""time""
""fullscreenenter"",""1"",""5644""
""blur"",""7"",""1042926""
""focus"",""7"",""1042985""
""blur"",""7"",""1043256""
""focus"",""7"",""1045283""
""blur"",""19"",""2335397""
""focus"",""19"",""40431603""
","""event"",""trial"",""time""
""blur"",""7"",""1042926""
""blur"",""7"",""1043256""
""blur"",""19"",""2335397""
","""event"",""trial"",""time""
""focus"",""7"",""1042985""
""focus"",""7"",""1045283""
""focus"",""19"",""40431603""
","""event"",""trial"",""time""
""fullscreenenter"",""1"",""5644""
","
","","","-1","","","14","3498","2165","&#9826;","elianto","#f73b6a7A","-1","-1","1","0","[]","0","0","3","","","","","","","",""
"pit-trial","72","40774541","0.0-2.0-14.2-3.2","battery-v0.2","","""event"",""trial"",""time""
""fullscreenenter"",""1"",""5644""
""blur"",""7"",""1042926""
""focus"",""7"",""1042985""
""blur"",""7"",""1043256""
""focus"",""7"",""1045283""
""blur"",""19"",""2335397""
""focus"",""19"",""40431603""
","""event"",""trial"",""time""
""blur"",""7"",""1042926""
""blur"",""7"",""1043256""
""blur"",""19"",""2335397""
","""event"",""trial"",""time""
""focus"",""7"",""1042985""
""focus"",""7"",""1045283""
""focus"",""19"",""40431603""
","""event"",""trial"",""time""
""fullscreenenter"",""1"",""5644""
","
","","","-1","","","14","3498","2165","&#9826;","elianto","#f73b6a7A","-1","-1","1","-10","[]","0","0","3","","","","","","","",""
"pit-trial","73","40779407","0.0-2.0-14.2-4.2","battery-v0.2","","""event"",""trial"",""time""
""fullscreenenter"",""1"",""5644""
""blur"",""7"",""1042926""
""focus"",""7"",""1042985""
""blur"",""7"",""1043256""
""focus"",""7"",""1045283""
""blur"",""19"",""2335397""
""focus"",""19"",""40431603""
","""event"",""trial"",""time""
""blur"",""7"",""1042926""
""blur"",""7"",""1043256""
""blur"",""19"",""2335397""
","""event"",""trial"",""time""
""focus"",""7"",""1042985""
""focus"",""7"",""1045283""
""focus"",""19"",""40431603""
","""event"",""trial"",""time""
""fullscreenenter"",""1"",""5644""
","
","","","-1","","","14","3498","2165","&#9826;","elianto","#f73b6a7A","-1","-1","1","0","[]","0","0","3","","","","","","","",""
"pit-trial","74","40784271","0.0-2.0-14.3-0.3","battery-v0.2","","""event"",""trial"",""time""
""fullscreenenter"",""1"",""5644""
""blur"",""7"",""1042926""
""focus"",""7"",""1042985""
""blur"",""7"",""1043256""
""focus"",""7"",""1045283""
""blur"",""19"",""2335397""
""focus"",""19"",""40431603""
","""event"",""trial"",""time""
""blur"",""7"",""1042926""
""blur"",""7"",""1043256""
""blur"",""19"",""2335397""
","""event"",""trial"",""time""
""focus"",""7"",""1042985""
""focus"",""7"",""1045283""
""focus"",""19"",""40431603""
","""event"",""trial"",""time""
""fullscreenenter"",""1"",""5644""
","
","","","-1","","","14","3498","2165","&#9826;","elianto","#f73b6a7A","-1","-1","1","0","[]","0","0","3","","","","","","","",""
"pit-trial","75","40789131","0.0-2.0-14.3-1.3","battery-v0.2","","""event"",""trial"",""time""
""fullscreenenter"",""1"",""5644""
""blur"",""7"",""1042926""
""focus"",""7"",""1042985""
""blur"",""7"",""1043256""
""focus"",""7"",""1045283""
""blur"",""19"",""2335397""
""focus"",""19"",""40431603""
","""event"",""trial"",""time""
""blur"",""7"",""1042926""
""blur"",""7"",""1043256""
""blur"",""19"",""2335397""
","""event"",""trial"",""time""
""focus"",""7"",""1042985""
""focus"",""7"",""1045283""
""focus"",""19"",""40431603""
","""event"",""trial"",""time""
""fullscreenenter"",""1"",""5644""
","
","","","-1","","","14","3498","2165","&#9826;","elianto","#f73b6a7A","-1","-1","1","0","[]","0","0","3","","","","","","","",""
"pit-trial","76","40793993","0.0-2.0-14.3-2.3","battery-v0.2","","""event"",""trial"",""time""
""fullscreenenter"",""1"",""5644""
""blur"",""7"",""1042926""
""focus"",""7"",""1042985""
""blur"",""7"",""1043256""
""focus"",""7"",""1045283""
""blur"",""19"",""2335397""
""focus"",""19"",""40431603""
","""event"",""trial"",""time""
""blur"",""7"",""1042926""
""blur"",""7"",""1043256""
""blur"",""19"",""2335397""
","""event"",""trial"",""time""
""focus"",""7"",""1042985""
""focus"",""7"",""1045283""
""focus"",""19"",""40431603""
","""event"",""trial"",""time""
""fullscreenenter"",""1"",""5644""
","
","","","-1","","","14","3498","2165","&#9826;","elianto","#f73b6a7A","-1","-1","1","0","[]","0","0","3","","","","","","","",""
"pit-trial","77","40798855","0.0-2.0-14.3-3.3","battery-v0.2","","""event"",""trial"",""time""
""fullscreenenter"",""1"",""5644""
""blur"",""7"",""1042926""
""focus"",""7"",""1042985""
""blur"",""7"",""1043256""
""focus"",""7"",""1045283""
""blur"",""19"",""2335397""
""focus"",""19"",""40431603""
","""event"",""trial"",""time""
""blur"",""7"",""1042926""
""blur"",""7"",""1043256""
""blur"",""19"",""2335397""
","""event"",""trial"",""time""
""focus"",""7"",""1042985""
""focus"",""7"",""1045283""
""focus"",""19"",""40431603""
","""event"",""trial"",""time""
""fullscreenenter"",""1"",""5644""
","
","","","-1","","","14","3498","2165","&#9826;","elianto","#f73b6a7A","-1","-1","1","-10","[]","0","0","3","","","","","","","",""
"pit-trial","78","40803731","0.0-2.0-14.3-4.3","battery-v0.2","","""event"",""trial"",""time""
""fullscreenenter"",""1"",""5644""
""blur"",""7"",""1042926""
""focus"",""7"",""1042985""
""blur"",""7"",""1043256""
""focus"",""7"",""1045283""
""blur"",""19"",""2335397""
""focus"",""19"",""40431603""
","""event"",""trial"",""time""
""blur"",""7"",""1042926""
""blur"",""7"",""1043256""
""blur"",""19"",""2335397""
","""event"",""trial"",""time""
""focus"",""7"",""1042985""
""focus"",""7"",""1045283""
""focus"",""19"",""40431603""
","""event"",""trial"",""time""
""fullscreenenter"",""1"",""5644""
","
","","","-1","","","14","3498","2165","&#9826;","elianto","#f73b6a7A","-1","-1","1","0","[]","0","0","3","","","","","","","",""
"call-function","79","40803734","0.0-2.0-15.0","battery-v0.2","","""event"",""trial"",""time""
""fullscreenenter"",""1"",""5644""
""blur"",""7"",""1042926""
""focus"",""7"",""1042985""
""blur"",""7"",""1043256""
""focus"",""7"",""1045283""
""blur"",""19"",""2335397""
""focus"",""19"",""40431603""
","""event"",""trial"",""time""
""blur"",""7"",""1042926""
""blur"",""7"",""1043256""
""blur"",""19"",""2335397""
","""event"",""trial"",""time""
""focus"",""7"",""1042985""
""focus"",""7"",""1045283""
""focus"",""19"",""40431603""
","""event"",""trial"",""time""
""fullscreenenter"",""1"",""5644""
","
","","","","","","","","","","","","","","","","","","","","","","","","","","",""
"pit-instructions","80","40831108","0.0-2.0-16.0","battery-v0.2","","""event"",""trial"",""time""
""fullscreenenter"",""1"",""5644""
""blur"",""7"",""1042926""
""focus"",""7"",""1042985""
""blur"",""7"",""1043256""
""focus"",""7"",""1045283""
""blur"",""19"",""2335397""
""focus"",""19"",""40431603""
","""event"",""trial"",""time""
""blur"",""7"",""1042926""
""blur"",""7"",""1043256""
""blur"",""19"",""2335397""
","""event"",""trial"",""time""
""focus"",""7"",""1042985""
""focus"",""7"",""1045283""
""focus"",""19"",""40431603""
","""event"",""trial"",""time""
""fullscreenenter"",""1"",""5644""
","
","","[{""page_index"":0,""viewing_time"":7877.300000190735},{""page_index"":1,""viewing_time"":9220.299999952316},{""page_index"":2,""viewing_time"":5633.700000047684},{""page_index"":3,""viewing_time"":4640.5}]","27373.10000014305","","","","","","","","","","","","","","","","","","","","","","","",""
"pit-trial","81","40834358","0.0-2.0-17.0-0.0","battery-v0.2","","""event"",""trial"",""time""
""fullscreenenter"",""1"",""5644""
""blur"",""7"",""1042926""
""focus"",""7"",""1042985""
""blur"",""7"",""1043256""
""focus"",""7"",""1045283""
""blur"",""19"",""2335397""
""focus"",""19"",""40431603""
","""event"",""trial"",""time""
""blur"",""7"",""1042926""
""blur"",""7"",""1043256""
""blur"",""19"",""2335397""
","""event"",""trial"",""time""
""focus"",""7"",""1042985""
""focus"",""7"",""1045283""
""focus"",""19"",""40431603""
","""event"",""trial"",""time""
""fullscreenenter"",""1"",""5644""
","
","","","387","","","14","3498","2165","&#9789;","elianto","#f73b6a7A"," "," ","1","0","[1241.2999999523163,1828.2999999523163,2485.5999999046326]","3","0","4","","","","","","","",""
"pit-trial","82","40837302","0.0-2.0-17.0-1.0","battery-v0.2","","""event"",""trial"",""time""
""fullscreenenter"",""1"",""5644""
""blur"",""7"",""1042926""
""focus"",""7"",""1042985""
""blur"",""7"",""1043256""
""focus"",""7"",""1045283""
""blur"",""19"",""2335397""
""focus"",""19"",""40431603""
","""event"",""trial"",""time""
""blur"",""7"",""1042926""
""blur"",""7"",""1043256""
""blur"",""19"",""2335397""
","""event"",""trial"",""time""
""focus"",""7"",""1042985""
""focus"",""7"",""1045283""
""focus"",""19"",""40431603""
","""event"",""trial"",""time""
""fullscreenenter"",""1"",""5644""
","
","","","85.79999995231628","","","14","3498","2165","&#9789;","elianto","#f73b6a7A"," "," ","1","0","[39.200000047683716,937.6000001430511,1683.3000001907349,2435.100000143051]","4","0","4","","","","","","","",""
"pit-trial","83","40840403","0.0-2.0-17.0-2.0","battery-v0.2","","""event"",""trial"",""time""
""fullscreenenter"",""1"",""5644""
""blur"",""7"",""1042926""
""focus"",""7"",""1042985""
""blur"",""7"",""1043256""
""focus"",""7"",""1045283""
""blur"",""19"",""2335397""
""focus"",""19"",""40431603""
","""event"",""trial"",""time""
""blur"",""7"",""1042926""
""blur"",""7"",""1043256""
""blur"",""19"",""2335397""
","""event"",""trial"",""time""
""focus"",""7"",""1042985""
""focus"",""7"",""1045283""
""focus"",""19"",""40431603""
","""event"",""trial"",""time""
""fullscreenenter"",""1"",""5644""
","
","","","235.70000004768372","","","14","3498","2165","&#9789;","elianto","#f73b6a7A"," "," ","1","0","[323.30000019073486,1090.6000001430511,1902.3000001907349,2722.800000190735]","4","0","4","","","","","","","",""
"pit-trial","84","40843494","0.0-2.0-17.0-3.0","battery-v0.2","","""event"",""trial"",""time""
""fullscreenenter"",""1"",""5644""
""blur"",""7"",""1042926""
""focus"",""7"",""1042985""
""blur"",""7"",""1043256""
""focus"",""7"",""1045283""
""blur"",""19"",""2335397""
""focus"",""19"",""40431603""
","""event"",""trial"",""time""
""blur"",""7"",""1042926""
""blur"",""7"",""1043256""
""blur"",""19"",""2335397""
","""event"",""trial"",""time""
""focus"",""7"",""1042985""
""focus"",""7"",""1045283""
""focus"",""19"",""40431603""
","""event"",""trial"",""time""
""fullscreenenter"",""1"",""5644""
","
","","","219.60000014305115","","","14","3498","2165","&#9789;","elianto","#f73b6a7A"," "," ","1","-10","[355,1073.1000001430511,1864.7000000476837,2624.5]","4","0","4","","","","","","","",""
"pit-trial","85","40846733","0.0-2.0-17.0-4.0","battery-v0.2","","""event"",""trial"",""time""
""fullscreenenter"",""1"",""5644""
""blur"",""7"",""1042926""
""focus"",""7"",""1042985""
""blur"",""7"",""1043256""
""focus"",""7"",""1045283""
""blur"",""19"",""2335397""
""focus"",""19"",""40431603""
","""event"",""trial"",""time""
""blur"",""7"",""1042926""
""blur"",""7"",""1043256""
""blur"",""19"",""2335397""
","""event"",""trial"",""time""
""focus"",""7"",""1042985""
""focus"",""7"",""1045283""
""focus"",""19"",""40431603""
","""event"",""trial"",""time""
""fullscreenenter"",""1"",""5644""
","
","","","377","","","14","3498","2165","&#9789;","elianto","#f73b6a7A"," "," ","1","0","[510.7000000476837,1228.6000001430511,1868,2710.2999999523163,3123.2999999523163]","5","0","4","","","","","","","",""
"pit-trial","86","40849713","0.0-2.0-17.1-0.1","battery-v0.2","","""event"",""trial"",""time""
""fullscreenenter"",""1"",""5644""
""blur"",""7"",""1042926""
""focus"",""7"",""1042985""
""blur"",""7"",""1043256""
""focus"",""7"",""1045283""
""blur"",""19"",""2335397""
""focus"",""19"",""40431603""
","""event"",""trial"",""time""
""blur"",""7"",""1042926""
""blur"",""7"",""1043256""
""blur"",""19"",""2335397""
","""event"",""trial"",""time""
""focus"",""7"",""1042985""
""focus"",""7"",""1045283""
""focus"",""19"",""40431603""
","""event"",""trial"",""time""
""fullscreenenter"",""1"",""5644""
","
","","","112.80000019073486","","","14","3498","2165","&#9789;","elianto","#f73b6a7A"," "," ","1","0","[106.80000019073486,496.80000019073486,969.3000001907349,1486.6000001430511,1949.8000001907349,2376.7000000476837,2873.600000143051]","7","0","4","","","","","","","",""
"pit-trial","87","40852803","0.0-2.0-17.1-1.1","battery-v0.2","","""event"",""trial"",""time""
""fullscreenenter"",""1"",""5644""
""blur"",""7"",""1042926""
""focus"",""7"",""1042985""
""blur"",""7"",""1043256""
""focus"",""7"",""1045283""
""blur"",""19"",""2335397""
""focus"",""19"",""40431603""
","""event"",""trial"",""time""
""blur"",""7"",""1042926""
""blur"",""7"",""1043256""
""blur"",""19"",""2335397""
","""event"",""trial"",""time""
""focus"",""7"",""1042985""
""focus"",""7"",""1045283""
""focus"",""19"",""40431603""
","""event"",""trial"",""time""
""fullscreenenter"",""1"",""5644""
","
","","","230.39999985694885","","","14","3498","2165","&#9789;","elianto","#f73b6a7A"," "," ","1","0","[670.7999999523163,1081.4000000953674,1638.6000001430511,2135.9000000953674,2632.4000000953674]","5","0","4","","","","","","","",""
"pit-trial","88","40855882","0.0-2.0-17.1-2.1","battery-v0.2","","""event"",""trial"",""time""
""fullscreenenter"",""1"",""5644""
""blur"",""7"",""1042926""
""focus"",""7"",""1042985""
""blur"",""7"",""1043256""
""focus"",""7"",""1045283""
""blur"",""19"",""2335397""
""focus"",""19"",""40431603""
","""event"",""trial"",""time""
""blur"",""7"",""1042926""
""blur"",""7"",""1043256""
""blur"",""19"",""2335397""
","""event"",""trial"",""time""
""focus"",""7"",""1042985""
""focus"",""7"",""1045283""
""focus"",""19"",""40431603""
","""event"",""trial"",""time""
""fullscreenenter"",""1"",""5644""
","
","","","223.79999995231628","","","14","3498","2165","&#9789;","elianto","#f73b6a7A"," "," ","1","0","[74.90000009536743,598.9000000953674,1074.7000000476837,1581,2138.7999999523163,2686.2000000476837]","6","0","4","","","","","","","",""
"pit-trial","89","40859443","0.0-2.0-17.1-3.1","battery-v0.2","","""event"",""trial"",""time""
""fullscreenenter"",""1"",""5644""
""blur"",""7"",""1042926""
""focus"",""7"",""1042985""
""blur"",""7"",""1043256""
""focus"",""7"",""1045283""
""blur"",""19"",""2335397""
""focus"",""19"",""40431603""
","""event"",""trial"",""time""
""blur"",""7"",""1042926""
""blur"",""7"",""1043256""
""blur"",""19"",""2335397""
","""event"",""trial"",""time""
""focus"",""7"",""1042985""
""focus"",""7"",""1045283""
""focus"",""19"",""40431603""
","""event"",""trial"",""time""
""fullscreenenter"",""1"",""5644""
","
","","","700.4000000953674","","","14","3498","2165","&#9789;","elianto","#f73b6a7A"," "," ","1","-10","[183.59999990463257,723.1999998092651,1553,1898.3999998569489,2321.5,2779.5,3125.2999999523163,3530.7999999523163]","8","0","4","","","","","","","",""
"pit-trial","90","40862640","0.0-2.0-17.1-4.1","battery-v0.2","","""event"",""trial"",""time""
""fullscreenenter"",""1"",""5644""
""blur"",""7"",""1042926""
""focus"",""7"",""1042985""
""blur"",""7"",""1043256""
""focus"",""7"",""1045283""
""blur"",""19"",""2335397""
""focus"",""19"",""40431603""
","""event"",""trial"",""time""
""blur"",""7"",""1042926""
""blur"",""7"",""1043256""
""blur"",""19"",""2335397""
","""event"",""trial"",""time""
""focus"",""7"",""1042985""
""focus"",""7"",""1045283""
""focus"",""19"",""40431603""
","""event"",""trial"",""time""
""fullscreenenter"",""1"",""5644""
","
","","","334.59999990463257","","","14","3498","2165","&#9789;","elianto","#f73b6a7A"," "," ","1","0","[361.5,852.7000000476837,1187.4000000953674,1480.1000001430511,1976.7000000476837,2330.2000000476837,2665.4000000953674,3193]","8","0","4","","","","","","","",""
"pit-trial","91","40865797","0.0-2.0-17.2-0.2","battery-v0.2","","""event"",""trial"",""time""
""fullscreenenter"",""1"",""5644""
""blur"",""7"",""1042926""
""focus"",""7"",""1042985""
""blur"",""7"",""1043256""
""focus"",""7"",""1045283""
""blur"",""19"",""2335397""
""focus"",""19"",""40431603""
","""event"",""trial"",""time""
""blur"",""7"",""1042926""
""blur"",""7"",""1043256""
""blur"",""19"",""2335397""
","""event"",""trial"",""time""
""focus"",""7"",""1042985""
""focus"",""7"",""1045283""
""focus"",""19"",""40431603""
","""event"",""trial"",""time""
""fullscreenenter"",""1"",""5644""
","
","","","284.59999990463257","","","14","3498","2165","&#9789;","elianto","#f73b6a7A"," "," ","1","0","[277.89999985694885,579.2999999523163,848.5999999046326,1137.5,1384.2000000476837,1645.7999999523163,2031.8999998569489,2326.5,2598.5999999046326,2853.399999856949]","10","0","4","","","","","","","",""
"pit-trial","92","40869010","0.0-2.0-17.2-1.2","battery-v0.2","","""event"",""trial"",""time""
""fullscreenenter"",""1"",""5644""
""blur"",""7"",""1042926""
""focus"",""7"",""1042985""
""blur"",""7"",""1043256""
""focus"",""7"",""1045283""
""blur"",""19"",""2335397""
""focus"",""19"",""40431603""
","""event"",""trial"",""time""
""blur"",""7"",""1042926""
""blur"",""7"",""1043256""
""blur"",""19"",""2335397""
","""event"",""trial"",""time""
""focus"",""7"",""1042985""
""focus"",""7"",""1045283""
""focus"",""19"",""40431603""
","""event"",""trial"",""time""
""fullscreenenter"",""1"",""5644""
","
","","","346.10000014305115","","","14","3498","2165","&#9789;","elianto","#f73b6a7A"," "," ","1","0","[5,277.09999990463257,542.2000000476837,844.5999999046326,1201.2999999523163,1452,1727,2009,2283.5,2579.2999999523163,2830.5,3105.7000000476837]","12","0","4","","","","","","","",""
"pit-trial","93","40872100","0.0-2.0-17.2-2.2","battery-v0.2","","""event"",""trial"",""time""
""fullscreenenter"",""1"",""5644""
""blur"",""7"",""1042926""
""focus"",""7"",""1042985""
""blur"",""7"",""1043256""
""focus"",""7"",""1045283""
""blur"",""19"",""2335397""
""focus"",""19"",""40431603""
","""event"",""trial"",""time""
""blur"",""7"",""1042926""
""blur"",""7"",""1043256""
""blur"",""19"",""2335397""
","""event"",""trial"",""time""
""focus"",""7"",""1042985""
""focus"",""7"",""1045283""
""focus"",""19"",""40431603""
","""event"",""trial"",""time""
""fullscreenenter"",""1"",""5644""
","
","","","225.5","","","14","3498","2165","&#9789;","elianto","#f73b6a7A"," "," ","1","0","[439.69999980926514,782.3999998569489,1077.7999999523163,1383.3999998569489,1665.5,1939.7999999523163,2221,2486.399999856949,2788.2999999523163]","9","0","4","","","","","","","",""
"pit-trial","94","40875398","0.0-2.0-17.2-3.2","battery-v0.2","","""event"",""trial"",""time""
""fullscreenenter"",""1"",""5644""
""blur"",""7"",""1042926""
""focus"",""7"",""1042985""
""blur"",""7"",""1043256""
""focus"",""7"",""1045283""
""blur"",""19"",""2335397""
""focus"",""19"",""40431603""
","""event"",""trial"",""time""
""blur"",""7"",""1042926""
""blur"",""7"",""1043256""
""blur"",""19"",""2335397""
","""event"",""trial"",""time""
""focus"",""7"",""1042985""
""focus"",""7"",""1045283""
""focus"",""19"",""40431603""
","""event"",""trial"",""time""
""fullscreenenter"",""1"",""5644""
","
","","","425","","","14","3498","2165","&#9789;","elianto","#f73b6a7A"," "," ","1","-10","[381.10000014305115,839.7000000476837,1280.8000001907349,1637.6000001430511,1922,2244.2000000476837,2568.800000190735,2855.100000143051]","8","0","4","","","","","","","",""
"pit-trial","95","40880255","0.0-2.0-17.2-4.2","battery-v0.2","","""event"",""trial"",""time""
""fullscreenenter"",""1"",""5644""
""blur"",""7"",""1042926""
""focus"",""7"",""1042985""
""blur"",""7"",""1043256""
""focus"",""7"",""1045283""
""blur"",""19"",""2335397""
""focus"",""19"",""40431603""
","""event"",""trial"",""time""
""blur"",""7"",""1042926""
""blur"",""7"",""1043256""
""blur"",""19"",""2335397""
","""event"",""trial"",""time""
""focus"",""7"",""1042985""
""focus"",""7"",""1045283""
""focus"",""19"",""40431603""
","""event"",""trial"",""time""
""fullscreenenter"",""1"",""5644""
","
","","","-1","","","14","3498","2165","&#9789;","elianto","#f73b6a7A"," ","-1","0","-10","[4792.199999809265]","1","0","4","","","","","","","",""
"pit-trial","96","40883439","0.0-2.0-17.3-0.3","battery-v0.2","","""event"",""trial"",""time""
""fullscreenenter"",""1"",""5644""
""blur"",""7"",""1042926""
""focus"",""7"",""1042985""
""blur"",""7"",""1043256""
""focus"",""7"",""1045283""
""blur"",""19"",""2335397""
""focus"",""19"",""40431603""
","""event"",""trial"",""time""
""blur"",""7"",""1042926""
""blur"",""7"",""1043256""
""blur"",""19"",""2335397""
","""event"",""trial"",""time""
""focus"",""7"",""1042985""
""focus"",""7"",""1045283""
""focus"",""19"",""40431603""
","""event"",""trial"",""time""
""fullscreenenter"",""1"",""5644""
","
","","","312","","","14","3498","2165","&#9789;","elianto","#f73b6a7A"," "," ","1","0","[534.5999999046326,1169.7000000476837,1841.4000000953674]","3","0","4","","","","","","","",""
"pit-trial","97","40887367","0.0-2.0-17.3-1.3","battery-v0.2","","""event"",""trial"",""time""
""fullscreenenter"",""1"",""5644""
""blur"",""7"",""1042926""
""focus"",""7"",""1042985""
""blur"",""7"",""1043256""
""focus"",""7"",""1045283""
""blur"",""19"",""2335397""
""focus"",""19"",""40431603""
","""event"",""trial"",""time""
""blur"",""7"",""1042926""
""blur"",""7"",""1043256""
""blur"",""19"",""2335397""
","""event"",""trial"",""time""
""focus"",""7"",""1042985""
""focus"",""7"",""1045283""
""focus"",""19"",""40431603""
","""event"",""trial"",""time""
""fullscreenenter"",""1"",""5644""
","
","","","1069.6000001430511","","","14","3498","2165","&#9789;","elianto","#f73b6a7A"," "," ","1","0","[1922.3999998569489]","1","0","4","","","","","","","",""
"pit-trial","98","40891788","0.0-2.0-17.3-2.3","battery-v0.2","","""event"",""trial"",""time""
""fullscreenenter"",""1"",""5644""
""blur"",""7"",""1042926""
""focus"",""7"",""1042985""
""blur"",""7"",""1043256""
""focus"",""7"",""1045283""
""blur"",""19"",""2335397""
""focus"",""19"",""40431603""
","""event"",""trial"",""time""
""blur"",""7"",""1042926""
""blur"",""7"",""1043256""
""blur"",""19"",""2335397""
","""event"",""trial"",""time""
""focus"",""7"",""1042985""
""focus"",""7"",""1045283""
""focus"",""19"",""40431603""
","""event"",""trial"",""time""
""fullscreenenter"",""1"",""5644""
","
","","","1554.6000001430511","","","14","3498","2165","&#9789;","elianto","#f73b6a7A"," "," ","1","0","[2412.600000143051]","1","0","4","","","","","","","",""
"pit-trial","99","40895060","0.0-2.0-17.3-3.3","battery-v0.2","","""event"",""trial"",""time""
""fullscreenenter"",""1"",""5644""
""blur"",""7"",""1042926""
""focus"",""7"",""1042985""
""blur"",""7"",""1043256""
""focus"",""7"",""1045283""
""blur"",""19"",""2335397""
""focus"",""19"",""40431603""
","""event"",""trial"",""time""
""blur"",""7"",""1042926""
""blur"",""7"",""1043256""
""blur"",""19"",""2335397""
","""event"",""trial"",""time""
""focus"",""7"",""1042985""
""focus"",""7"",""1045283""
""focus"",""19"",""40431603""
","""event"",""trial"",""time""
""fullscreenenter"",""1"",""5644""
","
","","","403","","","14","3498","2165","&#9789;","elianto","#f73b6a7A"," "," ","1","-10","[1259.6000001430511,1806,2406.600000143051,2972.4000000953674]","4","0","4","","","","","","","",""
"pit-trial","100","40897981","0.0-2.0-17.3-4.3","battery-v0.2","","""event"",""trial"",""time""
""fullscreenenter"",""1"",""5644""
""blur"",""7"",""1042926""
""focus"",""7"",""1042985""
""blur"",""7"",""1043256""
""focus"",""7"",""1045283""
""blur"",""19"",""2335397""
""focus"",""19"",""40431603""
","""event"",""trial"",""time""
""blur"",""7"",""1042926""
""blur"",""7"",""1043256""
""blur"",""19"",""2335397""
","""event"",""trial"",""time""
""focus"",""7"",""1042985""
""focus"",""7"",""1045283""
""focus"",""19"",""40431603""
","""event"",""trial"",""time""
""fullscreenenter"",""1"",""5644""
","
","","","59.60000014305115","","","14","3498","2165","&#9789;","elianto","#f73b6a7A"," "," ","1","0","[332.80000019073486,910.7000000476837,1387.2000000476837,2108.100000143051,2776.800000190735]","5","0","4","","","","","","","",""
"call-function","101","40897984","0.0-2.0-18.0","battery-v0.2","","""event"",""trial"",""time""
""fullscreenenter"",""1"",""5644""
""blur"",""7"",""1042926""
""focus"",""7"",""1042985""
""blur"",""7"",""1043256""
""focus"",""7"",""1045283""
""blur"",""19"",""2335397""
""focus"",""19"",""40431603""
","""event"",""trial"",""time""
""blur"",""7"",""1042926""
""blur"",""7"",""1043256""
""blur"",""19"",""2335397""
","""event"",""trial"",""time""
""focus"",""7"",""1042985""
""focus"",""7"",""1045283""
""focus"",""19"",""40431603""
","""event"",""trial"",""time""
""fullscreenenter"",""1"",""5644""
","
","","","","","","","","","","","","","","","","","","","","","","","","","","",""
"pit-instructions","102","40971915","0.0-2.0-19.0","battery-v0.2","","""event"",""trial"",""time""
""fullscreenenter"",""1"",""5644""
""blur"",""7"",""1042926""
""focus"",""7"",""1042985""
""blur"",""7"",""1043256""
""focus"",""7"",""1045283""
""blur"",""19"",""2335397""
""focus"",""19"",""40431603""
","""event"",""trial"",""time""
""blur"",""7"",""1042926""
""blur"",""7"",""1043256""
""blur"",""19"",""2335397""
","""event"",""trial"",""time""
""focus"",""7"",""1042985""
""focus"",""7"",""1045283""
""focus"",""19"",""40431603""
","""event"",""trial"",""time""
""fullscreenenter"",""1"",""5644""
","
","","[{""page_index"":0,""viewing_time"":13161.900000095367},{""page_index"":1,""viewing_time"":4159},{""page_index"":2,""viewing_time"":14758.599999904633},{""page_index"":3,""viewing_time"":7166.299999952316},{""page_index"":4,""viewing_time"":7019.299999952316},{""page_index"":5,""viewing_time"":8742.300000190735},{""page_index"":6,""viewing_time"":6436.299999952316},{""page_index"":7,""viewing_time"":7958.5},{""page_index"":8,""viewing_time"":4525.799999952316}]","73929.29999995232","","","","","","","","","","","","","","","","","","","","","","","",""
"pit-comprehension","103","40980440","0.0-2.0-20.0-0.0","battery-v0.2","","""event"",""trial"",""time""
""fullscreenenter"",""1"",""5644""
""blur"",""7"",""1042926""
""focus"",""7"",""1042985""
""blur"",""7"",""1043256""
""focus"",""7"",""1045283""
""blur"",""19"",""2335397""
""focus"",""19"",""40431603""
","""event"",""trial"",""time""
""blur"",""7"",""1042926""
""blur"",""7"",""1043256""
""blur"",""19"",""2335397""
","""event"",""trial"",""time""
""focus"",""7"",""1042985""
""focus"",""7"",""1045283""
""focus"",""19"",""40431603""
","""event"",""trial"",""time""
""fullscreenenter"",""1"",""5644""
","
","","","8513.699999809265","[""SPACE""]","0","14","3498","2165","","","","","","","","","","","","","","","","","","",""
"pit-instructions","104","40986919","0.0-2.0-20.0-1.0","battery-v0.2","","""event"",""trial"",""time""
""fullscreenenter"",""1"",""5644""
""blur"",""7"",""1042926""
""focus"",""7"",""1042985""
""blur"",""7"",""1043256""
""focus"",""7"",""1045283""
""blur"",""19"",""2335397""
""focus"",""19"",""40431603""
","""event"",""trial"",""time""
""blur"",""7"",""1042926""
""blur"",""7"",""1043256""
""blur"",""19"",""2335397""
","""event"",""trial"",""time""
""focus"",""7"",""1042985""
""focus"",""7"",""1045283""
""focus"",""19"",""40431603""
","""event"",""trial"",""time""
""fullscreenenter"",""1"",""5644""
","
","","[{""page_index"":0,""viewing_time"":6312.099999904633}]","6313.299999952316","","","","","","","","","","","","","","","","","","","","","","","",""
"pit-comprehension","105","40994921","0.0-2.0-21.0-0.0","battery-v0.2","","""event"",""trial"",""time""
""fullscreenenter"",""1"",""5644""
""blur"",""7"",""1042926""
""focus"",""7"",""1042985""
""blur"",""7"",""1043256""
""focus"",""7"",""1045283""
""blur"",""19"",""2335397""
""focus"",""19"",""40431603""
","""event"",""trial"",""time""
""blur"",""7"",""1042926""
""blur"",""7"",""1043256""
""blur"",""19"",""2335397""
","""event"",""trial"",""time""
""focus"",""7"",""1042985""
""focus"",""7"",""1045283""
""focus"",""19"",""40431603""
","""event"",""trial"",""time""
""fullscreenenter"",""1"",""5644""
","
","","","7987.300000190735","[""10""]","0","14","3498","2165","","","","","","","","","","","","","","","","","","",""
"pit-instructions","106","40997341","0.0-2.0-21.0-1.0","battery-v0.2","","""event"",""trial"",""time""
""fullscreenenter"",""1"",""5644""
""blur"",""7"",""1042926""
""focus"",""7"",""1042985""
""blur"",""7"",""1043256""
""focus"",""7"",""1045283""
""blur"",""19"",""2335397""
""focus"",""19"",""40431603""
","""event"",""trial"",""time""
""blur"",""7"",""1042926""
""blur"",""7"",""1043256""
""blur"",""19"",""2335397""
","""event"",""trial"",""time""
""focus"",""7"",""1042985""
""focus"",""7"",""1045283""
""focus"",""19"",""40431603""
","""event"",""trial"",""time""
""fullscreenenter"",""1"",""5644""
","
","","[{""page_index"":0,""viewing_time"":2239.5}]","2240.4000000953674","","","","","","","","","","","","","","","","","","","","","","","",""
"pit-comprehension","107","41006811","0.0-2.0-22.0-0.0","battery-v0.2","","""event"",""trial"",""time""
""fullscreenenter"",""1"",""5644""
""blur"",""7"",""1042926""
""focus"",""7"",""1042985""
""blur"",""7"",""1043256""
""focus"",""7"",""1045283""
""blur"",""19"",""2335397""
""focus"",""19"",""40431603""
","""event"",""trial"",""time""
""blur"",""7"",""1042926""
""blur"",""7"",""1043256""
""blur"",""19"",""2335397""
","""event"",""trial"",""time""
""focus"",""7"",""1042985""
""focus"",""7"",""1045283""
""focus"",""19"",""40431603""
","""event"",""trial"",""time""
""fullscreenenter"",""1"",""5644""
","
","","","9457","[""0""]","0","14","3498","2165","","","","","","","","","","","","","","","","","","",""
"pit-instructions","108","41016969","0.0-2.0-22.0-1.0","battery-v0.2","","""event"",""trial"",""time""
""fullscreenenter"",""1"",""5644""
""blur"",""7"",""1042926""
""focus"",""7"",""1042985""
""blur"",""7"",""1043256""
""focus"",""7"",""1045283""
""blur"",""19"",""2335397""
""focus"",""19"",""40431603""
","""event"",""trial"",""time""
""blur"",""7"",""1042926""
""blur"",""7"",""1043256""
""blur"",""19"",""2335397""
","""event"",""trial"",""time""
""focus"",""7"",""1042985""
""focus"",""7"",""1045283""
""focus"",""19"",""40431603""
","""event"",""trial"",""time""
""fullscreenenter"",""1"",""5644""
","
","","[{""page_index"":0,""viewing_time"":9946.799999952316}]","9947.799999952316","","","","","","","","","","","","","","","","","","","","","","","",""
"pit-comprehension","109","41027036","0.0-2.0-23.0-0.0","battery-v0.2","","""event"",""trial"",""time""
""fullscreenenter"",""1"",""5644""
""blur"",""7"",""1042926""
""focus"",""7"",""1042985""
""blur"",""7"",""1043256""
""focus"",""7"",""1045283""
""blur"",""19"",""2335397""
""focus"",""19"",""40431603""
","""event"",""trial"",""time""
""blur"",""7"",""1042926""
""blur"",""7"",""1043256""
""blur"",""19"",""2335397""
","""event"",""trial"",""time""
""focus"",""7"",""1042985""
""focus"",""7"",""1045283""
""focus"",""19"",""40431603""
","""event"",""trial"",""time""
""fullscreenenter"",""1"",""5644""
","
","","","10059.900000095367","[""True""]","0","14","3498","2165","","","","","","","","","","","","","","","","","","",""
"pit-instructions","110","41030440","0.0-2.0-23.0-1.0","battery-v0.2","","""event"",""trial"",""time""
""fullscreenenter"",""1"",""5644""
""blur"",""7"",""1042926""
""focus"",""7"",""1042985""
""blur"",""7"",""1043256""
""focus"",""7"",""1045283""
""blur"",""19"",""2335397""
""focus"",""19"",""40431603""
","""event"",""trial"",""time""
""blur"",""7"",""1042926""
""blur"",""7"",""1043256""
""blur"",""19"",""2335397""
","""event"",""trial"",""time""
""focus"",""7"",""1042985""
""focus"",""7"",""1045283""
""focus"",""19"",""40431603""
","""event"",""trial"",""time""
""fullscreenenter"",""1"",""5644""
","
","","[{""page_index"":0,""viewing_time"":3286.5999999046326}]","3288.0999999046326","","","","","","","","","","","","","","","","","","","","","","","",""
"pit-comprehension","111","41038428","0.0-2.0-24.0-0.0","battery-v0.2","","""event"",""trial"",""time""
""fullscreenenter"",""1"",""5644""
""blur"",""7"",""1042926""
""focus"",""7"",""1042985""
""blur"",""7"",""1043256""
""focus"",""7"",""1045283""
""blur"",""19"",""2335397""
""focus"",""19"",""40431603""
","""event"",""trial"",""time""
""blur"",""7"",""1042926""
""blur"",""7"",""1043256""
""blur"",""19"",""2335397""
","""event"",""trial"",""time""
""focus"",""7"",""1042985""
""focus"",""7"",""1045283""
""focus"",""19"",""40431603""
","""event"",""trial"",""time""
""fullscreenenter"",""1"",""5644""
","
","","","7979.299999952316","[""True""]","0","14","3498","2165","","","","","","","","","","","","","","","","","","",""
"pit-instructions","112","41049557","0.0-2.0-24.0-1.0","battery-v0.2","","""event"",""trial"",""time""
""fullscreenenter"",""1"",""5644""
""blur"",""7"",""1042926""
""focus"",""7"",""1042985""
""blur"",""7"",""1043256""
""focus"",""7"",""1045283""
""blur"",""19"",""2335397""
""focus"",""19"",""40431603""
","""event"",""trial"",""time""
""blur"",""7"",""1042926""
""blur"",""7"",""1043256""
""blur"",""19"",""2335397""
","""event"",""trial"",""time""
""focus"",""7"",""1042985""
""focus"",""7"",""1045283""
""focus"",""19"",""40431603""
","""event"",""trial"",""time""
""fullscreenenter"",""1"",""5644""
","
","","[{""page_index"":0,""viewing_time"":11026.700000047684}]","11027.099999904633","","","","","","","","","","","","","","","","","","","","","","","",""
"pit-comprehension","113","41056927","0.0-2.0-25.0-0.0","battery-v0.2","","""event"",""trial"",""time""
""fullscreenenter"",""1"",""5644""
""blur"",""7"",""1042926""
""focus"",""7"",""1042985""
""blur"",""7"",""1043256""
""focus"",""7"",""1045283""
""blur"",""19"",""2335397""
""focus"",""19"",""40431603""
","""event"",""trial"",""time""
""blur"",""7"",""1042926""
""blur"",""7"",""1043256""
""blur"",""19"",""2335397""
","""event"",""trial"",""time""
""focus"",""7"",""1042985""
""focus"",""7"",""1045283""
""focus"",""19"",""40431603""
","""event"",""trial"",""time""
""fullscreenenter"",""1"",""5644""
","
","","","7365.200000047684","[""True""]","0","14","3498","2165","","","","","","","","","","","","","","","","","","",""
"pit-instructions","114","41059176","0.0-2.0-25.0-1.0","battery-v0.2","","""event"",""trial"",""time""
""fullscreenenter"",""1"",""5644""
""blur"",""7"",""1042926""
""focus"",""7"",""1042985""
""blur"",""7"",""1043256""
""focus"",""7"",""1045283""
""blur"",""19"",""2335397""
""focus"",""19"",""40431603""
","""event"",""trial"",""time""
""blur"",""7"",""1042926""
""blur"",""7"",""1043256""
""blur"",""19"",""2335397""
","""event"",""trial"",""time""
""focus"",""7"",""1042985""
""focus"",""7"",""1045283""
""focus"",""19"",""40431603""
","""event"",""trial"",""time""
""fullscreenenter"",""1"",""5644""
","
","","[{""page_index"":0,""viewing_time"":2168.7999999523163}]","2169.2999999523163","","","","","","","","","","","","","","","","","","","","","","","",""
"pit-comprehension","115","41066449","0.0-2.0-26.0-0.0","battery-v0.2","","""event"",""trial"",""time""
""fullscreenenter"",""1"",""5644""
""blur"",""7"",""1042926""
""focus"",""7"",""1042985""
""blur"",""7"",""1043256""
""focus"",""7"",""1045283""
""blur"",""19"",""2335397""
""focus"",""19"",""40431603""
","""event"",""trial"",""time""
""blur"",""7"",""1042926""
""blur"",""7"",""1043256""
""blur"",""19"",""2335397""
","""event"",""trial"",""time""
""focus"",""7"",""1042985""
""focus"",""7"",""1045283""
""focus"",""19"",""40431603""
","""event"",""trial"",""time""
""fullscreenenter"",""1"",""5644""
","
","","","7265.899999856949","[""False""]","0","14","3498","2165","","","","","","","","","","","","","","","","","","",""
"pit-instructions","116","41068598","0.0-2.0-26.0-1.0","battery-v0.2","","""event"",""trial"",""time""
""fullscreenenter"",""1"",""5644""
""blur"",""7"",""1042926""
""focus"",""7"",""1042985""
""blur"",""7"",""1043256""
""focus"",""7"",""1045283""
""blur"",""19"",""2335397""
""focus"",""19"",""40431603""
","""event"",""trial"",""time""
""blur"",""7"",""1042926""
""blur"",""7"",""1043256""
""blur"",""19"",""2335397""
","""event"",""trial"",""time""
""focus"",""7"",""1042985""
""focus"",""7"",""1045283""
""focus"",""19"",""40431603""
","""event"",""trial"",""time""
""fullscreenenter"",""1"",""5644""
","
","","[{""page_index"":0,""viewing_time"":1945.2999999523163}]","1946.1999998092651","","","","","","","","","","","","","","","","","","","","","","","",""
"pit-instructions","117","41091106","0.0-3.0","battery-v0.2","","""event"",""trial"",""time""
""fullscreenenter"",""1"",""5644""
""blur"",""7"",""1042926""
""focus"",""7"",""1042985""
""blur"",""7"",""1043256""
""focus"",""7"",""1045283""
""blur"",""19"",""2335397""
""focus"",""19"",""40431603""
","""event"",""trial"",""time""
""blur"",""7"",""1042926""
""blur"",""7"",""1043256""
""blur"",""19"",""2335397""
","""event"",""trial"",""time""
""focus"",""7"",""1042985""
""focus"",""7"",""1045283""
""focus"",""19"",""40431603""
","""event"",""trial"",""time""
""fullscreenenter"",""1"",""5644""
","
","","[{""page_index"":0,""viewing_time"":4473.900000095367},{""page_index"":1,""viewing_time"":6400.5},{""page_index"":2,""viewing_time"":11627.599999904633}]","22503.10000014305","","","","","","","","","","","","","","","","","","","","","","","",""
"pit-trial","118","41094856","0.0-4.0","battery-v0.2","","""event"",""trial"",""time""
""fullscreenenter"",""1"",""5644""
""blur"",""7"",""1042926""
""focus"",""7"",""1042985""
""blur"",""7"",""1043256""
""focus"",""7"",""1045283""
""blur"",""19"",""2335397""
""focus"",""19"",""40431603""
","""event"",""trial"",""time""
""blur"",""7"",""1042926""
""blur"",""7"",""1043256""
""blur"",""19"",""2335397""
","""event"",""trial"",""time""
""focus"",""7"",""1042985""
""focus"",""7"",""1045283""
""focus"",""19"",""40431603""
","""event"",""trial"",""time""
""fullscreenenter"",""1"",""5644""
","
","","","873.2999999523163","","","14","3498","2165","&#9733;","elianto","#3366ff99","-1"," ","0","0","[1729.6000001430511]","1","1","","","3498","1","2","2","win","no-go","0"
"pit-trial","119","41099616","0.0-5.0","battery-v0.2","","""event"",""trial"",""time""
""fullscreenenter"",""1"",""5644""
""blur"",""7"",""1042926""
""focus"",""7"",""1042985""
""blur"",""7"",""1043256""
""focus"",""7"",""1045283""
""blur"",""19"",""2335397""
""focus"",""19"",""40431603""
","""event"",""trial"",""time""
""blur"",""7"",""1042926""
""blur"",""7"",""1043256""
""blur"",""19"",""2335397""
","""event"",""trial"",""time""
""focus"",""7"",""1042985""
""focus"",""7"",""1045283""
""focus"",""19"",""40431603""
","""event"",""trial"",""time""
""fullscreenenter"",""1"",""5644""
","
","","","1887.3999998569489","","","14","3498","2165","&#9728;","elianto","#f73b6a7A","-1"," ","0","-10","[2741.5999999046326]","1","1","","","3498","2","0","4","lose","no-go","0"
"pit-trial","120","41103695","0.0-6.0","battery-v0.2","","""event"",""trial"",""time""
""fullscreenenter"",""1"",""5644""
""blur"",""7"",""1042926""
""focus"",""7"",""1042985""
""blur"",""7"",""1043256""
""focus"",""7"",""1045283""
""blur"",""19"",""2335397""
""focus"",""19"",""40431603""
","""event"",""trial"",""time""
""blur"",""7"",""1042926""
""blur"",""7"",""1043256""
""blur"",""19"",""2335397""
","""event"",""trial"",""time""
""focus"",""7"",""1042985""
""focus"",""7"",""1045283""
""focus"",""19"",""40431603""
","""event"",""trial"",""time""
""fullscreenenter"",""1"",""5644""
","
","","","1205.4000000953674","","","14","3498","2165","&#9752;","elianto","#f73b6a7A"," "," ","1","0","[2062]","1","1","","","3498","3","3","3","lose","go","0"
"pit-trial","121","41107735","0.0-7.0","battery-v0.2","","""event"",""trial"",""time""
""fullscreenenter"",""1"",""5644""
""blur"",""7"",""1042926""
""focus"",""7"",""1042985""
""blur"",""7"",""1043256""
""focus"",""7"",""1045283""
""blur"",""19"",""2335397""
""focus"",""19"",""40431603""
","""event"",""trial"",""time""
""blur"",""7"",""1042926""
""blur"",""7"",""1043256""
""blur"",""19"",""2335397""
","""event"",""trial"",""time""
""focus"",""7"",""1042985""
""focus"",""7"",""1045283""
""focus"",""19"",""40431603""
","""event"",""trial"",""time""
""fullscreenenter"",""1"",""5644""
","
","","","1176.7000000476837","","","14","3498","2165","&#9730;","elianto","#3366ff99"," "," ","1","+10","[2034.2000000476837]","1","1","","","3498","4","1","1","win","go","0"
"pit-trial","122","41111892","0.0-8.0","battery-v0.2","","""event"",""trial"",""time""
""fullscreenenter"",""1"",""5644""
""blur"",""7"",""1042926""
""focus"",""7"",""1042985""
""blur"",""7"",""1043256""
""focus"",""7"",""1045283""
""blur"",""19"",""2335397""
""focus"",""19"",""40431603""
","""event"",""trial"",""time""
""blur"",""7"",""1042926""
""blur"",""7"",""1043256""
""blur"",""19"",""2335397""
","""event"",""trial"",""time""
""focus"",""7"",""1042985""
""focus"",""7"",""1045283""
""focus"",""19"",""40431603""
","""event"",""trial"",""time""
""fullscreenenter"",""1"",""5644""
","
","","","1285.5999999046326","","","14","3498","2165","&#9752;","elianto","#f73b6a7A"," "," ","1","0","[2140]","1","1","","","3498","5","3","3","lose","go","0"
"pit-trial","123","41116766","0.0-9.0","battery-v0.2","","""event"",""trial"",""time""
""fullscreenenter"",""1"",""5644""
""blur"",""7"",""1042926""
""focus"",""7"",""1042985""
""blur"",""7"",""1043256""
""focus"",""7"",""1045283""
""blur"",""19"",""2335397""
""focus"",""19"",""40431603""
","""event"",""trial"",""time""
""blur"",""7"",""1042926""
""blur"",""7"",""1043256""
""blur"",""19"",""2335397""
","""event"",""trial"",""time""
""focus"",""7"",""1042985""
""focus"",""7"",""1045283""
""focus"",""19"",""40431603""
","""event"",""trial"",""time""
""fullscreenenter"",""1"",""5644""
","
","","","-1","","","14","3498","2165","&#9733;","elianto","#3366ff99","-1","-1","1","+10","[]","0","1","","","3498","6","2","2","win","no-go","0"
"pit-trial","124","41120588","0.0-10.0","battery-v0.2","","""event"",""trial"",""time""
""fullscreenenter"",""1"",""5644""
""blur"",""7"",""1042926""
""focus"",""7"",""1042985""
""blur"",""7"",""1043256""
""focus"",""7"",""1045283""
""blur"",""19"",""2335397""
""focus"",""19"",""40431603""
","""event"",""trial"",""time""
""blur"",""7"",""1042926""
""blur"",""7"",""1043256""
""blur"",""19"",""2335397""
","""event"",""trial"",""time""
""focus"",""7"",""1042985""
""focus"",""7"",""1045283""
""focus"",""19"",""40431603""
","""event"",""trial"",""time""
""fullscreenenter"",""1"",""5644""
","
","","","962.2000000476837","","","14","3498","2165","&#9730;","elianto","#3366ff99"," "," ","1","0","[1812.5]","1","1","","","3498","7","1","1","win","go","1"
"pit-trial","125","41125460","0.0-11.0","battery-v0.2","","""event"",""trial"",""time""
""fullscreenenter"",""1"",""5644""
""blur"",""7"",""1042926""
""focus"",""7"",""1042985""
""blur"",""7"",""1043256""
""focus"",""7"",""1045283""
""blur"",""19"",""2335397""
""focus"",""19"",""40431603""
","""event"",""trial"",""time""
""blur"",""7"",""1042926""
""blur"",""7"",""1043256""
""blur"",""19"",""2335397""
","""event"",""trial"",""time""
""focus"",""7"",""1042985""
""focus"",""7"",""1045283""
""focus"",""19"",""40431603""
","""event"",""trial"",""time""
""fullscreenenter"",""1"",""5644""
","
","","","-1","","","14","3498","2165","&#9728;","elianto","#f73b6a7A","-1","-1","1","0","[]","0","1","","","3498","8","0","4","lose","no-go","0"
"pit-trial","126","41129174","0.0-12.0","battery-v0.2","","""event"",""trial"",""time""
""fullscreenenter"",""1"",""5644""
""blur"",""7"",""1042926""
""focus"",""7"",""1042985""
""blur"",""7"",""1043256""
""focus"",""7"",""1045283""
""blur"",""19"",""2335397""
""focus"",""19"",""40431603""
","""event"",""trial"",""time""
""blur"",""7"",""1042926""
""blur"",""7"",""1043256""
""blur"",""19"",""2335397""
","""event"",""trial"",""time""
""focus"",""7"",""1042985""
""focus"",""7"",""1045283""
""focus"",""19"",""40431603""
","""event"",""trial"",""time""
""fullscreenenter"",""1"",""5644""
","
","","","849.7999999523163","","","14","3498","2165","&#9730;","elianto","#3366ff99"," "," ","1","+10","[1707.1999998092651]","1","1","","","3498","9","1","1","win","go","0"
"pit-trial","127","41132976","0.0-13.0","battery-v0.2","","""event"",""trial"",""time""
""fullscreenenter"",""1"",""5644""
""blur"",""7"",""1042926""
""focus"",""7"",""1042985""
""blur"",""7"",""1043256""
""focus"",""7"",""1045283""
""blur"",""19"",""2335397""
""focus"",""19"",""40431603""
","""event"",""trial"",""time""
""blur"",""7"",""1042926""
""blur"",""7"",""1043256""
""blur"",""19"",""2335397""
","""event"",""trial"",""time""
""focus"",""7"",""1042985""
""focus"",""7"",""1045283""
""focus"",""19"",""40431603""
","""event"",""trial"",""time""
""fullscreenenter"",""1"",""5644""
","
","","","928.5999999046326","","","14","3498","2165","&#9752;","elianto","#f73b6a7A"," "," ","1","0","[1784.7000000476837]","1","1","","","3498","10","3","3","lose","go","0"
"pit-trial","128","41137842","0.0-14.0","battery-v0.2","","""event"",""trial"",""time""
""fullscreenenter"",""1"",""5644""
""blur"",""7"",""1042926""
""focus"",""7"",""1042985""
""blur"",""7"",""1043256""
""focus"",""7"",""1045283""
""blur"",""19"",""2335397""
""focus"",""19"",""40431603""
","""event"",""trial"",""time""
""blur"",""7"",""1042926""
""blur"",""7"",""1043256""
""blur"",""19"",""2335397""
","""event"",""trial"",""time""
""focus"",""7"",""1042985""
""focus"",""7"",""1045283""
""focus"",""19"",""40431603""
","""event"",""trial"",""time""
""fullscreenenter"",""1"",""5644""
","
","","","-1","","","14","3498","2165","&#9728;","elianto","#f73b6a7A","-1","-1","1","0","[]","0","1","","","3498","11","0","4","lose","no-go","0"
"pit-trial","129","41142709","0.0-15.0","battery-v0.2","","""event"",""trial"",""time""
""fullscreenenter"",""1"",""5644""
""blur"",""7"",""1042926""
""focus"",""7"",""1042985""
""blur"",""7"",""1043256""
""focus"",""7"",""1045283""
""blur"",""19"",""2335397""
""focus"",""19"",""40431603""
","""event"",""trial"",""time""
""blur"",""7"",""1042926""
""blur"",""7"",""1043256""
""blur"",""19"",""2335397""
","""event"",""trial"",""time""
""focus"",""7"",""1042985""
""focus"",""7"",""1045283""
""focus"",""19"",""40431603""
","""event"",""trial"",""time""
""fullscreenenter"",""1"",""5644""
","
","","","-1","","","14","3498","2165","&#9733;","elianto","#3366ff99","-1","-1","1","+10","[]","0","1","","","3498","12","2","2","win","no-go","0"
