"trial_type","trial_index","time_elapsed","internal_node_id","task_version","subject_id","interactions","blur_events","focus_events","fullscreenenter_events","fullscreenexit_events","success","view_history","rt","responses","num_errors","age","subject","participantId","rune","rune_set","hex","correct","choice","accuracy","outcome","keys","total_keys","block","practice","value","sub","trial","stimulus","robot","valence","action","sham"
"pavlovia","0","8","0.0-0.0","battery-v0.2","","""event"",""trial"",""time""
""fullscreenenter"",""1"",""5819""
","
","
","""event"",""trial"",""time""
""fullscreenenter"",""1"",""5819""
","
","","","","","","","","","","","","","","","","","","","","","","","","","","",""
"fullscreen","1","6814","0.0-1.0","battery-v0.2","","""event"",""trial"",""time""
""fullscreenenter"",""1"",""5819""
","
","
","""event"",""trial"",""time""
""fullscreenenter"",""1"",""5819""
","
","true","","","","","","","","","","","","","","","","","","","","","","","","","",""
"pit-instructions","2","12008","0.0-2.0-0.0","battery-v0.2","","""event"",""trial"",""time""
""fullscreenenter"",""1"",""5819""
","
","
","""event"",""trial"",""time""
""fullscreenenter"",""1"",""5819""
","
","","[{""page_index"":0,""viewing_time"":5187.899999999994}]","5188.6999999999825","","","","","","","","","","","","","","","","","","","","","","","",""
"pit-comprehension","3","15202","0.0-2.0-1.0-0.0","battery-v0.2","","""event"",""trial"",""time""
""fullscreenenter"",""1"",""5819""
","
","
","""event"",""trial"",""time""
""fullscreenenter"",""1"",""5819""
","
","","","3189.899999999994","[""shark""]","0","24","8114","3964","","","","","","","","","","","","","","","","","","",""
"pit-instructions","4","20796","0.0-2.0-1.0-1.0","battery-v0.2","","""event"",""trial"",""time""
""fullscreenenter"",""1"",""5819""
","
","
","""event"",""trial"",""time""
""fullscreenenter"",""1"",""5819""
","
","","[{""page_index"":0,""viewing_time"":5582.799999999988}]","5583.100000000006","","","","","","","","","","","","","","","","","","","","","","","",""
"pit-comprehension","5","23807","0.0-2.0-2.0-0.0","battery-v0.2","","""event"",""trial"",""time""
""fullscreenenter"",""1"",""5819""
","
","
","""event"",""trial"",""time""
""fullscreenenter"",""1"",""5819""
","
","","","3009","[""tiger""]","0","24","8114","3964","","","","","","","","","","","","","","","","","","",""
"pit-instructions","6","26909","0.0-2.0-2.0-1.0","battery-v0.2","","""event"",""trial"",""time""
""fullscreenenter"",""1"",""5819""
","
","
","""event"",""trial"",""time""
""fullscreenenter"",""1"",""5819""
","
","","[{""page_index"":0,""viewing_time"":3096.899999999994}]","3097.1999999999825","","","","","","","","","","","","","","","","","","","","","","","",""
"pit-instructions","7","121085","0.0-2.0-3.0","battery-v0.2","","""event"",""trial"",""time""
""fullscreenenter"",""1"",""5819""
","
","
","""event"",""trial"",""time""
""fullscreenenter"",""1"",""5819""
","
","","[{""page_index"":0,""viewing_time"":8655.100000000006},{""page_index"":1,""viewing_time"":6007.5},{""page_index"":2,""viewing_time"":6753.600000000006},{""page_index"":3,""viewing_time"":5020.799999999988},{""page_index"":4,""viewing_time"":6622.100000000006},{""page_index"":5,""viewing_time"":5308.1999999999825},{""page_index"":6,""viewing_time"":7510.400000000023},{""page_index"":7,""viewing_time"":6703.799999999988},{""page_index"":8,""viewing_time"":6773.799999999988},{""page_index"":9,""viewing_time"":9010.700000000012},{""page_index"":10,""viewing_time"":7123.200000000012},{""page_index"":11,""viewing_time"":7484.099999999977},{""page_index"":12,""viewing_time"":6336.900000000023},{""page_index"":13,""viewing_time"":4862.700000000012}]","94173.59999999998","","","","","","","","","","","","","","","","","","","","","","","",""
"pit-trial","8","124607","0.0-2.0-4.0-0.0","battery-v0.2","","""event"",""trial"",""time""
""fullscreenenter"",""1"",""5819""
","
","
","""event"",""trial"",""time""
""fullscreenenter"",""1"",""5819""
","
","","","659.1000000000349","","","24","8114","3964","&#9784;","elianto","#FFFFF080"," "," ","1","&#10004","[1510.100000000035]","1","0","0","","","","","","","",""
"pit-trial","9","128015","0.0-2.0-4.1-0.1","battery-v0.2","","""event"",""trial"",""time""
""fullscreenenter"",""1"",""5819""
","
","
","""event"",""trial"",""time""
""fullscreenenter"",""1"",""5819""
","
","","","546.7999999999884","","","24","8114","3964","&#9784;","elianto","#FFFFF080"," "," ","1","&#10004","[1399]","1","0","0","","","","","","","",""
"pit-trial","10","131367","0.0-2.0-4.2-0.2","battery-v0.2","","""event"",""trial"",""time""
""fullscreenenter"",""1"",""5819""
","
","
","""event"",""trial"",""time""
""fullscreenenter"",""1"",""5819""
","
","","","488.5","","","24","8114","3964","&#9784;","elianto","#FFFFF080"," "," ","1","&#10004","[1341.0999999999767]","1","0","0","","","","","","","",""
"pit-trial","11","134887","0.0-2.0-4.3-0.3","battery-v0.2","","""event"",""trial"",""time""
""fullscreenenter"",""1"",""5819""
","
","
","""event"",""trial"",""time""
""fullscreenenter"",""1"",""5819""
","
","","","664.2000000000116","","","24","8114","3964","&#9784;","elianto","#FFFFF080"," "," ","1","&#10004","[1516.399999999965]","1","0","0","","","","","","","",""
"pit-trial","12","138135","0.0-2.0-4.4-0.4","battery-v0.2","","""event"",""trial"",""time""
""fullscreenenter"",""1"",""5819""
","
","
","""event"",""trial"",""time""
""fullscreenenter"",""1"",""5819""
","
","","","387.0999999999767","","","24","8114","3964","&#9784;","elianto","#FFFFF080"," "," ","1","&#10004","[1237.5999999999767]","1","0","0","","","","","","","",""
"pit-instructions","13","164055","0.0-2.0-5.0","battery-v0.2","","""event"",""trial"",""time""
""fullscreenenter"",""1"",""5819""
","
","
","""event"",""trial"",""time""
""fullscreenenter"",""1"",""5819""
","
","","[{""page_index"":0,""viewing_time"":6205.5},{""page_index"":1,""viewing_time"":9625.299999999988},{""page_index"":2,""viewing_time"":5041.799999999988},{""page_index"":3,""viewing_time"":5043.799999999988}]","25916.79999999999","","","","","","","","","","","","","","","","","","","","","","","",""
"pit-trial","14","168919","0.0-2.0-6.0-0.0","battery-v0.2","","""event"",""trial"",""time""
""fullscreenenter"",""1"",""5819""
","
","
","""event"",""trial"",""time""
""fullscreenenter"",""1"",""5819""
","
","","","-1","","","24","8114","3964","&#9854;","elianto","#FFFFF080","-1","-1","1","&#10004","[]","0","0","1","","","","","","","",""
"pit-trial","15","173783","0.0-2.0-6.1-0.1","battery-v0.2","","""event"",""trial"",""time""
""fullscreenenter"",""1"",""5819""
","
","
","""event"",""trial"",""time""
""fullscreenenter"",""1"",""5819""
","
","","","-1","","","24","8114","3964","&#9854;","elianto","#FFFFF080","-1","-1","1","&#10004","[]","0","0","1","","","","","","","",""
"pit-trial","16","178647","0.0-2.0-6.2-0.2","battery-v0.2","","""event"",""trial"",""time""
""fullscreenenter"",""1"",""5819""
","
","
","""event"",""trial"",""time""
""fullscreenenter"",""1"",""5819""
","
","","","-1","","","24","8114","3964","&#9854;","elianto","#FFFFF080","-1","-1","1","&#10004","[]","0","0","1","","","","","","","",""
"pit-trial","17","183511","0.0-2.0-6.3-0.3","battery-v0.2","","""event"",""trial"",""time""
""fullscreenenter"",""1"",""5819""
","
","
","""event"",""trial"",""time""
""fullscreenenter"",""1"",""5819""
","
","","","-1","","","24","8114","3964","&#9854;","elianto","#FFFFF080","-1","-1","1","&#10004","[]","0","0","1","","","","","","","",""
"pit-trial","18","188375","0.0-2.0-6.4-0.4","battery-v0.2","","""event"",""trial"",""time""
""fullscreenenter"",""1"",""5819""
","
","
","""event"",""trial"",""time""
""fullscreenenter"",""1"",""5819""
","
","","","-1","","","24","8114","3964","&#9854;","elianto","#FFFFF080","-1","-1","1","&#10004","[]","0","0","1","","","","","","","",""
"pit-instructions","19","306894","0.0-2.0-7.0","battery-v0.2","","""event"",""trial"",""time""
""fullscreenenter"",""1"",""5819""
","
","
","""event"",""trial"",""time""
""fullscreenenter"",""1"",""5819""
","
","","[{""page_index"":0,""viewing_time"":10238.800000000047},{""page_index"":1,""viewing_time"":6637.299999999988},{""page_index"":2,""viewing_time"":6117.899999999965},{""page_index"":3,""viewing_time"":6100.200000000012},{""page_index"":4,""viewing_time"":5518},{""page_index"":5,""viewing_time"":6387.799999999988},{""page_index"":6,""viewing_time"":6226.5},{""page_index"":7,""viewing_time"":7111.900000000023},{""page_index"":8,""viewing_time"":6008.299999999988},{""page_index"":9,""viewing_time"":5780.299999999988},{""page_index"":10,""viewing_time"":6280.8000000000175},{""page_index"":11,""viewing_time"":4085.4000000000233},{""page_index"":12,""viewing_time"":6302.699999999953},{""page_index"":13,""viewing_time"":6037.599999999977},{""page_index"":14,""viewing_time"":6976.100000000093},{""page_index"":15,""viewing_time"":6328.79999999993},{""page_index"":16,""viewing_time"":9001.400000000023},{""page_index"":17,""viewing_time"":7376.099999999977}]","118516.30000000002","","","","","","","","","","","","","","","","","","","","","","","",""
"pit-trial","20","310335","0.0-2.0-8.0-0.0","battery-v0.2","","""event"",""trial"",""time""
""fullscreenenter"",""1"",""5819""
","
","
","""event"",""trial"",""time""
""fullscreenenter"",""1"",""5819""
","
","","","580","","","24","8114","3964","&#9776;","elianto","#3366ff99"," "," ","1","+10","[1434.7999999999302]","1","0","1","","","","","","","",""
"pit-trial","21","313895","0.0-2.0-8.0-1.0","battery-v0.2","","""event"",""trial"",""time""
""fullscreenenter"",""1"",""5819""
","
","
","""event"",""trial"",""time""
""fullscreenenter"",""1"",""5819""
","
","","","705.0999999999767","","","24","8114","3964","&#9776;","elianto","#3366ff99"," "," ","1","+10","[1555.3999999999069]","1","0","1","","","","","","","",""
"pit-trial","22","317431","0.0-2.0-8.0-2.0","battery-v0.2","","""event"",""trial"",""time""
""fullscreenenter"",""1"",""5819""
","
","
","""event"",""trial"",""time""
""fullscreenenter"",""1"",""5819""
","
","","","677","","","24","8114","3964","&#9776;","elianto","#3366ff99"," "," ","1","+10","[1530.6999999999534]","1","0","1","","","","","","","",""
"pit-trial","23","320783","0.0-2.0-8.0-3.0","battery-v0.2","","""event"",""trial"",""time""
""fullscreenenter"",""1"",""5819""
","
","
","""event"",""trial"",""time""
""fullscreenenter"",""1"",""5819""
","
","","","494.5","","","24","8114","3964","&#9776;","elianto","#3366ff99"," "," ","1","0","[1346.6999999999534]","1","0","1","","","","","","","",""
"pit-trial","24","324191","0.0-2.0-8.0-4.0","battery-v0.2","","""event"",""trial"",""time""
""fullscreenenter"",""1"",""5819""
","
","
","""event"",""trial"",""time""
""fullscreenenter"",""1"",""5819""
","
","","","549.1999999999534","","","24","8114","3964","&#9776;","elianto","#3366ff99"," "," ","1","+10","[1399.4000000000233]","1","0","1","","","","","","","",""
"pit-trial","25","327487","0.0-2.0-8.1-0.1","battery-v0.2","","""event"",""trial"",""time""
""fullscreenenter"",""1"",""5819""
","
","
","""event"",""trial"",""time""
""fullscreenenter"",""1"",""5819""
","
","","","434.29999999993015","","","24","8114","3964","&#9776;","elianto","#3366ff99"," "," ","1","+10","[1287.1999999999534]","1","0","1","","","","","","","",""
"pit-trial","26","330887","0.0-2.0-8.1-1.1","battery-v0.2","","""event"",""trial"",""time""
""fullscreenenter"",""1"",""5819""
","
","
","""event"",""trial"",""time""
""fullscreenenter"",""1"",""5819""
","
","","","543","","","24","8114","3964","&#9776;","elianto","#3366ff99"," "," ","1","+10","[1396.9000000000233]","1","0","1","","","","","","","",""
"pit-trial","27","334231","0.0-2.0-8.1-2.1","battery-v0.2","","""event"",""trial"",""time""
""fullscreenenter"",""1"",""5819""
","
","
","""event"",""trial"",""time""
""fullscreenenter"",""1"",""5819""
","
","","","481.39999999990687","","","24","8114","3964","&#9776;","elianto","#3366ff99"," "," ","1","+10","[1334.7999999999302]","1","0","1","","","","","","","",""
"pit-trial","28","337526","0.0-2.0-8.1-3.1","battery-v0.2","","""event"",""trial"",""time""
""fullscreenenter"",""1"",""5819""
","
","
","""event"",""trial"",""time""
""fullscreenenter"",""1"",""5819""
","
","","","438.29999999993015","","","24","8114","3964","&#9776;","elianto","#3366ff99"," "," ","1","0","[1291]","1","0","1","","","","","","","",""
"pit-trial","29","340639","0.0-2.0-8.1-4.1","battery-v0.2","","""event"",""trial"",""time""
""fullscreenenter"",""1"",""5819""
","
","
","""event"",""trial"",""time""
""fullscreenenter"",""1"",""5819""
","
","","","250.89999999990687","","","24","8114","3964","&#9776;","elianto","#3366ff99"," "," ","1","+10","[1105.2999999999302]","1","0","1","","","","","","","",""
"pit-trial","30","343999","0.0-2.0-8.2-0.2","battery-v0.2","","""event"",""trial"",""time""
""fullscreenenter"",""1"",""5819""
","
","
","""event"",""trial"",""time""
""fullscreenenter"",""1"",""5819""
","
","","","501.19999999995343","","","24","8114","3964","&#9776;","elianto","#3366ff99"," "," ","1","+10","[1354.5999999999767]","1","0","1","","","","","","","",""
"pit-trial","31","347287","0.0-2.0-8.2-1.2","battery-v0.2","","""event"",""trial"",""time""
""fullscreenenter"",""1"",""5819""
","
","
","""event"",""trial"",""time""
""fullscreenenter"",""1"",""5819""
","
","","","431.5999999999767","","","24","8114","3964","&#9776;","elianto","#3366ff99"," "," ","1","+10","[1282.7000000000698]","1","0","1","","","","","","","",""
"pit-trial","32","350759","0.0-2.0-8.2-2.2","battery-v0.2","","""event"",""trial"",""time""
""fullscreenenter"",""1"",""5819""
","
","
","""event"",""trial"",""time""
""fullscreenenter"",""1"",""5819""
","
","","","611.7000000000698","","","24","8114","3964","&#9776;","elianto","#3366ff99"," "," ","1","+10","[1465.7000000000698]","1","0","1","","","","","","","",""
"pit-trial","33","354095","0.0-2.0-8.2-3.2","battery-v0.2","","""event"",""trial"",""time""
""fullscreenenter"",""1"",""5819""
","
","
","""event"",""trial"",""time""
""fullscreenenter"",""1"",""5819""
","
","","","474.20000000006985","","","24","8114","3964","&#9776;","elianto","#3366ff99"," "," ","1","0","[1328.4000000000233]","1","0","1","","","","","","","",""
"pit-trial","34","357327","0.0-2.0-8.2-4.2","battery-v0.2","","""event"",""trial"",""time""
""fullscreenenter"",""1"",""5819""
","
","
","""event"",""trial"",""time""
""fullscreenenter"",""1"",""5819""
","
","","","373.80000000004657","","","24","8114","3964","&#9776;","elianto","#3366ff99"," "," ","1","+10","[1228]","1","0","1","","","","","","","",""
"call-function","35","357329","0.0-2.0-9.0","battery-v0.2","","""event"",""trial"",""time""
""fullscreenenter"",""1"",""5819""
","
","
","""event"",""trial"",""time""
""fullscreenenter"",""1"",""5819""
","
","","","","","","","","","","","","","","","","","","","","","","","","","","",""
"pit-instructions","36","396599","0.0-2.0-10.0","battery-v0.2","","""event"",""trial"",""time""
""fullscreenenter"",""1"",""5819""
","
","
","""event"",""trial"",""time""
""fullscreenenter"",""1"",""5819""
","
","","[{""page_index"":0,""viewing_time"":5798.300000000047},{""page_index"":1,""viewing_time"":7022.29999999993},{""page_index"":2,""viewing_time"":9032.5},{""page_index"":3,""viewing_time"":9970},{""page_index"":4,""viewing_time"":7445.600000000093}]","39269.09999999998","","","","","","","","","","","","","","","","","","","","","","","",""
"pit-trial","37","400023","0.0-2.0-11.0-0.0","battery-v0.2","","""event"",""trial"",""time""
""fullscreenenter"",""1"",""5819""
","
","
","""event"",""trial"",""time""
""fullscreenenter"",""1"",""5819""
","
","","","567.8000000000466","","","24","8114","3964","&#9761;","elianto","#3366ff99","-1"," ","0","0","[1421.7000000000698]","1","0","2","","","","","","","",""
"pit-trial","38","403311","0.0-2.0-11.0-1.0","battery-v0.2","","""event"",""trial"",""time""
""fullscreenenter"",""1"",""5819""
","
","
","""event"",""trial"",""time""
""fullscreenenter"",""1"",""5819""
","
","","","428.9000000000233","","","24","8114","3964","&#9761;","elianto","#3366ff99","-1"," ","0","0","[1282.5999999999767]","1","0","2","","","","","","","",""
"pit-trial","39","406559","0.0-2.0-11.0-2.0","battery-v0.2","","""event"",""trial"",""time""
""fullscreenenter"",""1"",""5819""
","
","
","""event"",""trial"",""time""
""fullscreenenter"",""1"",""5819""
","
","","","385.5","","","24","8114","3964","&#9761;","elianto","#3366ff99","-1"," ","0","0","[1239.5]","1","0","2","","","","","","","",""
"pit-trial","40","411423","0.0-2.0-11.0-3.0","battery-v0.2","","""event"",""trial"",""time""
""fullscreenenter"",""1"",""5819""
","
","
","""event"",""trial"",""time""
""fullscreenenter"",""1"",""5819""
","
","","","-1","","","24","8114","3964","&#9761;","elianto","#3366ff99","-1","-1","1","0","[]","0","0","2","","","","","","","",""
"pit-trial","41","416287","0.0-2.0-11.0-4.0","battery-v0.2","","""event"",""trial"",""time""
""fullscreenenter"",""1"",""5819""
","
","
","""event"",""trial"",""time""
""fullscreenenter"",""1"",""5819""
","
","","","-1","","","24","8114","3964","&#9761;","elianto","#3366ff99","-1","-1","1","+10","[]","0","0","2","","","","","","","",""
"pit-trial","42","421151","0.0-2.0-11.1-0.1","battery-v0.2","","""event"",""trial"",""time""
""fullscreenenter"",""1"",""5819""
","
","
","""event"",""trial"",""time""
""fullscreenenter"",""1"",""5819""
","
","","","-1","","","24","8114","3964","&#9761;","elianto","#3366ff99","-1","-1","1","+10","[]","0","0","2","","","","","","","",""
"pit-trial","43","426015","0.0-2.0-11.1-1.1","battery-v0.2","","""event"",""trial"",""time""
""fullscreenenter"",""1"",""5819""
","
","
","""event"",""trial"",""time""
""fullscreenenter"",""1"",""5819""
","
","","","-1","","","24","8114","3964","&#9761;","elianto","#3366ff99","-1","-1","1","+10","[]","0","0","2","","","","","","","",""
"pit-trial","44","430879","0.0-2.0-11.1-2.1","battery-v0.2","","""event"",""trial"",""time""
""fullscreenenter"",""1"",""5819""
","
","
","""event"",""trial"",""time""
""fullscreenenter"",""1"",""5819""
","
","","","-1","","","24","8114","3964","&#9761;","elianto","#3366ff99","-1","-1","1","+10","[]","0","0","2","","","","","","","",""
"pit-trial","45","435742","0.0-2.0-11.1-3.1","battery-v0.2","","""event"",""trial"",""time""
""fullscreenenter"",""1"",""5819""
","
","
","""event"",""trial"",""time""
""fullscreenenter"",""1"",""5819""
","
","","","-1","","","24","8114","3964","&#9761;","elianto","#3366ff99","-1","-1","1","0","[]","0","0","2","","","","","","","",""
"pit-trial","46","440607","0.0-2.0-11.1-4.1","battery-v0.2","","""event"",""trial"",""time""
""fullscreenenter"",""1"",""5819""
","
","
","""event"",""trial"",""time""
""fullscreenenter"",""1"",""5819""
","
","","","-1","","","24","8114","3964","&#9761;","elianto","#3366ff99","-1","-1","1","+10","[]","0","0","2","","","","","","","",""
"pit-trial","47","445471","0.0-2.0-11.2-0.2","battery-v0.2","","""event"",""trial"",""time""
""fullscreenenter"",""1"",""5819""
","
","
","""event"",""trial"",""time""
""fullscreenenter"",""1"",""5819""
","
","","","-1","","","24","8114","3964","&#9761;","elianto","#3366ff99","-1","-1","1","+10","[]","0","0","2","","","","","","","",""
"pit-trial","48","450335","0.0-2.0-11.2-1.2","battery-v0.2","","""event"",""trial"",""time""
""fullscreenenter"",""1"",""5819""
","
","
","""event"",""trial"",""time""
""fullscreenenter"",""1"",""5819""
","
","","","-1","","","24","8114","3964","&#9761;","elianto","#3366ff99","-1","-1","1","+10","[]","0","0","2","","","","","","","",""
"pit-trial","49","455199","0.0-2.0-11.2-2.2","battery-v0.2","","""event"",""trial"",""time""
""fullscreenenter"",""1"",""5819""
","
","
","""event"",""trial"",""time""
""fullscreenenter"",""1"",""5819""
","
","","","-1","","","24","8114","3964","&#9761;","elianto","#3366ff99","-1","-1","1","+10","[]","0","0","2","","","","","","","",""
"pit-trial","50","460063","0.0-2.0-11.2-3.2","battery-v0.2","","""event"",""trial"",""time""
""fullscreenenter"",""1"",""5819""
","
","
","""event"",""trial"",""time""
""fullscreenenter"",""1"",""5819""
","
","","","-1","","","24","8114","3964","&#9761;","elianto","#3366ff99","-1","-1","1","0","[]","0","0","2","","","","","","","",""
"pit-trial","51","464927","0.0-2.0-11.2-4.2","battery-v0.2","","""event"",""trial"",""time""
""fullscreenenter"",""1"",""5819""
","
","
","""event"",""trial"",""time""
""fullscreenenter"",""1"",""5819""
","
","","","-1","","","24","8114","3964","&#9761;","elianto","#3366ff99","-1","-1","1","+10","[]","0","0","2","","","","","","","",""
"pit-trial","52","469791","0.0-2.0-11.3-0.3","battery-v0.2","","""event"",""trial"",""time""
""fullscreenenter"",""1"",""5819""
","
","
","""event"",""trial"",""time""
""fullscreenenter"",""1"",""5819""
","
","","","-1","","","24","8114","3964","&#9761;","elianto","#3366ff99","-1","-1","1","+10","[]","0","0","2","","","","","","","",""
"pit-trial","53","474655","0.0-2.0-11.3-1.3","battery-v0.2","","""event"",""trial"",""time""
""fullscreenenter"",""1"",""5819""
","
","
","""event"",""trial"",""time""
""fullscreenenter"",""1"",""5819""
","
","","","-1","","","24","8114","3964","&#9761;","elianto","#3366ff99","-1","-1","1","+10","[]","0","0","2","","","","","","","",""
"pit-trial","54","479519","0.0-2.0-11.3-2.3","battery-v0.2","","""event"",""trial"",""time""
""fullscreenenter"",""1"",""5819""
","
","
","""event"",""trial"",""time""
""fullscreenenter"",""1"",""5819""
","
","","","-1","","","24","8114","3964","&#9761;","elianto","#3366ff99","-1","-1","1","+10","[]","0","0","2","","","","","","","",""
"pit-trial","55","484383","0.0-2.0-11.3-3.3","battery-v0.2","","""event"",""trial"",""time""
""fullscreenenter"",""1"",""5819""
","
","
","""event"",""trial"",""time""
""fullscreenenter"",""1"",""5819""
","
","","","-1","","","24","8114","3964","&#9761;","elianto","#3366ff99","-1","-1","1","0","[]","0","0","2","","","","","","","",""
"pit-trial","56","489247","0.0-2.0-11.3-4.3","battery-v0.2","","""event"",""trial"",""time""
""fullscreenenter"",""1"",""5819""
","
","
","""event"",""trial"",""time""
""fullscreenenter"",""1"",""5819""
","
","","","-1","","","24","8114","3964","&#9761;","elianto","#3366ff99","-1","-1","1","+10","[]","0","0","2","","","","","","","",""
"call-function","57","489249","0.0-2.0-12.0","battery-v0.2","","""event"",""trial"",""time""
""fullscreenenter"",""1"",""5819""
","
","
","""event"",""trial"",""time""
""fullscreenenter"",""1"",""5819""
","
","","","","","","","","","","","","","","","","","","","","","","","","","","",""
"pit-instructions","58","522407","0.0-2.0-13.0","battery-v0.2","","""event"",""trial"",""time""
""fullscreenenter"",""1"",""5819""
","
","
","""event"",""trial"",""time""
""fullscreenenter"",""1"",""5819""
","
","","[{""page_index"":0,""viewing_time"":9245.300000000047},{""page_index"":1,""viewing_time"":6122.900000000023},{""page_index"":2,""viewing_time"":3038},{""page_index"":3,""viewing_time"":10629},{""page_index"":4,""viewing_time"":4121.900000000023}]","33157.60000000009","","","","","","","","","","","","","","","","","","","","","","","",""
"pit-trial","59","525759","0.0-2.0-14.0-0.0","battery-v0.2","","""event"",""trial"",""time""
""fullscreenenter"",""1"",""5819""
","
","
","""event"",""trial"",""time""
""fullscreenenter"",""1"",""5819""
","
","","","495.60000000009313","","","24","8114","3964","&#9826;","elianto","#f73b6a7A","-1"," ","0","-10","[1349.2999999999302]","1","0","3","","","","","","","",""
"pit-trial","60","530623","0.0-2.0-14.0-1.0","battery-v0.2","","""event"",""trial"",""time""
""fullscreenenter"",""1"",""5819""
","
","
","""event"",""trial"",""time""
""fullscreenenter"",""1"",""5819""
","
","","","-1","","","24","8114","3964","&#9826;","elianto","#f73b6a7A","-1","-1","1","0","[]","0","0","3","","","","","","","",""
"pit-trial","61","535487","0.0-2.0-14.0-2.0","battery-v0.2","","""event"",""trial"",""time""
""fullscreenenter"",""1"",""5819""
","
","
","""event"",""trial"",""time""
""fullscreenenter"",""1"",""5819""
","
","","","-1","","","24","8114","3964","&#9826;","elianto","#f73b6a7A","-1","-1","1","0","[]","0","0","3","","","","","","","",""
"pit-trial","62","540350","0.0-2.0-14.0-3.0","battery-v0.2","","""event"",""trial"",""time""
""fullscreenenter"",""1"",""5819""
","
","
","""event"",""trial"",""time""
""fullscreenenter"",""1"",""5819""
","
","","","-1","","","24","8114","3964","&#9826;","elianto","#f73b6a7A","-1","-1","1","-10","[]","0","0","3","","","","","","","",""
"pit-trial","63","545215","0.0-2.0-14.0-4.0","battery-v0.2","","""event"",""trial"",""time""
""fullscreenenter"",""1"",""5819""
","
","
","""event"",""trial"",""time""
""fullscreenenter"",""1"",""5819""
","
","","","-1","","","24","8114","3964","&#9826;","elianto","#f73b6a7A","-1","-1","1","0","[]","0","0","3","","","","","","","",""
"pit-trial","64","550079","0.0-2.0-14.1-0.1","battery-v0.2","","""event"",""trial"",""time""
""fullscreenenter"",""1"",""5819""
","
","
","""event"",""trial"",""time""
""fullscreenenter"",""1"",""5819""
","
","","","-1","","","24","8114","3964","&#9826;","elianto","#f73b6a7A","-1","-1","1","0","[]","0","0","3","","","","","","","",""
"pit-trial","65","554943","0.0-2.0-14.1-1.1","battery-v0.2","","""event"",""trial"",""time""
""fullscreenenter"",""1"",""5819""
","
","
","""event"",""trial"",""time""
""fullscreenenter"",""1"",""5819""
","
","","","-1","","","24","8114","3964","&#9826;","elianto","#f73b6a7A","-1","-1","1","0","[]","0","0","3","","","","","","","",""
"pit-trial","66","559807","0.0-2.0-14.1-2.1","battery-v0.2","","""event"",""trial"",""time""
""fullscreenenter"",""1"",""5819""
","
","
","""event"",""trial"",""time""
""fullscreenenter"",""1"",""5819""
","
","","","-1","","","24","8114","3964","&#9826;","elianto","#f73b6a7A","-1","-1","1","0","[]","0","0","3","","","","","","","",""
"pit-trial","67","564671","0.0-2.0-14.1-3.1","battery-v0.2","","""event"",""trial"",""time""
""fullscreenenter"",""1"",""5819""
","
","
","""event"",""trial"",""time""
""fullscreenenter"",""1"",""5819""
","
","","","-1","","","24","8114","3964","&#9826;","elianto","#f73b6a7A","-1","-1","1","-10","[]","0","0","3","","","","","","","",""
"pit-trial","68","569535","0.0-2.0-14.1-4.1","battery-v0.2","","""event"",""trial"",""time""
""fullscreenenter"",""1"",""5819""
","
","
","""event"",""trial"",""time""
""fullscreenenter"",""1"",""5819""
","
","","","-1","","","24","8114","3964","&#9826;","elianto","#f73b6a7A","-1","-1","1","0","[]","0","0","3","","","","","","","",""
"pit-trial","69","574399","0.0-2.0-14.2-0.2","battery-v0.2","","""event"",""trial"",""time""
""fullscreenenter"",""1"",""5819""
","
","
","""event"",""trial"",""time""
""fullscreenenter"",""1"",""5819""
","
","","","-1","","","24","8114","3964","&#9826;","elianto","#f73b6a7A","-1","-1","1","0","[]","0","0","3","","","","","","","",""
"pit-trial","70","579263","0.0-2.0-14.2-1.2","battery-v0.2","","""event"",""trial"",""time""
""fullscreenenter"",""1"",""5819""
","
","
","""event"",""trial"",""time""
""fullscreenenter"",""1"",""5819""
","
","","","-1","","","24","8114","3964","&#9826;","elianto","#f73b6a7A","-1","-1","1","0","[]","0","0","3","","","","","","","",""
"pit-trial","71","584127","0.0-2.0-14.2-2.2","battery-v0.2","","""event"",""trial"",""time""
""fullscreenenter"",""1"",""5819""
","
","
","""event"",""trial"",""time""
""fullscreenenter"",""1"",""5819""
","
","","","-1","","","24","8114","3964","&#9826;","elianto","#f73b6a7A","-1","-1","1","0","[]","0","0","3","","","","","","","",""
"pit-trial","72","588991","0.0-2.0-14.2-3.2","battery-v0.2","","""event"",""trial"",""time""
""fullscreenenter"",""1"",""5819""
","
","
","""event"",""trial"",""time""
""fullscreenenter"",""1"",""5819""
","
","","","-1","","","24","8114","3964","&#9826;","elianto","#f73b6a7A","-1","-1","1","-10","[]","0","0","3","","","","","","","",""
"pit-trial","73","593855","0.0-2.0-14.2-4.2","battery-v0.2","","""event"",""trial"",""time""
""fullscreenenter"",""1"",""5819""
","
","
","""event"",""trial"",""time""
""fullscreenenter"",""1"",""5819""
","
","","","-1","","","24","8114","3964","&#9826;","elianto","#f73b6a7A","-1","-1","1","0","[]","0","0","3","","","","","","","",""
"pit-trial","74","598719","0.0-2.0-14.3-0.3","battery-v0.2","","""event"",""trial"",""time""
""fullscreenenter"",""1"",""5819""
","
","
","""event"",""trial"",""time""
""fullscreenenter"",""1"",""5819""
","
","","","-1","","","24","8114","3964","&#9826;","elianto","#f73b6a7A","-1","-1","1","0","[]","0","0","3","","","","","","","",""
"pit-trial","75","603583","0.0-2.0-14.3-1.3","battery-v0.2","","""event"",""trial"",""time""
""fullscreenenter"",""1"",""5819""
","
","
","""event"",""trial"",""time""
""fullscreenenter"",""1"",""5819""
","
","","","-1","","","24","8114","3964","&#9826;","elianto","#f73b6a7A","-1","-1","1","0","[]","0","0","3","","","","","","","",""
"pit-trial","76","608447","0.0-2.0-14.3-2.3","battery-v0.2","","""event"",""trial"",""time""
""fullscreenenter"",""1"",""5819""
","
","
","""event"",""trial"",""time""
""fullscreenenter"",""1"",""5819""
","
","","","-1","","","24","8114","3964","&#9826;","elianto","#f73b6a7A","-1","-1","1","0","[]","0","0","3","","","","","","","",""
"pit-trial","77","613311","0.0-2.0-14.3-3.3","battery-v0.2","","""event"",""trial"",""time""
""fullscreenenter"",""1"",""5819""
","
","
","""event"",""trial"",""time""
""fullscreenenter"",""1"",""5819""
","
","","","-1","","","24","8114","3964","&#9826;","elianto","#f73b6a7A","-1","-1","1","-10","[]","0","0","3","","","","","","","",""
"pit-trial","78","618175","0.0-2.0-14.3-4.3","battery-v0.2","","""event"",""trial"",""time""
""fullscreenenter"",""1"",""5819""
","
","
","""event"",""trial"",""time""
""fullscreenenter"",""1"",""5819""
","
","","","-1","","","24","8114","3964","&#9826;","elianto","#f73b6a7A","-1","-1","1","0","[]","0","0","3","","","","","","","",""
"call-function","79","618177","0.0-2.0-15.0","battery-v0.2","","""event"",""trial"",""time""
""fullscreenenter"",""1"",""5819""
","
","
","""event"",""trial"",""time""
""fullscreenenter"",""1"",""5819""
","
","","","","","","","","","","","","","","","","","","","","","","","","","","",""
"pit-instructions","80","654035","0.0-2.0-16.0","battery-v0.2","","""event"",""trial"",""time""
""fullscreenenter"",""1"",""5819""
","
","
","""event"",""trial"",""time""
""fullscreenenter"",""1"",""5819""
","
","","[{""page_index"":0,""viewing_time"":15822.599999999977},{""page_index"":1,""viewing_time"":10399.29999999993},{""page_index"":2,""viewing_time"":5209.800000000047},{""page_index"":3,""viewing_time"":4425.099999999977}]","35857.29999999993","","","","","","","","","","","","","","","","","","","","","","","",""
"pit-trial","81","657591","0.0-2.0-17.0-0.0","battery-v0.2","","""event"",""trial"",""time""
""fullscreenenter"",""1"",""5819""
","
","
","""event"",""trial"",""time""
""fullscreenenter"",""1"",""5819""
","
","","","700.2000000000698","","","24","8114","3964","&#9789;","elianto","#f73b6a7A"," "," ","1","0","[1550.4000000000233]","1","0","4","","","","","","","",""
"pit-trial","82","661183","0.0-2.0-17.0-1.0","battery-v0.2","","""event"",""trial"",""time""
""fullscreenenter"",""1"",""5819""
","
","
","""event"",""trial"",""time""
""fullscreenenter"",""1"",""5819""
","
","","","738","","","24","8114","3964","&#9789;","elianto","#f73b6a7A"," "," ","1","0","[1589.2999999999302]","1","0","4","","","","","","","",""
"pit-trial","83","664423","0.0-2.0-17.0-2.0","battery-v0.2","","""event"",""trial"",""time""
""fullscreenenter"",""1"",""5819""
","
","
","""event"",""trial"",""time""
""fullscreenenter"",""1"",""5819""
","
","","","380.5999999999767","","","24","8114","3964","&#9789;","elianto","#f73b6a7A"," "," ","1","0","[1234.5999999999767]","1","0","4","","","","","","","",""
"pit-trial","84","667759","0.0-2.0-17.0-3.0","battery-v0.2","","""event"",""trial"",""time""
""fullscreenenter"",""1"",""5819""
","
","
","""event"",""trial"",""time""
""fullscreenenter"",""1"",""5819""
","
","","","481","","","24","8114","3964","&#9789;","elianto","#f73b6a7A"," "," ","1","-10","[1331.7999999999302]","1","0","4","","","","","","","",""
"pit-trial","85","670911","0.0-2.0-17.0-4.0","battery-v0.2","","""event"",""trial"",""time""
""fullscreenenter"",""1"",""5819""
","
","
","""event"",""trial"",""time""
""fullscreenenter"",""1"",""5819""
","
","","","294.80000000004657","","","24","8114","3964","&#9789;","elianto","#f73b6a7A"," "," ","1","0","[1148.9000000000233]","1","0","4","","","","","","","",""
"pit-trial","86","674143","0.0-2.0-17.1-0.1","battery-v0.2","","""event"",""trial"",""time""
""fullscreenenter"",""1"",""5819""
","
","
","""event"",""trial"",""time""
""fullscreenenter"",""1"",""5819""
","
","","","371.5","","","24","8114","3964","&#9789;","elianto","#f73b6a7A"," "," ","1","0","[1225.1000000000931]","1","0","4","","","","","","","",""
"pit-trial","87","677351","0.0-2.0-17.1-1.1","battery-v0.2","","""event"",""trial"",""time""
""fullscreenenter"",""1"",""5819""
","
","
","""event"",""trial"",""time""
""fullscreenenter"",""1"",""5819""
","
","","","348.69999999995343","","","24","8114","3964","&#9789;","elianto","#f73b6a7A"," "," ","1","0","[1198.9000000000233]","1","0","4","","","","","","","",""
"pit-trial","88","680583","0.0-2.0-17.1-2.1","battery-v0.2","","""event"",""trial"",""time""
""fullscreenenter"",""1"",""5819""
","
","
","""event"",""trial"",""time""
""fullscreenenter"",""1"",""5819""
","
","","","373.20000000006985","","","24","8114","3964","&#9789;","elianto","#f73b6a7A"," "," ","1","0","[1227.4000000000233]","1","0","4","","","","","","","",""
"pit-trial","89","683727","0.0-2.0-17.1-3.1","battery-v0.2","","""event"",""trial"",""time""
""fullscreenenter"",""1"",""5819""
","
","
","""event"",""trial"",""time""
""fullscreenenter"",""1"",""5819""
","
","","","285.80000000004657","","","24","8114","3964","&#9789;","elianto","#f73b6a7A"," "," ","1","-10","[1140]","1","0","4","","","","","","","",""
"pit-trial","90","686959","0.0-2.0-17.1-4.1","battery-v0.2","","""event"",""trial"",""time""
""fullscreenenter"",""1"",""5819""
","
","
","""event"",""trial"",""time""
""fullscreenenter"",""1"",""5819""
","
","","","372.9000000000233","","","24","8114","3964","&#9789;","elianto","#f73b6a7A"," "," ","1","0","[1227]","1","0","4","","","","","","","",""
"pit-trial","91","690143","0.0-2.0-17.2-0.2","battery-v0.2","","""event"",""trial"",""time""
""fullscreenenter"",""1"",""5819""
","
","
","""event"",""trial"",""time""
""fullscreenenter"",""1"",""5819""
","
","","","327.19999999995343","","","24","8114","3964","&#9789;","elianto","#f73b6a7A"," "," ","1","0","[1177.5999999999767]","1","0","4","","","","","","","",""
"pit-trial","92","693423","0.0-2.0-17.2-1.2","battery-v0.2","","""event"",""trial"",""time""
""fullscreenenter"",""1"",""5819""
","
","
","""event"",""trial"",""time""
""fullscreenenter"",""1"",""5819""
","
","","","421.30000000004657","","","24","8114","3964","&#9789;","elianto","#f73b6a7A"," "," ","1","0","[1275.5]","1","0","4","","","","","","","",""
"pit-trial","93","696751","0.0-2.0-17.2-2.2","battery-v0.2","","""event"",""trial"",""time""
""fullscreenenter"",""1"",""5819""
","
","
","""event"",""trial"",""time""
""fullscreenenter"",""1"",""5819""
","
","","","472.69999999995343","","","24","8114","3964","&#9789;","elianto","#f73b6a7A"," "," ","1","0","[1323.4000000000233]","1","0","4","","","","","","","",""
"pit-trial","94","700031","0.0-2.0-17.2-3.2","battery-v0.2","","""event"",""trial"",""time""
""fullscreenenter"",""1"",""5819""
","
","
","""event"",""trial"",""time""
""fullscreenenter"",""1"",""5819""
","
","","","420.80000000004657","","","24","8114","3964","&#9789;","elianto","#f73b6a7A"," "," ","1","-10","[1274.8000000000466]","1","0","4","","","","","","","",""
"pit-trial","95","703223","0.0-2.0-17.2-4.2","battery-v0.2","","""event"",""trial"",""time""
""fullscreenenter"",""1"",""5819""
","
","
","""event"",""trial"",""time""
""fullscreenenter"",""1"",""5819""
","
","","","334.20000000006985","","","24","8114","3964","&#9789;","elianto","#f73b6a7A"," "," ","1","0","[1188.4000000000233]","1","0","4","","","","","","","",""
"pit-trial","96","706495","0.0-2.0-17.3-0.3","battery-v0.2","","""event"",""trial"",""time""
""fullscreenenter"",""1"",""5819""
","
","
","""event"",""trial"",""time""
""fullscreenenter"",""1"",""5819""
","
","","","412.4000000000233","","","24","8114","3964","&#9789;","elianto","#f73b6a7A"," "," ","1","0","[1262.2999999999302]","1","0","4","","","","","","","",""
"pit-trial","97","709711","0.0-2.0-17.3-1.3","battery-v0.2","","""event"",""trial"",""time""
""fullscreenenter"",""1"",""5819""
","
","
","""event"",""trial"",""time""
""fullscreenenter"",""1"",""5819""
","
","","","357.4000000000233","","","24","8114","3964","&#9789;","elianto","#f73b6a7A"," "," ","1","0","[1211.0999999999767]","1","0","4","","","","","","","",""
"pit-trial","98","713071","0.0-2.0-17.3-2.3","battery-v0.2","","""event"",""trial"",""time""
""fullscreenenter"",""1"",""5819""
","
","
","""event"",""trial"",""time""
""fullscreenenter"",""1"",""5819""
","
","","","503","","","24","8114","3964","&#9789;","elianto","#f73b6a7A"," "," ","1","0","[1357]","1","0","4","","","","","","","",""
"pit-trial","99","716311","0.0-2.0-17.3-3.3","battery-v0.2","","""event"",""trial"",""time""
""fullscreenenter"",""1"",""5819""
","
","
","""event"",""trial"",""time""
""fullscreenenter"",""1"",""5819""
","
","","","380.9000000000233","","","24","8114","3964","&#9789;","elianto","#f73b6a7A"," "," ","1","-10","[1234.2000000000698]","1","0","4","","","","","","","",""
"pit-trial","100","719527","0.0-2.0-17.3-4.3","battery-v0.2","","""event"",""trial"",""time""
""fullscreenenter"",""1"",""5819""
","
","
","""event"",""trial"",""time""
""fullscreenenter"",""1"",""5819""
","
","","","357.70000000006985","","","24","8114","3964","&#9789;","elianto","#f73b6a7A"," "," ","1","0","[1211.2999999999302]","1","0","4","","","","","","","",""
"call-function","101","719528","0.0-2.0-18.0","battery-v0.2","","""event"",""trial"",""time""
""fullscreenenter"",""1"",""5819""
","
","
","""event"",""trial"",""time""
""fullscreenenter"",""1"",""5819""
","
","","","","","","","","","","","","","","","","","","","","","","","","","","",""
"pit-instructions","102","773372","0.0-2.0-19.0","battery-v0.2","","""event"",""trial"",""time""
""fullscreenenter"",""1"",""5819""
","
","
","""event"",""trial"",""time""
""fullscreenenter"",""1"",""5819""
","
","","[{""page_index"":0,""viewing_time"":6022.199999999953},{""page_index"":1,""viewing_time"":4646.5},{""page_index"":2,""viewing_time"":8849.100000000093},{""page_index"":3,""viewing_time"":4716},{""page_index"":4,""viewing_time"":6397.5},{""page_index"":5,""viewing_time"":8375.5},{""page_index"":6,""viewing_time"":4170},{""page_index"":7,""viewing_time"":6874.399999999907},{""page_index"":8,""viewing_time"":3791.20000000007}]","53842.90000000002","","","","","","","","","","","","","","","","","","","","","","","",""
"pit-comprehension","103","778827","0.0-2.0-20.0-0.0","battery-v0.2","","""event"",""trial"",""time""
""fullscreenenter"",""1"",""5819""
","
","
","""event"",""trial"",""time""
""fullscreenenter"",""1"",""5819""
","
","","","5451.400000000023","[""SPACE""]","0","24","8114","3964","","","","","","","","","","","","","","","","","","",""
"pit-instructions","104","782644","0.0-2.0-20.0-1.0","battery-v0.2","","""event"",""trial"",""time""
""fullscreenenter"",""1"",""5819""
","
","
","""event"",""trial"",""time""
""fullscreenenter"",""1"",""5819""
","
","","[{""page_index"":0,""viewing_time"":3787.0999999999767}]","3787.5999999999767","","","","","","","","","","","","","","","","","","","","","","","",""
"pit-comprehension","105","787140","0.0-2.0-21.0-0.0","battery-v0.2","","""event"",""trial"",""time""
""fullscreenenter"",""1"",""5819""
","
","
","""event"",""trial"",""time""
""fullscreenenter"",""1"",""5819""
","
","","","4491.70000000007","[""10""]","0","24","8114","3964","","","","","","","","","","","","","","","","","","",""
"pit-instructions","106","788380","0.0-2.0-21.0-1.0","battery-v0.2","","""event"",""trial"",""time""
""fullscreenenter"",""1"",""5819""
","
","
","""event"",""trial"",""time""
""fullscreenenter"",""1"",""5819""
","
","","[{""page_index"":0,""viewing_time"":1218.0999999999767}]","1218.5","","","","","","","","","","","","","","","","","","","","","","","",""
"pit-comprehension","107","795830","0.0-2.0-22.0-0.0","battery-v0.2","","""event"",""trial"",""time""
""fullscreenenter"",""1"",""5819""
","
","
","""event"",""trial"",""time""
""fullscreenenter"",""1"",""5819""
","
","","","7446.5","[""-10""]","1","24","8114","3964","","","","","","","","","","","","","","","","","","",""
"pit-instructions","108","799845","0.0-2.0-22.0-1.0","battery-v0.2","","""event"",""trial"",""time""
""fullscreenenter"",""1"",""5819""
","
","
","""event"",""trial"",""time""
""fullscreenenter"",""1"",""5819""
","
","","[{""page_index"":0,""viewing_time"":3984.3000000000466}]","3984.6999999999534","","","","","","","","","","","","","","","","","","","","","","","",""
"pit-instructions","109","800622","0.0-2.0-22.0-2.0-0.0","battery-v0.2","","""event"",""trial"",""time""
""fullscreenenter"",""1"",""5819""
","
","
","""event"",""trial"",""time""
""fullscreenenter"",""1"",""5819""
","
","","[{""page_index"":0,""viewing_time"":775}]","775.1999999999534","","","","","","","","","","","","","","","","","","","","","","","",""
"pit-comprehension","110","807152","0.0-2.0-22.1-0.1","battery-v0.2","","""event"",""trial"",""time""
""fullscreenenter"",""1"",""5819""
","
","
","""event"",""trial"",""time""
""fullscreenenter"",""1"",""5819""
","
","","","6527.20000000007","[""0""]","0","24","8114","3964","","","","","","","","","","","","","","","","","","",""
"pit-instructions","111","809403","0.0-2.0-22.1-1.1","battery-v0.2","","""event"",""trial"",""time""
""fullscreenenter"",""1"",""5819""
","
","
","""event"",""trial"",""time""
""fullscreenenter"",""1"",""5819""
","
","","[{""page_index"":0,""viewing_time"":2226.899999999907}]","2227.1999999999534","","","","","","","","","","","","","","","","","","","","","","","",""
"pit-comprehension","112","820716","0.0-2.0-23.0-0.0","battery-v0.2","","""event"",""trial"",""time""
""fullscreenenter"",""1"",""5819""
""blur"",""113"",""824075""
""focus"",""113"",""833109""
","""event"",""trial"",""time""
""blur"",""113"",""824075""
","""event"",""trial"",""time""
""focus"",""113"",""833109""
","""event"",""trial"",""time""
""fullscreenenter"",""1"",""5819""
","
","","","11310.300000000047","[""True""]","0","24","8114","3964","","","","","","","","","","","","","","","","","","",""
"pit-instructions","113","834660","0.0-2.0-23.0-1.0","battery-v0.2","","""event"",""trial"",""time""
""fullscreenenter"",""1"",""5819""
""blur"",""113"",""824075""
""focus"",""113"",""833109""
","""event"",""trial"",""time""
""blur"",""113"",""824075""
","""event"",""trial"",""time""
""focus"",""113"",""833109""
","""event"",""trial"",""time""
""fullscreenenter"",""1"",""5819""
","
","","[{""page_index"":0,""viewing_time"":13910.70000000007}]","13911.099999999977","","","","","","","","","","","","","","","","","","","","","","","",""
"pit-comprehension","114","847790","0.0-2.0-24.0-0.0","battery-v0.2","","""event"",""trial"",""time""
""fullscreenenter"",""1"",""5819""
""blur"",""113"",""824075""
""focus"",""113"",""833109""
","""event"",""trial"",""time""
""blur"",""113"",""824075""
","""event"",""trial"",""time""
""focus"",""113"",""833109""
","""event"",""trial"",""time""
""fullscreenenter"",""1"",""5819""
","
","","","13126.800000000047","[""True""]","0","24","8114","3964","","","","","","","","","","","","","","","","","","",""
"pit-instructions","115","849553","0.0-2.0-24.0-1.0","battery-v0.2","","""event"",""trial"",""time""
""fullscreenenter"",""1"",""5819""
""blur"",""113"",""824075""
""focus"",""113"",""833109""
","""event"",""trial"",""time""
""blur"",""113"",""824075""
","""event"",""trial"",""time""
""focus"",""113"",""833109""
","""event"",""trial"",""time""
""fullscreenenter"",""1"",""5819""
","
","","[{""page_index"":0,""viewing_time"":1732}]","1732.2999999999302","","","","","","","","","","","","","","","","","","","","","","","",""
"pit-comprehension","116","856142","0.0-2.0-25.0-0.0","battery-v0.2","","""event"",""trial"",""time""
""fullscreenenter"",""1"",""5819""
""blur"",""113"",""824075""
""focus"",""113"",""833109""
","""event"",""trial"",""time""
""blur"",""113"",""824075""
","""event"",""trial"",""time""
""focus"",""113"",""833109""
","""event"",""trial"",""time""
""fullscreenenter"",""1"",""5819""
","
","","","6586.29999999993","[""True""]","0","24","8114","3964","","","","","","","","","","","","","","","","","","",""
"pit-instructions","117","859045","0.0-2.0-25.0-1.0","battery-v0.2","","""event"",""trial"",""time""
""fullscreenenter"",""1"",""5819""
""blur"",""113"",""824075""
""focus"",""113"",""833109""
","""event"",""trial"",""time""
""blur"",""113"",""824075""
","""event"",""trial"",""time""
""focus"",""113"",""833109""
","""event"",""trial"",""time""
""fullscreenenter"",""1"",""5819""
","
","","[{""page_index"":0,""viewing_time"":2868.29999999993}]","2868.5999999999767","","","","","","","","","","","","","","","","","","","","","","","",""
"pit-comprehension","118","863657","0.0-2.0-26.0-0.0","battery-v0.2","","""event"",""trial"",""time""
""fullscreenenter"",""1"",""5819""
""blur"",""113"",""824075""
""focus"",""113"",""833109""
","""event"",""trial"",""time""
""blur"",""113"",""824075""
","""event"",""trial"",""time""
""focus"",""113"",""833109""
","""event"",""trial"",""time""
""fullscreenenter"",""1"",""5819""
","
","","","4608.800000000047","[""False""]","0","24","8114","3964","","","","","","","","","","","","","","","","","","",""
"pit-instructions","119","870969","0.0-2.0-26.0-1.0","battery-v0.2","","""event"",""trial"",""time""
""fullscreenenter"",""1"",""5819""
""blur"",""113"",""824075""
""focus"",""113"",""833109""
","""event"",""trial"",""time""
""blur"",""113"",""824075""
","""event"",""trial"",""time""
""focus"",""113"",""833109""
","""event"",""trial"",""time""
""fullscreenenter"",""1"",""5819""
","
","","[{""page_index"":0,""viewing_time"":7280}]","7280.40000000014","","","","","","","","","","","","","","","","","","","","","","","",""
"pit-instructions","120","886577","0.0-3.0","battery-v0.2","","""event"",""trial"",""time""
""fullscreenenter"",""1"",""5819""
""blur"",""113"",""824075""
""focus"",""113"",""833109""
","""event"",""trial"",""time""
""blur"",""113"",""824075""
","""event"",""trial"",""time""
""focus"",""113"",""833109""
","""event"",""trial"",""time""
""fullscreenenter"",""1"",""5819""
","
","","[{""page_index"":0,""viewing_time"":3879.3000000000466},{""page_index"":1,""viewing_time"":5136.300000000047},{""page_index"":2,""viewing_time"":6589.300000000047}]","15605.300000000047","","","","","","","","","","","","","","","","","","","","","","","",""
"pit-trial","121","890399","0.0-4.0","battery-v0.2","","""event"",""trial"",""time""
""fullscreenenter"",""1"",""5819""
""blur"",""113"",""824075""
""focus"",""113"",""833109""
","""event"",""trial"",""time""
""blur"",""113"",""824075""
","""event"",""trial"",""time""
""focus"",""113"",""833109""
","""event"",""trial"",""time""
""fullscreenenter"",""1"",""5819""
","
","","","955.8000000000466","","","24","8114","3964","&#9752;","elianto","#f73b6a7A"," "," ","1","0","[1812.8000000000466]","1","1","","","8114","1","3","3","lose","go","0"
"pit-trial","122","893911","0.0-5.0","battery-v0.2","","""event"",""trial"",""time""
""fullscreenenter"",""1"",""5819""
""blur"",""113"",""824075""
""focus"",""113"",""833109""
","""event"",""trial"",""time""
""blur"",""113"",""824075""
","""event"",""trial"",""time""
""focus"",""113"",""833109""
","""event"",""trial"",""time""
""fullscreenenter"",""1"",""5819""
","
","","","649.5","","","24","8114","3964","&#9730;","elianto","#3366ff99"," "," ","1","0","[1503.1000000000931]","1","1","","","8114","2","1","1","win","go","1"
"pit-trial","123","897735","0.0-6.0","battery-v0.2","","""event"",""trial"",""time""
""fullscreenenter"",""1"",""5819""
""blur"",""113"",""824075""
""focus"",""113"",""833109""
","""event"",""trial"",""time""
""blur"",""113"",""824075""
","""event"",""trial"",""time""
""focus"",""113"",""833109""
","""event"",""trial"",""time""
""fullscreenenter"",""1"",""5819""
","
","","","965.6999999999534","","","24","8114","3964","&#9728;","elianto","#f73b6a7A","-1"," ","0","-10","[1816.6000000000931]","1","1","","","8114","3","0","4","lose","no-go","0"
"pit-trial","124","901303","0.0-7.0","battery-v0.2","","""event"",""trial"",""time""
""fullscreenenter"",""1"",""5819""
""blur"",""113"",""824075""
""focus"",""113"",""833109""
","""event"",""trial"",""time""
""blur"",""113"",""824075""
","""event"",""trial"",""time""
""focus"",""113"",""833109""
","""event"",""trial"",""time""
""fullscreenenter"",""1"",""5819""
","
","","","704.3000000000466","","","24","8114","3964","&#9733;","elianto","#3366ff99","-1"," ","0","0","[1558.1999999999534]","1","1","","","8114","4","2","2","win","no-go","0"
"pit-trial","125","904943","0.0-8.0","battery-v0.2","","""event"",""trial"",""time""
""fullscreenenter"",""1"",""5819""
""blur"",""113"",""824075""
""focus"",""113"",""833109""
","""event"",""trial"",""time""
""blur"",""113"",""824075""
","""event"",""trial"",""time""
""focus"",""113"",""833109""
","""event"",""trial"",""time""
""fullscreenenter"",""1"",""5819""
","
","","","782.6000000000931","","","24","8114","3964","&#9728;","elianto","#f73b6a7A","-1"," ","0","-10","[1636.1999999999534]","1","1","","","8114","5","0","4","lose","no-go","0"
"pit-trial","126","908703","0.0-9.0","battery-v0.2","","""event"",""trial"",""time""
""fullscreenenter"",""1"",""5819""
""blur"",""113"",""824075""
""focus"",""113"",""833109""
","""event"",""trial"",""time""
""blur"",""113"",""824075""
","""event"",""trial"",""time""
""focus"",""113"",""833109""
","""event"",""trial"",""time""
""fullscreenenter"",""1"",""5819""
","
","","","906","","","24","8114","3964","&#9733;","elianto","#3366ff99","-1"," ","0","0","[1755.8999999999069]","1","1","","","8114","6","2","2","win","no-go","0"
"pit-trial","127","912447","0.0-10.0","battery-v0.2","","""event"",""trial"",""time""
""fullscreenenter"",""1"",""5819""
""blur"",""113"",""824075""
""focus"",""113"",""833109""
","""event"",""trial"",""time""
""blur"",""113"",""824075""
","""event"",""trial"",""time""
""focus"",""113"",""833109""
","""event"",""trial"",""time""
""fullscreenenter"",""1"",""5819""
","
","","","883.6999999999534","","","24","8114","3964","&#9752;","elianto","#f73b6a7A"," "," ","1","-10","[1737.4000000001397]","1","1","","","8114","7","3","3","lose","go","1"
"pit-trial","128","916223","0.0-11.0","battery-v0.2","","""event"",""trial"",""time""
""fullscreenenter"",""1"",""5819""
""blur"",""113"",""824075""
""focus"",""113"",""833109""
","""event"",""trial"",""time""
""blur"",""113"",""824075""
","""event"",""trial"",""time""
""focus"",""113"",""833109""
","""event"",""trial"",""time""
""fullscreenenter"",""1"",""5819""
","
","","","914.4000000001397","","","24","8114","3964","&#9730;","elianto","#3366ff99"," "," ","1","+10","[1768.3999999999069]","1","1","","","8114","8","1","1","win","go","0"
"pit-trial","129","920063","0.0-12.0","battery-v0.2","","""event"",""trial"",""time""
""fullscreenenter"",""1"",""5819""
""blur"",""113"",""824075""
""focus"",""113"",""833109""
","""event"",""trial"",""time""
""blur"",""113"",""824075""
","""event"",""trial"",""time""
""focus"",""113"",""833109""
","""event"",""trial"",""time""
""fullscreenenter"",""1"",""5819""
","
","","","980.0999999998603","","","24","8114","3964","&#9730;","elianto","#3366ff99"," "," ","1","+10","[1834.0999999998603]","1","1","","","8114","9","1","1","win","go","0"
"pit-trial","130","924927","0.0-13.0","battery-v0.2","","""event"",""trial"",""time""
""fullscreenenter"",""1"",""5819""
""blur"",""113"",""824075""
""focus"",""113"",""833109""
","""event"",""trial"",""time""
""blur"",""113"",""824075""
","""event"",""trial"",""time""
""focus"",""113"",""833109""
","""event"",""trial"",""time""
""fullscreenenter"",""1"",""5819""
","
","","","-1","","","24","8114","3964","&#9728;","elianto","#f73b6a7A","-1","-1","1","0","[]","0","1","","","8114","10","0","4","lose","no-go","0"
"pit-trial","131","929495","0.0-14.0","battery-v0.2","","""event"",""trial"",""time""
""fullscreenenter"",""1"",""5819""
""blur"",""113"",""824075""
""focus"",""113"",""833109""
","""event"",""trial"",""time""
""blur"",""113"",""824075""
","""event"",""trial"",""time""
""focus"",""113"",""833109""
","""event"",""trial"",""time""
""fullscreenenter"",""1"",""5819""
","
","","","1711.5","","","24","8114","3964","&#9733;","elianto","#3366ff99","-1"," ","0","0","[2561.7999999998137]","1","1","","","8114","11","2","2","win","no-go","0"
"pit-trial","132","934359","0.0-15.0","battery-v0.2","","""event"",""trial"",""time""
""fullscreenenter"",""1"",""5819""
""blur"",""113"",""824075""
""focus"",""113"",""833109""
","""event"",""trial"",""time""
""blur"",""113"",""824075""
","""event"",""trial"",""time""
""focus"",""113"",""833109""
","""event"",""trial"",""time""
""fullscreenenter"",""1"",""5819""
","
","","","-1","","","24","8114","3964","&#9752;","elianto","#f73b6a7A"," ","-1","0","-10","[]","0","1","","","8114","12","3","3","lose","go","0"
"pit-trial","133","939223","0.0-16.0","battery-v0.2","","""event"",""trial"",""time""
""fullscreenenter"",""1"",""5819""
""blur"",""113"",""824075""
""focus"",""113"",""833109""
","""event"",""trial"",""time""
""blur"",""113"",""824075""
","""event"",""trial"",""time""
""focus"",""113"",""833109""
","""event"",""trial"",""time""
""fullscreenenter"",""1"",""5819""
","
","","","-1","","","24","8114","3964","&#9752;","elianto","#f73b6a7A"," ","-1","0","-10","[]","0","1","","","8114","13","3","3","lose","go","0"
"pit-trial","134","944087","0.0-17.0","battery-v0.2","","""event"",""trial"",""time""
""fullscreenenter"",""1"",""5819""
""blur"",""113"",""824075""
""focus"",""113"",""833109""
","""event"",""trial"",""time""
""blur"",""113"",""824075""
","""event"",""trial"",""time""
""focus"",""113"",""833109""
","""event"",""trial"",""time""
""fullscreenenter"",""1"",""5819""
","
","","","-1","","","24","8114","3964","&#9728;","elianto","#f73b6a7A","-1","-1","1","0","[]","0","1","","","8114","14","0","4","lose","no-go","0"
"pit-trial","135","947599","0.0-18.0","battery-v0.2","","""event"",""trial"",""time""
""fullscreenenter"",""1"",""5819""
""blur"",""113"",""824075""
""focus"",""113"",""833109""
","""event"",""trial"",""time""
""blur"",""113"",""824075""
","""event"",""trial"",""time""
""focus"",""113"",""833109""
","""event"",""trial"",""time""
""fullscreenenter"",""1"",""5819""
","
","","","648.3000000000466","","","24","8114","3964","&#9733;","elianto","#3366ff99","-1"," ","0","0","[1502]","1","1","","","8114","15","2","2","win","no-go","0"
"pit-trial","136","951199","0.0-19.0","battery-v0.2","","""event"",""trial"",""time""
""fullscreenenter"",""1"",""5819""
""blur"",""113"",""824075""
""focus"",""113"",""833109""
","""event"",""trial"",""time""
""blur"",""113"",""824075""
","""event"",""trial"",""time""
""focus"",""113"",""833109""
","""event"",""trial"",""time""
""fullscreenenter"",""1"",""5819""
","
","","","742.5999999998603","","","24","8114","3964","&#9730;","elianto","#3366ff99"," "," ","1","+10","[1596.1999999999534]","1","1","","","8114","16","1","1","win","go","0"
"pit-trial","137","954967","0.0-20.0","battery-v0.2","","""event"",""trial"",""time""
""fullscreenenter"",""1"",""5819""
""blur"",""113"",""824075""
""focus"",""113"",""833109""
","""event"",""trial"",""time""
""blur"",""113"",""824075""
","""event"",""trial"",""time""
""focus"",""113"",""833109""
","""event"",""trial"",""time""
""fullscreenenter"",""1"",""5819""
","
","","","908.3000000000466","","","24","8114","3964","&#9752;","elianto","#f73b6a7A"," "," ","1","0","[1762.1999999999534]","1","1","","","8114","17","3","3","lose","go","0"
"pit-trial","138","959831","0.0-21.0","battery-v0.2","","""event"",""trial"",""time""
""fullscreenenter"",""1"",""5819""
""blur"",""113"",""824075""
""focus"",""113"",""833109""
","""event"",""trial"",""time""
""blur"",""113"",""824075""
","""event"",""trial"",""time""
""focus"",""113"",""833109""
","""event"",""trial"",""time""
""fullscreenenter"",""1"",""5819""
","
","","","-1","","","24","8114","3964","&#9733;","elianto","#3366ff99","-1","-1","1","+10","[]","0","1","","","8114","18","2","2","win","no-go","0"
"pit-trial","139","964695","0.0-22.0","battery-v0.2","","""event"",""trial"",""time""
""fullscreenenter"",""1"",""5819""
""blur"",""113"",""824075""
""focus"",""113"",""833109""
","""event"",""trial"",""time""
""blur"",""113"",""824075""
","""event"",""trial"",""time""
""focus"",""113"",""833109""
","""event"",""trial"",""time""
""fullscreenenter"",""1"",""5819""
","
","","","-1","","","24","8114","3964","&#9728;","elianto","#f73b6a7A","-1","-1","1","-10","[]","0","1","","","8114","19","0","4","lose","no-go","1"
"pit-trial","140","968167","0.0-23.0","battery-v0.2","","""event"",""trial"",""time""
""fullscreenenter"",""1"",""5819""
""blur"",""113"",""824075""
""focus"",""113"",""833109""
","""event"",""trial"",""time""
""blur"",""113"",""824075""
","""event"",""trial"",""time""
""focus"",""113"",""833109""
","""event"",""trial"",""time""
""fullscreenenter"",""1"",""5819""
","
","","","612.6999999999534","","","24","8114","3964","&#9730;","elianto","#3366ff99"," "," ","1","+10","[1464.8000000000466]","1","1","","","8114","20","1","1","win","go","0"
"pit-instructions","141","997914","0.0-24.0","battery-v0.2","","""event"",""trial"",""time""
""fullscreenenter"",""1"",""5819""
""blur"",""113"",""824075""
""focus"",""113"",""833109""
","""event"",""trial"",""time""
""blur"",""113"",""824075""
","""event"",""trial"",""time""
""focus"",""113"",""833109""
","""event"",""trial"",""time""
""fullscreenenter"",""1"",""5819""
","
","","[{""page_index"":0,""viewing_time"":23561.199999999953},{""page_index"":1,""viewing_time"":6183.699999999953}]","29745.5","","","","","","","","","","","","","","","","","","","","","","","",""
"pit-trial","142","1002783","0.0-25.0","battery-v0.2","","""event"",""trial"",""time""
""fullscreenenter"",""1"",""5819""
""blur"",""113"",""824075""
""focus"",""113"",""833109""
","""event"",""trial"",""time""
""blur"",""113"",""824075""
","""event"",""trial"",""time""
""focus"",""113"",""833109""
","""event"",""trial"",""time""
""fullscreenenter"",""1"",""5819""
","
","","","-1","","","24","8114","3964","l","elianto","#3366ff99","-1","-1","1","+10","[]","0","2","","","8114","21","1","2","win","no-go","0"
"pit-trial","143","1006679","0.0-26.0","battery-v0.2","","""event"",""trial"",""time""
""fullscreenenter"",""1"",""5819""
""blur"",""113"",""824075""
""focus"",""113"",""833109""
","""event"",""trial"",""time""
""blur"",""113"",""824075""
","""event"",""trial"",""time""
""focus"",""113"",""833109""
","""event"",""trial"",""time""
""fullscreenenter"",""1"",""5819""
","
","","","1033.7999999998137","","","24","8114","3964","g","elianto","#f73b6a7A","-1"," ","0","-10","[1887.5999999998603]","1","2","","","8114","22","3","4","lose","no-go","0"
"pit-trial","144","1010559","0.0-27.0","battery-v0.2","","""event"",""trial"",""time""
""fullscreenenter"",""1"",""5819""
""blur"",""113"",""824075""
""focus"",""113"",""833109""
","""event"",""trial"",""time""
""blur"",""113"",""824075""
","""event"",""trial"",""time""
""focus"",""113"",""833109""
","""event"",""trial"",""time""
""fullscreenenter"",""1"",""5819""
","
","","","1025.8000000000466","","","24","8114","3964","u","elianto","#f73b6a7A"," "," ","1","-10","[1876.9000000001397]","1","2","","","8114","23","0","3","lose","go","1"
"pit-trial","145","1014254","0.0-28.0","battery-v0.2","","""event"",""trial"",""time""
""fullscreenenter"",""1"",""5819""
""blur"",""113"",""824075""
""focus"",""113"",""833109""
","""event"",""trial"",""time""
""blur"",""113"",""824075""
","""event"",""trial"",""time""
""focus"",""113"",""833109""
","""event"",""trial"",""time""
""fullscreenenter"",""1"",""5819""
","
","","","835.1999999999534","","","24","8114","3964","a","elianto","#f73b6a7A"," "," ","1","0","[1689.3999999999069]","1","2","","","8114","24","2","3","lose","go","0"
"pit-trial","146","1019118","0.0-29.0","battery-v0.2","","""event"",""trial"",""time""
""fullscreenenter"",""1"",""5819""
""blur"",""113"",""824075""
""focus"",""113"",""833109""
","""event"",""trial"",""time""
""blur"",""113"",""824075""
","""event"",""trial"",""time""
""focus"",""113"",""833109""
","""event"",""trial"",""time""
""fullscreenenter"",""1"",""5819""
","
","","","-1","","","24","8114","3964","g","elianto","#f73b6a7A","-1","-1","1","0","[]","0","2","","","8114","25","3","4","lose","no-go","0"
"pit-trial","147","1023983","0.0-30.0","battery-v0.2","","""event"",""trial"",""time""
""fullscreenenter"",""1"",""5819""
""blur"",""113"",""824075""
""focus"",""113"",""833109""
","""event"",""trial"",""time""
""blur"",""113"",""824075""
","""event"",""trial"",""time""
""focus"",""113"",""833109""
","""event"",""trial"",""time""
""fullscreenenter"",""1"",""5819""
","
","","","-1","","","24","8114","3964","a","elianto","#f73b6a7A"," ","-1","0","-10","[]","0","2","","","8114","26","2","3","lose","go","0"
"pit-trial","148","1027655","0.0-31.0","battery-v0.2","","""event"",""trial"",""time""
""fullscreenenter"",""1"",""5819""
""blur"",""113"",""824075""
""focus"",""113"",""833109""
","""event"",""trial"",""time""
""blur"",""113"",""824075""
","""event"",""trial"",""time""
""focus"",""113"",""833109""
","""event"",""trial"",""time""
""fullscreenenter"",""1"",""5819""
","
","","","811.8999999999069","","","24","8114","3964","l","elianto","#3366ff99","-1"," ","0","0","[1661.8999999999069]","1","2","","","8114","27","1","2","win","no-go","0"
"pit-trial","149","1032519","0.0-32.0","battery-v0.2","","""event"",""trial"",""time""
""fullscreenenter"",""1"",""5819""
""blur"",""113"",""824075""
""focus"",""113"",""833109""
","""event"",""trial"",""time""
""blur"",""113"",""824075""
","""event"",""trial"",""time""
""focus"",""113"",""833109""
","""event"",""trial"",""time""
""fullscreenenter"",""1"",""5819""
","
","","","-1","","","24","8114","3964","u","elianto","#f73b6a7A"," ","-1","0","-10","[]","0","2","","","8114","28","0","3","lose","go","0"
"pit-trial","150","1037383","0.0-33.0","battery-v0.2","","""event"",""trial"",""time""
""fullscreenenter"",""1"",""5819""
""blur"",""113"",""824075""
""focus"",""113"",""833109""
","""event"",""trial"",""time""
""blur"",""113"",""824075""
","""event"",""trial"",""time""
""focus"",""113"",""833109""
","""event"",""trial"",""time""
""fullscreenenter"",""1"",""5819""
","
","","","-1","","","24","8114","3964","a","elianto","#f73b6a7A"," ","-1","0","-10","[]","0","2","","","8114","29","2","3","lose","go","0"
"pit-trial","151","1041055","0.0-34.0","battery-v0.2","","""event"",""trial"",""time""
""fullscreenenter"",""1"",""5819""
""blur"",""113"",""824075""
""focus"",""113"",""833109""
","""event"",""trial"",""time""
""blur"",""113"",""824075""
","""event"",""trial"",""time""
""focus"",""113"",""833109""
","""event"",""trial"",""time""
""fullscreenenter"",""1"",""5819""
","
","","","815.5","","","24","8114","3964","l","elianto","#3366ff99","-1"," ","0","0","[1665.8000000000466]","1","2","","","8114","30","1","2","win","no-go","0"
"pit-trial","152","1045183","0.0-35.0","battery-v0.2","","""event"",""trial"",""time""
""fullscreenenter"",""1"",""5819""
""blur"",""113"",""824075""
""focus"",""113"",""833109""
","""event"",""trial"",""time""
""blur"",""113"",""824075""
","""event"",""trial"",""time""
""focus"",""113"",""833109""
","""event"",""trial"",""time""
""fullscreenenter"",""1"",""5819""
","
","","","1271.5999999998603","","","24","8114","3964","u","elianto","#f73b6a7A"," "," ","1","0","[2125.5]","1","2","","","8114","31","0","3","lose","go","0"
"pit-trial","153","1050047","0.0-36.0","battery-v0.2","","""event"",""trial"",""time""
""fullscreenenter"",""1"",""5819""
""blur"",""113"",""824075""
""focus"",""113"",""833109""
","""event"",""trial"",""time""
""blur"",""113"",""824075""
","""event"",""trial"",""time""
""focus"",""113"",""833109""
","""event"",""trial"",""time""
""fullscreenenter"",""1"",""5819""
","
","","","-1","","","24","8114","3964","g","elianto","#f73b6a7A","-1","-1","1","0","[]","0","2","","","8114","32","3","4","lose","no-go","0"
"pit-trial","154","1054095","0.0-37.0","battery-v0.2","","""event"",""trial"",""time""
""fullscreenenter"",""1"",""5819""
""blur"",""113"",""824075""
""focus"",""113"",""833109""
","""event"",""trial"",""time""
""blur"",""113"",""824075""
","""event"",""trial"",""time""
""focus"",""113"",""833109""
","""event"",""trial"",""time""
""fullscreenenter"",""1"",""5819""
","
","","","1189.7999999998137","","","24","8114","3964","u","elianto","#f73b6a7A"," "," ","1","0","[2040.5]","1","2","","","8114","33","0","3","lose","go","0"
"pit-trial","155","1057623","0.0-38.0","battery-v0.2","","""event"",""trial"",""time""
""fullscreenenter"",""1"",""5819""
""blur"",""113"",""824075""
""focus"",""113"",""833109""
","""event"",""trial"",""time""
""blur"",""113"",""824075""
","""event"",""trial"",""time""
""focus"",""113"",""833109""
","""event"",""trial"",""time""
""fullscreenenter"",""1"",""5819""
","
","","","664.7999999998137","","","24","8114","3964","l","elianto","#3366ff99","-1"," ","0","0","[1517.5]","1","2","","","8114","34","1","2","win","no-go","0"
"pit-trial","156","1062487","0.0-39.0","battery-v0.2","","""event"",""trial"",""time""
""fullscreenenter"",""1"",""5819""
""blur"",""113"",""824075""
""focus"",""113"",""833109""
","""event"",""trial"",""time""
""blur"",""113"",""824075""
","""event"",""trial"",""time""
""focus"",""113"",""833109""
","""event"",""trial"",""time""
""fullscreenenter"",""1"",""5819""
","
","","","-1","","","24","8114","3964","g","elianto","#f73b6a7A","-1","-1","1","-10","[]","0","2","","","8114","35","3","4","lose","no-go","1"
"pit-trial","157","1066071","0.0-40.0","battery-v0.2","","""event"",""trial"",""time""
""fullscreenenter"",""1"",""5819""
""blur"",""113"",""824075""
""focus"",""113"",""833109""
","""event"",""trial"",""time""
""blur"",""113"",""824075""
","""event"",""trial"",""time""
""focus"",""113"",""833109""
","""event"",""trial"",""time""
""fullscreenenter"",""1"",""5819""
","
","","","725.5999999998603","","","24","8114","3964","a","elianto","#f73b6a7A"," "," ","1","-10","[1579.3000000000466]","1","2","","","8114","36","2","3","lose","go","1"
"pit-trial","158","1070342","0.0-41.0","battery-v0.2","","""event"",""trial"",""time""
""fullscreenenter"",""1"",""5819""
""blur"",""113"",""824075""
""focus"",""113"",""833109""
","""event"",""trial"",""time""
""blur"",""113"",""824075""
","""event"",""trial"",""time""
""focus"",""113"",""833109""
","""event"",""trial"",""time""
""fullscreenenter"",""1"",""5819""
","
","","","1415.5","","","24","8114","3964","g","elianto","#f73b6a7A","-1"," ","0","-10","[2269.3000000000466]","1","2","","","8114","37","3","4","lose","no-go","0"
"pit-trial","159","1074807","0.0-42.0","battery-v0.2","","""event"",""trial"",""time""
""fullscreenenter"",""1"",""5819""
""blur"",""113"",""824075""
""focus"",""113"",""833109""
","""event"",""trial"",""time""
""blur"",""113"",""824075""
","""event"",""trial"",""time""
""focus"",""113"",""833109""
","""event"",""trial"",""time""
""fullscreenenter"",""1"",""5819""
","
","","","1599.6999999999534","","","24","8114","3964","u","elianto","#f73b6a7A"," "," ","1","0","[2454.100000000093]","1","2","","","8114","38","0","3","lose","go","0"
"pit-trial","160","1078663","0.0-43.0","battery-v0.2","","""event"",""trial"",""time""
""fullscreenenter"",""1"",""5819""
""blur"",""113"",""824075""
""focus"",""113"",""833109""
","""event"",""trial"",""time""
""blur"",""113"",""824075""
","""event"",""trial"",""time""
""focus"",""113"",""833109""
","""event"",""trial"",""time""
""fullscreenenter"",""1"",""5819""
","
","","","992.3000000000466","","","24","8114","3964","a","elianto","#f73b6a7A"," "," ","1","0","[1845.8999999999069]","1","2","","","8114","39","2","3","lose","go","0"
"pit-trial","161","1082063","0.0-44.0","battery-v0.2","","""event"",""trial"",""time""
""fullscreenenter"",""1"",""5819""
""blur"",""113"",""824075""
""focus"",""113"",""833109""
","""event"",""trial"",""time""
""blur"",""113"",""824075""
","""event"",""trial"",""time""
""focus"",""113"",""833109""
","""event"",""trial"",""time""
""fullscreenenter"",""1"",""5819""
","
","","","544.3000000000466","","","24","8114","3964","l","elianto","#3366ff99","-1"," ","0","0","[1395.8000000000466]","1","2","","","8114","40","1","2","win","no-go","0"
"pit-trial","162","1086927","0.0-45.0","battery-v0.2","","""event"",""trial"",""time""
""fullscreenenter"",""1"",""5819""
""blur"",""113"",""824075""
""focus"",""113"",""833109""
","""event"",""trial"",""time""
""blur"",""113"",""824075""
","""event"",""trial"",""time""
""focus"",""113"",""833109""
","""event"",""trial"",""time""
""fullscreenenter"",""1"",""5819""
","
","","","-1","","","24","8114","3964","a","elianto","#f73b6a7A"," ","-1","0","-10","[]","0","2","","","8114","41","2","3","lose","go","0"
"pit-trial","163","1091295","0.0-46.0","battery-v0.2","","""event"",""trial"",""time""
""fullscreenenter"",""1"",""5819""
""blur"",""113"",""824075""
""focus"",""113"",""833109""
","""event"",""trial"",""time""
""blur"",""113"",""824075""
","""event"",""trial"",""time""
""focus"",""113"",""833109""
","""event"",""trial"",""time""
""fullscreenenter"",""1"",""5819""
","
","","","1510.3000000000466","","","24","8114","3964","g","elianto","#f73b6a7A","-1"," ","0","0","[2364.5]","1","2","","","8114","42","3","4","lose","no-go","1"
"pit-trial","164","1095511","0.0-47.0","battery-v0.2","","""event"",""trial"",""time""
""fullscreenenter"",""1"",""5819""
""blur"",""113"",""824075""
""focus"",""113"",""833109""
","""event"",""trial"",""time""
""blur"",""113"",""824075""
","""event"",""trial"",""time""
""focus"",""113"",""833109""
","""event"",""trial"",""time""
""fullscreenenter"",""1"",""5819""
","
","","","1353.5","","","24","8114","3964","u","elianto","#f73b6a7A"," "," ","1","0","[2207.399999999907]","1","2","","","8114","43","0","3","lose","go","0"
"pit-trial","165","1100375","0.0-48.0","battery-v0.2","","""event"",""trial"",""time""
""fullscreenenter"",""1"",""5819""
""blur"",""113"",""824075""
""focus"",""113"",""833109""
","""event"",""trial"",""time""
""blur"",""113"",""824075""
","""event"",""trial"",""time""
""focus"",""113"",""833109""
","""event"",""trial"",""time""
""fullscreenenter"",""1"",""5819""
","
","","","-1","","","24","8114","3964","l","elianto","#3366ff99","-1","-1","1","+10","[]","0","2","","","8114","44","1","2","win","no-go","0"
"pit-trial","166","1104663","0.0-49.0","battery-v0.2","","""event"",""trial"",""time""
""fullscreenenter"",""1"",""5819""
""blur"",""113"",""824075""
""focus"",""113"",""833109""
","""event"",""trial"",""time""
""blur"",""113"",""824075""
","""event"",""trial"",""time""
""focus"",""113"",""833109""
","""event"",""trial"",""time""
""fullscreenenter"",""1"",""5819""
","
","","","1424.1999999999534","","","24","8114","3964","a","elianto","#f73b6a7A"," "," ","1","0","[2278.0999999998603]","1","2","","","8114","45","2","3","lose","go","0"
"pit-trial","167","1109527","0.0-50.0","battery-v0.2","","""event"",""trial"",""time""
""fullscreenenter"",""1"",""5819""
""blur"",""113"",""824075""
""focus"",""113"",""833109""
","""event"",""trial"",""time""
""blur"",""113"",""824075""
","""event"",""trial"",""time""
""focus"",""113"",""833109""
","""event"",""trial"",""time""
""fullscreenenter"",""1"",""5819""
","
","","","-1","","","24","8114","3964","g","elianto","#f73b6a7A","-1","-1","1","-10","[]","0","2","","","8114","46","3","4","lose","no-go","1"
"pit-trial","168","1113839","0.0-51.0","battery-v0.2","","""event"",""trial"",""time""
""fullscreenenter"",""1"",""5819""
""blur"",""113"",""824075""
""focus"",""113"",""833109""
","""event"",""trial"",""time""
""blur"",""113"",""824075""
","""event"",""trial"",""time""
""focus"",""113"",""833109""
","""event"",""trial"",""time""
""fullscreenenter"",""1"",""5819""
","
","","","1451.6999999999534","","","24","8114","3964","u","elianto","#f73b6a7A"," "," ","1","0","[2305.3000000000466]","1","2","","","8114","47","0","3","lose","go","0"
"pit-trial","169","1118703","0.0-52.0","battery-v0.2","","""event"",""trial"",""time""
""fullscreenenter"",""1"",""5819""
""blur"",""113"",""824075""
""focus"",""113"",""833109""
","""event"",""trial"",""time""
""blur"",""113"",""824075""
","""event"",""trial"",""time""
""focus"",""113"",""833109""
","""event"",""trial"",""time""
""fullscreenenter"",""1"",""5819""
","
","","","-1","","","24","8114","3964","l","elianto","#3366ff99","-1","-1","1","+10","[]","0","2","","","8114","48","1","2","win","no-go","0"
"pit-trial","170","1123063","0.0-53.0","battery-v0.2","","""event"",""trial"",""time""
""fullscreenenter"",""1"",""5819""
""blur"",""113"",""824075""
""focus"",""113"",""833109""
","""event"",""trial"",""time""
""blur"",""113"",""824075""
","""event"",""trial"",""time""
""focus"",""113"",""833109""
","""event"",""trial"",""time""
""fullscreenenter"",""1"",""5819""
","
","","","1501.8000000000466","","","24","8114","3964","a","elianto","#f73b6a7A"," "," ","1","0","[2355.6999999999534]","1","2","","","8114","49","2","3","lose","go","0"
"pit-trial","171","1127927","0.0-54.0","battery-v0.2","","""event"",""trial"",""time""
""fullscreenenter"",""1"",""5819""
""blur"",""113"",""824075""
""focus"",""113"",""833109""
","""event"",""trial"",""time""
""blur"",""113"",""824075""
","""event"",""trial"",""time""
""focus"",""113"",""833109""
","""event"",""trial"",""time""
""fullscreenenter"",""1"",""5819""
","
","","","-1","","","24","8114","3964","l","elianto","#3366ff99","-1","-1","1","+10","[]","0","2","","","8114","50","1","2","win","no-go","0"
"pit-trial","172","1132791","0.0-55.0","battery-v0.2","","""event"",""trial"",""time""
""fullscreenenter"",""1"",""5819""
""blur"",""113"",""824075""
""focus"",""113"",""833109""
","""event"",""trial"",""time""
""blur"",""113"",""824075""
","""event"",""trial"",""time""
""focus"",""113"",""833109""
","""event"",""trial"",""time""
""fullscreenenter"",""1"",""5819""
","
","","","-1","","","24","8114","3964","u","elianto","#f73b6a7A"," ","-1","0","-10","[]","0","2","","","8114","51","0","3","lose","go","0"
"pit-trial","173","1136623","0.0-56.0","battery-v0.2","","""event"",""trial"",""time""
""fullscreenenter"",""1"",""5819""
""blur"",""113"",""824075""
""focus"",""113"",""833109""
","""event"",""trial"",""time""
""blur"",""113"",""824075""
","""event"",""trial"",""time""
""focus"",""113"",""833109""
","""event"",""trial"",""time""
""fullscreenenter"",""1"",""5819""
","
","","","972.1999999999534","","","24","8114","3964","g","elianto","#f73b6a7A","-1"," ","0","-10","[1826]","1","2","","","8114","52","3","4","lose","no-go","0"
"pit-trial","174","1141487","0.0-57.0","battery-v0.2","","""event"",""trial"",""time""
""fullscreenenter"",""1"",""5819""
""blur"",""113"",""824075""
""focus"",""113"",""833109""
","""event"",""trial"",""time""
""blur"",""113"",""824075""
","""event"",""trial"",""time""
""focus"",""113"",""833109""
","""event"",""trial"",""time""
""fullscreenenter"",""1"",""5819""
","
","","","-1","","","24","8114","3964","a","elianto","#f73b6a7A"," ","-1","0","-10","[]","0","2","","","8114","53","2","3","lose","go","0"
"pit-trial","175","1146351","0.0-58.0","battery-v0.2","","""event"",""trial"",""time""
""fullscreenenter"",""1"",""5819""
""blur"",""113"",""824075""
""focus"",""113"",""833109""
","""event"",""trial"",""time""
""blur"",""113"",""824075""
","""event"",""trial"",""time""
""focus"",""113"",""833109""
","""event"",""trial"",""time""
""fullscreenenter"",""1"",""5819""
","
","","","-1","","","24","8114","3964","g","elianto","#f73b6a7A","-1","-1","1","0","[]","0","2","","","8114","54","3","4","lose","no-go","0"
"pit-trial","176","1151215","0.0-59.0","battery-v0.2","","""event"",""trial"",""time""
""fullscreenenter"",""1"",""5819""
""blur"",""113"",""824075""
""focus"",""113"",""833109""
","""event"",""trial"",""time""
""blur"",""113"",""824075""
","""event"",""trial"",""time""
""focus"",""113"",""833109""
","""event"",""trial"",""time""
""fullscreenenter"",""1"",""5819""
","
","","","-1","","","24","8114","3964","u","elianto","#f73b6a7A"," ","-1","0","-10","[]","0","2","","","8114","55","0","3","lose","go","0"
"pit-trial","177","1154871","0.0-60.0","battery-v0.2","","""event"",""trial"",""time""
""fullscreenenter"",""1"",""5819""
""blur"",""113"",""824075""
""focus"",""113"",""833109""
","""event"",""trial"",""time""
""blur"",""113"",""824075""
","""event"",""trial"",""time""
""focus"",""113"",""833109""
","""event"",""trial"",""time""
""fullscreenenter"",""1"",""5819""
","
","","","798.3000000000466","","","24","8114","3964","l","elianto","#3366ff99","-1"," ","0","0","[1649.5]","1","2","","","8114","56","1","2","win","no-go","0"
"pit-trial","178","1159310","0.0-61.0","battery-v0.2","","""event"",""trial"",""time""
""fullscreenenter"",""1"",""5819""
""blur"",""113"",""824075""
""focus"",""113"",""833109""
","""event"",""trial"",""time""
""blur"",""113"",""824075""
","""event"",""trial"",""time""
""focus"",""113"",""833109""
","""event"",""trial"",""time""
""fullscreenenter"",""1"",""5819""
","
","","","1579.6999999999534","","","24","8114","3964","p","elianto","#3366ff99"," "," ","1","+10","[2433.4000000001397]","1","2","","","8114","57","4","1","win","go","0"
"pit-trial","179","1164175","0.0-62.0","battery-v0.2","","""event"",""trial"",""time""
""fullscreenenter"",""1"",""5819""
""blur"",""113"",""824075""
""focus"",""113"",""833109""
","""event"",""trial"",""time""
""blur"",""113"",""824075""
","""event"",""trial"",""time""
""focus"",""113"",""833109""
","""event"",""trial"",""time""
""fullscreenenter"",""1"",""5819""
","
","","","-1","","","24","8114","3964","u","elianto","#f73b6a7A"," ","-1","0","-10","[]","0","2","","","8114","58","0","3","lose","go","0"
"pit-trial","180","1168031","0.0-63.0","battery-v0.2","","""event"",""trial"",""time""
""fullscreenenter"",""1"",""5819""
""blur"",""113"",""824075""
""focus"",""113"",""833109""
","""event"",""trial"",""time""
""blur"",""113"",""824075""
","""event"",""trial"",""time""
""focus"",""113"",""833109""
","""event"",""trial"",""time""
""fullscreenenter"",""1"",""5819""
","
","","","995","","","24","8114","3964","a","elianto","#f73b6a7A"," "," ","1","0","[1848.8000000000466]","1","2","","","8114","59","2","3","lose","go","0"
"pit-trial","181","1172895","0.0-64.0","battery-v0.2","","""event"",""trial"",""time""
""fullscreenenter"",""1"",""5819""
""blur"",""113"",""824075""
""focus"",""113"",""833109""
","""event"",""trial"",""time""
""blur"",""113"",""824075""
","""event"",""trial"",""time""
""focus"",""113"",""833109""
","""event"",""trial"",""time""
""fullscreenenter"",""1"",""5819""
","
","","","-1","","","24","8114","3964","g","elianto","#f73b6a7A","-1","-1","1","-10","[]","0","2","","","8114","60","3","4","lose","no-go","1"
"pit-trial","182","1176591","0.0-65.0","battery-v0.2","","""event"",""trial"",""time""
""fullscreenenter"",""1"",""5819""
""blur"",""113"",""824075""
""focus"",""113"",""833109""
","""event"",""trial"",""time""
""blur"",""113"",""824075""
","""event"",""trial"",""time""
""focus"",""113"",""833109""
","""event"",""trial"",""time""
""fullscreenenter"",""1"",""5819""
","
","","","833.5","","","24","8114","3964","p","elianto","#3366ff99"," "," ","1","+10","[1687.5]","1","2","","","8114","61","4","1","win","go","0"
"pit-trial","183","1180159","0.0-66.0","battery-v0.2","","""event"",""trial"",""time""
""fullscreenenter"",""1"",""5819""
""blur"",""113"",""824075""
""focus"",""113"",""833109""
","""event"",""trial"",""time""
""blur"",""113"",""824075""
","""event"",""trial"",""time""
""focus"",""113"",""833109""
","""event"",""trial"",""time""
""fullscreenenter"",""1"",""5819""
","
","","","711.5","","","24","8114","3964","g","elianto","#f73b6a7A","-1"," ","0","-10","[1565.5999999998603]","1","2","","","8114","62","3","4","lose","no-go","0"
"pit-trial","184","1183511","0.0-67.0","battery-v0.2","","""event"",""trial"",""time""
""fullscreenenter"",""1"",""5819""
""blur"",""113"",""824075""
""focus"",""113"",""833109""
","""event"",""trial"",""time""
""blur"",""113"",""824075""
","""event"",""trial"",""time""
""focus"",""113"",""833109""
","""event"",""trial"",""time""
""fullscreenenter"",""1"",""5819""
","
","","","488.30000000004657","","","24","8114","3964","a","elianto","#f73b6a7A"," "," ","1","0","[1342.2999999998137]","1","2","","","8114","63","2","3","lose","go","0"
"pit-trial","185","1188375","0.0-68.0","battery-v0.2","","""event"",""trial"",""time""
""fullscreenenter"",""1"",""5819""
""blur"",""113"",""824075""
""focus"",""113"",""833109""
","""event"",""trial"",""time""
""blur"",""113"",""824075""
","""event"",""trial"",""time""
""focus"",""113"",""833109""
","""event"",""trial"",""time""
""fullscreenenter"",""1"",""5819""
","
","","","-1","","","24","8114","3964","l","elianto","#3366ff99","-1","-1","1","0","[]","0","2","","","8114","64","1","2","win","no-go","1"
"pit-trial","186","1192847","0.0-69.0","battery-v0.2","","""event"",""trial"",""time""
""fullscreenenter"",""1"",""5819""
""blur"",""113"",""824075""
""focus"",""113"",""833109""
","""event"",""trial"",""time""
""blur"",""113"",""824075""
","""event"",""trial"",""time""
""focus"",""113"",""833109""
","""event"",""trial"",""time""
""fullscreenenter"",""1"",""5819""
","
","","","1614.4000000001397","","","24","8114","3964","p","elianto","#3366ff99"," "," ","1","+10","[2468.3000000000466]","1","2","","","8114","65","4","1","win","go","0"
"pit-trial","187","1197711","0.0-70.0","battery-v0.2","","""event"",""trial"",""time""
""fullscreenenter"",""1"",""5819""
""blur"",""113"",""824075""
""focus"",""113"",""833109""
","""event"",""trial"",""time""
""blur"",""113"",""824075""
","""event"",""trial"",""time""
""focus"",""113"",""833109""
","""event"",""trial"",""time""
""fullscreenenter"",""1"",""5819""
","
","","","-1","","","24","8114","3964","l","elianto","#3366ff99","-1","-1","1","+10","[]","0","2","","","8114","66","1","2","win","no-go","0"
"pit-trial","188","1202111","0.0-71.0","battery-v0.2","","""event"",""trial"",""time""
""fullscreenenter"",""1"",""5819""
""blur"",""113"",""824075""
""focus"",""113"",""833109""
","""event"",""trial"",""time""
""blur"",""113"",""824075""
","""event"",""trial"",""time""
""focus"",""113"",""833109""
","""event"",""trial"",""time""
""fullscreenenter"",""1"",""5819""
","
","","","1542.4000000001397","","","24","8114","3964","s","elianto","#3366ff99","-1"," ","0","0","[2396.3000000000466]","1","2","","","8114","67","5","2","win","no-go","0"
"pit-trial","189","1205839","0.0-72.0","battery-v0.2","","""event"",""trial"",""time""
""fullscreenenter"",""1"",""5819""
""blur"",""113"",""824075""
""focus"",""113"",""833109""
","""event"",""trial"",""time""
""blur"",""113"",""824075""
","""event"",""trial"",""time""
""focus"",""113"",""833109""
","""event"",""trial"",""time""
""fullscreenenter"",""1"",""5819""
","
","","","870.8000000000466","","","24","8114","3964","g","elianto","#f73b6a7A","-1"," ","0","-10","[1724.8000000000466]","1","2","","","8114","68","3","4","lose","no-go","0"
"pit-trial","190","1210703","0.0-73.0","battery-v0.2","","""event"",""trial"",""time""
""fullscreenenter"",""1"",""5819""
""blur"",""113"",""824075""
""focus"",""113"",""833109""
","""event"",""trial"",""time""
""blur"",""113"",""824075""
","""event"",""trial"",""time""
""focus"",""113"",""833109""
","""event"",""trial"",""time""
""fullscreenenter"",""1"",""5819""
","
","","","-1","","","24","8114","3964","l","elianto","#3366ff99","-1","-1","1","+10","[]","0","2","","","8114","69","1","2","win","no-go","0"
"pit-trial","191","1214495","0.0-74.0","battery-v0.2","","""event"",""trial"",""time""
""fullscreenenter"",""1"",""5819""
""blur"",""113"",""824075""
""focus"",""113"",""833109""
","""event"",""trial"",""time""
""blur"",""113"",""824075""
","""event"",""trial"",""time""
""focus"",""113"",""833109""
","""event"",""trial"",""time""
""fullscreenenter"",""1"",""5819""
","
","","","938.0999999998603","","","24","8114","3964","a","elianto","#f73b6a7A"," "," ","1","0","[1788.5]","1","2","","","8114","70","2","3","lose","go","0"
"pit-trial","192","1217967","0.0-75.0","battery-v0.2","","""event"",""trial"",""time""
""fullscreenenter"",""1"",""5819""
""blur"",""113"",""824075""
""focus"",""113"",""833109""
","""event"",""trial"",""time""
""blur"",""113"",""824075""
","""event"",""trial"",""time""
""focus"",""113"",""833109""
","""event"",""trial"",""time""
""fullscreenenter"",""1"",""5819""
","
","","","613.6000000000931","","","24","8114","3964","p","elianto","#3366ff99"," "," ","1","+10","[1467.3000000000466]","1","2","","","8114","71","4","1","win","go","0"
"pit-trial","193","1221679","0.0-76.0","battery-v0.2","","""event"",""trial"",""time""
""fullscreenenter"",""1"",""5819""
""blur"",""113"",""824075""
""focus"",""113"",""833109""
","""event"",""trial"",""time""
""blur"",""113"",""824075""
","""event"",""trial"",""time""
""focus"",""113"",""833109""
","""event"",""trial"",""time""
""fullscreenenter"",""1"",""5819""
","
","","","851.4000000001397","","","24","8114","3964","s","elianto","#3366ff99","-1"," ","0","0","[1702.3000000000466]","1","2","","","8114","72","5","2","win","no-go","0"
"pit-trial","194","1226543","0.0-77.0","battery-v0.2","","""event"",""trial"",""time""
""fullscreenenter"",""1"",""5819""
""blur"",""113"",""824075""
""focus"",""113"",""833109""
","""event"",""trial"",""time""
""blur"",""113"",""824075""
","""event"",""trial"",""time""
""focus"",""113"",""833109""
","""event"",""trial"",""time""
""fullscreenenter"",""1"",""5819""
","
","","","-1","","","24","8114","3964","l","elianto","#3366ff99","-1","-1","1","+10","[]","0","2","","","8114","73","1","2","win","no-go","0"
"pit-trial","195","1231407","0.0-78.0","battery-v0.2","","""event"",""trial"",""time""
""fullscreenenter"",""1"",""5819""
""blur"",""113"",""824075""
""focus"",""113"",""833109""
","""event"",""trial"",""time""
""blur"",""113"",""824075""
","""event"",""trial"",""time""
""focus"",""113"",""833109""
","""event"",""trial"",""time""
""fullscreenenter"",""1"",""5819""
","
","","","-1","","","24","8114","3964","g","elianto","#f73b6a7A","-1","-1","1","0","[]","0","2","","","8114","74","3","4","lose","no-go","0"
"pit-trial","196","1235239","0.0-79.0","battery-v0.2","","""event"",""trial"",""time""
""fullscreenenter"",""1"",""5819""
""blur"",""113"",""824075""
""focus"",""113"",""833109""
","""event"",""trial"",""time""
""blur"",""113"",""824075""
","""event"",""trial"",""time""
""focus"",""113"",""833109""
","""event"",""trial"",""time""
""fullscreenenter"",""1"",""5819""
","
","","","969.8999999999069","","","24","8114","3964","p","elianto","#3366ff99"," "," ","1","+10","[1823.5999999998603]","1","2","","","8114","75","4","1","win","go","0"
"pit-trial","197","1238855","0.0-80.0","battery-v0.2","","""event"",""trial"",""time""
""fullscreenenter"",""1"",""5819""
""blur"",""113"",""824075""
""focus"",""113"",""833109""
","""event"",""trial"",""time""
""blur"",""113"",""824075""
","""event"",""trial"",""time""
""focus"",""113"",""833109""
","""event"",""trial"",""time""
""fullscreenenter"",""1"",""5819""
","
","","","753.3000000000466","","","24","8114","3964","s","elianto","#3366ff99","-1"," ","0","0","[1607.3000000000466]","1","2","","","8114","76","5","2","win","no-go","0"
"pit-trial","198","1243719","0.0-81.0","battery-v0.2","","""event"",""trial"",""time""
""fullscreenenter"",""1"",""5819""
""blur"",""113"",""824075""
""focus"",""113"",""833109""
","""event"",""trial"",""time""
""blur"",""113"",""824075""
","""event"",""trial"",""time""
""focus"",""113"",""833109""
","""event"",""trial"",""time""
""fullscreenenter"",""1"",""5819""
","
","","","-1","","","24","8114","3964","g","elianto","#f73b6a7A","-1","-1","1","0","[]","0","2","","","8114","77","3","4","lose","no-go","0"
"pit-trial","199","1247207","0.0-82.0","battery-v0.2","","""event"",""trial"",""time""
""fullscreenenter"",""1"",""5819""
""blur"",""113"",""824075""
""focus"",""113"",""833109""
","""event"",""trial"",""time""
""blur"",""113"",""824075""
","""event"",""trial"",""time""
""focus"",""113"",""833109""
","""event"",""trial"",""time""
""fullscreenenter"",""1"",""5819""
","
","","","632.1000000000931","","","24","8114","3964","p","elianto","#3366ff99"," "," ","1","+10","[1483.1000000000931]","1","2","","","8114","78","4","1","win","go","0"
"pit-trial","200","1250743","0.0-83.0","battery-v0.2","","""event"",""trial"",""time""
""fullscreenenter"",""1"",""5819""
""blur"",""113"",""824075""
""focus"",""113"",""833109""
","""event"",""trial"",""time""
""blur"",""113"",""824075""
","""event"",""trial"",""time""
""focus"",""113"",""833109""
","""event"",""trial"",""time""
""fullscreenenter"",""1"",""5819""
","
","","","676.0999999998603","","","24","8114","3964","p","elianto","#3366ff99"," "," ","1","+10","[1530.3000000000466]","1","2","","","8114","79","4","1","win","go","0"
"pit-trial","201","1255607","0.0-84.0","battery-v0.2","","""event"",""trial"",""time""
""fullscreenenter"",""1"",""5819""
""blur"",""113"",""824075""
""focus"",""113"",""833109""
","""event"",""trial"",""time""
""blur"",""113"",""824075""
","""event"",""trial"",""time""
""focus"",""113"",""833109""
","""event"",""trial"",""time""
""fullscreenenter"",""1"",""5819""
","
","","","-1","","","24","8114","3964","s","elianto","#3366ff99","-1","-1","1","+10","[]","0","2","","","8114","80","5","2","win","no-go","0"
"pit-trial","202","1260471","0.0-85.0","battery-v0.2","","""event"",""trial"",""time""
""fullscreenenter"",""1"",""5819""
""blur"",""113"",""824075""
""focus"",""113"",""833109""
","""event"",""trial"",""time""
""blur"",""113"",""824075""
","""event"",""trial"",""time""
""focus"",""113"",""833109""
","""event"",""trial"",""time""
""fullscreenenter"",""1"",""5819""
","
","","","-1","","","24","8114","3964","g","elianto","#f73b6a7A","-1","-1","1","0","[]","0","2","","","8114","81","3","4","lose","no-go","0"
"pit-trial","203","1265335","0.0-86.0","battery-v0.2","","""event"",""trial"",""time""
""fullscreenenter"",""1"",""5819""
""blur"",""113"",""824075""
""focus"",""113"",""833109""
","""event"",""trial"",""time""
""blur"",""113"",""824075""
","""event"",""trial"",""time""
""focus"",""113"",""833109""
","""event"",""trial"",""time""
""fullscreenenter"",""1"",""5819""
","
","","","-1","","","24","8114","3964","s","elianto","#3366ff99","-1","-1","1","+10","[]","0","2","","","8114","82","5","2","win","no-go","0"
"pit-trial","204","1269591","0.0-87.0","battery-v0.2","","""event"",""trial"",""time""
""fullscreenenter"",""1"",""5819""
""blur"",""113"",""824075""
""focus"",""113"",""833109""
","""event"",""trial"",""time""
""blur"",""113"",""824075""
","""event"",""trial"",""time""
""focus"",""113"",""833109""
","""event"",""trial"",""time""
""fullscreenenter"",""1"",""5819""
","
","","","1396.6000000000931","","","24","8114","3964","e","elianto","#f73b6a7A","-1"," ","0","-10","[2247]","1","2","","","8114","83","7","4","lose","no-go","0"
"pit-trial","205","1273087","0.0-88.0","battery-v0.2","","""event"",""trial"",""time""
""fullscreenenter"",""1"",""5819""
""blur"",""113"",""824075""
""focus"",""113"",""833109""
","""event"",""trial"",""time""
""blur"",""113"",""824075""
","""event"",""trial"",""time""
""focus"",""113"",""833109""
","""event"",""trial"",""time""
""fullscreenenter"",""1"",""5819""
","
","","","634.3000000000466","","","24","8114","3964","p","elianto","#3366ff99"," "," ","1","0","[1488.2999999998137]","1","2","","","8114","84","4","1","win","go","1"
"pit-trial","206","1276535","0.0-89.0","battery-v0.2","","""event"",""trial"",""time""
""fullscreenenter"",""1"",""5819""
""blur"",""113"",""824075""
""focus"",""113"",""833109""
","""event"",""trial"",""time""
""blur"",""113"",""824075""
","""event"",""trial"",""time""
""focus"",""113"",""833109""
","""event"",""trial"",""time""
""fullscreenenter"",""1"",""5819""
","
","","","592.3999999999069","","","24","8114","3964","p","elianto","#3366ff99"," "," ","1","+10","[1442.6999999999534]","1","2","","","8114","85","4","1","win","go","0"
"pit-trial","207","1281399","0.0-90.0","battery-v0.2","","""event"",""trial"",""time""
""fullscreenenter"",""1"",""5819""
""blur"",""113"",""824075""
""focus"",""113"",""833109""
","""event"",""trial"",""time""
""blur"",""113"",""824075""
","""event"",""trial"",""time""
""focus"",""113"",""833109""
","""event"",""trial"",""time""
""fullscreenenter"",""1"",""5819""
","
","","","-1","","","24","8114","3964","s","elianto","#3366ff99","-1","-1","1","+10","[]","0","2","","","8114","86","5","2","win","no-go","0"
"pit-trial","208","1285623","0.0-91.0","battery-v0.2","","""event"",""trial"",""time""
""fullscreenenter"",""1"",""5819""
""blur"",""113"",""824075""
""focus"",""113"",""833109""
","""event"",""trial"",""time""
""blur"",""113"",""824075""
","""event"",""trial"",""time""
""focus"",""113"",""833109""
","""event"",""trial"",""time""
""fullscreenenter"",""1"",""5819""
","
","","","1365.3999999999069","","","24","8114","3964","w","elianto","#f73b6a7A"," "," ","1","0","[2219.1999999999534]","1","2","","","8114","87","6","3","lose","go","0"
"pit-trial","209","1290487","0.0-92.0","battery-v0.2","","""event"",""trial"",""time""
""fullscreenenter"",""1"",""5819""
""blur"",""113"",""824075""
""focus"",""113"",""833109""
","""event"",""trial"",""time""
""blur"",""113"",""824075""
","""event"",""trial"",""time""
""focus"",""113"",""833109""
","""event"",""trial"",""time""
""fullscreenenter"",""1"",""5819""
","
","","","-1","","","24","8114","3964","e","elianto","#f73b6a7A","-1","-1","1","0","[]","0","2","","","8114","88","7","4","lose","no-go","0"
"pit-trial","210","1295351","0.0-93.0","battery-v0.2","","""event"",""trial"",""time""
""fullscreenenter"",""1"",""5819""
""blur"",""113"",""824075""
""focus"",""113"",""833109""
","""event"",""trial"",""time""
""blur"",""113"",""824075""
","""event"",""trial"",""time""
""focus"",""113"",""833109""
","""event"",""trial"",""time""
""fullscreenenter"",""1"",""5819""
","
","","","-1","","","24","8114","3964","s","elianto","#3366ff99","-1","-1","1","+10","[]","0","2","","","8114","89","5","2","win","no-go","0"
"pit-trial","211","1300215","0.0-94.0","battery-v0.2","","""event"",""trial"",""time""
""fullscreenenter"",""1"",""5819""
""blur"",""113"",""824075""
""focus"",""113"",""833109""
","""event"",""trial"",""time""
""blur"",""113"",""824075""
","""event"",""trial"",""time""
""focus"",""113"",""833109""
","""event"",""trial"",""time""
""fullscreenenter"",""1"",""5819""
","
","","","-1","","","24","8114","3964","e","elianto","#f73b6a7A","-1","-1","1","0","[]","0","2","","","8114","90","7","4","lose","no-go","0"
"pit-trial","212","1303783","0.0-95.0","battery-v0.2","","""event"",""trial"",""time""
""fullscreenenter"",""1"",""5819""
""blur"",""113"",""824075""
""focus"",""113"",""833109""
","""event"",""trial"",""time""
""blur"",""113"",""824075""
","""event"",""trial"",""time""
""focus"",""113"",""833109""
","""event"",""trial"",""time""
""fullscreenenter"",""1"",""5819""
","
","","","710.1999999999534","","","24","8114","3964","p","elianto","#3366ff99"," "," ","1","+10","[1563.6999999999534]","1","2","","","8114","91","4","1","win","go","0"
"pit-trial","213","1308015","0.0-96.0","battery-v0.2","","""event"",""trial"",""time""
""fullscreenenter"",""1"",""5819""
""blur"",""113"",""824075""
""focus"",""113"",""833109""
","""event"",""trial"",""time""
""blur"",""113"",""824075""
","""event"",""trial"",""time""
""focus"",""113"",""833109""
","""event"",""trial"",""time""
""fullscreenenter"",""1"",""5819""
","
","","","1373.6999999999534","","","24","8114","3964","w","elianto","#f73b6a7A"," "," ","1","0","[2226.600000000093]","1","2","","","8114","92","6","3","lose","go","0"
"pit-trial","214","1312263","0.0-97.0","battery-v0.2","","""event"",""trial"",""time""
""fullscreenenter"",""1"",""5819""
""blur"",""113"",""824075""
""focus"",""113"",""833109""
","""event"",""trial"",""time""
""blur"",""113"",""824075""
","""event"",""trial"",""time""
""focus"",""113"",""833109""
","""event"",""trial"",""time""
""fullscreenenter"",""1"",""5819""
","
","","","1386.9000000001397","","","24","8114","3964","w","elianto","#f73b6a7A"," "," ","1","0","[2240.399999999907]","1","2","","","8114","93","6","3","lose","go","0"
"pit-trial","215","1316327","0.0-98.0","battery-v0.2","","""event"",""trial"",""time""
""fullscreenenter"",""1"",""5819""
""blur"",""113"",""824075""
""focus"",""113"",""833109""
","""event"",""trial"",""time""
""blur"",""113"",""824075""
","""event"",""trial"",""time""
""focus"",""113"",""833109""
","""event"",""trial"",""time""
""fullscreenenter"",""1"",""5819""
","
","","","1202.5999999998603","","","24","8114","3964","d","elianto","#3366ff99"," "," ","1","+10","[2056.1999999999534]","1","2","","","8114","94","8","1","win","go","0"
"pit-trial","216","1321143","0.0-99.0","battery-v0.2","","""event"",""trial"",""time""
""fullscreenenter"",""1"",""5819""
""blur"",""113"",""824075""
""focus"",""113"",""833109""
","""event"",""trial"",""time""
""blur"",""113"",""824075""
","""event"",""trial"",""time""
""focus"",""113"",""833109""
","""event"",""trial"",""time""
""fullscreenenter"",""1"",""5819""
","
","","","1955","","","24","8114","3964","e","elianto","#f73b6a7A","-1"," ","0","-10","[2808.8000000000466]","1","2","","","8114","95","7","4","lose","no-go","0"
"pit-trial","217","1326007","0.0-100.0","battery-v0.2","","""event"",""trial"",""time""
""fullscreenenter"",""1"",""5819""
""blur"",""113"",""824075""
""focus"",""113"",""833109""
","""event"",""trial"",""time""
