"trial_type","trial_index","time_elapsed","internal_node_id","task_version","subject_id","interactions","blur_events","focus_events","fullscreenenter_events","fullscreenexit_events","success","view_history","rt","responses","num_errors","age","subject","participantId","rune","rune_set","hex","correct","choice","accuracy","outcome","keys","total_keys","block","practice","value","sub","trial","stimulus","robot","valence","action","sham"
"pavlovia","0","8","0.0-0.0","battery-v0.2","","""event"",""trial"",""time""
""fullscreenenter"",""1"",""26196""
","
","
","""event"",""trial"",""time""
""fullscreenenter"",""1"",""26196""
","
","","","","","","","","","","","","","","","","","","","","","","","","","","",""
"fullscreen","1","27185","0.0-1.0","battery-v0.2","","""event"",""trial"",""time""
""fullscreenenter"",""1"",""26196""
","
","
","""event"",""trial"",""time""
""fullscreenenter"",""1"",""26196""
","
","true","","","","","","","","","","","","","","","","","","","","","","","","","",""
"pit-instructions","2","35824","0.0-2.0-0.0","battery-v0.2","","""event"",""trial"",""time""
""fullscreenenter"",""1"",""26196""
","
","
","""event"",""trial"",""time""
""fullscreenenter"",""1"",""26196""
","
","","[{""page_index"":0,""viewing_time"":8636.700000047684}]","8637.100000143051","","","","","","","","","","","","","","","","","","","","","","","",""
"pit-comprehension","3","38560","0.0-2.0-1.0-0.0","battery-v0.2","","""event"",""trial"",""time""
""fullscreenenter"",""1"",""26196""
","
","
","""event"",""trial"",""time""
""fullscreenenter"",""1"",""26196""
","
","","","2734.100000143051","[""shark""]","0","22","10092","4710","","","","","","","","","","","","","","","","","","",""
"pit-instructions","4","39423","0.0-2.0-1.0-1.0","battery-v0.2","","""event"",""trial"",""time""
""fullscreenenter"",""1"",""26196""
","
","
","""event"",""trial"",""time""
""fullscreenenter"",""1"",""26196""
","
","","[{""page_index"":0,""viewing_time"":857.2999999523163}]","857.5999999046326","","","","","","","","","","","","","","","","","","","","","","","",""
"pit-comprehension","5","41745","0.0-2.0-2.0-0.0","battery-v0.2","","""event"",""trial"",""time""
""fullscreenenter"",""1"",""26196""
","
","
","""event"",""trial"",""time""
""fullscreenenter"",""1"",""26196""
","
","","","2318.899999856949","[""tiger""]","0","22","10092","4710","","","","","","","","","","","","","","","","","","",""
"pit-instructions","6","46016","0.0-2.0-2.0-1.0","battery-v0.2","","""event"",""trial"",""time""
""fullscreenenter"",""1"",""26196""
","
","
","""event"",""trial"",""time""
""fullscreenenter"",""1"",""26196""
","
","","[{""page_index"":0,""viewing_time"":4268.100000143051}]","4268.400000095367","","","","","","","","","","","","","","","","","","","","","","","",""
"pit-instructions","7","209151","0.0-2.0-3.0","battery-v0.2","","""event"",""trial"",""time""
""fullscreenenter"",""1"",""26196""
","
","
","""event"",""trial"",""time""
""fullscreenenter"",""1"",""26196""
","
","","[{""page_index"":0,""viewing_time"":9981.700000047684},{""page_index"":1,""viewing_time"":9976},{""page_index"":2,""viewing_time"":10896.200000047684},{""page_index"":3,""viewing_time"":10551.700000047684},{""page_index"":4,""viewing_time"":18336.299999952316},{""page_index"":5,""viewing_time"":8815.900000095367},{""page_index"":6,""viewing_time"":9904.5},{""page_index"":7,""viewing_time"":11471.5},{""page_index"":8,""viewing_time"":30296.39999985695},{""page_index"":9,""viewing_time"":15671.400000095367},{""page_index"":10,""viewing_time"":8056.299999952316},{""page_index"":11,""viewing_time"":7751.900000095367},{""page_index"":12,""viewing_time"":6632.199999809265},{""page_index"":13,""viewing_time"":4791.700000047684}]","163134","","","","","","","","","","","","","","","","","","","","","","","",""
"pit-trial","8","212593","0.0-2.0-4.0-0.0","battery-v0.2","","""event"",""trial"",""time""
""fullscreenenter"",""1"",""26196""
","
","
","""event"",""trial"",""time""
""fullscreenenter"",""1"",""26196""
","
","","","570.5","","","22","10092","4710","&#9784;","elianto","#FFFFF080"," "," ","1","&#10004","[1430.0999999046326]","1","0","0","","","","","","","",""
"pit-trial","9","216186","0.0-2.0-4.1-0.1","battery-v0.2","","""event"",""trial"",""time""
""fullscreenenter"",""1"",""26196""
","
","
","""event"",""trial"",""time""
""fullscreenenter"",""1"",""26196""
","
","","","728","","","22","10092","4710","&#9784;","elianto","#FFFFF080"," "," ","1","&#10004","[1580.5]","1","0","0","","","","","","","",""
"pit-trial","10","219516","0.0-2.0-4.2-0.2","battery-v0.2","","""event"",""trial"",""time""
""fullscreenenter"",""1"",""26196""
","
","
","""event"",""trial"",""time""
""fullscreenenter"",""1"",""26196""
","
","","","462","","","22","10092","4710","&#9784;","elianto","#FFFFF080"," "," ","1","&#10004","[1315.8999998569489]","1","0","0","","","","","","","",""
"pit-trial","11","222788","0.0-2.0-4.3-0.3","battery-v0.2","","""event"",""trial"",""time""
""fullscreenenter"",""1"",""26196""
","
","
","""event"",""trial"",""time""
""fullscreenenter"",""1"",""26196""
","
","","","410.5","","","22","10092","4710","&#9784;","elianto","#FFFFF080"," "," ","1","&#10004","[1265.8999998569489]","1","0","0","","","","","","","",""
"pit-trial","12","226324","0.0-2.0-4.4-0.4","battery-v0.2","","""event"",""trial"",""time""
""fullscreenenter"",""1"",""26196""
","
","
","""event"",""trial"",""time""
""fullscreenenter"",""1"",""26196""
","
","","","672.2000000476837","","","22","10092","4710","&#9784;","elianto","#FFFFF080"," "," ","1","&#10004","[1530.1000001430511]","1","0","0","","","","","","","",""
"pit-instructions","13","248110","0.0-2.0-5.0","battery-v0.2","","""event"",""trial"",""time""
""fullscreenenter"",""1"",""26196""
","
","
","""event"",""trial"",""time""
""fullscreenenter"",""1"",""26196""
","
","","[{""page_index"":0,""viewing_time"":6191.700000047684},{""page_index"":1,""viewing_time"":5479.700000047684},{""page_index"":2,""viewing_time"":4856.400000095367},{""page_index"":3,""viewing_time"":5255.899999856949}]","21784","","","","","","","","","","","","","","","","","","","","","","","",""
"pit-trial","14","252978","0.0-2.0-6.0-0.0","battery-v0.2","","""event"",""trial"",""time""
""fullscreenenter"",""1"",""26196""
","
","
","""event"",""trial"",""time""
""fullscreenenter"",""1"",""26196""
","
","","","-1","","","22","10092","4710","&#9854;","elianto","#FFFFF080","-1","-1","1","&#10004","[]","0","0","1","","","","","","","",""
"pit-trial","15","257833","0.0-2.0-6.1-0.1","battery-v0.2","","""event"",""trial"",""time""
""fullscreenenter"",""1"",""26196""
","
","
","""event"",""trial"",""time""
""fullscreenenter"",""1"",""26196""
","
","","","-1","","","22","10092","4710","&#9854;","elianto","#FFFFF080","-1","-1","1","&#10004","[]","0","0","1","","","","","","","",""
"pit-trial","16","262714","0.0-2.0-6.2-0.2","battery-v0.2","","""event"",""trial"",""time""
""fullscreenenter"",""1"",""26196""
","
","
","""event"",""trial"",""time""
""fullscreenenter"",""1"",""26196""
","
","","","-1","","","22","10092","4710","&#9854;","elianto","#FFFFF080","-1","-1","1","&#10004","[]","0","0","1","","","","","","","",""
"pit-trial","17","267572","0.0-2.0-6.3-0.3","battery-v0.2","","""event"",""trial"",""time""
""fullscreenenter"",""1"",""26196""
","
","
","""event"",""trial"",""time""
""fullscreenenter"",""1"",""26196""
","
","","","-1","","","22","10092","4710","&#9854;","elianto","#FFFFF080","-1","-1","1","&#10004","[]","0","0","1","","","","","","","",""
"pit-trial","18","272437","0.0-2.0-6.4-0.4","battery-v0.2","","""event"",""trial"",""time""
""fullscreenenter"",""1"",""26196""
","
","
","""event"",""trial"",""time""
""fullscreenenter"",""1"",""26196""
","
","","","-1","","","22","10092","4710","&#9854;","elianto","#FFFFF080","-1","-1","1","&#10004","[]","0","0","1","","","","","","","",""
"pit-instructions","19","390499","0.0-2.0-7.0","battery-v0.2","","""event"",""trial"",""time""
""fullscreenenter"",""1"",""26196""
","
","
","""event"",""trial"",""time""
""fullscreenenter"",""1"",""26196""
","
","","[{""page_index"":0,""viewing_time"":5551.5},{""page_index"":1,""viewing_time"":6960},{""page_index"":2,""viewing_time"":6279.900000095367},{""page_index"":3,""viewing_time"":6304.099999904633},{""page_index"":4,""viewing_time"":6304.299999952316},{""page_index"":5,""viewing_time"":6399.700000047684},{""page_index"":6,""viewing_time"":5728},{""page_index"":7,""viewing_time"":9104.100000143051},{""page_index"":8,""viewing_time"":7511.799999952316},{""page_index"":9,""viewing_time"":6544.099999904633},{""page_index"":10,""viewing_time"":6632},{""page_index"":11,""viewing_time"":4512},{""page_index"":12,""viewing_time"":6727.900000095367},{""page_index"":13,""viewing_time"":6912.299999952316},{""page_index"":14,""viewing_time"":6959.799999952316},{""page_index"":15,""viewing_time"":6407.799999952316},{""page_index"":16,""viewing_time"":6752.200000047684},{""page_index"":17,""viewing_time"":6472}]","118063.79999995232","","","","","","","","","","","","","","","","","","","","","","","",""
"pit-trial","20","394007","0.0-2.0-8.0-0.0","battery-v0.2","","""event"",""trial"",""time""
""fullscreenenter"",""1"",""26196""
","
","
","""event"",""trial"",""time""
""fullscreenenter"",""1"",""26196""
","
","","","635.5","","","22","10092","4710","&#9776;","elianto","#3366ff99"," "," ","1","+10","[1494.6999998092651]","1","0","1","","","","","","","",""
"pit-trial","21","397286","0.0-2.0-8.0-1.0","battery-v0.2","","""event"",""trial"",""time""
""fullscreenenter"",""1"",""26196""
","
","
","""event"",""trial"",""time""
""fullscreenenter"",""1"",""26196""
","
","","","421.7000000476837","","","22","10092","4710","&#9776;","elianto","#3366ff99"," "," ","1","+10","[1275.2999999523163]","1","0","1","","","","","","","",""
"pit-trial","22","400576","0.0-2.0-8.0-2.0","battery-v0.2","","""event"",""trial"",""time""
""fullscreenenter"",""1"",""26196""
","
","
","""event"",""trial"",""time""
""fullscreenenter"",""1"",""26196""
","
","","","425.2999999523163","","","22","10092","4710","&#9776;","elianto","#3366ff99"," "," ","1","+10","[1283.6000001430511]","1","0","1","","","","","","","",""
"pit-trial","23","403887","0.0-2.0-8.0-3.0","battery-v0.2","","""event"",""trial"",""time""
""fullscreenenter"",""1"",""26196""
","
","
","""event"",""trial"",""time""
""fullscreenenter"",""1"",""26196""
","
","","","441.2000000476837","","","22","10092","4710","&#9776;","elianto","#3366ff99"," "," ","1","0","[1297.5999999046326]","1","0","1","","","","","","","",""
"pit-trial","24","407161","0.0-2.0-8.0-4.0","battery-v0.2","","""event"",""trial"",""time""
""fullscreenenter"",""1"",""26196""
","
","
","""event"",""trial"",""time""
""fullscreenenter"",""1"",""26196""
","
","","","401.40000009536743","","","22","10092","4710","&#9776;","elianto","#3366ff99"," "," ","1","+10","[1258.5]","1","0","1","","","","","","","",""
"pit-trial","25","410340","0.0-2.0-8.1-0.1","battery-v0.2","","""event"",""trial"",""time""
""fullscreenenter"",""1"",""26196""
","
","
","""event"",""trial"",""time""
""fullscreenenter"",""1"",""26196""
","
","","","324.2000000476837","","","22","10092","4710","&#9776;","elianto","#3366ff99"," "," ","1","+10","[1176.5]","1","0","1","","","","","","","",""
"pit-trial","26","413598","0.0-2.0-8.1-1.1","battery-v0.2","","""event"",""trial"",""time""
""fullscreenenter"",""1"",""26196""
","
","
","""event"",""trial"",""time""
""fullscreenenter"",""1"",""26196""
","
","","","390.5","","","22","10092","4710","&#9776;","elianto","#3366ff99"," "," ","1","+10","[1244.9000000953674]","1","0","1","","","","","","","",""
"pit-trial","27","416709","0.0-2.0-8.1-2.1","battery-v0.2","","""event"",""trial"",""time""
""fullscreenenter"",""1"",""26196""
","
","
","""event"",""trial"",""time""
""fullscreenenter"",""1"",""26196""
","
","","","244.90000009536743","","","22","10092","4710","&#9776;","elianto","#3366ff99"," "," ","1","+10","[1098.5999999046326]","1","0","1","","","","","","","",""
"pit-trial","28","419903","0.0-2.0-8.1-3.1","battery-v0.2","","""event"",""trial"",""time""
""fullscreenenter"",""1"",""26196""
","
","
","""event"",""trial"",""time""
""fullscreenenter"",""1"",""26196""
","
","","","325.5","","","22","10092","4710","&#9776;","elianto","#3366ff99"," "," ","1","0","[1178.9000000953674]","1","0","1","","","","","","","",""
"pit-trial","29","422906","0.0-2.0-8.1-4.1","battery-v0.2","","""event"",""trial"",""time""
""fullscreenenter"",""1"",""26196""
","
","
","""event"",""trial"",""time""
""fullscreenenter"",""1"",""26196""
","
","","","150.70000004768372","","","22","10092","4710","&#9776;","elianto","#3366ff99"," "," ","1","+10","[1001.6000001430511]","1","0","1","","","","","","","",""
"pit-trial","30","426050","0.0-2.0-8.2-0.2","battery-v0.2","","""event"",""trial"",""time""
""fullscreenenter"",""1"",""26196""
","
","
","""event"",""trial"",""time""
""fullscreenenter"",""1"",""26196""
","
","","","290.89999985694885","","","22","10092","4710","&#9776;","elianto","#3366ff99"," "," ","1","+10","[1141.7000000476837]","1","0","1","","","","","","","",""
"pit-trial","31","428971","0.0-2.0-8.2-1.2","battery-v0.2","","""event"",""trial"",""time""
""fullscreenenter"",""1"",""26196""
","
","
","""event"",""trial"",""time""
""fullscreenenter"",""1"",""26196""
","
","","","67","","","22","10092","4710","&#9776;","elianto","#3366ff99"," "," ","1","+10","[918.3999998569489]","1","0","1","","","","","","","",""
"pit-trial","32","431946","0.0-2.0-8.2-2.2","battery-v0.2","","""event"",""trial"",""time""
""fullscreenenter"",""1"",""26196""
","
","
","""event"",""trial"",""time""
""fullscreenenter"",""1"",""26196""
","
","","","122.20000004768372","","","22","10092","4710","&#9776;","elianto","#3366ff99"," "," ","1","+10","[972.8999998569489]","1","0","1","","","","","","","",""
"pit-trial","33","434851","0.0-2.0-8.2-3.2","battery-v0.2","","""event"",""trial"",""time""
""fullscreenenter"",""1"",""26196""
","
","
","""event"",""trial"",""time""
""fullscreenenter"",""1"",""26196""
","
","","","50.69999980926514","","","22","10092","4710","&#9776;","elianto","#3366ff99"," "," ","1","0","[902.5999999046326]","1","0","1","","","","","","","",""
"pit-trial","34","439704","0.0-2.0-8.2-4.2","battery-v0.2","","""event"",""trial"",""time""
""fullscreenenter"",""1"",""26196""
","
","
","""event"",""trial"",""time""
""fullscreenenter"",""1"",""26196""
","
","","","-1","","","22","10092","4710","&#9776;","elianto","#3366ff99"," ","-1","0","0","[829.7999999523163,2981.5999999046326]","2","0","1","","","","","","","",""
"call-function","35","439705","0.0-2.0-9.0","battery-v0.2","","""event"",""trial"",""time""
""fullscreenenter"",""1"",""26196""
""blur"",""36"",""452150""
""focus"",""36"",""480013""
""blur"",""36"",""481561""
""focus"",""36"",""488614""
""blur"",""36"",""491296""
""focus"",""36"",""500085""
""blur"",""36"",""502496""
""focus"",""36"",""507637""
","""event"",""trial"",""time""
""blur"",""36"",""452150""
""blur"",""36"",""481561""
""blur"",""36"",""491296""
""blur"",""36"",""502496""
","""event"",""trial"",""time""
""focus"",""36"",""480013""
""focus"",""36"",""488614""
""focus"",""36"",""500085""
""focus"",""36"",""507637""
","""event"",""trial"",""time""
""fullscreenenter"",""1"",""26196""
","
","","","","","","","","","","","","","","","","","","","","","","","","","","",""
"pit-instructions","36","507752","0.0-2.0-10.0","battery-v0.2","","""event"",""trial"",""time""
""fullscreenenter"",""1"",""26196""
""blur"",""36"",""452150""
""focus"",""36"",""480013""
""blur"",""36"",""481561""
""focus"",""36"",""488614""
""blur"",""36"",""491296""
""focus"",""36"",""500085""
""blur"",""36"",""502496""
""focus"",""36"",""507637""
","""event"",""trial"",""time""
""blur"",""36"",""452150""
""blur"",""36"",""481561""
""blur"",""36"",""491296""
""blur"",""36"",""502496""
","""event"",""trial"",""time""
""focus"",""36"",""480013""
""focus"",""36"",""488614""
""focus"",""36"",""500085""
""focus"",""36"",""507637""
","""event"",""trial"",""time""
""fullscreenenter"",""1"",""26196""
","
","","[{""page_index"":0,""viewing_time"":6232.599999904633},{""page_index"":1,""viewing_time"":34151.700000047684},{""page_index"":2,""viewing_time"":9472},{""page_index"":3,""viewing_time"":10584.599999904633},{""page_index"":4,""viewing_time"":7607.400000095367}]","68048.59999990463","","","","","","","","","","","","","","","","","","","","","","","",""
"pit-trial","37","511504","0.0-2.0-11.0-0.0","battery-v0.2","","""event"",""trial"",""time""
""fullscreenenter"",""1"",""26196""
""blur"",""36"",""452150""
""focus"",""36"",""480013""
""blur"",""36"",""481561""
""focus"",""36"",""488614""
""blur"",""36"",""491296""
""focus"",""36"",""500085""
""blur"",""36"",""502496""
""focus"",""36"",""507637""
","""event"",""trial"",""time""
""blur"",""36"",""452150""
""blur"",""36"",""481561""
""blur"",""36"",""491296""
""blur"",""36"",""502496""
","""event"",""trial"",""time""
""focus"",""36"",""480013""
""focus"",""36"",""488614""
""focus"",""36"",""500085""
""focus"",""36"",""507637""
","""event"",""trial"",""time""
""fullscreenenter"",""1"",""26196""
","
","","","888.5","","","22","10092","4710","&#9761;","elianto","#3366ff99","-1"," ","0","0","[1742.7000000476837]","1","0","2","","","","","","","",""
"pit-trial","38","516385","0.0-2.0-11.0-1.0","battery-v0.2","","""event"",""trial"",""time""
""fullscreenenter"",""1"",""26196""
""blur"",""36"",""452150""
""focus"",""36"",""480013""
""blur"",""36"",""481561""
""focus"",""36"",""488614""
""blur"",""36"",""491296""
""focus"",""36"",""500085""
""blur"",""36"",""502496""
""focus"",""36"",""507637""
","""event"",""trial"",""time""
""blur"",""36"",""452150""
""blur"",""36"",""481561""
""blur"",""36"",""491296""
""blur"",""36"",""502496""
","""event"",""trial"",""time""
""focus"",""36"",""480013""
""focus"",""36"",""488614""
""focus"",""36"",""500085""
""focus"",""36"",""507637""
","""event"",""trial"",""time""
""fullscreenenter"",""1"",""26196""
","
","","","-1","","","22","10092","4710","&#9761;","elianto","#3366ff99","-1","-1","1","+10","[]","0","0","2","","","","","","","",""
"pit-trial","39","521263","0.0-2.0-11.0-2.0","battery-v0.2","","""event"",""trial"",""time""
""fullscreenenter"",""1"",""26196""
""blur"",""36"",""452150""
""focus"",""36"",""480013""
""blur"",""36"",""481561""
""focus"",""36"",""488614""
""blur"",""36"",""491296""
""focus"",""36"",""500085""
""blur"",""36"",""502496""
""focus"",""36"",""507637""
""blur"",""40"",""523160""
","""event"",""trial"",""time""
""blur"",""36"",""452150""
""blur"",""36"",""481561""
""blur"",""36"",""491296""
""blur"",""36"",""502496""
""blur"",""40"",""523160""
","""event"",""trial"",""time""
""focus"",""36"",""480013""
""focus"",""36"",""488614""
""focus"",""36"",""500085""
""focus"",""36"",""507637""
","""event"",""trial"",""time""
""fullscreenenter"",""1"",""26196""
","
","","","-1","","","22","10092","4710","&#9761;","elianto","#3366ff99","-1","-1","1","+10","[]","0","0","2","","","","","","","",""
"pit-trial","40","526121","0.0-2.0-11.0-3.0","battery-v0.2","","""event"",""trial"",""time""
""fullscreenenter"",""1"",""26196""
""blur"",""36"",""452150""
""focus"",""36"",""480013""
""blur"",""36"",""481561""
""focus"",""36"",""488614""
""blur"",""36"",""491296""
""focus"",""36"",""500085""
""blur"",""36"",""502496""
""focus"",""36"",""507637""
""blur"",""40"",""523160""
","""event"",""trial"",""time""
""blur"",""36"",""452150""
""blur"",""36"",""481561""
""blur"",""36"",""491296""
""blur"",""36"",""502496""
""blur"",""40"",""523160""
","""event"",""trial"",""time""
""focus"",""36"",""480013""
""focus"",""36"",""488614""
""focus"",""36"",""500085""
""focus"",""36"",""507637""
","""event"",""trial"",""time""
""fullscreenenter"",""1"",""26196""
","
","","","-1","","","22","10092","4710","&#9761;","elianto","#3366ff99","-1","-1","1","0","[]","0","0","2","","","","","","","",""
"pit-trial","41","531000","0.0-2.0-11.0-4.0","battery-v0.2","","""event"",""trial"",""time""
""fullscreenenter"",""1"",""26196""
""blur"",""36"",""452150""
""focus"",""36"",""480013""
""blur"",""36"",""481561""
""focus"",""36"",""488614""
""blur"",""36"",""491296""
""focus"",""36"",""500085""
""blur"",""36"",""502496""
""focus"",""36"",""507637""
""blur"",""40"",""523160""
","""event"",""trial"",""time""
""blur"",""36"",""452150""
""blur"",""36"",""481561""
""blur"",""36"",""491296""
""blur"",""36"",""502496""
""blur"",""40"",""523160""
","""event"",""trial"",""time""
""focus"",""36"",""480013""
""focus"",""36"",""488614""
""focus"",""36"",""500085""
""focus"",""36"",""507637""
","""event"",""trial"",""time""
""fullscreenenter"",""1"",""26196""
","
","","","-1","","","22","10092","4710","&#9761;","elianto","#3366ff99","-1","-1","1","+10","[]","0","0","2","","","","","","","",""
"pit-trial","42","535873","0.0-2.0-11.1-0.1","battery-v0.2","","""event"",""trial"",""time""
""fullscreenenter"",""1"",""26196""
""blur"",""36"",""452150""
""focus"",""36"",""480013""
""blur"",""36"",""481561""
""focus"",""36"",""488614""
""blur"",""36"",""491296""
""focus"",""36"",""500085""
""blur"",""36"",""502496""
""focus"",""36"",""507637""
""blur"",""40"",""523160""
","""event"",""trial"",""time""
""blur"",""36"",""452150""
""blur"",""36"",""481561""
""blur"",""36"",""491296""
""blur"",""36"",""502496""
""blur"",""40"",""523160""
","""event"",""trial"",""time""
""focus"",""36"",""480013""
""focus"",""36"",""488614""
""focus"",""36"",""500085""
""focus"",""36"",""507637""
","""event"",""trial"",""time""
""fullscreenenter"",""1"",""26196""
","
","","","-1","","","22","10092","4710","&#9761;","elianto","#3366ff99","-1","-1","1","+10","[]","0","0","2","","","","","","","",""
"pit-trial","43","540724","0.0-2.0-11.1-1.1","battery-v0.2","","""event"",""trial"",""time""
""fullscreenenter"",""1"",""26196""
""blur"",""36"",""452150""
""focus"",""36"",""480013""
""blur"",""36"",""481561""
""focus"",""36"",""488614""
""blur"",""36"",""491296""
""focus"",""36"",""500085""
""blur"",""36"",""502496""
""focus"",""36"",""507637""
""blur"",""40"",""523160""
","""event"",""trial"",""time""
""blur"",""36"",""452150""
""blur"",""36"",""481561""
""blur"",""36"",""491296""
""blur"",""36"",""502496""
""blur"",""40"",""523160""
","""event"",""trial"",""time""
""focus"",""36"",""480013""
""focus"",""36"",""488614""
""focus"",""36"",""500085""
""focus"",""36"",""507637""
","""event"",""trial"",""time""
""fullscreenenter"",""1"",""26196""
","
","","","-1","","","22","10092","4710","&#9761;","elianto","#3366ff99","-1","-1","1","+10","[]","0","0","2","","","","","","","",""
"pit-trial","44","545577","0.0-2.0-11.1-2.1","battery-v0.2","","""event"",""trial"",""time""
""fullscreenenter"",""1"",""26196""
""blur"",""36"",""452150""
""focus"",""36"",""480013""
""blur"",""36"",""481561""
""focus"",""36"",""488614""
""blur"",""36"",""491296""
""focus"",""36"",""500085""
""blur"",""36"",""502496""
""focus"",""36"",""507637""
""blur"",""40"",""523160""
","""event"",""trial"",""time""
""blur"",""36"",""452150""
""blur"",""36"",""481561""
""blur"",""36"",""491296""
""blur"",""36"",""502496""
""blur"",""40"",""523160""
","""event"",""trial"",""time""
""focus"",""36"",""480013""
""focus"",""36"",""488614""
""focus"",""36"",""500085""
""focus"",""36"",""507637""
","""event"",""trial"",""time""
""fullscreenenter"",""1"",""26196""
","
","","","-1","","","22","10092","4710","&#9761;","elianto","#3366ff99","-1","-1","1","+10","[]","0","0","2","","","","","","","",""
"pit-trial","45","550441","0.0-2.0-11.1-3.1","battery-v0.2","","""event"",""trial"",""time""
""fullscreenenter"",""1"",""26196""
""blur"",""36"",""452150""
""focus"",""36"",""480013""
""blur"",""36"",""481561""
""focus"",""36"",""488614""
""blur"",""36"",""491296""
""focus"",""36"",""500085""
""blur"",""36"",""502496""
""focus"",""36"",""507637""
""blur"",""40"",""523160""
","""event"",""trial"",""time""
""blur"",""36"",""452150""
""blur"",""36"",""481561""
""blur"",""36"",""491296""
""blur"",""36"",""502496""
""blur"",""40"",""523160""
","""event"",""trial"",""time""
""focus"",""36"",""480013""
""focus"",""36"",""488614""
""focus"",""36"",""500085""
""focus"",""36"",""507637""
","""event"",""trial"",""time""
""fullscreenenter"",""1"",""26196""
","
","","","-1","","","22","10092","4710","&#9761;","elianto","#3366ff99","-1","-1","1","0","[]","0","0","2","","","","","","","",""
"pit-trial","46","555295","0.0-2.0-11.1-4.1","battery-v0.2","","""event"",""trial"",""time""
""fullscreenenter"",""1"",""26196""
""blur"",""36"",""452150""
""focus"",""36"",""480013""
""blur"",""36"",""481561""
""focus"",""36"",""488614""
""blur"",""36"",""491296""
""focus"",""36"",""500085""
""blur"",""36"",""502496""
""focus"",""36"",""507637""
""blur"",""40"",""523160""
","""event"",""trial"",""time""
""blur"",""36"",""452150""
""blur"",""36"",""481561""
""blur"",""36"",""491296""
""blur"",""36"",""502496""
""blur"",""40"",""523160""
","""event"",""trial"",""time""
""focus"",""36"",""480013""
""focus"",""36"",""488614""
""focus"",""36"",""500085""
""focus"",""36"",""507637""
","""event"",""trial"",""time""
""fullscreenenter"",""1"",""26196""
","
","","","-1","","","22","10092","4710","&#9761;","elianto","#3366ff99","-1","-1","1","+10","[]","0","0","2","","","","","","","",""
"pit-trial","47","560160","0.0-2.0-11.2-0.2","battery-v0.2","","""event"",""trial"",""time""
""fullscreenenter"",""1"",""26196""
""blur"",""36"",""452150""
""focus"",""36"",""480013""
""blur"",""36"",""481561""
""focus"",""36"",""488614""
""blur"",""36"",""491296""
""focus"",""36"",""500085""
""blur"",""36"",""502496""
""focus"",""36"",""507637""
""blur"",""40"",""523160""
","""event"",""trial"",""time""
""blur"",""36"",""452150""
""blur"",""36"",""481561""
""blur"",""36"",""491296""
""blur"",""36"",""502496""
""blur"",""40"",""523160""
","""event"",""trial"",""time""
""focus"",""36"",""480013""
""focus"",""36"",""488614""
""focus"",""36"",""500085""
""focus"",""36"",""507637""
","""event"",""trial"",""time""
""fullscreenenter"",""1"",""26196""
","
","","","-1","","","22","10092","4710","&#9761;","elianto","#3366ff99","-1","-1","1","+10","[]","0","0","2","","","","","","","",""
"pit-trial","48","565033","0.0-2.0-11.2-1.2","battery-v0.2","","""event"",""trial"",""time""
""fullscreenenter"",""1"",""26196""
""blur"",""36"",""452150""
""focus"",""36"",""480013""
""blur"",""36"",""481561""
""focus"",""36"",""488614""
""blur"",""36"",""491296""
""focus"",""36"",""500085""
""blur"",""36"",""502496""
""focus"",""36"",""507637""
""blur"",""40"",""523160""
","""event"",""trial"",""time""
""blur"",""36"",""452150""
""blur"",""36"",""481561""
""blur"",""36"",""491296""
""blur"",""36"",""502496""
""blur"",""40"",""523160""
","""event"",""trial"",""time""
""focus"",""36"",""480013""
""focus"",""36"",""488614""
""focus"",""36"",""500085""
""focus"",""36"",""507637""
","""event"",""trial"",""time""
""fullscreenenter"",""1"",""26196""
","
","","","-1","","","22","10092","4710","&#9761;","elianto","#3366ff99","-1","-1","1","+10","[]","0","0","2","","","","","","","",""
"pit-trial","49","569886","0.0-2.0-11.2-2.2","battery-v0.2","","""event"",""trial"",""time""
""fullscreenenter"",""1"",""26196""
""blur"",""36"",""452150""
""focus"",""36"",""480013""
""blur"",""36"",""481561""
""focus"",""36"",""488614""
""blur"",""36"",""491296""
""focus"",""36"",""500085""
""blur"",""36"",""502496""
""focus"",""36"",""507637""
""blur"",""40"",""523160""
","""event"",""trial"",""time""
""blur"",""36"",""452150""
""blur"",""36"",""481561""
""blur"",""36"",""491296""
""blur"",""36"",""502496""
""blur"",""40"",""523160""
","""event"",""trial"",""time""
""focus"",""36"",""480013""
""focus"",""36"",""488614""
""focus"",""36"",""500085""
""focus"",""36"",""507637""
","""event"",""trial"",""time""
""fullscreenenter"",""1"",""26196""
","
","","","-1","","","22","10092","4710","&#9761;","elianto","#3366ff99","-1","-1","1","+10","[]","0","0","2","","","","","","","",""
"pit-trial","50","574741","0.0-2.0-11.2-3.2","battery-v0.2","","""event"",""trial"",""time""
""fullscreenenter"",""1"",""26196""
""blur"",""36"",""452150""
""focus"",""36"",""480013""
""blur"",""36"",""481561""
""focus"",""36"",""488614""
""blur"",""36"",""491296""
""focus"",""36"",""500085""
""blur"",""36"",""502496""
""focus"",""36"",""507637""
""blur"",""40"",""523160""
","""event"",""trial"",""time""
""blur"",""36"",""452150""
""blur"",""36"",""481561""
""blur"",""36"",""491296""
""blur"",""36"",""502496""
""blur"",""40"",""523160""
","""event"",""trial"",""time""
""focus"",""36"",""480013""
""focus"",""36"",""488614""
""focus"",""36"",""500085""
""focus"",""36"",""507637""
","""event"",""trial"",""time""
""fullscreenenter"",""1"",""26196""
","
","","","-1","","","22","10092","4710","&#9761;","elianto","#3366ff99","-1","-1","1","0","[]","0","0","2","","","","","","","",""
"pit-trial","51","579595","0.0-2.0-11.2-4.2","battery-v0.2","","""event"",""trial"",""time""
""fullscreenenter"",""1"",""26196""
""blur"",""36"",""452150""
""focus"",""36"",""480013""
""blur"",""36"",""481561""
""focus"",""36"",""488614""
""blur"",""36"",""491296""
""focus"",""36"",""500085""
""blur"",""36"",""502496""
""focus"",""36"",""507637""
""blur"",""40"",""523160""
","""event"",""trial"",""time""
""blur"",""36"",""452150""
""blur"",""36"",""481561""
""blur"",""36"",""491296""
""blur"",""36"",""502496""
""blur"",""40"",""523160""
","""event"",""trial"",""time""
""focus"",""36"",""480013""
""focus"",""36"",""488614""
""focus"",""36"",""500085""
""focus"",""36"",""507637""
","""event"",""trial"",""time""
""fullscreenenter"",""1"",""26196""
","
","","","-1","","","22","10092","4710","&#9761;","elianto","#3366ff99","-1","-1","1","+10","[]","0","0","2","","","","","","","",""
"pit-trial","52","584464","0.0-2.0-11.3-0.3","battery-v0.2","","""event"",""trial"",""time""
""fullscreenenter"",""1"",""26196""
""blur"",""36"",""452150""
""focus"",""36"",""480013""
""blur"",""36"",""481561""
""focus"",""36"",""488614""
""blur"",""36"",""491296""
""focus"",""36"",""500085""
""blur"",""36"",""502496""
""focus"",""36"",""507637""
""blur"",""40"",""523160""
","""event"",""trial"",""time""
""blur"",""36"",""452150""
""blur"",""36"",""481561""
""blur"",""36"",""491296""
""blur"",""36"",""502496""
""blur"",""40"",""523160""
","""event"",""trial"",""time""
""focus"",""36"",""480013""
""focus"",""36"",""488614""
""focus"",""36"",""500085""
""focus"",""36"",""507637""
","""event"",""trial"",""time""
""fullscreenenter"",""1"",""26196""
","
","","","-1","","","22","10092","4710","&#9761;","elianto","#3366ff99","-1","-1","1","+10","[]","0","0","2","","","","","","","",""
"pit-trial","53","589319","0.0-2.0-11.3-1.3","battery-v0.2","","""event"",""trial"",""time""
""fullscreenenter"",""1"",""26196""
""blur"",""36"",""452150""
""focus"",""36"",""480013""
""blur"",""36"",""481561""
""focus"",""36"",""488614""
""blur"",""36"",""491296""
""focus"",""36"",""500085""
""blur"",""36"",""502496""
""focus"",""36"",""507637""
""blur"",""40"",""523160""
","""event"",""trial"",""time""
""blur"",""36"",""452150""
""blur"",""36"",""481561""
""blur"",""36"",""491296""
""blur"",""36"",""502496""
""blur"",""40"",""523160""
","""event"",""trial"",""time""
""focus"",""36"",""480013""
""focus"",""36"",""488614""
""focus"",""36"",""500085""
""focus"",""36"",""507637""
","""event"",""trial"",""time""
""fullscreenenter"",""1"",""26196""
","
","","","-1","","","22","10092","4710","&#9761;","elianto","#3366ff99","-1","-1","1","+10","[]","0","0","2","","","","","","","",""
"pit-trial","54","594192","0.0-2.0-11.3-2.3","battery-v0.2","","""event"",""trial"",""time""
""fullscreenenter"",""1"",""26196""
""blur"",""36"",""452150""
""focus"",""36"",""480013""
""blur"",""36"",""481561""
""focus"",""36"",""488614""
""blur"",""36"",""491296""
""focus"",""36"",""500085""
""blur"",""36"",""502496""
""focus"",""36"",""507637""
""blur"",""40"",""523160""
","""event"",""trial"",""time""
""blur"",""36"",""452150""
""blur"",""36"",""481561""
""blur"",""36"",""491296""
""blur"",""36"",""502496""
""blur"",""40"",""523160""
","""event"",""trial"",""time""
""focus"",""36"",""480013""
""focus"",""36"",""488614""
""focus"",""36"",""500085""
""focus"",""36"",""507637""
","""event"",""trial"",""time""
""fullscreenenter"",""1"",""26196""
","
","","","-1","","","22","10092","4710","&#9761;","elianto","#3366ff99","-1","-1","1","+10","[]","0","0","2","","","","","","","",""
"pit-trial","55","599048","0.0-2.0-11.3-3.3","battery-v0.2","","""event"",""trial"",""time""
""fullscreenenter"",""1"",""26196""
""blur"",""36"",""452150""
""focus"",""36"",""480013""
""blur"",""36"",""481561""
""focus"",""36"",""488614""
""blur"",""36"",""491296""
""focus"",""36"",""500085""
""blur"",""36"",""502496""
""focus"",""36"",""507637""
""blur"",""40"",""523160""
","""event"",""trial"",""time""
""blur"",""36"",""452150""
""blur"",""36"",""481561""
""blur"",""36"",""491296""
""blur"",""36"",""502496""
""blur"",""40"",""523160""
","""event"",""trial"",""time""
""focus"",""36"",""480013""
""focus"",""36"",""488614""
""focus"",""36"",""500085""
""focus"",""36"",""507637""
","""event"",""trial"",""time""
""fullscreenenter"",""1"",""26196""
","
","","","-1","","","22","10092","4710","&#9761;","elianto","#3366ff99","-1","-1","1","0","[]","0","0","2","","","","","","","",""
"pit-trial","56","603899","0.0-2.0-11.3-4.3","battery-v0.2","","""event"",""trial"",""time""
""fullscreenenter"",""1"",""26196""
""blur"",""36"",""452150""
""focus"",""36"",""480013""
""blur"",""36"",""481561""
""focus"",""36"",""488614""
""blur"",""36"",""491296""
""focus"",""36"",""500085""
""blur"",""36"",""502496""
""focus"",""36"",""507637""
""blur"",""40"",""523160""
","""event"",""trial"",""time""
""blur"",""36"",""452150""
""blur"",""36"",""481561""
""blur"",""36"",""491296""
""blur"",""36"",""502496""
""blur"",""40"",""523160""
","""event"",""trial"",""time""
""focus"",""36"",""480013""
""focus"",""36"",""488614""
""focus"",""36"",""500085""
""focus"",""36"",""507637""
","""event"",""trial"",""time""
""fullscreenenter"",""1"",""26196""
","
","","","-1","","","22","10092","4710","&#9761;","elianto","#3366ff99","-1","-1","1","+10","[]","0","0","2","","","","","","","",""
"call-function","57","603900","0.0-2.0-12.0","battery-v0.2","","""event"",""trial"",""time""
""fullscreenenter"",""1"",""26196""
""blur"",""36"",""452150""
""focus"",""36"",""480013""
""blur"",""36"",""481561""
""focus"",""36"",""488614""
""blur"",""36"",""491296""
""focus"",""36"",""500085""
""blur"",""36"",""502496""
""focus"",""36"",""507637""
""blur"",""40"",""523160""
""focus"",""58"",""610938""
","""event"",""trial"",""time""
""blur"",""36"",""452150""
""blur"",""36"",""481561""
""blur"",""36"",""491296""
""blur"",""36"",""502496""
""blur"",""40"",""523160""
","""event"",""trial"",""time""
""focus"",""36"",""480013""
""focus"",""36"",""488614""
""focus"",""36"",""500085""
""focus"",""36"",""507637""
""focus"",""58"",""610938""
","""event"",""trial"",""time""
""fullscreenenter"",""1"",""26196""
","
","","","","","","","","","","","","","","","","","","","","","","","","","","",""
"pit-instructions","58","646173","0.0-2.0-13.0","battery-v0.2","","""event"",""trial"",""time""
""fullscreenenter"",""1"",""26196""
""blur"",""36"",""452150""
""focus"",""36"",""480013""
""blur"",""36"",""481561""
""focus"",""36"",""488614""
""blur"",""36"",""491296""
""focus"",""36"",""500085""
""blur"",""36"",""502496""
""focus"",""36"",""507637""
""blur"",""40"",""523160""
""focus"",""58"",""610938""
","""event"",""trial"",""time""
""blur"",""36"",""452150""
""blur"",""36"",""481561""
""blur"",""36"",""491296""
""blur"",""36"",""502496""
""blur"",""40"",""523160""
","""event"",""trial"",""time""
""focus"",""36"",""480013""
""focus"",""36"",""488614""
""focus"",""36"",""500085""
""focus"",""36"",""507637""
""focus"",""58"",""610938""
","""event"",""trial"",""time""
""fullscreenenter"",""1"",""26196""
","
","","[{""page_index"":0,""viewing_time"":7096.600000143051},{""page_index"":1,""viewing_time"":7431.899999856949},{""page_index"":2,""viewing_time"":6039.900000095367},{""page_index"":3,""viewing_time"":14168},{""page_index"":4,""viewing_time"":7535.700000047684}]","42272.60000014305","","","","","","","","","","","","","","","","","","","","","","","",""
"pit-trial","59","649427","0.0-2.0-14.0-0.0","battery-v0.2","","""event"",""trial"",""time""
""fullscreenenter"",""1"",""26196""
""blur"",""36"",""452150""
""focus"",""36"",""480013""
""blur"",""36"",""481561""
""focus"",""36"",""488614""
""blur"",""36"",""491296""
""focus"",""36"",""500085""
""blur"",""36"",""502496""
""focus"",""36"",""507637""
""blur"",""40"",""523160""
""focus"",""58"",""610938""
","""event"",""trial"",""time""
""blur"",""36"",""452150""
""blur"",""36"",""481561""
""blur"",""36"",""491296""
""blur"",""36"",""502496""
""blur"",""40"",""523160""
","""event"",""trial"",""time""
""focus"",""36"",""480013""
""focus"",""36"",""488614""
""focus"",""36"",""500085""
""focus"",""36"",""507637""
""focus"",""58"",""610938""
","""event"",""trial"",""time""
""fullscreenenter"",""1"",""26196""
","
","","","395.5","","","22","10092","4710","&#9826;","elianto","#f73b6a7A","-1"," ","0","-10","[1246.2999999523163]","1","0","3","","","","","","","",""
"pit-trial","60","654294","0.0-2.0-14.0-1.0","battery-v0.2","","""event"",""trial"",""time""
""fullscreenenter"",""1"",""26196""
""blur"",""36"",""452150""
""focus"",""36"",""480013""
""blur"",""36"",""481561""
""focus"",""36"",""488614""
""blur"",""36"",""491296""
""focus"",""36"",""500085""
""blur"",""36"",""502496""
""focus"",""36"",""507637""
""blur"",""40"",""523160""
""focus"",""58"",""610938""
","""event"",""trial"",""time""
""blur"",""36"",""452150""
""blur"",""36"",""481561""
""blur"",""36"",""491296""
""blur"",""36"",""502496""
""blur"",""40"",""523160""
","""event"",""trial"",""time""
""focus"",""36"",""480013""
""focus"",""36"",""488614""
""focus"",""36"",""500085""
""focus"",""36"",""507637""
""focus"",""58"",""610938""
","""event"",""trial"",""time""
""fullscreenenter"",""1"",""26196""
","
","","","-1","","","22","10092","4710","&#9826;","elianto","#f73b6a7A","-1","-1","1","0","[]","0","0","3","","","","","","","",""
"pit-trial","61","658798","0.0-2.0-14.0-2.0","battery-v0.2","","""event"",""trial"",""time""
""fullscreenenter"",""1"",""26196""
""blur"",""36"",""452150""
""focus"",""36"",""480013""
""blur"",""36"",""481561""
""focus"",""36"",""488614""
""blur"",""36"",""491296""
""focus"",""36"",""500085""
""blur"",""36"",""502496""
""focus"",""36"",""507637""
""blur"",""40"",""523160""
""focus"",""58"",""610938""
","""event"",""trial"",""time""
""blur"",""36"",""452150""
""blur"",""36"",""481561""
""blur"",""36"",""491296""
""blur"",""36"",""502496""
""blur"",""40"",""523160""
","""event"",""trial"",""time""
""focus"",""36"",""480013""
""focus"",""36"",""488614""
""focus"",""36"",""500085""
""focus"",""36"",""507637""
""focus"",""58"",""610938""
","""event"",""trial"",""time""
""fullscreenenter"",""1"",""26196""
","
","","","1639.2999999523163","","","22","10092","4710","&#9826;","elianto","#f73b6a7A","-1"," ","0","-10","[2494.5]","1","0","3","","","","","","","",""
"pit-trial","62","663674","0.0-2.0-14.0-3.0","battery-v0.2","","""event"",""trial"",""time""
""fullscreenenter"",""1"",""26196""
""blur"",""36"",""452150""
""focus"",""36"",""480013""
""blur"",""36"",""481561""
""focus"",""36"",""488614""
""blur"",""36"",""491296""
""focus"",""36"",""500085""
""blur"",""36"",""502496""
""focus"",""36"",""507637""
""blur"",""40"",""523160""
""focus"",""58"",""610938""
","""event"",""trial"",""time""
""blur"",""36"",""452150""
""blur"",""36"",""481561""
""blur"",""36"",""491296""
""blur"",""36"",""502496""
""blur"",""40"",""523160""
","""event"",""trial"",""time""
""focus"",""36"",""480013""
""focus"",""36"",""488614""
""focus"",""36"",""500085""
""focus"",""36"",""507637""
""focus"",""58"",""610938""
","""event"",""trial"",""time""
""fullscreenenter"",""1"",""26196""
","
","","","-1","","","22","10092","4710","&#9826;","elianto","#f73b6a7A","-1","-1","1","-10","[]","0","0","3","","","","","","","",""
"pit-trial","63","668548","0.0-2.0-14.0-4.0","battery-v0.2","","""event"",""trial"",""time""
""fullscreenenter"",""1"",""26196""
""blur"",""36"",""452150""
""focus"",""36"",""480013""
""blur"",""36"",""481561""
""focus"",""36"",""488614""
""blur"",""36"",""491296""
""focus"",""36"",""500085""
""blur"",""36"",""502496""
""focus"",""36"",""507637""
""blur"",""40"",""523160""
""focus"",""58"",""610938""
","""event"",""trial"",""time""
""blur"",""36"",""452150""
""blur"",""36"",""481561""
""blur"",""36"",""491296""
""blur"",""36"",""502496""
""blur"",""40"",""523160""
","""event"",""trial"",""time""
""focus"",""36"",""480013""
""focus"",""36"",""488614""
""focus"",""36"",""500085""
""focus"",""36"",""507637""
""focus"",""58"",""610938""
","""event"",""trial"",""time""
""fullscreenenter"",""1"",""26196""
","
","","","-1","","","22","10092","4710","&#9826;","elianto","#f73b6a7A","-1","-1","1","0","[]","0","0","3","","","","","","","",""
"pit-trial","64","673404","0.0-2.0-14.1-0.1","battery-v0.2","","""event"",""trial"",""time""
""fullscreenenter"",""1"",""26196""
""blur"",""36"",""452150""
""focus"",""36"",""480013""
""blur"",""36"",""481561""
""focus"",""36"",""488614""
""blur"",""36"",""491296""
""focus"",""36"",""500085""
""blur"",""36"",""502496""
""focus"",""36"",""507637""
""blur"",""40"",""523160""
""focus"",""58"",""610938""
","""event"",""trial"",""time""
""blur"",""36"",""452150""
""blur"",""36"",""481561""
""blur"",""36"",""491296""
""blur"",""36"",""502496""
""blur"",""40"",""523160""
","""event"",""trial"",""time""
""focus"",""36"",""480013""
""focus"",""36"",""488614""
""focus"",""36"",""500085""
""focus"",""36"",""507637""
""focus"",""58"",""610938""
","""event"",""trial"",""time""
""fullscreenenter"",""1"",""26196""
","
","","","-1","","","22","10092","4710","&#9826;","elianto","#f73b6a7A","-1","-1","1","0","[]","0","0","3","","","","","","","",""
"pit-trial","65","678257","0.0-2.0-14.1-1.1","battery-v0.2","","""event"",""trial"",""time""
""fullscreenenter"",""1"",""26196""
""blur"",""36"",""452150""
""focus"",""36"",""480013""
""blur"",""36"",""481561""
""focus"",""36"",""488614""
""blur"",""36"",""491296""
""focus"",""36"",""500085""
""blur"",""36"",""502496""
""focus"",""36"",""507637""
""blur"",""40"",""523160""
""focus"",""58"",""610938""
","""event"",""trial"",""time""
""blur"",""36"",""452150""
""blur"",""36"",""481561""
""blur"",""36"",""491296""
""blur"",""36"",""502496""
""blur"",""40"",""523160""
","""event"",""trial"",""time""
""focus"",""36"",""480013""
""focus"",""36"",""488614""
""focus"",""36"",""500085""
""focus"",""36"",""507637""
""focus"",""58"",""610938""
","""event"",""trial"",""time""
""fullscreenenter"",""1"",""26196""
","
","","","-1","","","22","10092","4710","&#9826;","elianto","#f73b6a7A","-1","-1","1","0","[]","0","0","3","","","","","","","",""
"pit-trial","66","683110","0.0-2.0-14.1-2.1","battery-v0.2","","""event"",""trial"",""time""
""fullscreenenter"",""1"",""26196""
""blur"",""36"",""452150""
""focus"",""36"",""480013""
""blur"",""36"",""481561""
""focus"",""36"",""488614""
""blur"",""36"",""491296""
""focus"",""36"",""500085""
""blur"",""36"",""502496""
""focus"",""36"",""507637""
""blur"",""40"",""523160""
""focus"",""58"",""610938""
","""event"",""trial"",""time""
""blur"",""36"",""452150""
""blur"",""36"",""481561""
""blur"",""36"",""491296""
""blur"",""36"",""502496""
""blur"",""40"",""523160""
","""event"",""trial"",""time""
""focus"",""36"",""480013""
""focus"",""36"",""488614""
""focus"",""36"",""500085""
""focus"",""36"",""507637""
""focus"",""58"",""610938""
","""event"",""trial"",""time""
""fullscreenenter"",""1"",""26196""
","
","","","-1","","","22","10092","4710","&#9826;","elianto","#f73b6a7A","-1","-1","1","0","[]","0","0","3","","","","","","","",""
"pit-trial","67","687963","0.0-2.0-14.1-3.1","battery-v0.2","","""event"",""trial"",""time""
""fullscreenenter"",""1"",""26196""
""blur"",""36"",""452150""
""focus"",""36"",""480013""
""blur"",""36"",""481561""
""focus"",""36"",""488614""
""blur"",""36"",""491296""
""focus"",""36"",""500085""
""blur"",""36"",""502496""
""focus"",""36"",""507637""
""blur"",""40"",""523160""
""focus"",""58"",""610938""
","""event"",""trial"",""time""
""blur"",""36"",""452150""
""blur"",""36"",""481561""
""blur"",""36"",""491296""
""blur"",""36"",""502496""
""blur"",""40"",""523160""
","""event"",""trial"",""time""
""focus"",""36"",""480013""
""focus"",""36"",""488614""
""focus"",""36"",""500085""
""focus"",""36"",""507637""
""focus"",""58"",""610938""
","""event"",""trial"",""time""
""fullscreenenter"",""1"",""26196""
","
","","","-1","","","22","10092","4710","&#9826;","elianto","#f73b6a7A","-1","-1","1","-10","[]","0","0","3","","","","","","","",""
"pit-trial","68","692817","0.0-2.0-14.1-4.1","battery-v0.2","","""event"",""trial"",""time""
""fullscreenenter"",""1"",""26196""
""blur"",""36"",""452150""
""focus"",""36"",""480013""
""blur"",""36"",""481561""
""focus"",""36"",""488614""
""blur"",""36"",""491296""
""focus"",""36"",""500085""
""blur"",""36"",""502496""
""focus"",""36"",""507637""
""blur"",""40"",""523160""
""focus"",""58"",""610938""
","""event"",""trial"",""time""
""blur"",""36"",""452150""
""blur"",""36"",""481561""
""blur"",""36"",""491296""
""blur"",""36"",""502496""
""blur"",""40"",""523160""
","""event"",""trial"",""time""
""focus"",""36"",""480013""
""focus"",""36"",""488614""
""focus"",""36"",""500085""
""focus"",""36"",""507637""
""focus"",""58"",""610938""
","""event"",""trial"",""time""
""fullscreenenter"",""1"",""26196""
","
","","","-1","","","22","10092","4710","&#9826;","elianto","#f73b6a7A","-1","-1","1","0","[]","0","0","3","","","","","","","",""
"pit-trial","69","697669","0.0-2.0-14.2-0.2","battery-v0.2","","""event"",""trial"",""time""
""fullscreenenter"",""1"",""26196""
""blur"",""36"",""452150""
""focus"",""36"",""480013""
""blur"",""36"",""481561""
""focus"",""36"",""488614""
""blur"",""36"",""491296""
""focus"",""36"",""500085""
""blur"",""36"",""502496""
""focus"",""36"",""507637""
""blur"",""40"",""523160""
""focus"",""58"",""610938""
","""event"",""trial"",""time""
""blur"",""36"",""452150""
""blur"",""36"",""481561""
""blur"",""36"",""491296""
""blur"",""36"",""502496""
""blur"",""40"",""523160""
","""event"",""trial"",""time""
""focus"",""36"",""480013""
""focus"",""36"",""488614""
""focus"",""36"",""500085""
""focus"",""36"",""507637""
""focus"",""58"",""610938""
","""event"",""trial"",""time""
""fullscreenenter"",""1"",""26196""
","
","","","-1","","","22","10092","4710","&#9826;","elianto","#f73b6a7A","-1","-1","1","0","[]","0","0","3","","","","","","","",""
"pit-trial","70","702523","0.0-2.0-14.2-1.2","battery-v0.2","","""event"",""trial"",""time""
""fullscreenenter"",""1"",""26196""
""blur"",""36"",""452150""
""focus"",""36"",""480013""
""blur"",""36"",""481561""
""focus"",""36"",""488614""
""blur"",""36"",""491296""
""focus"",""36"",""500085""
""blur"",""36"",""502496""
""focus"",""36"",""507637""
""blur"",""40"",""523160""
""focus"",""58"",""610938""
","""event"",""trial"",""time""
""blur"",""36"",""452150""
""blur"",""36"",""481561""
""blur"",""36"",""491296""
""blur"",""36"",""502496""
""blur"",""40"",""523160""
","""event"",""trial"",""time""
""focus"",""36"",""480013""
""focus"",""36"",""488614""
""focus"",""36"",""500085""
""focus"",""36"",""507637""
""focus"",""58"",""610938""
","""event"",""trial"",""time""
""fullscreenenter"",""1"",""26196""
","
","","","-1","","","22","10092","4710","&#9826;","elianto","#f73b6a7A","-1","-1","1","0","[]","0","0","3","","","","","","","",""
"pit-trial","71","707376","0.0-2.0-14.2-2.2","battery-v0.2","","""event"",""trial"",""time""
""fullscreenenter"",""1"",""26196""
""blur"",""36"",""452150""
""focus"",""36"",""480013""
""blur"",""36"",""481561""
""focus"",""36"",""488614""
""blur"",""36"",""491296""
""focus"",""36"",""500085""
""blur"",""36"",""502496""
""focus"",""36"",""507637""
""blur"",""40"",""523160""
""focus"",""58"",""610938""
","""event"",""trial"",""time""
""blur"",""36"",""452150""
""blur"",""36"",""481561""
""blur"",""36"",""491296""
""blur"",""36"",""502496""
""blur"",""40"",""523160""
","""event"",""trial"",""time""
""focus"",""36"",""480013""
""focus"",""36"",""488614""
""focus"",""36"",""500085""
""focus"",""36"",""507637""
""focus"",""58"",""610938""
","""event"",""trial"",""time""
""fullscreenenter"",""1"",""26196""
","
","","","-1","","","22","10092","4710","&#9826;","elianto","#f73b6a7A","-1","-1","1","0","[]","0","0","3","","","","","","","",""
"pit-trial","72","712230","0.0-2.0-14.2-3.2","battery-v0.2","","""event"",""trial"",""time""
""fullscreenenter"",""1"",""26196""
""blur"",""36"",""452150""
""focus"",""36"",""480013""
""blur"",""36"",""481561""
""focus"",""36"",""488614""
""blur"",""36"",""491296""
""focus"",""36"",""500085""
""blur"",""36"",""502496""
""focus"",""36"",""507637""
""blur"",""40"",""523160""
""focus"",""58"",""610938""
","""event"",""trial"",""time""
""blur"",""36"",""452150""
""blur"",""36"",""481561""
""blur"",""36"",""491296""
""blur"",""36"",""502496""
""blur"",""40"",""523160""
","""event"",""trial"",""time""
""focus"",""36"",""480013""
""focus"",""36"",""488614""
""focus"",""36"",""500085""
""focus"",""36"",""507637""
""focus"",""58"",""610938""
","""event"",""trial"",""time""
""fullscreenenter"",""1"",""26196""
","
","","","-1","","","22","10092","4710","&#9826;","elianto","#f73b6a7A","-1","-1","1","-10","[]","0","0","3","","","","","","","",""
"pit-trial","73","717082","0.0-2.0-14.2-4.2","battery-v0.2","","""event"",""trial"",""time""
""fullscreenenter"",""1"",""26196""
""blur"",""36"",""452150""
""focus"",""36"",""480013""
""blur"",""36"",""481561""
""focus"",""36"",""488614""
""blur"",""36"",""491296""
""focus"",""36"",""500085""
""blur"",""36"",""502496""
""focus"",""36"",""507637""
""blur"",""40"",""523160""
""focus"",""58"",""610938""
","""event"",""trial"",""time""
""blur"",""36"",""452150""
""blur"",""36"",""481561""
""blur"",""36"",""491296""
""blur"",""36"",""502496""
""blur"",""40"",""523160""
","""event"",""trial"",""time""
""focus"",""36"",""480013""
""focus"",""36"",""488614""
""focus"",""36"",""500085""
""focus"",""36"",""507637""
""focus"",""58"",""610938""
","""event"",""trial"",""time""
""fullscreenenter"",""1"",""26196""
","
","","","-1","","","22","10092","4710","&#9826;","elianto","#f73b6a7A","-1","-1","1","0","[]","0","0","3","","","","","","","",""
"pit-trial","74","721936","0.0-2.0-14.3-0.3","battery-v0.2","","""event"",""trial"",""time""
""fullscreenenter"",""1"",""26196""
""blur"",""36"",""452150""
""focus"",""36"",""480013""
""blur"",""36"",""481561""
""focus"",""36"",""488614""
""blur"",""36"",""491296""
""focus"",""36"",""500085""
""blur"",""36"",""502496""
""focus"",""36"",""507637""
""blur"",""40"",""523160""
""focus"",""58"",""610938""
","""event"",""trial"",""time""
""blur"",""36"",""452150""
""blur"",""36"",""481561""
""blur"",""36"",""491296""
""blur"",""36"",""502496""
""blur"",""40"",""523160""
","""event"",""trial"",""time""
""focus"",""36"",""480013""
""focus"",""36"",""488614""
""focus"",""36"",""500085""
""focus"",""36"",""507637""
""focus"",""58"",""610938""
","""event"",""trial"",""time""
""fullscreenenter"",""1"",""26196""
","
","","","-1","","","22","10092","4710","&#9826;","elianto","#f73b6a7A","-1","-1","1","0","[]","0","0","3","","","","","","","",""
"pit-trial","75","726789","0.0-2.0-14.3-1.3","battery-v0.2","","""event"",""trial"",""time""
""fullscreenenter"",""1"",""26196""
""blur"",""36"",""452150""
""focus"",""36"",""480013""
""blur"",""36"",""481561""
""focus"",""36"",""488614""
""blur"",""36"",""491296""
""focus"",""36"",""500085""
""blur"",""36"",""502496""
""focus"",""36"",""507637""
""blur"",""40"",""523160""
""focus"",""58"",""610938""
","""event"",""trial"",""time""
""blur"",""36"",""452150""
""blur"",""36"",""481561""
""blur"",""36"",""491296""
""blur"",""36"",""502496""
""blur"",""40"",""523160""
","""event"",""trial"",""time""
""focus"",""36"",""480013""
""focus"",""36"",""488614""
""focus"",""36"",""500085""
""focus"",""36"",""507637""
""focus"",""58"",""610938""
","""event"",""trial"",""time""
""fullscreenenter"",""1"",""26196""
","
","","","-1","","","22","10092","4710","&#9826;","elianto","#f73b6a7A","-1","-1","1","0","[]","0","0","3","","","","","","","",""
"pit-trial","76","731643","0.0-2.0-14.3-2.3","battery-v0.2","","""event"",""trial"",""time""
""fullscreenenter"",""1"",""26196""
""blur"",""36"",""452150""
""focus"",""36"",""480013""
""blur"",""36"",""481561""
""focus"",""36"",""488614""
""blur"",""36"",""491296""
""focus"",""36"",""500085""
""blur"",""36"",""502496""
""focus"",""36"",""507637""
""blur"",""40"",""523160""
""focus"",""58"",""610938""
","""event"",""trial"",""time""
""blur"",""36"",""452150""
""blur"",""36"",""481561""
""blur"",""36"",""491296""
""blur"",""36"",""502496""
""blur"",""40"",""523160""
","""event"",""trial"",""time""
""focus"",""36"",""480013""
""focus"",""36"",""488614""
""focus"",""36"",""500085""
""focus"",""36"",""507637""
""focus"",""58"",""610938""
","""event"",""trial"",""time""
""fullscreenenter"",""1"",""26196""
","
","","","-1","","","22","10092","4710","&#9826;","elianto","#f73b6a7A","-1","-1","1","0","[]","0","0","3","","","","","","","",""
"pit-trial","77","736495","0.0-2.0-14.3-3.3","battery-v0.2","","""event"",""trial"",""time""
""fullscreenenter"",""1"",""26196""
""blur"",""36"",""452150""
""focus"",""36"",""480013""
""blur"",""36"",""481561""
""focus"",""36"",""488614""
""blur"",""36"",""491296""
""focus"",""36"",""500085""
""blur"",""36"",""502496""
""focus"",""36"",""507637""
""blur"",""40"",""523160""
""focus"",""58"",""610938""
","""event"",""trial"",""time""
""blur"",""36"",""452150""
""blur"",""36"",""481561""
""blur"",""36"",""491296""
""blur"",""36"",""502496""
""blur"",""40"",""523160""
","""event"",""trial"",""time""
""focus"",""36"",""480013""
""focus"",""36"",""488614""
""focus"",""36"",""500085""
""focus"",""36"",""507637""
""focus"",""58"",""610938""
","""event"",""trial"",""time""
""fullscreenenter"",""1"",""26196""
","
","","","-1","","","22","10092","4710","&#9826;","elianto","#f73b6a7A","-1","-1","1","-10","[]","0","0","3","","","","","","","",""
"pit-trial","78","741348","0.0-2.0-14.3-4.3","battery-v0.2","","""event"",""trial"",""time""
""fullscreenenter"",""1"",""26196""
""blur"",""36"",""452150""
""focus"",""36"",""480013""
""blur"",""36"",""481561""
""focus"",""36"",""488614""
""blur"",""36"",""491296""
""focus"",""36"",""500085""
""blur"",""36"",""502496""
""focus"",""36"",""507637""
""blur"",""40"",""523160""
""focus"",""58"",""610938""
","""event"",""trial"",""time""
""blur"",""36"",""452150""
""blur"",""36"",""481561""
""blur"",""36"",""491296""
""blur"",""36"",""502496""
""blur"",""40"",""523160""
","""event"",""trial"",""time""
""focus"",""36"",""480013""
""focus"",""36"",""488614""
""focus"",""36"",""500085""
""focus"",""36"",""507637""
""focus"",""58"",""610938""
","""event"",""trial"",""time""
""fullscreenenter"",""1"",""26196""
","
","","","-1","","","22","10092","4710","&#9826;","elianto","#f73b6a7A","-1","-1","1","0","[]","0","0","3","","","","","","","",""
"call-function","79","741349","0.0-2.0-15.0","battery-v0.2","","""event"",""trial"",""time""
""fullscreenenter"",""1"",""26196""
""blur"",""36"",""452150""
""focus"",""36"",""480013""
""blur"",""36"",""481561""
""focus"",""36"",""488614""
""blur"",""36"",""491296""
""focus"",""36"",""500085""
""blur"",""36"",""502496""
""focus"",""36"",""507637""
""blur"",""40"",""523160""
""focus"",""58"",""610938""
","""event"",""trial"",""time""
""blur"",""36"",""452150""
""blur"",""36"",""481561""
""blur"",""36"",""491296""
""blur"",""36"",""502496""
""blur"",""40"",""523160""
","""event"",""trial"",""time""
""focus"",""36"",""480013""
""focus"",""36"",""488614""
""focus"",""36"",""500085""
""focus"",""36"",""507637""
""focus"",""58"",""610938""
","""event"",""trial"",""time""
""fullscreenenter"",""1"",""26196""
","
","","","","","","","","","","","","","","","","","","","","","","","","","","",""
"pit-instructions","80","807547","0.0-2.0-16.0","battery-v0.2","","""event"",""trial"",""time""
""fullscreenenter"",""1"",""26196""
""blur"",""36"",""452150""
""focus"",""36"",""480013""
""blur"",""36"",""481561""
""focus"",""36"",""488614""
""blur"",""36"",""491296""
""focus"",""36"",""500085""
""blur"",""36"",""502496""
""focus"",""36"",""507637""
""blur"",""40"",""523160""
""focus"",""58"",""610938""
","""event"",""trial"",""time""
""blur"",""36"",""452150""
""blur"",""36"",""481561""
""blur"",""36"",""491296""
""blur"",""36"",""502496""
""blur"",""40"",""523160""
","""event"",""trial"",""time""
""focus"",""36"",""480013""
""focus"",""36"",""488614""
""focus"",""36"",""500085""
""focus"",""36"",""507637""
""focus"",""58"",""610938""
","""event"",""trial"",""time""
""fullscreenenter"",""1"",""26196""
","
","","[{""page_index"":0,""viewing_time"":48558.299999952316},{""page_index"":1,""viewing_time"":8375.399999856949},{""page_index"":2,""viewing_time"":4136},{""page_index"":3,""viewing_time"":5128}]","66197.89999985695","","","","","","","","","","","","","","","","","","","","","","","",""
"pit-trial","81","810501","0.0-2.0-17.0-0.0","battery-v0.2","","""event"",""trial"",""time""
""fullscreenenter"",""1"",""26196""
""blur"",""36"",""452150""
""focus"",""36"",""480013""
""blur"",""36"",""481561""
""focus"",""36"",""488614""
""blur"",""36"",""491296""
""focus"",""36"",""500085""
""blur"",""36"",""502496""
""focus"",""36"",""507637""
""blur"",""40"",""523160""
""focus"",""58"",""610938""
","""event"",""trial"",""time""
""blur"",""36"",""452150""
""blur"",""36"",""481561""
""blur"",""36"",""491296""
""blur"",""36"",""502496""
""blur"",""40"",""523160""
","""event"",""trial"",""time""
""focus"",""36"",""480013""
""focus"",""36"",""488614""
""focus"",""36"",""500085""
""focus"",""36"",""507637""
""focus"",""58"",""610938""
","""event"",""trial"",""time""
""fullscreenenter"",""1"",""26196""
","
","","","85.59999990463257","","","22","10092","4710","&#9789;","elianto","#f73b6a7A"," "," ","1","0","[942.8999998569489]","1","0","4","","","","","","","",""
"pit-trial","82","813461","0.0-2.0-17.0-1.0","battery-v0.2","","""event"",""trial"",""time""
""fullscreenenter"",""1"",""26196""
""blur"",""36"",""452150""
""focus"",""36"",""480013""
""blur"",""36"",""481561""
""focus"",""36"",""488614""
""blur"",""36"",""491296""
""focus"",""36"",""500085""
""blur"",""36"",""502496""
""focus"",""36"",""507637""
""blur"",""40"",""523160""
""focus"",""58"",""610938""
","""event"",""trial"",""time""
""blur"",""36"",""452150""
""blur"",""36"",""481561""
""blur"",""36"",""491296""
""blur"",""36"",""502496""
""blur"",""40"",""523160""
","""event"",""trial"",""time""
""focus"",""36"",""480013""
""focus"",""36"",""488614""
""focus"",""36"",""500085""
""focus"",""36"",""507637""
""focus"",""58"",""610938""
","""event"",""trial"",""time""
""fullscreenenter"",""1"",""26196""
","
","","","92.80000019073486","","","22","10092","4710","&#9789;","elianto","#f73b6a7A"," "," ","1","0","[948.1000001430511]","1","0","4","","","","","","","",""
"pit-trial","83","816744","0.0-2.0-17.0-2.0","battery-v0.2","","""event"",""trial"",""time""
""fullscreenenter"",""1"",""26196""
""blur"",""36"",""452150""
""focus"",""36"",""480013""
""blur"",""36"",""481561""
""focus"",""36"",""488614""
""blur"",""36"",""491296""
""focus"",""36"",""500085""
""blur"",""36"",""502496""
""focus"",""36"",""507637""
""blur"",""40"",""523160""
""focus"",""58"",""610938""
","""event"",""trial"",""time""
""blur"",""36"",""452150""
""blur"",""36"",""481561""
""blur"",""36"",""491296""
""blur"",""36"",""502496""
""blur"",""40"",""523160""
","""event"",""trial"",""time""
""focus"",""36"",""480013""
""focus"",""36"",""488614""
""focus"",""36"",""500085""
""focus"",""36"",""507637""
""focus"",""58"",""610938""
","""event"",""trial"",""time""
""fullscreenenter"",""1"",""26196""
","
","","","409.59999990463257","","","22","10092","4710","&#9789;","elianto","#f73b6a7A"," "," ","1","0","[564.7999999523163,1268.5999999046326,2652.7999999523163,2916.4000000953674,3228.5]","5","0","4","","","","","","","",""
"pit-trial","84","819907","0.0-2.0-17.0-3.0","battery-v0.2","","""event"",""trial"",""time""
""fullscreenenter"",""1"",""26196""
""blur"",""36"",""452150""
""focus"",""36"",""480013""
""blur"",""36"",""481561""
""focus"",""36"",""488614""
""blur"",""36"",""491296""
""focus"",""36"",""500085""
""blur"",""36"",""502496""
""focus"",""36"",""507637""
""blur"",""40"",""523160""
""focus"",""58"",""610938""
","""event"",""trial"",""time""
""blur"",""36"",""452150""
""blur"",""36"",""481561""
""blur"",""36"",""491296""
""blur"",""36"",""502496""
""blur"",""40"",""523160""
","""event"",""trial"",""time""
""focus"",""36"",""480013""
""focus"",""36"",""488614""
""focus"",""36"",""500085""
""focus"",""36"",""507637""
""focus"",""58"",""610938""
","""event"",""trial"",""time""
""fullscreenenter"",""1"",""26196""
","
","","","303.59999990463257","","","22","10092","4710","&#9789;","elianto","#f73b6a7A"," "," ","1","-10","[1154.0999999046326,1434,1978.0999999046326,2378.0999999046326,2890.7000000476837]","5","0","4","","","","","","","",""
"pit-trial","85","822900","0.0-2.0-17.0-4.0","battery-v0.2","","""event"",""trial"",""time""
""fullscreenenter"",""1"",""26196""
""blur"",""36"",""452150""
""focus"",""36"",""480013""
""blur"",""36"",""481561""
""focus"",""36"",""488614""
""blur"",""36"",""491296""
""focus"",""36"",""500085""
""blur"",""36"",""502496""
""focus"",""36"",""507637""
""blur"",""40"",""523160""
""focus"",""58"",""610938""
","""event"",""trial"",""time""
""blur"",""36"",""452150""
""blur"",""36"",""481561""
""blur"",""36"",""491296""
""blur"",""36"",""502496""
""blur"",""40"",""523160""
","""event"",""trial"",""time""
""focus"",""36"",""480013""
""focus"",""36"",""488614""
""focus"",""36"",""500085""
""focus"",""36"",""507637""
""focus"",""58"",""610938""
","""event"",""trial"",""time""
""fullscreenenter"",""1"",""26196""
","
","","","128.10000014305115","","","22","10092","4710","&#9789;","elianto","#f73b6a7A"," "," ","1","0","[38.60000014305115,430.80000019073486,718.6000001430511,983.1000001430511,1255.1000001430511,1503.4000000953674,1935.2000000476837,2366.9000000953674,2670.800000190735]","9","0","4","","","","","","","",""
"pit-trial","86","825776","0.0-2.0-17.1-0.1","battery-v0.2","","""event"",""trial"",""time""
""fullscreenenter"",""1"",""26196""
""blur"",""36"",""452150""
""focus"",""36"",""480013""
""blur"",""36"",""481561""
""focus"",""36"",""488614""
""blur"",""36"",""491296""
""focus"",""36"",""500085""
""blur"",""36"",""502496""
""focus"",""36"",""507637""
""blur"",""40"",""523160""
""focus"",""58"",""610938""
","""event"",""trial"",""time""
""blur"",""36"",""452150""
""blur"",""36"",""481561""
""blur"",""36"",""491296""
""blur"",""36"",""502496""
""blur"",""40"",""523160""
","""event"",""trial"",""time""
""focus"",""36"",""480013""
""focus"",""36"",""488614""
""focus"",""36"",""500085""
""focus"",""36"",""507637""
""focus"",""58"",""610938""
","""event"",""trial"",""time""
""fullscreenenter"",""1"",""26196""
","
","","","10.799999952316284","","","22","10092","4710","&#9789;","elianto","#f73b6a7A"," "," ","1","0","[29.200000047683716,860.7999999523163,1100.8999998569489,1477,1748.5999999046326,2101,2476.5999999046326,2788.5]","8","0","4","","","","","","","",""
"pit-trial","87","828660","0.0-2.0-17.1-1.1","battery-v0.2","","""event"",""trial"",""time""
""fullscreenenter"",""1"",""26196""
""blur"",""36"",""452150""
""focus"",""36"",""480013""
""blur"",""36"",""481561""
""focus"",""36"",""488614""
""blur"",""36"",""491296""
""focus"",""36"",""500085""
""blur"",""36"",""502496""
""focus"",""36"",""507637""
""blur"",""40"",""523160""
""focus"",""58"",""610938""
","""event"",""trial"",""time""
""blur"",""36"",""452150""
""blur"",""36"",""481561""
""blur"",""36"",""491296""
""blur"",""36"",""502496""
""blur"",""40"",""523160""
","""event"",""trial"",""time""
""focus"",""36"",""480013""
""focus"",""36"",""488614""
""focus"",""36"",""500085""
""focus"",""36"",""507637""
""focus"",""58"",""610938""
","""event"",""trial"",""time""
""fullscreenenter"",""1"",""26196""
","
","","","23.399999856948853","","","22","10092","4710","&#9789;","elianto","#f73b6a7A"," "," ","1","0","[298.5,594,874,1201.9000000953674,1514,1794.2000000476837,2066,2369.800000190735,2641.9000000953674]","9","0","4","","","","","","","",""
"pit-trial","88","831540","0.0-2.0-17.1-2.1","battery-v0.2","","""event"",""trial"",""time""
""fullscreenenter"",""1"",""26196""
""blur"",""36"",""452150""
""focus"",""36"",""480013""
""blur"",""36"",""481561""
""focus"",""36"",""488614""
""blur"",""36"",""491296""
""focus"",""36"",""500085""
""blur"",""36"",""502496""
""focus"",""36"",""507637""
""blur"",""40"",""523160""
""focus"",""58"",""610938""
","""event"",""trial"",""time""
""blur"",""36"",""452150""
""blur"",""36"",""481561""
""blur"",""36"",""491296""
""blur"",""36"",""502496""
""blur"",""40"",""523160""
","""event"",""trial"",""time""
""focus"",""36"",""480013""
""focus"",""36"",""488614""
""focus"",""36"",""500085""
""focus"",""36"",""507637""
""focus"",""58"",""610938""
","""event"",""trial"",""time""
""fullscreenenter"",""1"",""26196""
","
","","","19.399999856948853","","","22","10092","4710","&#9789;","elianto","#f73b6a7A"," "," ","1","0","[61.299999952316284,325.2000000476837,605.6000001430511,877,1149.2999999523163,1453.2999999523163,1741.2000000476837,1997.4000000953674,2285.4000000953674,2549.2000000476837,2829.5]","11","0","4","","","","","","","",""
"pit-trial","89","834579","0.0-2.0-17.1-3.1","battery-v0.2","","""event"",""trial"",""time""
""fullscreenenter"",""1"",""26196""
""blur"",""36"",""452150""
""focus"",""36"",""480013""
""blur"",""36"",""481561""
""focus"",""36"",""488614""
""blur"",""36"",""491296""
""focus"",""36"",""500085""
""blur"",""36"",""502496""
""focus"",""36"",""507637""
""blur"",""40"",""523160""
""focus"",""58"",""610938""
","""event"",""trial"",""time""
""blur"",""36"",""452150""
""blur"",""36"",""481561""
""blur"",""36"",""491296""
""blur"",""36"",""502496""
""blur"",""40"",""523160""
","""event"",""trial"",""time""
""focus"",""36"",""480013""
""focus"",""36"",""488614""
""focus"",""36"",""500085""
""focus"",""36"",""507637""
""focus"",""58"",""610938""
","""event"",""trial"",""time""
""fullscreenenter"",""1"",""26196""
","
","","","174.5","","","22","10092","4710","&#9789;","elianto","#f73b6a7A"," "," ","1","-10","[206.29999995231628,502.2999999523163,774.2000000476837,1030.1000001430511,1318.4000000953674,1614.2000000476837,1902.2999999523163,2150.4000000953674,2478.2000000476837,3038.2000000476837]","10","0","4","","","","","","","",""
"pit-trial","90","837564","0.0-2.0-17.1-4.1","battery-v0.2","","""event"",""trial"",""time""
""fullscreenenter"",""1"",""26196""
""blur"",""36"",""452150""
""focus"",""36"",""480013""
""blur"",""36"",""481561""
""focus"",""36"",""488614""
""blur"",""36"",""491296""
""focus"",""36"",""500085""
""blur"",""36"",""502496""
""focus"",""36"",""507637""
""blur"",""40"",""523160""
""focus"",""58"",""610938""
","""event"",""trial"",""time""
""blur"",""36"",""452150""
""blur"",""36"",""481561""
""blur"",""36"",""491296""
""blur"",""36"",""502496""
""blur"",""40"",""523160""
","""event"",""trial"",""time""
""focus"",""36"",""480013""
""focus"",""36"",""488614""
""focus"",""36"",""500085""
""focus"",""36"",""507637""
""focus"",""58"",""610938""
","""event"",""trial"",""time""
""fullscreenenter"",""1"",""26196""
","
","","","122","","","22","10092","4710","&#9789;","elianto","#f73b6a7A"," "," ","1","0","[526.5,982.3999998569489]","2","0","4","","","","","","","",""
"pit-trial","91","840756","0.0-2.0-17.2-0.2","battery-v0.2","","""event"",""trial"",""time""
""fullscreenenter"",""1"",""26196""
""blur"",""36"",""452150""
""focus"",""36"",""480013""
""blur"",""36"",""481561""
""focus"",""36"",""488614""
""blur"",""36"",""491296""
""focus"",""36"",""500085""
""blur"",""36"",""502496""
""focus"",""36"",""507637""
""blur"",""40"",""523160""
""focus"",""58"",""610938""
","""event"",""trial"",""time""
""blur"",""36"",""452150""
""blur"",""36"",""481561""
""blur"",""36"",""491296""
""blur"",""36"",""502496""
""blur"",""40"",""523160""
","""event"",""trial"",""time""
""focus"",""36"",""480013""
""focus"",""36"",""488614""
""focus"",""36"",""500085""
""focus"",""36"",""507637""
""focus"",""58"",""610938""
","""event"",""trial"",""time""
""fullscreenenter"",""1"",""26196""
","
","","","339.2000000476837","","","22","10092","4710","&#9789;","elianto","#f73b6a7A"," "," ","1","0","[309.2000000476837,1189.2999999523163,1549.5,2189.2000000476837,2557.0999999046326]","5","0","4","","","","","","","",""
"pit-trial","92","843780","0.0-2.0-17.2-1.2","battery-v0.2","","""event"",""trial"",""time""
""fullscreenenter"",""1"",""26196""
""blur"",""36"",""452150""
""focus"",""36"",""480013""
""blur"",""36"",""481561""
""focus"",""36"",""488614""
""blur"",""36"",""491296""
""focus"",""36"",""500085""
""blur"",""36"",""502496""
""focus"",""36"",""507637""
""blur"",""40"",""523160""
""focus"",""58"",""610938""
","""event"",""trial"",""time""
""blur"",""36"",""452150""
""blur"",""36"",""481561""
""blur"",""36"",""491296""
""blur"",""36"",""502496""
""blur"",""40"",""523160""
","""event"",""trial"",""time""
""focus"",""36"",""480013""
""focus"",""36"",""488614""
""focus"",""36"",""500085""
""focus"",""36"",""507637""
""focus"",""58"",""610938""
","""event"",""trial"",""time""
""fullscreenenter"",""1"",""26196""
","
","","","171.70000004768372","","","22","10092","4710","&#9789;","elianto","#f73b6a7A"," "," ","1","0","[54.90000009536743,1022.2999999523163,1350.5,1926.0999999046326,2230.2999999523163,2590.0999999046326,2981.9000000953674]","7","0","4","","","","","","","",""
"pit-trial","93","847884","0.0-2.0-17.2-2.2","battery-v0.2","","""event"",""trial"",""time""
""fullscreenenter"",""1"",""26196""
""blur"",""36"",""452150""
""focus"",""36"",""480013""
""blur"",""36"",""481561""
""focus"",""36"",""488614""
""blur"",""36"",""491296""
""focus"",""36"",""500085""
""blur"",""36"",""502496""
""focus"",""36"",""507637""
""blur"",""40"",""523160""
""focus"",""58"",""610938""
","""event"",""trial"",""time""
""blur"",""36"",""452150""
""blur"",""36"",""481561""
""blur"",""36"",""491296""
""blur"",""36"",""502496""
""blur"",""40"",""523160""
","""event"",""trial"",""time""
""focus"",""36"",""480013""
""focus"",""36"",""488614""
""focus"",""36"",""500085""
""focus"",""36"",""507637""
""focus"",""58"",""610938""
","""event"",""trial"",""time""
""fullscreenenter"",""1"",""26196""
","
","","","1251.2999999523163","","","22","10092","4710","&#9789;","elianto","#f73b6a7A"," "," ","1","0","[525.5,2101.5999999046326,2309.899999856949,2581.5,3141.5]","5","0","4","","","","","","","",""
"pit-trial","94","851435","0.0-2.0-17.2-3.2","battery-v0.2","","""event"",""trial"",""time""
""fullscreenenter"",""1"",""26196""
""blur"",""36"",""452150""
""focus"",""36"",""480013""
""blur"",""36"",""481561""
""focus"",""36"",""488614""
""blur"",""36"",""491296""
""focus"",""36"",""500085""
""blur"",""36"",""502496""
""focus"",""36"",""507637""
""blur"",""40"",""523160""
""focus"",""58"",""610938""
","""event"",""trial"",""time""
""blur"",""36"",""452150""
""blur"",""36"",""481561""
""blur"",""36"",""491296""
""blur"",""36"",""502496""
""blur"",""40"",""523160""
","""event"",""trial"",""time""
""focus"",""36"",""480013""
""focus"",""36"",""488614""
""focus"",""36"",""500085""
""focus"",""36"",""507637""
""focus"",""58"",""610938""
","""event"",""trial"",""time""
""fullscreenenter"",""1"",""26196""
","
","","","698.0999999046326","","","22","10092","4710","&#9789;","elianto","#f73b6a7A"," "," ","1","-10","[1549.3999998569489,1805.1999998092651,2053.399999856949,2285.699999809265,2517.5999999046326,2813.699999809265,3237.7999999523163]","7","0","4","","","","","","","",""
"pit-trial","95","854372","0.0-2.0-17.2-4.2","battery-v0.2","","""event"",""trial"",""time""
""fullscreenenter"",""1"",""26196""
""blur"",""36"",""452150""
""focus"",""36"",""480013""
""blur"",""36"",""481561""
""focus"",""36"",""488614""
""blur"",""36"",""491296""
""focus"",""36"",""500085""
""blur"",""36"",""502496""
""focus"",""36"",""507637""
""blur"",""40"",""523160""
""focus"",""58"",""610938""
","""event"",""trial"",""time""
""blur"",""36"",""452150""
""blur"",""36"",""481561""
""blur"",""36"",""491296""
""blur"",""36"",""502496""
""blur"",""40"",""523160""
","""event"",""trial"",""time""
""focus"",""36"",""480013""
""focus"",""36"",""488614""
""focus"",""36"",""500085""
""focus"",""36"",""507637""
""focus"",""58"",""610938""
","""event"",""trial"",""time""
""fullscreenenter"",""1"",""26196""
","
","","","84.70000004768372","","","22","10092","4710","&#9789;","elianto","#f73b6a7A"," "," ","1","0","[934.9000000953674]","1","0","4","","","","","","","",""
"pit-trial","96","857331","0.0-2.0-17.3-0.3","battery-v0.2","","""event"",""trial"",""time""
""fullscreenenter"",""1"",""26196""
""blur"",""36"",""452150""
""focus"",""36"",""480013""
""blur"",""36"",""481561""
""focus"",""36"",""488614""
""blur"",""36"",""491296""
""focus"",""36"",""500085""
""blur"",""36"",""502496""
""focus"",""36"",""507637""
""blur"",""40"",""523160""
""focus"",""58"",""610938""
","""event"",""trial"",""time""
""blur"",""36"",""452150""
""blur"",""36"",""481561""
""blur"",""36"",""491296""
""blur"",""36"",""502496""
""blur"",""40"",""523160""
","""event"",""trial"",""time""
""focus"",""36"",""480013""
""focus"",""36"",""488614""
""focus"",""36"",""500085""
""focus"",""36"",""507637""
""focus"",""58"",""610938""
","""event"",""trial"",""time""
""fullscreenenter"",""1"",""26196""
","
","","","106.29999995231628","","","22","10092","4710","&#9789;","elianto","#f73b6a7A"," "," ","1","0","[956.5999999046326]","1","0","4","","","","","","","",""
"pit-trial","97","860915","0.0-2.0-17.3-1.3","battery-v0.2","","""event"",""trial"",""time""
""fullscreenenter"",""1"",""26196""
""blur"",""36"",""452150""
""focus"",""36"",""480013""
""blur"",""36"",""481561""
""focus"",""36"",""488614""
""blur"",""36"",""491296""
""focus"",""36"",""500085""
""blur"",""36"",""502496""
""focus"",""36"",""507637""
""blur"",""40"",""523160""
""focus"",""58"",""610938""
","""event"",""trial"",""time""
""blur"",""36"",""452150""
""blur"",""36"",""481561""
""blur"",""36"",""491296""
""blur"",""36"",""502496""
""blur"",""40"",""523160""
","""event"",""trial"",""time""
""focus"",""36"",""480013""
""focus"",""36"",""488614""
""focus"",""36"",""500085""
""focus"",""36"",""507637""
""focus"",""58"",""610938""
","""event"",""trial"",""time""
""fullscreenenter"",""1"",""26196""
","
","","","731.9000000953674","","","22","10092","4710","&#9789;","elianto","#f73b6a7A"," "," ","1","0","[1582.2999999523163]","1","0","4","","","","","","","",""
"pit-trial","98","865076","0.0-2.0-17.3-2.3","battery-v0.2","","""event"",""trial"",""time""
""fullscreenenter"",""1"",""26196""
""blur"",""36"",""452150""
""focus"",""36"",""480013""
""blur"",""36"",""481561""
""focus"",""36"",""488614""
""blur"",""36"",""491296""
""focus"",""36"",""500085""
""blur"",""36"",""502496""
""focus"",""36"",""507637""
""blur"",""40"",""523160""
""focus"",""58"",""610938""
","""event"",""trial"",""time""
""blur"",""36"",""452150""
""blur"",""36"",""481561""
""blur"",""36"",""491296""
""blur"",""36"",""502496""
""blur"",""40"",""523160""
","""event"",""trial"",""time""
""focus"",""36"",""480013""
""focus"",""36"",""488614""
""focus"",""36"",""500085""
""focus"",""36"",""507637""
""focus"",""58"",""610938""
","""event"",""trial"",""time""
""fullscreenenter"",""1"",""26196""
","
","","","1307.6000001430511","","","22","10092","4710","&#9789;","elianto","#f73b6a7A"," "," ","1","0","[2158.4000000953674]","1","0","4","","","","","","","",""
"pit-trial","99","868131","0.0-2.0-17.3-3.3","battery-v0.2","","""event"",""trial"",""time""
""fullscreenenter"",""1"",""26196""
""blur"",""36"",""452150""
""focus"",""36"",""480013""
""blur"",""36"",""481561""
""focus"",""36"",""488614""
""blur"",""36"",""491296""
""focus"",""36"",""500085""
""blur"",""36"",""502496""
""focus"",""36"",""507637""
""blur"",""40"",""523160""
""focus"",""58"",""610938""
","""event"",""trial"",""time""
""blur"",""36"",""452150""
""blur"",""36"",""481561""
""blur"",""36"",""491296""
""blur"",""36"",""502496""
""blur"",""40"",""523160""
","""event"",""trial"",""time""
""focus"",""36"",""480013""
""focus"",""36"",""488614""
""focus"",""36"",""500085""
""focus"",""36"",""507637""
""focus"",""58"",""610938""
","""event"",""trial"",""time""
""fullscreenenter"",""1"",""26196""
","
","","","202.70000004768372","","","22","10092","4710","&#9789;","elianto","#f73b6a7A"," "," ","1","-10","[1052.7000000476837]","1","0","4","","","","","","","",""
"pit-trial","100","871019","0.0-2.0-17.3-4.3","battery-v0.2","","""event"",""trial"",""time""
""fullscreenenter"",""1"",""26196""
""blur"",""36"",""452150""
""focus"",""36"",""480013""
""blur"",""36"",""481561""
""focus"",""36"",""488614""
""blur"",""36"",""491296""
""focus"",""36"",""500085""
""blur"",""36"",""502496""
""focus"",""36"",""507637""
""blur"",""40"",""523160""
""focus"",""58"",""610938""
","""event"",""trial"",""time""
""blur"",""36"",""452150""
""blur"",""36"",""481561""
""blur"",""36"",""491296""
""blur"",""36"",""502496""
""blur"",""40"",""523160""
","""event"",""trial"",""time""
""focus"",""36"",""480013""
""focus"",""36"",""488614""
""focus"",""36"",""500085""
""focus"",""36"",""507637""
""focus"",""58"",""610938""
","""event"",""trial"",""time""
""fullscreenenter"",""1"",""26196""
","
","","","35","","","22","10092","4710","&#9789;","elianto","#f73b6a7A"," "," ","1","0","[885.9000000953674]","1","0","4","","","","","","","",""
"call-function","101","871020","0.0-2.0-18.0","battery-v0.2","","""event"",""trial"",""time""
""fullscreenenter"",""1"",""26196""
""blur"",""36"",""452150""
""focus"",""36"",""480013""
""blur"",""36"",""481561""
""focus"",""36"",""488614""
""blur"",""36"",""491296""
""focus"",""36"",""500085""
""blur"",""36"",""502496""
""focus"",""36"",""507637""
""blur"",""40"",""523160""
""focus"",""58"",""610938""
","""event"",""trial"",""time""
""blur"",""36"",""452150""
""blur"",""36"",""481561""
""blur"",""36"",""491296""
""blur"",""36"",""502496""
""blur"",""40"",""523160""
","""event"",""trial"",""time""
""focus"",""36"",""480013""
""focus"",""36"",""488614""
""focus"",""36"",""500085""
""focus"",""36"",""507637""
""focus"",""58"",""610938""
","""event"",""trial"",""time""
""fullscreenenter"",""1"",""26196""
","
","","","","","","","","","","","","","","","","","","","","","","","","","","",""
"pit-instructions","102","935986","0.0-2.0-19.0","battery-v0.2","","""event"",""trial"",""time""
""fullscreenenter"",""1"",""26196""
""blur"",""36"",""452150""
""focus"",""36"",""480013""
""blur"",""36"",""481561""
""focus"",""36"",""488614""
""blur"",""36"",""491296""
""focus"",""36"",""500085""
""blur"",""36"",""502496""
""focus"",""36"",""507637""
""blur"",""40"",""523160""
""focus"",""58"",""610938""
","""event"",""trial"",""time""
""blur"",""36"",""452150""
""blur"",""36"",""481561""
""blur"",""36"",""491296""
""blur"",""36"",""502496""
""blur"",""40"",""523160""
","""event"",""trial"",""time""
""focus"",""36"",""480013""
""focus"",""36"",""488614""
""focus"",""36"",""500085""
""focus"",""36"",""507637""
""focus"",""58"",""610938""
","""event"",""trial"",""time""
""fullscreenenter"",""1"",""26196""
","
","","[{""page_index"":0,""viewing_time"":9493.700000047684},{""page_index"":1,""viewing_time"":8480},{""page_index"":2,""viewing_time"":9456},{""page_index"":3,""viewing_time"":5503.600000143051},{""page_index"":4,""viewing_time"":7048.399999856949},{""page_index"":5,""viewing_time"":9808.299999952316},{""page_index"":6,""viewing_time"":6279.600000143051},{""page_index"":7,""viewing_time"":5664},{""page_index"":8,""viewing_time"":3232}]","64965.90000009537","","","","","","","","","","","","","","","","","","","","","","","",""
"pit-comprehension","103","940323","0.0-2.0-20.0-0.0","battery-v0.2","","""event"",""trial"",""time""
""fullscreenenter"",""1"",""26196""
""blur"",""36"",""452150""
""focus"",""36"",""480013""
""blur"",""36"",""481561""
""focus"",""36"",""488614""
""blur"",""36"",""491296""
""focus"",""36"",""500085""
""blur"",""36"",""502496""
""focus"",""36"",""507637""
""blur"",""40"",""523160""
""focus"",""58"",""610938""
","""event"",""trial"",""time""
""blur"",""36"",""452150""
""blur"",""36"",""481561""
""blur"",""36"",""491296""
""blur"",""36"",""502496""
""blur"",""40"",""523160""
","""event"",""trial"",""time""
""focus"",""36"",""480013""
""focus"",""36"",""488614""
""focus"",""36"",""500085""
""focus"",""36"",""507637""
""focus"",""58"",""610938""
","""event"",""trial"",""time""
""fullscreenenter"",""1"",""26196""
","
","","","4334.599999904633","[""SPACE""]","0","22","10092","4710","","","","","","","","","","","","","","","","","","",""
"pit-instructions","104","943242","0.0-2.0-20.0-1.0","battery-v0.2","","""event"",""trial"",""time""
""fullscreenenter"",""1"",""26196""
""blur"",""36"",""452150""
""focus"",""36"",""480013""
""blur"",""36"",""481561""
""focus"",""36"",""488614""
""blur"",""36"",""491296""
""focus"",""36"",""500085""
""blur"",""36"",""502496""
""focus"",""36"",""507637""
""blur"",""40"",""523160""
""focus"",""58"",""610938""
","""event"",""trial"",""time""
""blur"",""36"",""452150""
""blur"",""36"",""481561""
""blur"",""36"",""491296""
""blur"",""36"",""502496""
""blur"",""40"",""523160""
","""event"",""trial"",""time""
""focus"",""36"",""480013""
""focus"",""36"",""488614""
""focus"",""36"",""500085""
""focus"",""36"",""507637""
""focus"",""58"",""610938""
","""event"",""trial"",""time""
""fullscreenenter"",""1"",""26196""
","
","","[{""page_index"":0,""viewing_time"":2875.600000143051}]","2875.9000000953674","","","","","","","","","","","","","","","","","","","","","","","",""
"pit-comprehension","105","947795","0.0-2.0-21.0-0.0","battery-v0.2","","""event"",""trial"",""time""
""fullscreenenter"",""1"",""26196""
""blur"",""36"",""452150""
""focus"",""36"",""480013""
""blur"",""36"",""481561""
""focus"",""36"",""488614""
""blur"",""36"",""491296""
""focus"",""36"",""500085""
""blur"",""36"",""502496""
""focus"",""36"",""507637""
""blur"",""40"",""523160""
""focus"",""58"",""610938""
","""event"",""trial"",""time""
""blur"",""36"",""452150""
""blur"",""36"",""481561""
""blur"",""36"",""491296""
""blur"",""36"",""502496""
""blur"",""40"",""523160""
","""event"",""trial"",""time""
""focus"",""36"",""480013""
""focus"",""36"",""488614""
""focus"",""36"",""500085""
""focus"",""36"",""507637""
""focus"",""58"",""610938""
","""event"",""trial"",""time""
""fullscreenenter"",""1"",""26196""
","
","","","4550.200000047684","[""10""]","0","22","10092","4710","","","","","","","","","","","","","","","","","","",""
"pit-instructions","106","952466","0.0-2.0-21.0-1.0","battery-v0.2","","""event"",""trial"",""time""
""fullscreenenter"",""1"",""26196""
""blur"",""36"",""452150""
""focus"",""36"",""480013""
""blur"",""36"",""481561""
""focus"",""36"",""488614""
""blur"",""36"",""491296""
""focus"",""36"",""500085""
""blur"",""36"",""502496""
""focus"",""36"",""507637""
""blur"",""40"",""523160""
""focus"",""58"",""610938""
","""event"",""trial"",""time""
""blur"",""36"",""452150""
""blur"",""36"",""481561""
""blur"",""36"",""491296""
""blur"",""36"",""502496""
""blur"",""40"",""523160""
","""event"",""trial"",""time""
""focus"",""36"",""480013""
""focus"",""36"",""488614""
""focus"",""36"",""500085""
""focus"",""36"",""507637""
""focus"",""58"",""610938""
","""event"",""trial"",""time""
""fullscreenenter"",""1"",""26196""
","
","","[{""page_index"":0,""viewing_time"":4641.799999952316}]","4642.100000143051","","","","","","","","","","","","","","","","","","","","","","","",""
"pit-comprehension","107","958786","0.0-2.0-22.0-0.0","battery-v0.2","","""event"",""trial"",""time""
""fullscreenenter"",""1"",""26196""
""blur"",""36"",""452150""
""focus"",""36"",""480013""
""blur"",""36"",""481561""
""focus"",""36"",""488614""
""blur"",""36"",""491296""
""focus"",""36"",""500085""
""blur"",""36"",""502496""
""focus"",""36"",""507637""
""blur"",""40"",""523160""
""focus"",""58"",""610938""
","""event"",""trial"",""time""
""blur"",""36"",""452150""
""blur"",""36"",""481561""
""blur"",""36"",""491296""
""blur"",""36"",""502496""
""blur"",""40"",""523160""
","""event"",""trial"",""time""
""focus"",""36"",""480013""
""focus"",""36"",""488614""
""focus"",""36"",""500085""
""focus"",""36"",""507637""
""focus"",""58"",""610938""
","""event"",""trial"",""time""
""fullscreenenter"",""1"",""26196""
","
","","","6318.299999952316","[""0""]","0","22","10092","4710","","","","","","","","","","","","","","","","","","",""
"pit-instructions","108","962138","0.0-2.0-22.0-1.0","battery-v0.2","","""event"",""trial"",""time""
""fullscreenenter"",""1"",""26196""
""blur"",""36"",""452150""
""focus"",""36"",""480013""
""blur"",""36"",""481561""
""focus"",""36"",""488614""
""blur"",""36"",""491296""
""focus"",""36"",""500085""
""blur"",""36"",""502496""
""focus"",""36"",""507637""
""blur"",""40"",""523160""
""focus"",""58"",""610938""
","""event"",""trial"",""time""
""blur"",""36"",""452150""
""blur"",""36"",""481561""
""blur"",""36"",""491296""
""blur"",""36"",""502496""
""blur"",""40"",""523160""
","""event"",""trial"",""time""
""focus"",""36"",""480013""
""focus"",""36"",""488614""
""focus"",""36"",""500085""
""focus"",""36"",""507637""
""focus"",""58"",""610938""
","""event"",""trial"",""time""
""fullscreenenter"",""1"",""26196""
","
","","[{""page_index"":0,""viewing_time"":3321.7000000476837}]","3321.9000000953674","","","","","","","","","","","","","","","","","","","","","","","",""
"pit-comprehension","109","971226","0.0-2.0-23.0-0.0","battery-v0.2","","""event"",""trial"",""time""
""fullscreenenter"",""1"",""26196""
""blur"",""36"",""452150""
""focus"",""36"",""480013""
""blur"",""36"",""481561""
""focus"",""36"",""488614""
""blur"",""36"",""491296""
""focus"",""36"",""500085""
""blur"",""36"",""502496""
""focus"",""36"",""507637""
""blur"",""40"",""523160""
""focus"",""58"",""610938""
","""event"",""trial"",""time""
""blur"",""36"",""452150""
""blur"",""36"",""481561""
""blur"",""36"",""491296""
""blur"",""36"",""502496""
""blur"",""40"",""523160""
","""event"",""trial"",""time""
""focus"",""36"",""480013""
""focus"",""36"",""488614""
""focus"",""36"",""500085""
""focus"",""36"",""507637""
""focus"",""58"",""610938""
","""event"",""trial"",""time""
""fullscreenenter"",""1"",""26196""
","
","","","9085.900000095367","[""True""]","0","22","10092","4710","","","","","","","","","","","","","","","","","","",""
"pit-instructions","110","973058","0.0-2.0-23.0-1.0","battery-v0.2","","""event"",""trial"",""time""
""fullscreenenter"",""1"",""26196""
""blur"",""36"",""452150""
""focus"",""36"",""480013""
""blur"",""36"",""481561""
""focus"",""36"",""488614""
""blur"",""36"",""491296""
""focus"",""36"",""500085""
""blur"",""36"",""502496""
""focus"",""36"",""507637""
""blur"",""40"",""523160""
""focus"",""58"",""610938""
","""event"",""trial"",""time""
""blur"",""36"",""452150""
""blur"",""36"",""481561""
""blur"",""36"",""491296""
""blur"",""36"",""502496""
""blur"",""40"",""523160""
","""event"",""trial"",""time""
""focus"",""36"",""480013""
""focus"",""36"",""488614""
""focus"",""36"",""500085""
""focus"",""36"",""507637""
""focus"",""58"",""610938""
","""event"",""trial"",""time""
""fullscreenenter"",""1"",""26196""
","
","","[{""page_index"":0,""viewing_time"":1803.0999999046326}]","1803.4000000953674","","","","","","","","","","","","","","","","","","","","","","","",""
"pit-comprehension","111","980394","0.0-2.0-24.0-0.0","battery-v0.2","","""event"",""trial"",""time""
""fullscreenenter"",""1"",""26196""
""blur"",""36"",""452150""
""focus"",""36"",""480013""
""blur"",""36"",""481561""
""focus"",""36"",""488614""
""blur"",""36"",""491296""
""focus"",""36"",""500085""
""blur"",""36"",""502496""
""focus"",""36"",""507637""
""blur"",""40"",""523160""
""focus"",""58"",""610938""
","""event"",""trial"",""time""
""blur"",""36"",""452150""
""blur"",""36"",""481561""
""blur"",""36"",""491296""
""blur"",""36"",""502496""
""blur"",""40"",""523160""
","""event"",""trial"",""time""
""focus"",""36"",""480013""
""focus"",""36"",""488614""
""focus"",""36"",""500085""
""focus"",""36"",""507637""
""focus"",""58"",""610938""
","""event"",""trial"",""time""
""fullscreenenter"",""1"",""26196""
","
","","","7334.200000047684","[""True""]","0","22","10092","4710","","","","","","","","","","","","","","","","","","",""
"pit-instructions","112","983762","0.0-2.0-24.0-1.0","battery-v0.2","","""event"",""trial"",""time""
""fullscreenenter"",""1"",""26196""
""blur"",""36"",""452150""
""focus"",""36"",""480013""
""blur"",""36"",""481561""
""focus"",""36"",""488614""
""blur"",""36"",""491296""
""focus"",""36"",""500085""
""blur"",""36"",""502496""
""focus"",""36"",""507637""
""blur"",""40"",""523160""
""focus"",""58"",""610938""
","""event"",""trial"",""time""
""blur"",""36"",""452150""
""blur"",""36"",""481561""
""blur"",""36"",""491296""
""blur"",""36"",""502496""
""blur"",""40"",""523160""
","""event"",""trial"",""time""
""focus"",""36"",""480013""
""focus"",""36"",""488614""
""focus"",""36"",""500085""
""focus"",""36"",""507637""
""focus"",""58"",""610938""
","""event"",""trial"",""time""
""fullscreenenter"",""1"",""26196""
","
","","[{""page_index"":0,""viewing_time"":3336.2000000476837}]","3336.4000000953674","","","","","","","","","","","","","","","","","","","","","","","",""
"pit-comprehension","113","990306","0.0-2.0-25.0-0.0","battery-v0.2","","""event"",""trial"",""time""
""fullscreenenter"",""1"",""26196""
""blur"",""36"",""452150""
""focus"",""36"",""480013""
""blur"",""36"",""481561""
""focus"",""36"",""488614""
""blur"",""36"",""491296""
""focus"",""36"",""500085""
""blur"",""36"",""502496""
""focus"",""36"",""507637""
""blur"",""40"",""523160""
""focus"",""58"",""610938""
","""event"",""trial"",""time""
""blur"",""36"",""452150""
""blur"",""36"",""481561""
""blur"",""36"",""491296""
""blur"",""36"",""502496""
""blur"",""40"",""523160""
","""event"",""trial"",""time""
""focus"",""36"",""480013""
""focus"",""36"",""488614""
""focus"",""36"",""500085""
""focus"",""36"",""507637""
""focus"",""58"",""610938""
","""event"",""trial"",""time""
""fullscreenenter"",""1"",""26196""
","
","","","6541.799999952316","[""True""]","0","22","10092","4710","","","","","","","","","","","","","","","","","","",""
"pit-instructions","114","993410","0.0-2.0-25.0-1.0","battery-v0.2","","""event"",""trial"",""time""
""fullscreenenter"",""1"",""26196""
""blur"",""36"",""452150""
""focus"",""36"",""480013""
""blur"",""36"",""481561""
""focus"",""36"",""488614""
""blur"",""36"",""491296""
""focus"",""36"",""500085""
""blur"",""36"",""502496""
""focus"",""36"",""507637""
""blur"",""40"",""523160""
""focus"",""58"",""610938""
","""event"",""trial"",""time""
""blur"",""36"",""452150""
""blur"",""36"",""481561""
""blur"",""36"",""491296""
""blur"",""36"",""502496""
""blur"",""40"",""523160""
","""event"",""trial"",""time""
""focus"",""36"",""480013""
""focus"",""36"",""488614""
""focus"",""36"",""500085""
""focus"",""36"",""507637""
""focus"",""58"",""610938""
","""event"",""trial"",""time""
""fullscreenenter"",""1"",""26196""
","
","","[{""page_index"":0,""viewing_time"":3075.2999999523163}]","3075.5999999046326","","","","","","","","","","","","","","","","","","","","","","","",""
"pit-comprehension","115","998530","0.0-2.0-26.0-0.0","battery-v0.2","","""event"",""trial"",""time""
""fullscreenenter"",""1"",""26196""
""blur"",""36"",""452150""
""focus"",""36"",""480013""
""blur"",""36"",""481561""
""focus"",""36"",""488614""
""blur"",""36"",""491296""
""focus"",""36"",""500085""
""blur"",""36"",""502496""
""focus"",""36"",""507637""
""blur"",""40"",""523160""
""focus"",""58"",""610938""
","""event"",""trial"",""time""
""blur"",""36"",""452150""
""blur"",""36"",""481561""
""blur"",""36"",""491296""
""blur"",""36"",""502496""
""blur"",""40"",""523160""
","""event"",""trial"",""time""
""focus"",""36"",""480013""
""focus"",""36"",""488614""
""focus"",""36"",""500085""
""focus"",""36"",""507637""
""focus"",""58"",""610938""
","""event"",""trial"",""time""
""fullscreenenter"",""1"",""26196""
","
","","","5118.299999952316","[""False""]","0","22","10092","4710","","","","","","","","","","","","","","","","","","",""
"pit-instructions","116","1002313","0.0-2.0-26.0-1.0","battery-v0.2","","""event"",""trial"",""time""
""fullscreenenter"",""1"",""26196""
""blur"",""36"",""452150""
""focus"",""36"",""480013""
""blur"",""36"",""481561""
""focus"",""36"",""488614""
""blur"",""36"",""491296""
""focus"",""36"",""500085""
""blur"",""36"",""502496""
""focus"",""36"",""507637""
""blur"",""40"",""523160""
""focus"",""58"",""610938""
","""event"",""trial"",""time""
""blur"",""36"",""452150""
""blur"",""36"",""481561""
""blur"",""36"",""491296""
""blur"",""36"",""502496""
""blur"",""40"",""523160""
","""event"",""trial"",""time""
""focus"",""36"",""480013""
""focus"",""36"",""488614""
""focus"",""36"",""500085""
""focus"",""36"",""507637""
""focus"",""58"",""610938""
","""event"",""trial"",""time""
""fullscreenenter"",""1"",""26196""
","
","","[{""page_index"":0,""viewing_time"":3753.0999999046326}]","3753.2999999523163","","","","","","","","","","","","","","","","","","","","","","","",""
"pit-instructions","117","1021170","0.0-3.0","battery-v0.2","","""event"",""trial"",""time""
""fullscreenenter"",""1"",""26196""
""blur"",""36"",""452150""
""focus"",""36"",""480013""
""blur"",""36"",""481561""
""focus"",""36"",""488614""
""blur"",""36"",""491296""
""focus"",""36"",""500085""
""blur"",""36"",""502496""
""focus"",""36"",""507637""
""blur"",""40"",""523160""
""focus"",""58"",""610938""
","""event"",""trial"",""time""
""blur"",""36"",""452150""
""blur"",""36"",""481561""
""blur"",""36"",""491296""
""blur"",""36"",""502496""
""blur"",""40"",""523160""
","""event"",""trial"",""time""
""focus"",""36"",""480013""
""focus"",""36"",""488614""
""focus"",""36"",""500085""
""focus"",""36"",""507637""
""focus"",""58"",""610938""
","""event"",""trial"",""time""
""fullscreenenter"",""1"",""26196""
","
","","[{""page_index"":0,""viewing_time"":5479.099999904633},{""page_index"":1,""viewing_time"":5479.300000190735},{""page_index"":2,""viewing_time"":7896.199999809265}]","18854.900000095367","","","","","","","","","","","","","","","","","","","","","","","",""
"pit-trial","118","1024411","0.0-4.0","battery-v0.2","","""event"",""trial"",""time""
""fullscreenenter"",""1"",""26196""
""blur"",""36"",""452150""
""focus"",""36"",""480013""
""blur"",""36"",""481561""
""focus"",""36"",""488614""
""blur"",""36"",""491296""
""focus"",""36"",""500085""
""blur"",""36"",""502496""
""focus"",""36"",""507637""
""blur"",""40"",""523160""
""focus"",""58"",""610938""
","""event"",""trial"",""time""
""blur"",""36"",""452150""
""blur"",""36"",""481561""
""blur"",""36"",""491296""
""blur"",""36"",""502496""
""blur"",""40"",""523160""
","""event"",""trial"",""time""
""focus"",""36"",""480013""
""focus"",""36"",""488614""
""focus"",""36"",""500085""
""focus"",""36"",""507637""
""focus"",""58"",""610938""
","""event"",""trial"",""time""
""fullscreenenter"",""1"",""26196""
","
","","","379.59999990463257","","","22","10092","4710","&#9733;","elianto","#3366ff99","-1"," ","0","+10","[1237]","1","1","","","10092","1","2","2","win","no-go","1"
"pit-trial","119","1027836","0.0-5.0","battery-v0.2","","""event"",""trial"",""time""
""fullscreenenter"",""1"",""26196""
""blur"",""36"",""452150""
""focus"",""36"",""480013""
""blur"",""36"",""481561""
""focus"",""36"",""488614""
""blur"",""36"",""491296""
""focus"",""36"",""500085""
""blur"",""36"",""502496""
""focus"",""36"",""507637""
""blur"",""40"",""523160""
""focus"",""58"",""610938""
","""event"",""trial"",""time""
""blur"",""36"",""452150""
""blur"",""36"",""481561""
""blur"",""36"",""491296""
""blur"",""36"",""502496""
""blur"",""40"",""523160""
","""event"",""trial"",""time""
""focus"",""36"",""480013""
""focus"",""36"",""488614""
""focus"",""36"",""500085""
""focus"",""36"",""507637""
""focus"",""58"",""610938""
","""event"",""trial"",""time""
""fullscreenenter"",""1"",""26196""
","
","","","565.1000001430511","","","22","10092","4710","&#9730;","elianto","#3366ff99"," "," ","1","+10","[1420.7999999523163]","1","1","","","10092","2","1","1","win","go","0"
"pit-trial","120","1032714","0.0-6.0","battery-v0.2","","""event"",""trial"",""time""
""fullscreenenter"",""1"",""26196""
""blur"",""36"",""452150""
""focus"",""36"",""480013""
""blur"",""36"",""481561""
""focus"",""36"",""488614""
""blur"",""36"",""491296""
""focus"",""36"",""500085""
""blur"",""36"",""502496""
""focus"",""36"",""507637""
""blur"",""40"",""523160""
""focus"",""58"",""610938""
","""event"",""trial"",""time""
""blur"",""36"",""452150""
""blur"",""36"",""481561""
""blur"",""36"",""491296""
""blur"",""36"",""502496""
""blur"",""40"",""523160""
","""event"",""trial"",""time""
""focus"",""36"",""480013""
""focus"",""36"",""488614""
""focus"",""36"",""500085""
""focus"",""36"",""507637""
""focus"",""58"",""610938""
","""event"",""trial"",""time""
""fullscreenenter"",""1"",""26196""
","
