"trial_type","trial_index","time_elapsed","internal_node_id","task_version","subject_id","interactions","blur_events","focus_events","fullscreenenter_events","fullscreenexit_events","success","view_history","rt","responses","num_errors","age","subject","participantId","rune","rune_set","hex","correct","choice","accuracy","outcome","keys","total_keys","block","practice","value","sub","trial","stimulus","robot","valence","action","sham"
"pavlovia","0","47","0.0-0.0","battery-v0.2","","""event"",""trial"",""time""
""fullscreenenter"",""1"",""7138""
","
","
","""event"",""trial"",""time""
""fullscreenenter"",""1"",""7138""
","
","","","","","","","","","","","","","","","","","","","","","","","","","","",""
"fullscreen","1","8127","0.0-1.0","battery-v0.2","","""event"",""trial"",""time""
""fullscreenenter"",""1"",""7138""
","
","
","""event"",""trial"",""time""
""fullscreenenter"",""1"",""7138""
","
","true","","","","","","","","","","","","","","","","","","","","","","","","","",""
"pit-instructions","2","12081","0.0-2.0-0.0","battery-v0.2","","""event"",""trial"",""time""
""fullscreenenter"",""1"",""7138""
","
","
","""event"",""trial"",""time""
""fullscreenenter"",""1"",""7138""
","
","","[{""page_index"":0,""viewing_time"":3950.300000011921}]","3950.7000000029802","","","","","","","","","","","","","","","","","","","","","","","",""
"pit-comprehension","3","16223","0.0-2.0-1.0-0.0","battery-v0.2","","""event"",""trial"",""time""
""fullscreenenter"",""1"",""7138""
","
","
","""event"",""trial"",""time""
""fullscreenenter"",""1"",""7138""
","
","","","4139.20000000298","[""shark""]","0","24","14923","6069","","","","","","","","","","","","","","","","","","",""
"pit-instructions","4","17305","0.0-2.0-1.0-1.0","battery-v0.2","","""event"",""trial"",""time""
""fullscreenenter"",""1"",""7138""
","
","
","""event"",""trial"",""time""
""fullscreenenter"",""1"",""7138""
","
","","[{""page_index"":0,""viewing_time"":1066.9000000059605}]","1067.1000000089407","","","","","","","","","","","","","","","","","","","","","","","",""
"pit-comprehension","5","19585","0.0-2.0-2.0-0.0","battery-v0.2","","""event"",""trial"",""time""
""fullscreenenter"",""1"",""7138""
","
","
","""event"",""trial"",""time""
""fullscreenenter"",""1"",""7138""
","
","","","2277.0999999940395","[""tiger""]","0","24","14923","6069","","","","","","","","","","","","","","","","","","",""
"pit-instructions","6","20273","0.0-2.0-2.0-1.0","battery-v0.2","","""event"",""trial"",""time""
""fullscreenenter"",""1"",""7138""
","
","
","""event"",""trial"",""time""
""fullscreenenter"",""1"",""7138""
","
","","[{""page_index"":0,""viewing_time"":685}]","685.2000000029802","","","","","","","","","","","","","","","","","","","","","","","",""
"pit-instructions","7","130911","0.0-2.0-3.0","battery-v0.2","","""event"",""trial"",""time""
""fullscreenenter"",""1"",""7138""
","
","
","""event"",""trial"",""time""
""fullscreenenter"",""1"",""7138""
","
","","[{""page_index"":0,""viewing_time"":9369.300000011921},{""page_index"":1,""viewing_time"":6944.399999991059},{""page_index"":2,""viewing_time"":10843.10000000894},{""page_index"":3,""viewing_time"":5731.399999991059},{""page_index"":4,""viewing_time"":5109.70000000298},{""page_index"":5,""viewing_time"":6686.4000000059605},{""page_index"":6,""viewing_time"":9831.59999999404},{""page_index"":7,""viewing_time"":6635},{""page_index"":8,""viewing_time"":9214.20000000298},{""page_index"":9,""viewing_time"":12847.5},{""page_index"":10,""viewing_time"":7060.5999999940395},{""page_index"":11,""viewing_time"":9011.10000000894},{""page_index"":12,""viewing_time"":6278.0999999940395},{""page_index"":13,""viewing_time"":5071}]","110634","","","","","","","","","","","","","","","","","","","","","","","",""
"pit-trial","8","134333","0.0-2.0-4.0-0.0","battery-v0.2","","""event"",""trial"",""time""
""fullscreenenter"",""1"",""7138""
","
","
","""event"",""trial"",""time""
""fullscreenenter"",""1"",""7138""
","
","","","560.3999999910593","","","24","14923","6069","&#9784;","elianto","#FFFFF080"," "," ","1","&#10004","[1411.9000000059605]","1","0","0","","","","","","","",""
"pit-trial","9","137781","0.0-2.0-4.1-0.1","battery-v0.2","","""event"",""trial"",""time""
""fullscreenenter"",""1"",""7138""
","
","
","""event"",""trial"",""time""
""fullscreenenter"",""1"",""7138""
","
","","","585.7000000029802","","","24","14923","6069","&#9784;","elianto","#FFFFF080"," "," ","1","&#10004","[1439.8999999910593]","1","0","0","","","","","","","",""
"pit-trial","10","141159","0.0-2.0-4.2-0.2","battery-v0.2","","""event"",""trial"",""time""
""fullscreenenter"",""1"",""7138""
","
","
","""event"",""trial"",""time""
""fullscreenenter"",""1"",""7138""
","
","","","515.2000000029802","","","24","14923","6069","&#9784;","elianto","#FFFFF080"," "," ","1","&#10004","[1369.2000000029802]","1","0","0","","","","","","","",""
"pit-trial","11","144879","0.0-2.0-4.3-0.3","battery-v0.2","","""event"",""trial"",""time""
""fullscreenenter"",""1"",""7138""
","
","
","""event"",""trial"",""time""
""fullscreenenter"",""1"",""7138""
","
","","","856.9000000059605","","","24","14923","6069","&#9784;","elianto","#FFFFF080"," "," ","1","&#10004","[1709.1000000089407]","1","0","0","","","","","","","",""
"pit-trial","12","148230","0.0-2.0-4.4-0.4","battery-v0.2","","""event"",""trial"",""time""
""fullscreenenter"",""1"",""7138""
","
","
","""event"",""trial"",""time""
""fullscreenenter"",""1"",""7138""
","
","","","489","","","24","14923","6069","&#9784;","elianto","#FFFFF080"," "," ","1","&#10004","[1340.7000000029802]","1","0","0","","","","","","","",""
"pit-instructions","13","169066","0.0-2.0-5.0","battery-v0.2","","""event"",""trial"",""time""
""fullscreenenter"",""1"",""7138""
","
","
","""event"",""trial"",""time""
""fullscreenenter"",""1"",""7138""
","
","","[{""page_index"":0,""viewing_time"":5374.0999999940395},{""page_index"":1,""viewing_time"":5538.600000008941},{""page_index"":2,""viewing_time"":4866.0999999940395},{""page_index"":3,""viewing_time"":5054.4000000059605}]","20833.40000000596","","","","","","","","","","","","","","","","","","","","","","","",""
"pit-trial","14","173935","0.0-2.0-6.0-0.0","battery-v0.2","","""event"",""trial"",""time""
""fullscreenenter"",""1"",""7138""
","
","
","""event"",""trial"",""time""
""fullscreenenter"",""1"",""7138""
","
","","","-1","","","24","14923","6069","&#9854;","elianto","#FFFFF080","-1","-1","1","&#10004","[]","0","0","1","","","","","","","",""
"pit-trial","15","178800","0.0-2.0-6.1-0.1","battery-v0.2","","""event"",""trial"",""time""
""fullscreenenter"",""1"",""7138""
","
","
","""event"",""trial"",""time""
""fullscreenenter"",""1"",""7138""
","
","","","-1","","","24","14923","6069","&#9854;","elianto","#FFFFF080","-1","-1","1","&#10004","[]","0","0","1","","","","","","","",""
"pit-trial","16","183664","0.0-2.0-6.2-0.2","battery-v0.2","","""event"",""trial"",""time""
""fullscreenenter"",""1"",""7138""
","
","
","""event"",""trial"",""time""
""fullscreenenter"",""1"",""7138""
","
","","","-1","","","24","14923","6069","&#9854;","elianto","#FFFFF080","-1","-1","1","&#10004","[]","0","0","1","","","","","","","",""
"pit-trial","17","188525","0.0-2.0-6.3-0.3","battery-v0.2","","""event"",""trial"",""time""
""fullscreenenter"",""1"",""7138""
","
","
","""event"",""trial"",""time""
""fullscreenenter"",""1"",""7138""
","
","","","-1","","","24","14923","6069","&#9854;","elianto","#FFFFF080","-1","-1","1","&#10004","[]","0","0","1","","","","","","","",""
"pit-trial","18","193397","0.0-2.0-6.4-0.4","battery-v0.2","","""event"",""trial"",""time""
""fullscreenenter"",""1"",""7138""
","
","
","""event"",""trial"",""time""
""fullscreenenter"",""1"",""7138""
","
","","","-1","","","24","14923","6069","&#9854;","elianto","#FFFFF080","-1","-1","1","&#10004","[]","0","0","1","","","","","","","",""
"pit-instructions","19","313504","0.0-2.0-7.0","battery-v0.2","","""event"",""trial"",""time""
""fullscreenenter"",""1"",""7138""
","
","
","""event"",""trial"",""time""
""fullscreenenter"",""1"",""7138""
","
","","[{""page_index"":0,""viewing_time"":5926.29999999702},{""page_index"":1,""viewing_time"":7071.899999991059},{""page_index"":2,""viewing_time"":5719.300000011921},{""page_index"":3,""viewing_time"":5735.0999999940395},{""page_index"":4,""viewing_time"":5338.29999999702},{""page_index"":5,""viewing_time"":5315.20000000298},{""page_index"":6,""viewing_time"":4472.20000000298},{""page_index"":7,""viewing_time"":9193.59999999404},{""page_index"":8,""viewing_time"":7608.20000000298},{""page_index"":9,""viewing_time"":7664.79999999702},{""page_index"":10,""viewing_time"":6824.79999999702},{""page_index"":11,""viewing_time"":6131.20000000298},{""page_index"":12,""viewing_time"":7504.9000000059605},{""page_index"":13,""viewing_time"":6462.399999991059},{""page_index"":14,""viewing_time"":9143.90000000596},{""page_index"":15,""viewing_time"":6400.79999999702},{""page_index"":16,""viewing_time"":6312.9000000059605},{""page_index"":17,""viewing_time"":7275.70000000298}]","120101.59999999404","","","","","","","","","","","","","","","","","","","","","","","",""
"pit-trial","20","317639","0.0-2.0-8.0-0.0","battery-v0.2","","""event"",""trial"",""time""
""fullscreenenter"",""1"",""7138""
","
","
","""event"",""trial"",""time""
""fullscreenenter"",""1"",""7138""
","
","","","1275.2000000029802","","","24","14923","6069","&#9776;","elianto","#3366ff99"," "," ","1","+10","[2125.6000000089407]","1","0","1","","","","","","","",""
"pit-trial","21","320960","0.0-2.0-8.0-1.0","battery-v0.2","","""event"",""trial"",""time""
""fullscreenenter"",""1"",""7138""
","
","
","""event"",""trial"",""time""
""fullscreenenter"",""1"",""7138""
","
","","","456.09999999403954","","","24","14923","6069","&#9776;","elianto","#3366ff99"," "," ","1","+10","[1310.3999999910593]","1","0","1","","","","","","","",""
"pit-trial","22","324263","0.0-2.0-8.0-2.0","battery-v0.2","","""event"",""trial"",""time""
""fullscreenenter"",""1"",""7138""
","
","
","""event"",""trial"",""time""
""fullscreenenter"",""1"",""7138""
","
","","","447.70000000298023","","","24","14923","6069","&#9776;","elianto","#3366ff99"," "," ","1","+10","[1300.300000011921]","1","0","1","","","","","","","",""
"pit-trial","23","327688","0.0-2.0-8.0-3.0","battery-v0.2","","""event"",""trial"",""time""
""fullscreenenter"",""1"",""7138""
","
","
","""event"",""trial"",""time""
""fullscreenenter"",""1"",""7138""
","
","","","560.5","","","24","14923","6069","&#9776;","elianto","#3366ff99"," "," ","1","0","[1415.2999999970198]","1","0","1","","","","","","","",""
"pit-trial","24","330945","0.0-2.0-8.0-4.0","battery-v0.2","","""event"",""trial"",""time""
""fullscreenenter"",""1"",""7138""
","
","
","""event"",""trial"",""time""
""fullscreenenter"",""1"",""7138""
","
","","","395.40000000596046","","","24","14923","6069","&#9776;","elianto","#3366ff99"," "," ","1","+10","[1249.5]","1","0","1","","","","","","","",""
"pit-trial","25","334178","0.0-2.0-8.1-0.1","battery-v0.2","","""event"",""trial"",""time""
""fullscreenenter"",""1"",""7138""
","
","
","""event"",""trial"",""time""
""fullscreenenter"",""1"",""7138""
","
","","","372.5","","","24","14923","6069","&#9776;","elianto","#3366ff99"," "," ","1","+10","[1224.9000000059605]","1","0","1","","","","","","","",""
"pit-trial","26","337528","0.0-2.0-8.1-1.1","battery-v0.2","","""event"",""trial"",""time""
""fullscreenenter"",""1"",""7138""
","
","
","""event"",""trial"",""time""
""fullscreenenter"",""1"",""7138""
","
","","","492.3999999910593","","","24","14923","6069","&#9776;","elianto","#3366ff99"," "," ","1","+10","[1344.5]","1","0","1","","","","","","","",""
"pit-trial","27","341020","0.0-2.0-8.1-2.1","battery-v0.2","","""event"",""trial"",""time""
""fullscreenenter"",""1"",""7138""
","
","
","""event"",""trial"",""time""
""fullscreenenter"",""1"",""7138""
","
","","","623.0999999940395","","","24","14923","6069","&#9776;","elianto","#3366ff99"," "," ","1","+10","[1477.8999999910593]","1","0","1","","","","","","","",""
"pit-trial","28","344305","0.0-2.0-8.1-3.1","battery-v0.2","","""event"",""trial"",""time""
""fullscreenenter"",""1"",""7138""
","
","
","""event"",""trial"",""time""
""fullscreenenter"",""1"",""7138""
","
","","","425.3999999910593","","","24","14923","6069","&#9776;","elianto","#3366ff99"," "," ","1","0","[1277.699999988079]","1","0","1","","","","","","","",""
"pit-trial","29","347615","0.0-2.0-8.1-4.1","battery-v0.2","","""event"",""trial"",""time""
""fullscreenenter"",""1"",""7138""
","
","
","""event"",""trial"",""time""
""fullscreenenter"",""1"",""7138""
","
","","","453.29999999701977","","","24","14923","6069","&#9776;","elianto","#3366ff99"," "," ","1","+10","[1306.0999999940395]","1","0","1","","","","","","","",""
"pit-trial","30","350857","0.0-2.0-8.2-0.2","battery-v0.2","","""event"",""trial"",""time""
""fullscreenenter"",""1"",""7138""
","
","
","""event"",""trial"",""time""
""fullscreenenter"",""1"",""7138""
","
","","","372.79999999701977","","","24","14923","6069","&#9776;","elianto","#3366ff99"," "," ","1","+10","[1225.2999999970198]","1","0","1","","","","","","","",""
"pit-trial","31","354096","0.0-2.0-8.2-1.2","battery-v0.2","","""event"",""trial"",""time""
""fullscreenenter"",""1"",""7138""
","
","
","""event"",""trial"",""time""
""fullscreenenter"",""1"",""7138""
","
","","","376.70000000298023","","","24","14923","6069","&#9776;","elianto","#3366ff99"," "," ","1","+10","[1229.2999999970198]","1","0","1","","","","","","","",""
"pit-trial","32","357323","0.0-2.0-8.2-2.2","battery-v0.2","","""event"",""trial"",""time""
""fullscreenenter"",""1"",""7138""
","
","
","""event"",""trial"",""time""
""fullscreenenter"",""1"",""7138""
","
","","","362.20000000298023","","","24","14923","6069","&#9776;","elianto","#3366ff99"," "," ","1","+10","[1215.2000000029802]","1","0","1","","","","","","","",""
"pit-trial","33","360599","0.0-2.0-8.2-3.2","battery-v0.2","","""event"",""trial"",""time""
""fullscreenenter"",""1"",""7138""
","
","
","""event"",""trial"",""time""
""fullscreenenter"",""1"",""7138""
","
","","","420.70000000298023","","","24","14923","6069","&#9776;","elianto","#3366ff99"," "," ","1","0","[1273.7999999970198]","1","0","1","","","","","","","",""
"pit-trial","34","363884","0.0-2.0-8.2-4.2","battery-v0.2","","""event"",""trial"",""time""
""fullscreenenter"",""1"",""7138""
","
","
","""event"",""trial"",""time""
""fullscreenenter"",""1"",""7138""
","
","","","418.70000000298023","","","24","14923","6069","&#9776;","elianto","#3366ff99"," "," ","1","+10","[1274]","1","0","1","","","","","","","",""
"call-function","35","363885","0.0-2.0-9.0","battery-v0.2","","""event"",""trial"",""time""
""fullscreenenter"",""1"",""7138""
","
","
","""event"",""trial"",""time""
""fullscreenenter"",""1"",""7138""
","
","","","","","","","","","","","","","","","","","","","","","","","","","","",""
"pit-instructions","36","430105","0.0-2.0-10.0","battery-v0.2","","""event"",""trial"",""time""
""fullscreenenter"",""1"",""7138""
","
","
","""event"",""trial"",""time""
""fullscreenenter"",""1"",""7138""
","
","","[{""page_index"":0,""viewing_time"":18007.59999999404},{""page_index"":1,""viewing_time"":7707.29999999702},{""page_index"":2,""viewing_time"":21623.60000000894},{""page_index"":3,""viewing_time"":10892.59999999404},{""page_index"":4,""viewing_time"":7987.4000000059605}]","66218.79999999702","","","","","","","","","","","","","","","","","","","","","","","",""
"pit-trial","37","434968","0.0-2.0-11.0-0.0","battery-v0.2","","""event"",""trial"",""time""
""fullscreenenter"",""1"",""7138""
","
","
","""event"",""trial"",""time""
""fullscreenenter"",""1"",""7138""
","
","","","-1","","","24","14923","6069","&#9761;","elianto","#3366ff99","-1","-1","1","+10","[]","0","0","2","","","","","","","",""
"pit-trial","38","439836","0.0-2.0-11.0-1.0","battery-v0.2","","""event"",""trial"",""time""
""fullscreenenter"",""1"",""7138""
","
","
","""event"",""trial"",""time""
""fullscreenenter"",""1"",""7138""
","
","","","-1","","","24","14923","6069","&#9761;","elianto","#3366ff99","-1","-1","1","+10","[]","0","0","2","","","","","","","",""
"pit-trial","39","444704","0.0-2.0-11.0-2.0","battery-v0.2","","""event"",""trial"",""time""
""fullscreenenter"",""1"",""7138""
","
","
","""event"",""trial"",""time""
""fullscreenenter"",""1"",""7138""
","
","","","-1","","","24","14923","6069","&#9761;","elianto","#3366ff99","-1","-1","1","+10","[]","0","0","2","","","","","","","",""
"pit-trial","40","449572","0.0-2.0-11.0-3.0","battery-v0.2","","""event"",""trial"",""time""
""fullscreenenter"",""1"",""7138""
","
","
","""event"",""trial"",""time""
""fullscreenenter"",""1"",""7138""
","
","","","-1","","","24","14923","6069","&#9761;","elianto","#3366ff99","-1","-1","1","0","[]","0","0","2","","","","","","","",""
"pit-trial","41","454437","0.0-2.0-11.0-4.0","battery-v0.2","","""event"",""trial"",""time""
""fullscreenenter"",""1"",""7138""
","
","
","""event"",""trial"",""time""
""fullscreenenter"",""1"",""7138""
","
","","","-1","","","24","14923","6069","&#9761;","elianto","#3366ff99","-1","-1","1","+10","[]","0","0","2","","","","","","","",""
"pit-trial","42","459308","0.0-2.0-11.1-0.1","battery-v0.2","","""event"",""trial"",""time""
""fullscreenenter"",""1"",""7138""
","
","
","""event"",""trial"",""time""
""fullscreenenter"",""1"",""7138""
","
","","","-1","","","24","14923","6069","&#9761;","elianto","#3366ff99","-1","-1","1","+10","[]","0","0","2","","","","","","","",""
"pit-trial","43","464172","0.0-2.0-11.1-1.1","battery-v0.2","","""event"",""trial"",""time""
""fullscreenenter"",""1"",""7138""
","
","
","""event"",""trial"",""time""
""fullscreenenter"",""1"",""7138""
","
","","","-1","","","24","14923","6069","&#9761;","elianto","#3366ff99","-1","-1","1","+10","[]","0","0","2","","","","","","","",""
"pit-trial","44","469037","0.0-2.0-11.1-2.1","battery-v0.2","","""event"",""trial"",""time""
""fullscreenenter"",""1"",""7138""
","
","
","""event"",""trial"",""time""
""fullscreenenter"",""1"",""7138""
","
","","","-1","","","24","14923","6069","&#9761;","elianto","#3366ff99","-1","-1","1","+10","[]","0","0","2","","","","","","","",""
"pit-trial","45","473909","0.0-2.0-11.1-3.1","battery-v0.2","","""event"",""trial"",""time""
""fullscreenenter"",""1"",""7138""
","
","
","""event"",""trial"",""time""
""fullscreenenter"",""1"",""7138""
","
","","","-1","","","24","14923","6069","&#9761;","elianto","#3366ff99","-1","-1","1","0","[]","0","0","2","","","","","","","",""
"pit-trial","46","478779","0.0-2.0-11.1-4.1","battery-v0.2","","""event"",""trial"",""time""
""fullscreenenter"",""1"",""7138""
","
","
","""event"",""trial"",""time""
""fullscreenenter"",""1"",""7138""
","
","","","-1","","","24","14923","6069","&#9761;","elianto","#3366ff99","-1","-1","1","+10","[]","0","0","2","","","","","","","",""
"pit-trial","47","483644","0.0-2.0-11.2-0.2","battery-v0.2","","""event"",""trial"",""time""
""fullscreenenter"",""1"",""7138""
","
","
","""event"",""trial"",""time""
""fullscreenenter"",""1"",""7138""
","
","","","-1","","","24","14923","6069","&#9761;","elianto","#3366ff99","-1","-1","1","+10","[]","0","0","2","","","","","","","",""
"pit-trial","48","488509","0.0-2.0-11.2-1.2","battery-v0.2","","""event"",""trial"",""time""
""fullscreenenter"",""1"",""7138""
","
","
","""event"",""trial"",""time""
""fullscreenenter"",""1"",""7138""
","
","","","-1","","","24","14923","6069","&#9761;","elianto","#3366ff99","-1","-1","1","+10","[]","0","0","2","","","","","","","",""
"pit-trial","49","493378","0.0-2.0-11.2-2.2","battery-v0.2","","""event"",""trial"",""time""
""fullscreenenter"",""1"",""7138""
","
","
","""event"",""trial"",""time""
""fullscreenenter"",""1"",""7138""
","
","","","-1","","","24","14923","6069","&#9761;","elianto","#3366ff99","-1","-1","1","+10","[]","0","0","2","","","","","","","",""
"pit-trial","50","498243","0.0-2.0-11.2-3.2","battery-v0.2","","""event"",""trial"",""time""
""fullscreenenter"",""1"",""7138""
","
","
","""event"",""trial"",""time""
""fullscreenenter"",""1"",""7138""
","
","","","-1","","","24","14923","6069","&#9761;","elianto","#3366ff99","-1","-1","1","0","[]","0","0","2","","","","","","","",""
"pit-trial","51","503109","0.0-2.0-11.2-4.2","battery-v0.2","","""event"",""trial"",""time""
""fullscreenenter"",""1"",""7138""
","
","
","""event"",""trial"",""time""
""fullscreenenter"",""1"",""7138""
","
","","","-1","","","24","14923","6069","&#9761;","elianto","#3366ff99","-1","-1","1","+10","[]","0","0","2","","","","","","","",""
"pit-trial","52","507973","0.0-2.0-11.3-0.3","battery-v0.2","","""event"",""trial"",""time""
""fullscreenenter"",""1"",""7138""
","
","
","""event"",""trial"",""time""
""fullscreenenter"",""1"",""7138""
","
","","","-1","","","24","14923","6069","&#9761;","elianto","#3366ff99","-1","-1","1","+10","[]","0","0","2","","","","","","","",""
"pit-trial","53","512843","0.0-2.0-11.3-1.3","battery-v0.2","","""event"",""trial"",""time""
""fullscreenenter"",""1"",""7138""
","
","
","""event"",""trial"",""time""
""fullscreenenter"",""1"",""7138""
","
","","","-1","","","24","14923","6069","&#9761;","elianto","#3366ff99","-1","-1","1","+10","[]","0","0","2","","","","","","","",""
"pit-trial","54","517708","0.0-2.0-11.3-2.3","battery-v0.2","","""event"",""trial"",""time""
""fullscreenenter"",""1"",""7138""
","
","
","""event"",""trial"",""time""
""fullscreenenter"",""1"",""7138""
","
","","","-1","","","24","14923","6069","&#9761;","elianto","#3366ff99","-1","-1","1","+10","[]","0","0","2","","","","","","","",""
"pit-trial","55","522572","0.0-2.0-11.3-3.3","battery-v0.2","","""event"",""trial"",""time""
""fullscreenenter"",""1"",""7138""
","
","
","""event"",""trial"",""time""
""fullscreenenter"",""1"",""7138""
","
","","","-1","","","24","14923","6069","&#9761;","elianto","#3366ff99","-1","-1","1","0","[]","0","0","2","","","","","","","",""
"pit-trial","56","527437","0.0-2.0-11.3-4.3","battery-v0.2","","""event"",""trial"",""time""
""fullscreenenter"",""1"",""7138""
","
","
","""event"",""trial"",""time""
""fullscreenenter"",""1"",""7138""
","
","","","-1","","","24","14923","6069","&#9761;","elianto","#3366ff99","-1","-1","1","+10","[]","0","0","2","","","","","","","",""
"call-function","57","527439","0.0-2.0-12.0","battery-v0.2","","""event"",""trial"",""time""
""fullscreenenter"",""1"",""7138""
","
","
","""event"",""trial"",""time""
""fullscreenenter"",""1"",""7138""
","
","","","","","","","","","","","","","","","","","","","","","","","","","","",""
"pit-instructions","58","562931","0.0-2.0-13.0","battery-v0.2","","""event"",""trial"",""time""
""fullscreenenter"",""1"",""7138""
","
","
","""event"",""trial"",""time""
""fullscreenenter"",""1"",""7138""
","
","","[{""page_index"":0,""viewing_time"":7178.79999999702},{""page_index"":1,""viewing_time"":9315.59999999404},{""page_index"":2,""viewing_time"":3208.9000000059605},{""page_index"":3,""viewing_time"":10647.89999999106},{""page_index"":4,""viewing_time"":5140.4000000059605}]","35491.79999999702","","","","","","","","","","","","","","","","","","","","","","","",""
"pit-trial","59","566286","0.0-2.0-14.0-0.0","battery-v0.2","","""event"",""trial"",""time""
""fullscreenenter"",""1"",""7138""
","
","
","""event"",""trial"",""time""
""fullscreenenter"",""1"",""7138""
","
","","","487.8999999910593","","","24","14923","6069","&#9826;","elianto","#f73b6a7A","-1"," ","0","-10","[1342.0999999940395]","1","0","3","","","","","","","",""
"pit-trial","60","571157","0.0-2.0-14.0-1.0","battery-v0.2","","""event"",""trial"",""time""
""fullscreenenter"",""1"",""7138""
","
","
","""event"",""trial"",""time""
""fullscreenenter"",""1"",""7138""
","
","","","-1","","","24","14923","6069","&#9826;","elianto","#f73b6a7A","-1","-1","1","0","[]","0","0","3","","","","","","","",""
"pit-trial","61","576021","0.0-2.0-14.0-2.0","battery-v0.2","","""event"",""trial"",""time""
""fullscreenenter"",""1"",""7138""
","
","
","""event"",""trial"",""time""
""fullscreenenter"",""1"",""7138""
","
","","","-1","","","24","14923","6069","&#9826;","elianto","#f73b6a7A","-1","-1","1","0","[]","0","0","3","","","","","","","",""
"pit-trial","62","580886","0.0-2.0-14.0-3.0","battery-v0.2","","""event"",""trial"",""time""
""fullscreenenter"",""1"",""7138""
","
","
","""event"",""trial"",""time""
""fullscreenenter"",""1"",""7138""
","
","","","-1","","","24","14923","6069","&#9826;","elianto","#f73b6a7A","-1","-1","1","-10","[]","0","0","3","","","","","","","",""
"pit-trial","63","585756","0.0-2.0-14.0-4.0","battery-v0.2","","""event"",""trial"",""time""
""fullscreenenter"",""1"",""7138""
","
","
","""event"",""trial"",""time""
""fullscreenenter"",""1"",""7138""
","
","","","-1","","","24","14923","6069","&#9826;","elianto","#f73b6a7A","-1","-1","1","0","[]","0","0","3","","","","","","","",""
"pit-trial","64","590621","0.0-2.0-14.1-0.1","battery-v0.2","","""event"",""trial"",""time""
""fullscreenenter"",""1"",""7138""
","
","
","""event"",""trial"",""time""
""fullscreenenter"",""1"",""7138""
","
","","","-1","","","24","14923","6069","&#9826;","elianto","#f73b6a7A","-1","-1","1","0","[]","0","0","3","","","","","","","",""
"pit-trial","65","595483","0.0-2.0-14.1-1.1","battery-v0.2","","""event"",""trial"",""time""
""fullscreenenter"",""1"",""7138""
","
","
","""event"",""trial"",""time""
""fullscreenenter"",""1"",""7138""
","
","","","-1","","","24","14923","6069","&#9826;","elianto","#f73b6a7A","-1","-1","1","0","[]","0","0","3","","","","","","","",""
"pit-trial","66","600346","0.0-2.0-14.1-2.1","battery-v0.2","","""event"",""trial"",""time""
""fullscreenenter"",""1"",""7138""
","
","
","""event"",""trial"",""time""
""fullscreenenter"",""1"",""7138""
","
","","","-1","","","24","14923","6069","&#9826;","elianto","#f73b6a7A","-1","-1","1","0","[]","0","0","3","","","","","","","",""
"pit-trial","67","605211","0.0-2.0-14.1-3.1","battery-v0.2","","""event"",""trial"",""time""
""fullscreenenter"",""1"",""7138""
","
","
","""event"",""trial"",""time""
""fullscreenenter"",""1"",""7138""
","
","","","-1","","","24","14923","6069","&#9826;","elianto","#f73b6a7A","-1","-1","1","-10","[]","0","0","3","","","","","","","",""
"pit-trial","68","610076","0.0-2.0-14.1-4.1","battery-v0.2","","""event"",""trial"",""time""
""fullscreenenter"",""1"",""7138""
","
","
","""event"",""trial"",""time""
""fullscreenenter"",""1"",""7138""
","
","","","-1","","","24","14923","6069","&#9826;","elianto","#f73b6a7A","-1","-1","1","0","[]","0","0","3","","","","","","","",""
"pit-trial","69","614942","0.0-2.0-14.2-0.2","battery-v0.2","","""event"",""trial"",""time""
""fullscreenenter"",""1"",""7138""
","
","
","""event"",""trial"",""time""
""fullscreenenter"",""1"",""7138""
","
","","","-1","","","24","14923","6069","&#9826;","elianto","#f73b6a7A","-1","-1","1","0","[]","0","0","3","","","","","","","",""
"pit-trial","70","619804","0.0-2.0-14.2-1.2","battery-v0.2","","""event"",""trial"",""time""
""fullscreenenter"",""1"",""7138""
","
","
","""event"",""trial"",""time""
""fullscreenenter"",""1"",""7138""
","
","","","-1","","","24","14923","6069","&#9826;","elianto","#f73b6a7A","-1","-1","1","0","[]","0","0","3","","","","","","","",""
"pit-trial","71","624671","0.0-2.0-14.2-2.2","battery-v0.2","","""event"",""trial"",""time""
""fullscreenenter"",""1"",""7138""
","
","
","""event"",""trial"",""time""
""fullscreenenter"",""1"",""7138""
","
","","","-1","","","24","14923","6069","&#9826;","elianto","#f73b6a7A","-1","-1","1","0","[]","0","0","3","","","","","","","",""
"pit-trial","72","629541","0.0-2.0-14.2-3.2","battery-v0.2","","""event"",""trial"",""time""
""fullscreenenter"",""1"",""7138""
","
","
","""event"",""trial"",""time""
""fullscreenenter"",""1"",""7138""
","
","","","-1","","","24","14923","6069","&#9826;","elianto","#f73b6a7A","-1","-1","1","-10","[]","0","0","3","","","","","","","",""
"pit-trial","73","634404","0.0-2.0-14.2-4.2","battery-v0.2","","""event"",""trial"",""time""
""fullscreenenter"",""1"",""7138""
","
","
","""event"",""trial"",""time""
""fullscreenenter"",""1"",""7138""
","
","","","-1","","","24","14923","6069","&#9826;","elianto","#f73b6a7A","-1","-1","1","0","[]","0","0","3","","","","","","","",""
"pit-trial","74","639269","0.0-2.0-14.3-0.3","battery-v0.2","","""event"",""trial"",""time""
""fullscreenenter"",""1"",""7138""
","
","
","""event"",""trial"",""time""
""fullscreenenter"",""1"",""7138""
","
","","","-1","","","24","14923","6069","&#9826;","elianto","#f73b6a7A","-1","-1","1","0","[]","0","0","3","","","","","","","",""
"pit-trial","75","644133","0.0-2.0-14.3-1.3","battery-v0.2","","""event"",""trial"",""time""
""fullscreenenter"",""1"",""7138""
","
","
","""event"",""trial"",""time""
""fullscreenenter"",""1"",""7138""
","
","","","-1","","","24","14923","6069","&#9826;","elianto","#f73b6a7A","-1","-1","1","0","[]","0","0","3","","","","","","","",""
"pit-trial","76","648999","0.0-2.0-14.3-2.3","battery-v0.2","","""event"",""trial"",""time""
""fullscreenenter"",""1"",""7138""
","
","
","""event"",""trial"",""time""
""fullscreenenter"",""1"",""7138""
","
","","","-1","","","24","14923","6069","&#9826;","elianto","#f73b6a7A","-1","-1","1","0","[]","0","0","3","","","","","","","",""
"pit-trial","77","653870","0.0-2.0-14.3-3.3","battery-v0.2","","""event"",""trial"",""time""
""fullscreenenter"",""1"",""7138""
","
","
","""event"",""trial"",""time""
""fullscreenenter"",""1"",""7138""
","
","","","-1","","","24","14923","6069","&#9826;","elianto","#f73b6a7A","-1","-1","1","-10","[]","0","0","3","","","","","","","",""
"pit-trial","78","658733","0.0-2.0-14.3-4.3","battery-v0.2","","""event"",""trial"",""time""
""fullscreenenter"",""1"",""7138""
","
","
","""event"",""trial"",""time""
""fullscreenenter"",""1"",""7138""
","
","","","-1","","","24","14923","6069","&#9826;","elianto","#f73b6a7A","-1","-1","1","0","[]","0","0","3","","","","","","","",""
"call-function","79","658734","0.0-2.0-15.0","battery-v0.2","","""event"",""trial"",""time""
""fullscreenenter"",""1"",""7138""
","
","
","""event"",""trial"",""time""
""fullscreenenter"",""1"",""7138""
","
","","","","","","","","","","","","","","","","","","","","","","","","","","",""
"pit-instructions","80","683526","0.0-2.0-16.0","battery-v0.2","","""event"",""trial"",""time""
""fullscreenenter"",""1"",""7138""
","
","
","""event"",""trial"",""time""
""fullscreenenter"",""1"",""7138""
","
","","[{""page_index"":0,""viewing_time"":6451.899999991059},{""page_index"":1,""viewing_time"":8364.90000000596},{""page_index"":2,""viewing_time"":4365.0999999940395},{""page_index"":3,""viewing_time"":5608.600000008941}]","24790.79999999702","","","","","","","","","","","","","","","","","","","","","","","",""
"pit-trial","81","686790","0.0-2.0-17.0-0.0","battery-v0.2","","""event"",""trial"",""time""
""fullscreenenter"",""1"",""7138""
","
","
","""event"",""trial"",""time""
""fullscreenenter"",""1"",""7138""
","
","","","402.79999999701977","","","24","14923","6069","&#9789;","elianto","#f73b6a7A"," "," ","1","0","[1255.0999999940395]","1","0","4","","","","","","","",""
"pit-trial","82","689998","0.0-2.0-17.0-1.0","battery-v0.2","","""event"",""trial"",""time""
""fullscreenenter"",""1"",""7138""
","
","
","""event"",""trial"",""time""
""fullscreenenter"",""1"",""7138""
","
","","","350.5","","","24","14923","6069","&#9789;","elianto","#f73b6a7A"," "," ","1","0","[1202.2999999970198]","1","0","4","","","","","","","",""
"pit-trial","83","693275","0.0-2.0-17.0-2.0","battery-v0.2","","""event"",""trial"",""time""
""fullscreenenter"",""1"",""7138""
","
","
","""event"",""trial"",""time""
""fullscreenenter"",""1"",""7138""
","
","","","419.79999999701977","","","24","14923","6069","&#9789;","elianto","#f73b6a7A"," "," ","1","0","[1270]","1","0","4","","","","","","","",""
"pit-trial","84","696485","0.0-2.0-17.0-3.0","battery-v0.2","","""event"",""trial"",""time""
""fullscreenenter"",""1"",""7138""
","
","
","""event"",""trial"",""time""
""fullscreenenter"",""1"",""7138""
","
","","","339.40000000596046","","","24","14923","6069","&#9789;","elianto","#f73b6a7A"," "," ","1","-10","[1197.6000000089407]","1","0","4","","","","","","","",""
"pit-trial","85","699700","0.0-2.0-17.0-4.0","battery-v0.2","","""event"",""trial"",""time""
""fullscreenenter"",""1"",""7138""
","
","
","""event"",""trial"",""time""
""fullscreenenter"",""1"",""7138""
","
","","","349.79999999701977","","","24","14923","6069","&#9789;","elianto","#f73b6a7A"," "," ","1","0","[1204.6000000089407]","1","0","4","","","","","","","",""
"pit-trial","86","702944","0.0-2.0-17.1-0.1","battery-v0.2","","""event"",""trial"",""time""
""fullscreenenter"",""1"",""7138""
","
","
","""event"",""trial"",""time""
""fullscreenenter"",""1"",""7138""
","
","","","379.90000000596046","","","24","14923","6069","&#9789;","elianto","#f73b6a7A"," "," ","1","0","[1233.7999999970198]","1","0","4","","","","","","","",""
"pit-trial","87","706245","0.0-2.0-17.1-1.1","battery-v0.2","","""event"",""trial"",""time""
""fullscreenenter"",""1"",""7138""
","
","
","""event"",""trial"",""time""
""fullscreenenter"",""1"",""7138""
","
","","","440.59999999403954","","","24","14923","6069","&#9789;","elianto","#f73b6a7A"," "," ","1","0","[1292]","1","0","4","","","","","","","",""
"pit-trial","88","709580","0.0-2.0-17.1-2.1","battery-v0.2","","""event"",""trial"",""time""
""fullscreenenter"",""1"",""7138""
","
","
","""event"",""trial"",""time""
""fullscreenenter"",""1"",""7138""
","
","","","474","","","24","14923","6069","&#9789;","elianto","#f73b6a7A"," "," ","1","0","[1330.7000000029802]","1","0","4","","","","","","","",""
"pit-trial","89","712958","0.0-2.0-17.1-3.1","battery-v0.2","","""event"",""trial"",""time""
""fullscreenenter"",""1"",""7138""
","
","
","""event"",""trial"",""time""
""fullscreenenter"",""1"",""7138""
","
","","","515.5999999940395","","","24","14923","6069","&#9789;","elianto","#f73b6a7A"," "," ","1","-10","[1366.2999999970198]","1","0","4","","","","","","","",""
"pit-trial","90","717348","0.0-2.0-17.1-4.1","battery-v0.2","","""event"",""trial"",""time""
""fullscreenenter"",""1"",""7138""
","
","
","""event"",""trial"",""time""
""fullscreenenter"",""1"",""7138""
","
","","","1534.7999999970198","","","24","14923","6069","&#9789;","elianto","#f73b6a7A"," "," ","1","0","[2386.4000000059605]","1","0","4","","","","","","","",""
"pit-trial","91","721061","0.0-2.0-17.2-0.2","battery-v0.2","","""event"",""trial"",""time""
""fullscreenenter"",""1"",""7138""
","
","
","""event"",""trial"",""time""
""fullscreenenter"",""1"",""7138""
","
","","","854","","","24","14923","6069","&#9789;","elianto","#f73b6a7A"," "," ","1","0","[1706.5]","1","0","4","","","","","","","",""
"pit-trial","92","724279","0.0-2.0-17.2-1.2","battery-v0.2","","""event"",""trial"",""time""
""fullscreenenter"",""1"",""7138""
","
","
","""event"",""trial"",""time""
""fullscreenenter"",""1"",""7138""
","
","","","353.5","","","24","14923","6069","&#9789;","elianto","#f73b6a7A"," "," ","1","0","[1208.0999999940395]","1","0","4","","","","","","","",""
"pit-trial","93","728192","0.0-2.0-17.2-2.2","battery-v0.2","","""event"",""trial"",""time""
""fullscreenenter"",""1"",""7138""
","
","
","""event"",""trial"",""time""
""fullscreenenter"",""1"",""7138""
","
","","","1046.7000000029802","","","24","14923","6069","&#9789;","elianto","#f73b6a7A"," "," ","1","0","[1898.1000000089407]","1","0","4","","","","","","","",""
"pit-trial","94","731464","0.0-2.0-17.2-3.2","battery-v0.2","","""event"",""trial"",""time""
""fullscreenenter"",""1"",""7138""
","
","
","""event"",""trial"",""time""
""fullscreenenter"",""1"",""7138""
","
","","","400.5","","","24","14923","6069","&#9789;","elianto","#f73b6a7A"," "," ","1","-10","[1258.0999999940395]","1","0","4","","","","","","","",""
"pit-trial","95","734775","0.0-2.0-17.2-4.2","battery-v0.2","","""event"",""trial"",""time""
""fullscreenenter"",""1"",""7138""
","
","
","""event"",""trial"",""time""
""fullscreenenter"",""1"",""7138""
","
","","","445.6000000089407","","","24","14923","6069","&#9789;","elianto","#f73b6a7A"," "," ","1","0","[1300.1000000089407]","1","0","4","","","","","","","",""
"pit-trial","96","738008","0.0-2.0-17.3-0.3","battery-v0.2","","""event"",""trial"",""time""
""fullscreenenter"",""1"",""7138""
","
","
","""event"",""trial"",""time""
""fullscreenenter"",""1"",""7138""
","
","","","372.20000000298023","","","24","14923","6069","&#9789;","elianto","#f73b6a7A"," "," ","1","0","[1223.5]","1","0","4","","","","","","","",""
"pit-trial","97","741304","0.0-2.0-17.3-1.3","battery-v0.2","","""event"",""trial"",""time""
""fullscreenenter"",""1"",""7138""
","
","
","""event"",""trial"",""time""
""fullscreenenter"",""1"",""7138""
","
","","","425.29999999701977","","","24","14923","6069","&#9789;","elianto","#f73b6a7A"," "," ","1","0","[1286.5]","1","0","4","","","","","","","",""
"pit-trial","98","744590","0.0-2.0-17.3-2.3","battery-v0.2","","""event"",""trial"",""time""
""fullscreenenter"",""1"",""7138""
","
","
","""event"",""trial"",""time""
""fullscreenenter"",""1"",""7138""
","
","","","427.09999999403954","","","24","14923","6069","&#9789;","elianto","#f73b6a7A"," "," ","1","0","[1277.0999999940395]","1","0","4","","","","","","","",""
"pit-trial","99","748055","0.0-2.0-17.3-3.3","battery-v0.2","","""event"",""trial"",""time""
""fullscreenenter"",""1"",""7138""
","
","
","""event"",""trial"",""time""
""fullscreenenter"",""1"",""7138""
","
","","","606.3999999910593","","","24","14923","6069","&#9789;","elianto","#f73b6a7A"," "," ","1","-10","[1459.0999999940395]","1","0","4","","","","","","","",""
"pit-trial","100","751424","0.0-2.0-17.3-4.3","battery-v0.2","","""event"",""trial"",""time""
""fullscreenenter"",""1"",""7138""
","
","
","""event"",""trial"",""time""
""fullscreenenter"",""1"",""7138""
","
","","","507.3999999910593","","","24","14923","6069","&#9789;","elianto","#f73b6a7A"," "," ","1","0","[1361.3999999910593]","1","0","4","","","","","","","",""
"call-function","101","751425","0.0-2.0-18.0","battery-v0.2","","""event"",""trial"",""time""
""fullscreenenter"",""1"",""7138""
","
","
","""event"",""trial"",""time""
""fullscreenenter"",""1"",""7138""
","
","","","","","","","","","","","","","","","","","","","","","","","","","","",""
"pit-instructions","102","919648","0.0-2.0-19.0","battery-v0.2","","""event"",""trial"",""time""
""fullscreenenter"",""1"",""7138""
","
","
","""event"",""trial"",""time""
""fullscreenenter"",""1"",""7138""
","
","","[{""page_index"":0,""viewing_time"":6335.79999999702},{""page_index"":1,""viewing_time"":6880},{""page_index"":2,""viewing_time"":114961.90000000596},{""page_index"":3,""viewing_time"":4715.5999999940395},{""page_index"":4,""viewing_time"":8588.300000011921},{""page_index"":5,""viewing_time"":8066.0999999940395},{""page_index"":6,""viewing_time"":8775.90000000596},{""page_index"":7,""viewing_time"":4494.199999988079},{""page_index"":8,""viewing_time"":5402}]","168220","","","","","","","","","","","","","","","","","","","","","","","",""
"pit-comprehension","103","924019","0.0-2.0-20.0-0.0","battery-v0.2","","""event"",""trial"",""time""
""fullscreenenter"",""1"",""7138""
","
","
","""event"",""trial"",""time""
""fullscreenenter"",""1"",""7138""
","
","","","4368.79999999702","[""SPACE""]","0","24","14923","6069","","","","","","","","","","","","","","","","","","",""
"pit-instructions","104","926863","0.0-2.0-20.0-1.0","battery-v0.2","","""event"",""trial"",""time""
""fullscreenenter"",""1"",""7138""
","
","
","""event"",""trial"",""time""
""fullscreenenter"",""1"",""7138""
","
","","[{""page_index"":0,""viewing_time"":2810.7999999970198}]","2811","","","","","","","","","","","","","","","","","","","","","","","",""
"pit-comprehension","105","931375","0.0-2.0-21.0-0.0","battery-v0.2","","""event"",""trial"",""time""
""fullscreenenter"",""1"",""7138""
","
","
","""event"",""trial"",""time""
""fullscreenenter"",""1"",""7138""
","
","","","4509.100000008941","[""10""]","0","24","14923","6069","","","","","","","","","","","","","","","","","","",""
"pit-instructions","106","934267","0.0-2.0-21.0-1.0","battery-v0.2","","""event"",""trial"",""time""
""fullscreenenter"",""1"",""7138""
","
","
","""event"",""trial"",""time""
""fullscreenenter"",""1"",""7138""
","
","","[{""page_index"":0,""viewing_time"":2863.6000000089407}]","2863.7999999970198","","","","","","","","","","","","","","","","","","","","","","","",""
"pit-comprehension","107","940660","0.0-2.0-22.0-0.0","battery-v0.2","","""event"",""trial"",""time""
""fullscreenenter"",""1"",""7138""
","
","
","""event"",""trial"",""time""
""fullscreenenter"",""1"",""7138""
","
","","","6390.399999991059","[""0""]","0","24","14923","6069","","","","","","","","","","","","","","","","","","",""
"pit-instructions","108","942381","0.0-2.0-22.0-1.0","battery-v0.2","","""event"",""trial"",""time""
""fullscreenenter"",""1"",""7138""
","
","
","""event"",""trial"",""time""
""fullscreenenter"",""1"",""7138""
","
","","[{""page_index"":0,""viewing_time"":1693.2999999970198}]","1693.6000000089407","","","","","","","","","","","","","","","","","","","","","","","",""
"pit-comprehension","109","950768","0.0-2.0-23.0-0.0","battery-v0.2","","""event"",""trial"",""time""
""fullscreenenter"",""1"",""7138""
","
","
","""event"",""trial"",""time""
""fullscreenenter"",""1"",""7138""
","
","","","8384.20000000298","[""True""]","0","24","14923","6069","","","","","","","","","","","","","","","","","","",""
"pit-instructions","110","952214","0.0-2.0-23.0-1.0","battery-v0.2","","""event"",""trial"",""time""
""fullscreenenter"",""1"",""7138""
","
","
","""event"",""trial"",""time""
""fullscreenenter"",""1"",""7138""
","
","","[{""page_index"":0,""viewing_time"":1417.6000000089407}]","1417.7999999970198","","","","","","","","","","","","","","","","","","","","","","","",""
"pit-comprehension","111","959576","0.0-2.0-24.0-0.0","battery-v0.2","","""event"",""trial"",""time""
""fullscreenenter"",""1"",""7138""
","
","
","""event"",""trial"",""time""
""fullscreenenter"",""1"",""7138""
","
","","","7360.100000008941","[""True""]","0","24","14923","6069","","","","","","","","","","","","","","","","","","",""
"pit-instructions","112","961395","0.0-2.0-24.0-1.0","battery-v0.2","","""event"",""trial"",""time""
""fullscreenenter"",""1"",""7138""
","
","
","""event"",""trial"",""time""
""fullscreenenter"",""1"",""7138""
","
","","[{""page_index"":0,""viewing_time"":1784}]","1784.2000000029802","","","","","","","","","","","","","","","","","","","","","","","",""
"pit-comprehension","113","967747","0.0-2.0-25.0-0.0","battery-v0.2","","""event"",""trial"",""time""
""fullscreenenter"",""1"",""7138""
","
","
","""event"",""trial"",""time""
""fullscreenenter"",""1"",""7138""
","
","","","6349.5","[""True""]","0","24","14923","6069","","","","","","","","","","","","","","","","","","",""
"pit-instructions","114","970179","0.0-2.0-25.0-1.0","battery-v0.2","","""event"",""trial"",""time""
""fullscreenenter"",""1"",""7138""
","
","
","""event"",""trial"",""time""
""fullscreenenter"",""1"",""7138""
","
","","[{""page_index"":0,""viewing_time"":2400.1000000089407}]","2400.2000000029802","","","","","","","","","","","","","","","","","","","","","","","",""
"pit-comprehension","115","977970","0.0-2.0-26.0-0.0","battery-v0.2","","""event"",""trial"",""time""
""fullscreenenter"",""1"",""7138""
","
","
","""event"",""trial"",""time""
""fullscreenenter"",""1"",""7138""
","
","","","7788.20000000298","[""False""]","0","24","14923","6069","","","","","","","","","","","","","","","","","","",""
"pit-instructions","116","979998","0.0-2.0-26.0-1.0","battery-v0.2","","""event"",""trial"",""time""
""fullscreenenter"",""1"",""7138""
","
","
","""event"",""trial"",""time""
""fullscreenenter"",""1"",""7138""
","
","","[{""page_index"":0,""viewing_time"":1998.2000000029802}]","1998.4000000059605","","","","","","","","","","","","","","","","","","","","","","","",""
"pit-instructions","117","997577","0.0-3.0","battery-v0.2","","""event"",""trial"",""time""
""fullscreenenter"",""1"",""7138""
","
","
","""event"",""trial"",""time""
""fullscreenenter"",""1"",""7138""
","
","","[{""page_index"":0,""viewing_time"":3973.8999999910593},{""page_index"":1,""viewing_time"":5719.20000000298},{""page_index"":2,""viewing_time"":7884.5999999940395}]","17577.79999999702","","","","","","","","","","","","","","","","","","","","","","","",""
"pit-trial","118","1001098","0.0-4.0","battery-v0.2","","""event"",""trial"",""time""
""fullscreenenter"",""1"",""7138""
","
","
","""event"",""trial"",""time""
""fullscreenenter"",""1"",""7138""
","
","","","646.1000000089407","","","24","14923","6069","&#9730;","elianto","#3366ff99"," "," ","1","0","[1500.1000000089407]","1","1","","","14923","1","1","1","win","go","1"
"pit-trial","119","1004681","0.0-5.0","battery-v0.2","","""event"",""trial"",""time""
""fullscreenenter"",""1"",""7138""
","
","
","""event"",""trial"",""time""
""fullscreenenter"",""1"",""7138""
","
","","","726.5","","","24","14923","6069","&#9752;","elianto","#f73b6a7A"," "," ","1","0","[1578.4000000059605]","1","1","","","14923","2","3","3","lose","go","0"
"pit-trial","120","1008123","0.0-6.0","battery-v0.2","","""event"",""trial"",""time""
""fullscreenenter"",""1"",""7138""
","
","
","""event"",""trial"",""time""
""fullscreenenter"",""1"",""7138""
","
","","","580.5999999940395","","","24","14923","6069","&#9733;","elianto","#3366ff99","-1"," ","0","0","[1432.9000000059605]","1","1","","","14923","3","2","2","win","no-go","0"
"pit-trial","121","1011740","0.0-7.0","battery-v0.2","","""event"",""trial"",""time""
""fullscreenenter"",""1"",""7138""
","
","
","""event"",""trial"",""time""
""fullscreenenter"",""1"",""7138""
","
","","","746.1999999880791","","","24","14923","6069","&#9728;","elianto","#f73b6a7A","-1"," ","0","-10","[1604.7999999970198]","1","1","","","14923","4","0","4","lose","no-go","0"
"pit-trial","122","1016607","0.0-8.0","battery-v0.2","","""event"",""trial"",""time""
""fullscreenenter"",""1"",""7138""
","
","
","""event"",""trial"",""time""
""fullscreenenter"",""1"",""7138""
","
","","","-1","","","24","14923","6069","&#9728;","elianto","#f73b6a7A","-1","-1","1","0","[]","0","1","","","14923","5","0","4","lose","no-go","0"
"pit-trial","123","1021474","0.0-9.0","battery-v0.2","","""event"",""trial"",""time""
""fullscreenenter"",""1"",""7138""
","
","
","""event"",""trial"",""time""
""fullscreenenter"",""1"",""7138""
","
","","","-1","","","24","14923","6069","&#9752;","elianto","#f73b6a7A"," ","-1","0","-10","[]","0","1","","","14923","6","3","3","lose","go","0"
"pit-trial","124","1025079","0.0-10.0","battery-v0.2","","""event"",""trial"",""time""
""fullscreenenter"",""1"",""7138""
","
","
","""event"",""trial"",""time""
""fullscreenenter"",""1"",""7138""
","
","","","741.2999999970198","","","24","14923","6069","&#9733;","elianto","#3366ff99","-1"," ","0","+10","[1595.7999999970198]","1","1","","","14923","7","2","2","win","no-go","1"
"pit-trial","125","1028659","0.0-11.0","battery-v0.2","","""event"",""trial"",""time""
""fullscreenenter"",""1"",""7138""
","
","
","""event"",""trial"",""time""
""fullscreenenter"",""1"",""7138""
","
","","","715.3000000119209","","","24","14923","6069","&#9730;","elianto","#3366ff99"," "," ","1","+10","[1568.7000000029802]","1","1","","","14923","8","1","1","win","go","0"
"pit-trial","126","1032259","0.0-12.0","battery-v0.2","","""event"",""trial"",""time""
""fullscreenenter"",""1"",""7138""
","
","
","""event"",""trial"",""time""
""fullscreenenter"",""1"",""7138""
","
","","","731.7000000029802","","","24","14923","6069","&#9730;","elianto","#3366ff99"," "," ","1","0","[1586.0999999940395]","1","1","","","14923","9","1","1","win","go","1"
"pit-trial","127","1036532","0.0-13.0","battery-v0.2","","""event"",""trial"",""time""
""fullscreenenter"",""1"",""7138""
","
","
","""event"",""trial"",""time""
""fullscreenenter"",""1"",""7138""
","
","","","1408.3999999910593","","","24","14923","6069","&#9728;","elianto","#f73b6a7A","-1"," ","0","-10","[2262.7000000029802]","1","1","","","14923","10","0","4","lose","no-go","0"
"pit-trial","128","1040107","0.0-14.0","battery-v0.2","","""event"",""trial"",""time""
""fullscreenenter"",""1"",""7138""
","
","
","""event"",""trial"",""time""
""fullscreenenter"",""1"",""7138""
","
","","","708.5999999940395","","","24","14923","6069","&#9733;","elianto","#3366ff99","-1"," ","0","0","[1566.699999988079]","1","1","","","14923","11","2","2","win","no-go","0"
"pit-trial","129","1043604","0.0-15.0","battery-v0.2","","""event"",""trial"",""time""
""fullscreenenter"",""1"",""7138""
","
","
","""event"",""trial"",""time""
""fullscreenenter"",""1"",""7138""
","
","","","637","","","24","14923","6069","&#9752;","elianto","#f73b6a7A"," "," ","1","-10","[1489.8999999910593]","1","1","","","14923","12","3","3","lose","go","1"
"pit-trial","130","1047081","0.0-16.0","battery-v0.2","","""event"",""trial"",""time""
""fullscreenenter"",""1"",""7138""
","
","
","""event"",""trial"",""time""
""fullscreenenter"",""1"",""7138""
","
","","","617.3999999910593","","","24","14923","6069","&#9752;","elianto","#f73b6a7A"," "," ","1","-10","[1469.0999999940395]","1","1","","","14923","13","3","3","lose","go","1"
"pit-trial","131","1050643","0.0-17.0","battery-v0.2","","""event"",""trial"",""time""
""fullscreenenter"",""1"",""7138""
","
","
","""event"",""trial"",""time""
""fullscreenenter"",""1"",""7138""
","
","","","702","","","24","14923","6069","&#9733;","elianto","#3366ff99","-1"," ","0","0","[1556.5]","1","1","","","14923","14","2","2","win","no-go","0"
"pit-trial","132","1055509","0.0-18.0","battery-v0.2","","""event"",""trial"",""time""
""fullscreenenter"",""1"",""7138""
","
","
","""event"",""trial"",""time""
""fullscreenenter"",""1"",""7138""
","
","","","-1","","","24","14923","6069","&#9728;","elianto","#f73b6a7A","-1","-1","1","0","[]","0","1","","","14923","15","0","4","lose","no-go","0"
"pit-trial","133","1059340","0.0-19.0","battery-v0.2","","""event"",""trial"",""time""
""fullscreenenter"",""1"",""7138""
","
","
","""event"",""trial"",""time""
""fullscreenenter"",""1"",""7138""
","
","","","970.4000000059605","","","24","14923","6069","&#9730;","elianto","#3366ff99"," "," ","1","+10","[1823.2000000029802]","1","1","","","14923","16","1","1","win","go","0"
"pit-trial","134","1064204","0.0-20.0","battery-v0.2","","""event"",""trial"",""time""
""fullscreenenter"",""1"",""7138""
","
","
","""event"",""trial"",""time""
""fullscreenenter"",""1"",""7138""
","
","","","-1","","","24","14923","6069","&#9752;","elianto","#f73b6a7A"," ","-1","0","-10","[]","0","1","","","14923","17","3","3","lose","go","0"
"pit-trial","135","1067961","0.0-21.0","battery-v0.2","","""event"",""trial"",""time""
""fullscreenenter"",""1"",""7138""
","
","
","""event"",""trial"",""time""
""fullscreenenter"",""1"",""7138""
","
","","","895.7999999970198","","","24","14923","6069","&#9733;","elianto","#3366ff99","-1"," ","0","+10","[1750]","1","1","","","14923","18","2","2","win","no-go","1"
"pit-trial","136","1072826","0.0-22.0","battery-v0.2","","""event"",""trial"",""time""
""fullscreenenter"",""1"",""7138""
","
","
","""event"",""trial"",""time""
""fullscreenenter"",""1"",""7138""
","
","","","-1","","","24","14923","6069","&#9728;","elianto","#f73b6a7A","-1","-1","1","0","[]","0","1","","","14923","19","0","4","lose","no-go","0"
"pit-trial","137","1076323","0.0-23.0","battery-v0.2","","""event"",""trial"",""time""
""fullscreenenter"",""1"",""7138""
","
","
","""event"",""trial"",""time""
""fullscreenenter"",""1"",""7138""
","
","","","636.2999999970198","","","24","14923","6069","&#9730;","elianto","#3366ff99"," "," ","1","+10","[1487.5]","1","1","","","14923","20","1","1","win","go","0"
"pit-instructions","138","1113554","0.0-24.0","battery-v0.2","","""event"",""trial"",""time""
""fullscreenenter"",""1"",""7138""
","
","
","""event"",""trial"",""time""
""fullscreenenter"",""1"",""7138""
","
","","[{""page_index"":0,""viewing_time"":5565.5},{""page_index"":1,""viewing_time"":31664.70000000298}]","37230.40000000596","","","","","","","","","","","","","","","","","","","","","","","",""
"pit-trial","139","1117050","0.0-25.0","battery-v0.2","","""event"",""trial"",""time""
""fullscreenenter"",""1"",""7138""
","
","
","""event"",""trial"",""time""
""fullscreenenter"",""1"",""7138""
","
","","","634.6999999880791","","","24","14923","6069","h","elianto","#f73b6a7A","-1"," ","0","0","[1489]","1","2","","","14923","21","3","4","lose","no-go","1"
"pit-trial","140","1120684","0.0-26.0","battery-v0.2","","""event"",""trial"",""time""
""fullscreenenter"",""1"",""7138""
","
","
","""event"",""trial"",""time""
""fullscreenenter"",""1"",""7138""
","
","","","772.3000000119209","","","24","14923","6069","m","elianto","#f73b6a7A"," "," ","1","0","[1626.6000000089407]","1","2","","","14923","22","0","3","lose","go","0"
"pit-trial","141","1124220","0.0-27.0","battery-v0.2","","""event"",""trial"",""time""
""fullscreenenter"",""1"",""7138""
","
","
","""event"",""trial"",""time""
""fullscreenenter"",""1"",""7138""
","
","","","676.4000000059605","","","24","14923","6069","y","elianto","#f73b6a7A"," "," ","1","-10","[1528.1000000089407]","1","2","","","14923","23","2","3","lose","go","1"
"pit-trial","142","1127797","0.0-28.0","battery-v0.2","","""event"",""trial"",""time""
""fullscreenenter"",""1"",""7138""
","
","
","""event"",""trial"",""time""
""fullscreenenter"",""1"",""7138""
","
","","","715.2000000029802","","","24","14923","6069","r","elianto","#3366ff99","-1"," ","0","0","[1568.7000000029802]","1","2","","","14923","24","1","2","win","no-go","0"
"pit-trial","143","1131437","0.0-29.0","battery-v0.2","","""event"",""trial"",""time""
""fullscreenenter"",""1"",""7138""
","
","
","""event"",""trial"",""time""
""fullscreenenter"",""1"",""7138""
","
","","","770.9000000059605","","","24","14923","6069","m","elianto","#f73b6a7A"," "," ","1","0","[1631.0999999940395]","1","2","","","14923","25","0","3","lose","go","0"
"pit-trial","144","1136306","0.0-30.0","battery-v0.2","","""event"",""trial"",""time""
""fullscreenenter"",""1"",""7138""
","
","
","""event"",""trial"",""time""
""fullscreenenter"",""1"",""7138""
","
","","","-1","","","24","14923","6069","y","elianto","#f73b6a7A"," ","-1","0","-10","[]","0","2","","","14923","26","2","3","lose","go","0"
"pit-trial","145","1140324","0.0-31.0","battery-v0.2","","""event"",""trial"",""time""
""fullscreenenter"",""1"",""7138""
","
","
","""event"",""trial"",""time""
""fullscreenenter"",""1"",""7138""
","
","","","1154.9000000059605","","","24","14923","6069","h","elianto","#f73b6a7A","-1"," ","0","0","[2007.800000011921]","1","2","","","14923","27","3","4","lose","no-go","1"
"pit-trial","146","1145189","0.0-32.0","battery-v0.2","","""event"",""trial"",""time""
""fullscreenenter"",""1"",""7138""
","
","
","""event"",""trial"",""time""
""fullscreenenter"",""1"",""7138""
","
","","","-1","","","24","14923","6069","r","elianto","#3366ff99","-1","-1","1","0","[]","0","2","","","14923","28","1","2","win","no-go","1"
"pit-trial","147","1148683","0.0-33.0","battery-v0.2","","""event"",""trial"",""time""
""fullscreenenter"",""1"",""7138""
","
","
","""event"",""trial"",""time""
""fullscreenenter"",""1"",""7138""
","
","","","633.5","","","24","14923","6069","m","elianto","#f73b6a7A"," "," ","1","0","[1488.7000000029802]","1","2","","","14923","29","0","3","lose","go","0"
"pit-trial","148","1152605","0.0-34.0","battery-v0.2","","""event"",""trial"",""time""
""fullscreenenter"",""1"",""7138""
","
","
","""event"",""trial"",""time""
""fullscreenenter"",""1"",""7138""
","
","","","1063","","","24","14923","6069","h","elianto","#f73b6a7A","-1"," ","0","-10","[1914.7000000029802]","1","2","","","14923","30","3","4","lose","no-go","0"
"pit-trial","149","1157188","0.0-35.0","battery-v0.2","","""event"",""trial"",""time""
""fullscreenenter"",""1"",""7138""
","
","
","""event"",""trial"",""time""
""fullscreenenter"",""1"",""7138""
","
","","","1716.0999999940395","","","24","14923","6069","r","elianto","#3366ff99","-1"," ","0","0","[2570.4000000059605]","1","2","","","14923","31","1","2","win","no-go","0"
"pit-trial","150","1162052","0.0-36.0","battery-v0.2","","""event"",""trial"",""time""
""fullscreenenter"",""1"",""7138""
","
","
","""event"",""trial"",""time""
""fullscreenenter"",""1"",""7138""
","
","","","-1","","","24","14923","6069","y","elianto","#f73b6a7A"," ","-1","0","-10","[]","0","2","","","14923","32","2","3","lose","go","0"
"pit-trial","151","1166917","0.0-37.0","battery-v0.2","","""event"",""trial"",""time""
""fullscreenenter"",""1"",""7138""
","
","
","""event"",""trial"",""time""
""fullscreenenter"",""1"",""7138""
","
","","","-1","","","24","14923","6069","r","elianto","#3366ff99","-1","-1","1","+10","[]","0","2","","","14923","33","1","2","win","no-go","0"
"pit-trial","152","1170364","0.0-38.0","battery-v0.2","","""event"",""trial"",""time""
""fullscreenenter"",""1"",""7138""
","
","
","""event"",""trial"",""time""
""fullscreenenter"",""1"",""7138""
","
","","","579.9000000059605","","","24","14923","6069","m","elianto","#f73b6a7A"," "," ","1","0","[1438.2999999970198]","1","2","","","14923","34","0","3","lose","go","0"
"pit-trial","153","1175230","0.0-39.0","battery-v0.2","","""event"",""trial"",""time""
""fullscreenenter"",""1"",""7138""
","
","
","""event"",""trial"",""time""
""fullscreenenter"",""1"",""7138""
","
","","","-1","","","24","14923","6069","h","elianto","#f73b6a7A","-1","-1","1","-10","[]","0","2","","","14923","35","3","4","lose","no-go","1"
"pit-trial","154","1178788","0.0-40.0","battery-v0.2","","""event"",""trial"",""time""
""fullscreenenter"",""1"",""7138""
","
","
","""event"",""trial"",""time""
""fullscreenenter"",""1"",""7138""
","
","","","695.7000000029802","","","24","14923","6069","y","elianto","#f73b6a7A"," "," ","1","0","[1548.5999999940395]","1","2","","","14923","36","2","3","lose","go","0"
"pit-trial","155","1183653","0.0-41.0","battery-v0.2","","""event"",""trial"",""time""
""fullscreenenter"",""1"",""7138""
","
","
","""event"",""trial"",""time""
""fullscreenenter"",""1"",""7138""
","
","","","-1","","","24","14923","6069","r","elianto","#3366ff99","-1","-1","1","+10","[]","0","2","","","14923","37","1","2","win","no-go","0"
"pit-trial","156","1187484","0.0-42.0","battery-v0.2","","""event"",""trial"",""time""
""fullscreenenter"",""1"",""7138""
","
","
","""event"",""trial"",""time""
""fullscreenenter"",""1"",""7138""
","
","","","967.7000000029802","","","24","14923","6069","y","elianto","#f73b6a7A"," "," ","1","0","[1825.300000011921]","1","2","","","14923","38","2","3","lose","go","0"
"pit-trial","157","1192348","0.0-43.0","battery-v0.2","","""event"",""trial"",""time""
""fullscreenenter"",""1"",""7138""
","
","
","""event"",""trial"",""time""
""fullscreenenter"",""1"",""7138""
","
","","","-1","","","24","14923","6069","h","elianto","#f73b6a7A","-1","-1","1","0","[]","0","2","","","14923","39","3","4","lose","no-go","0"
"pit-trial","158","1195742","0.0-44.0","battery-v0.2","","""event"",""trial"",""time""
""fullscreenenter"",""1"",""7138""
","
","
","""event"",""trial"",""time""
""fullscreenenter"",""1"",""7138""
","
","","","536.6999999880791","","","24","14923","6069","m","elianto","#f73b6a7A"," "," ","1","-10","[1387]","1","2","","","14923","40","0","3","lose","go","1"
"pit-trial","159","1200613","0.0-45.0","battery-v0.2","","""event"",""trial"",""time""
""fullscreenenter"",""1"",""7138""
","
","
","""event"",""trial"",""time""
""fullscreenenter"",""1"",""7138""
","
","","","-1","","","24","14923","6069","y","elianto","#f73b6a7A"," ","-1","0","-10","[2951.0999999940395]","1","2","","","14923","41","2","3","lose","go","0"
"pit-trial","160","1205478","0.0-46.0","battery-v0.2","","""event"",""trial"",""time""
""fullscreenenter"",""1"",""7138""
","
","
","""event"",""trial"",""time""
""fullscreenenter"",""1"",""7138""
","
","","","-1","","","24","14923","6069","h","elianto","#f73b6a7A","-1","-1","1","-10","[]","0","2","","","14923","42","3","4","lose","no-go","1"
"pit-trial","161","1210348","0.0-47.0","battery-v0.2","","""event"",""trial"",""time""
""fullscreenenter"",""1"",""7138""
","
","
","""event"",""trial"",""time""
""fullscreenenter"",""1"",""7138""
","
","","","-1","","","24","14923","6069","r","elianto","#3366ff99","-1","-1","1","+10","[]","0","2","","","14923","43","1","2","win","no-go","0"
"pit-trial","162","1213709","0.0-48.0","battery-v0.2","","""event"",""trial"",""time""
""fullscreenenter"",""1"",""7138""
","
","
","""event"",""trial"",""time""
""fullscreenenter"",""1"",""7138""
","
","","","499.40000000596046","","","24","14923","6069","m","elianto","#f73b6a7A"," "," ","1","0","[1352.5]","1","2","","","14923","44","0","3","lose","go","0"
"pit-trial","163","1218574","0.0-49.0","battery-v0.2","","""event"",""trial"",""time""
""fullscreenenter"",""1"",""7138""
","
","
","""event"",""trial"",""time""
""fullscreenenter"",""1"",""7138""
","
","","","-1","","","24","14923","6069","r","elianto","#3366ff99","-1","-1","1","+10","[]","0","2","","","14923","45","1","2","win","no-go","0"
"pit-trial","164","1222547","0.0-50.0","battery-v0.2","","""event"",""trial"",""time""
""fullscreenenter"",""1"",""7138""
","
","
","""event"",""trial"",""time""
""fullscreenenter"",""1"",""7138""
","
","","","1109.699999988079","","","24","14923","6069","y","elianto","#f73b6a7A"," "," ","1","0","[1964.3999999910593]","1","2","","","14923","46","2","3","lose","go","0"
"pit-trial","165","1225894","0.0-51.0","battery-v0.2","","""event"",""trial"",""time""
""fullscreenenter"",""1"",""7138""
","
","
","""event"",""trial"",""time""
""fullscreenenter"",""1"",""7138""
","
","","","480.90000000596046","","","24","14923","6069","m","elianto","#f73b6a7A"," "," ","1","0","[1334.5]","1","2","","","14923","47","0","3","lose","go","0"
"pit-trial","166","1230766","0.0-52.0","battery-v0.2","","""event"",""trial"",""time""
""fullscreenenter"",""1"",""7138""
","
","
","""event"",""trial"",""time""
""fullscreenenter"",""1"",""7138""
","
","","","-1","","","24","14923","6069","h","elianto","#f73b6a7A","-1","-1","1","0","[]","0","2","","","14923","48","3","4","lose","no-go","0"
"pit-trial","167","1234645","0.0-53.0","battery-v0.2","","""event"",""trial"",""time""
""fullscreenenter"",""1"",""7138""
","
","
","""event"",""trial"",""time""
""fullscreenenter"",""1"",""7138""
","
","","","1011.5","","","24","14923","6069","y","elianto","#f73b6a7A"," "," ","1","0","[1868.4000000059605]","1","2","","","14923","49","2","3","lose","go","0"
"pit-trial","168","1239509","0.0-54.0","battery-v0.2","","""event"",""trial"",""time""
""fullscreenenter"",""1"",""7138""
","
","
","""event"",""trial"",""time""
""fullscreenenter"",""1"",""7138""
","
","","","-1","","","24","14923","6069","r","elianto","#3366ff99","-1","-1","1","0","[3484.9000000059605]","1","2","","","14923","50","1","2","win","no-go","1"
"pit-trial","169","1244374","0.0-55.0","battery-v0.2","","""event"",""trial"",""time""
""fullscreenenter"",""1"",""7138""
","
","
","""event"",""trial"",""time""
""fullscreenenter"",""1"",""7138""
","
","","","-1","","","24","14923","6069","h","elianto","#f73b6a7A","-1","-1","1","0","[]","0","2","","","14923","51","3","4","lose","no-go","0"
"pit-trial","170","1247694","0.0-56.0","battery-v0.2","","""event"",""trial"",""time""
""fullscreenenter"",""1"",""7138""
","
","
","""event"",""trial"",""time""
""fullscreenenter"",""1"",""7138""
","
","","","461.90000000596046","","","24","14923","6069","m","elianto","#f73b6a7A"," "," ","1","0","[1312.0999999940395]","1","2","","","14923","52","0","3","lose","go","0"
"pit-trial","171","1251773","0.0-57.0","battery-v0.2","","""event"",""trial"",""time""
""fullscreenenter"",""1"",""7138""
","
","
","""event"",""trial"",""time""
""fullscreenenter"",""1"",""7138""
","
","","","1204.5","","","24","14923","6069","r","elianto","#3366ff99","-1"," ","0","0","[2065.5]","1","2","","","14923","53","1","2","win","no-go","0"
"pit-trial","172","1255071","0.0-58.0","battery-v0.2","","""event"",""trial"",""time""
""fullscreenenter"",""1"",""7138""
","
","
","""event"",""trial"",""time""
""fullscreenenter"",""1"",""7138""
","
","","","435","","","24","14923","6069","y","elianto","#f73b6a7A"," "," ","1","0","[1286.300000011921]","1","2","","","14923","54","2","3","lose","go","0"
"pit-trial","173","1259943","0.0-59.0","battery-v0.2","","""event"",""trial"",""time""
""fullscreenenter"",""1"",""7138""
","
","
","""event"",""trial"",""time""
""fullscreenenter"",""1"",""7138""
","
","","","-1","","","24","14923","6069","h","elianto","#f73b6a7A","-1","-1","1","0","[]","0","2","","","14923","55","3","4","lose","no-go","0"
"pit-trial","174","1263343","0.0-60.0","battery-v0.2","","""event"",""trial"",""time""
""fullscreenenter"",""1"",""7138""
","
","
","""event"",""trial"",""time""
""fullscreenenter"",""1"",""7138""
","
","","","537.1999999880791","","","24","14923","6069","m","elianto","#f73b6a7A"," "," ","1","0","[1387.5]","1","2","","","14923","56","0","3","lose","go","0"
"pit-trial","175","1268213","0.0-61.0","battery-v0.2","","""event"",""trial"",""time""
""fullscreenenter"",""1"",""7138""
","
","
","""event"",""trial"",""time""
""fullscreenenter"",""1"",""7138""
","
","","","-1","","","24","14923","6069","h","elianto","#f73b6a7A","-1","-1","1","-10","[]","0","2","","","14923","57","3","4","lose","no-go","1"
"pit-trial","176","1272116","0.0-62.0","battery-v0.2","","""event"",""trial"",""time""
""fullscreenenter"",""1"",""7138""
","
","
","""event"",""trial"",""time""
""fullscreenenter"",""1"",""7138""
","
","","","1043.1000000089407","","","24","14923","6069","z","elianto","#3366ff99"," "," ","1","+10","[1894.8999999910593]","1","2","","","14923","58","4","1","win","go","0"
"pit-trial","177","1275797","0.0-63.0","battery-v0.2","","""event"",""trial"",""time""
""fullscreenenter"",""1"",""7138""
","
","
","""event"",""trial"",""time""
""fullscreenenter"",""1"",""7138""
","
","","","817.7999999970198","","","24","14923","6069","y","elianto","#f73b6a7A"," "," ","1","-10","[1668.5999999940395]","1","2","","","14923","59","2","3","lose","go","1"
"pit-trial","178","1279198","0.0-64.0","battery-v0.2","","""event"",""trial"",""time""
""fullscreenenter"",""1"",""7138""
","
","
","""event"",""trial"",""time""
""fullscreenenter"",""1"",""7138""
","
","","","538.4000000059605","","","24","14923","6069","m","elianto","#f73b6a7A"," "," ","1","0","[1390.7999999970198]","1","2","","","14923","60","0","3","lose","go","0"
"pit-trial","179","1282611","0.0-65.0","battery-v0.2","","""event"",""trial"",""time""
""fullscreenenter"",""1"",""7138""
","
","
","""event"",""trial"",""time""
""fullscreenenter"",""1"",""7138""
","
","","","553.1999999880791","","","24","14923","6069","z","elianto","#3366ff99"," "," ","1","+10","[1404.199999988079]","1","2","","","14923","61","4","1","win","go","0"
"pit-trial","180","1286094","0.0-66.0","battery-v0.2","","""event"",""trial"",""time""
""fullscreenenter"",""1"",""7138""
","
","
","""event"",""trial"",""time""
""fullscreenenter"",""1"",""7138""
","
","","","620.7999999970198","","","24","14923","6069","y","elianto","#f73b6a7A"," "," ","1","0","[1474.7999999970198]","1","2","","","14923","62","2","3","lose","go","0"
"pit-trial","181","1290958","0.0-67.0","battery-v0.2","","""event"",""trial"",""time""
""fullscreenenter"",""1"",""7138""
","
","
","""event"",""trial"",""time""
""fullscreenenter"",""1"",""7138""
","
","","","-1","","","24","14923","6069","h","elianto","#f73b6a7A","-1","-1","1","0","[]","0","2","","","14923","63","3","4","lose","no-go","0"
"pit-trial","182","1295821","0.0-68.0","battery-v0.2","","""event"",""trial"",""time""
""fullscreenenter"",""1"",""7138""
","
","
","""event"",""trial"",""time""
""fullscreenenter"",""1"",""7138""
","
","","","-1","","","24","14923","6069","r","elianto","#3366ff99","-1","-1","1","+10","[]","0","2","","","14923","64","1","2","win","no-go","0"
"pit-trial","183","1299528","0.0-69.0","battery-v0.2","","""event"",""trial"",""time""
""fullscreenenter"",""1"",""7138""
","
","
","""event"",""trial"",""time""
""fullscreenenter"",""1"",""7138""
","
","","","841.7000000029802","","","24","14923","6069","c","elianto","#3366ff99","-1"," ","0","0","[1693.7000000029802]","1","2","","","14923","65","5","2","win","no-go","0"
"pit-trial","184","1304398","0.0-70.0","battery-v0.2","","""event"",""trial"",""time""
""fullscreenenter"",""1"",""7138""
","
","
","""event"",""trial"",""time""
""fullscreenenter"",""1"",""7138""
","
","","","-1","","","24","14923","6069","h","elianto","#f73b6a7A","-1","-1","1","-10","[]","0","2","","","14923","66","3","4","lose","no-go","1"
"pit-trial","185","1308015","0.0-71.0","battery-v0.2","","""event"",""trial"",""time""
""fullscreenenter"",""1"",""7138""
","
","
","""event"",""trial"",""time""
""fullscreenenter"",""1"",""7138""
","
","","","751.5","","","24","14923","6069","z","elianto","#3366ff99"," "," ","1","+10","[1604.2999999970198]","1","2","","","14923","67","4","1","win","go","0"
"pit-trial","186","1312885","0.0-72.0","battery-v0.2","","""event"",""trial"",""time""
""fullscreenenter"",""1"",""7138""
","
","
","""event"",""trial"",""time""
""fullscreenenter"",""1"",""7138""
","
","","","-1","","","24","14923","6069","r","elianto","#3366ff99","-1","-1","1","+10","[]","0","2","","","14923","68","1","2","win","no-go","0"
"pit-trial","187","1317750","0.0-73.0","battery-v0.2","","""event"",""trial"",""time""
""fullscreenenter"",""1"",""7138""
","
","
","""event"",""trial"",""time""
""fullscreenenter"",""1"",""7138""
","
","","","-1","","","24","14923","6069","c","elianto","#3366ff99","-1","-1","1","+10","[]","0","2","","","14923","69","5","2","win","no-go","0"
"pit-trial","188","1321574","0.0-74.0","battery-v0.2","","""event"",""trial"",""time""
""fullscreenenter"",""1"",""7138""
","
","
","""event"",""trial"",""time""
""fullscreenenter"",""1"",""7138""
","
","","","963.3999999910593","","","24","14923","6069","y","elianto","#f73b6a7A"," "," ","1","0","[1817.7999999970198]","1","2","","","14923","70","2","3","lose","go","0"
"pit-trial","189","1326438","0.0-75.0","battery-v0.2","","""event"",""trial"",""time""
""fullscreenenter"",""1"",""7138""
","
","
","""event"",""trial"",""time""
""fullscreenenter"",""1"",""7138""
","
","","","-1","","","24","14923","6069","r","elianto","#3366ff99","-1","-1","1","+10","[]","0","2","","","14923","71","1","2","win","no-go","0"
"pit-trial","190","1329847","0.0-76.0","battery-v0.2","","""event"",""trial"",""time""
""fullscreenenter"",""1"",""7138""
","
","
","""event"",""trial"",""time""
""fullscreenenter"",""1"",""7138""
","
","","","549.8000000119209","","","24","14923","6069","z","elianto","#3366ff99"," "," ","1","+10","[1401.300000011921]","1","2","","","14923","72","4","1","win","go","0"
"pit-trial","191","1334712","0.0-77.0","battery-v0.2","","""event"",""trial"",""time""
""fullscreenenter"",""1"",""7138""
","
","
","""event"",""trial"",""time""
""fullscreenenter"",""1"",""7138""
","
","","","-1","","","24","14923","6069","h","elianto","#f73b6a7A","-1","-1","1","0","[]","0","2","","","14923","73","3","4","lose","no-go","0"
"pit-trial","192","1338375","0.0-78.0","battery-v0.2","","""event"",""trial"",""time""
""fullscreenenter"",""1"",""7138""
","
","
","""event"",""trial"",""time""
""fullscreenenter"",""1"",""7138""
","
","","","794.7000000029802","","","24","14923","6069","z","elianto","#3366ff99"," "," ","1","+10","[1652.4000000059605]","1","2","","","14923","74","4","1","win","go","0"
"pit-trial","193","1343244","0.0-79.0","battery-v0.2","","""event"",""trial"",""time""
""fullscreenenter"",""1"",""7138""
","
","
","""event"",""trial"",""time""
""fullscreenenter"",""1"",""7138""
","
","","","-1","","","24","14923","6069","c","elianto","#3366ff99","-1","-1","1","0","[]","0","2","","","14923","75","5","2","win","no-go","1"
"pit-trial","194","1348109","0.0-80.0","battery-v0.2","","""event"",""trial"",""time""
""fullscreenenter"",""1"",""7138""
","
","
","""event"",""trial"",""time""
""fullscreenenter"",""1"",""7138""
","
","","","-1","","","24","14923","6069","r","elianto","#3366ff99","-1","-1","1","+10","[]","0","2","","","14923","76","1","2","win","no-go","0"
"pit-trial","195","1352975","0.0-81.0","battery-v0.2","","""event"",""trial"",""time""
""fullscreenenter"",""1"",""7138""
","
","
","""event"",""trial"",""time""
""fullscreenenter"",""1"",""7138""
","
","","","-1","","","24","14923","6069","h","elianto","#f73b6a7A","-1","-1","1","0","[]","0","2","","","14923","77","3","4","lose","no-go","0"
"pit-trial","196","1357845","0.0-82.0","battery-v0.2","","""event"",""trial"",""time""
""fullscreenenter"",""1"",""7138""
","
","
","""event"",""trial"",""time""
""fullscreenenter"",""1"",""7138""
","
","","","-1","","","24","14923","6069","c","elianto","#3366ff99","-1","-1","1","0","[]","0","2","","","14923","78","5","2","win","no-go","1"
"pit-trial","197","1361653","0.0-83.0","battery-v0.2","","""event"",""trial"",""time""
""fullscreenenter"",""1"",""7138""
","
","
","""event"",""trial"",""time""
""fullscreenenter"",""1"",""7138""
","
","","","947.1999999880791","","","24","14923","6069","z","elianto","#3366ff99"," "," ","1","+10","[1803.199999988079]","1","2","","","14923","79","4","1","win","go","0"
"pit-trial","198","1365191","0.0-84.0","battery-v0.2","","""event"",""trial"",""time""
""fullscreenenter"",""1"",""7138""
","
","
","""event"",""trial"",""time""
""fullscreenenter"",""1"",""7138""
","
","","","676.2999999970198","","","24","14923","6069","z","elianto","#3366ff99"," "," ","1","+10","[1529]","1","2","","","14923","80","4","1","win","go","0"
"pit-trial","199","1370053","0.0-85.0","battery-v0.2","","""event"",""trial"",""time""
""fullscreenenter"",""1"",""7138""
","
","
","""event"",""trial"",""time""
""fullscreenenter"",""1"",""7138""
","
","","","-1","","","24","14923","6069","c","elianto","#3366ff99","-1","-1","1","+10","[]","0","2","","","14923","81","5","2","win","no-go","0"
"pit-trial","200","1373935","0.0-86.0","battery-v0.2","","""event"",""trial"",""time""
""fullscreenenter"",""1"",""7138""
","
","
","""event"",""trial"",""time""
""fullscreenenter"",""1"",""7138""
","
","","","1018.2000000029802","","","24","14923","6069","t","elianto","#f73b6a7A","-1"," ","0","-10","[1873.0999999940395]","1","2","","","14923","82","7","4","lose","no-go","0"
"pit-trial","201","1377398","0.0-87.0","battery-v0.2","","""event"",""trial"",""time""
""fullscreenenter"",""1"",""7138""
","
","
","""event"",""trial"",""time""
""fullscreenenter"",""1"",""7138""
","
","","","600.1000000089407","","","24","14923","6069","z","elianto","#3366ff99"," "," ","1","+10","[1451.7999999970198]","1","2","","","14923","83","4","1","win","go","0"
"pit-trial","202","1382261","0.0-88.0","battery-v0.2","","""event"",""trial"",""time""
""fullscreenenter"",""1"",""7138""
","
","
","""event"",""trial"",""time""
""fullscreenenter"",""1"",""7138""
","
","","","-1","","","24","14923","6069","h","elianto","#f73b6a7A","-1","-1","1","-10","[]","0","2","","","14923","84","3","4","lose","no-go","1"
"pit-trial","203","1385791","0.0-89.0","battery-v0.2","","""event"",""trial"",""time""
""fullscreenenter"",""1"",""7138""
","
","
","""event"",""trial"",""time""
""fullscreenenter"",""1"",""7138""
","
","","","666","","","24","14923","6069","z","elianto","#3366ff99"," "," ","1","+10","[1516.800000011921]","1","2","","","14923","85","4","1","win","go","0"
"pit-trial","204","1390656","0.0-90.0","battery-v0.2","","""event"",""trial"",""time""
""fullscreenenter"",""1"",""7138""
","
","
","""event"",""trial"",""time""
""fullscreenenter"",""1"",""7138""
","
","","","-1","","","24","14923","6069","t","elianto","#f73b6a7A","-1","-1","1","0","[]","0","2","","","14923","86","7","4","lose","no-go","0"
"pit-trial","205","1394470","0.0-91.0","battery-v0.2","","""event"",""trial"",""time""
""fullscreenenter"",""1"",""7138""
","
","
","""event"",""trial"",""time""
""fullscreenenter"",""1"",""7138""
","
","","","948.5999999940395","","","24","14923","6069","b","elianto","#f73b6a7A"," "," ","1","-10","[1808.5]","1","2","","","14923","87","6","3","lose","go","1"
"pit-trial","206","1399335","0.0-92.0","battery-v0.2","","""event"",""trial"",""time""
""fullscreenenter"",""1"",""7138""
","
","
","""event"",""trial"",""time""
""fullscreenenter"",""1"",""7138""
","
","","","-1","","","24","14923","6069","c","elianto","#3366ff99","-1","-1","1","+10","[]","0","2","","","14923","88","5","2","win","no-go","0"
"pit-trial","207","1404200","0.0-93.0","battery-v0.2","","""event"",""trial"",""time""
""fullscreenenter"",""1"",""7138""
","
","
","""event"",""trial"",""time""
""fullscreenenter"",""1"",""7138""
","
","","","-1","","","24","14923","6069","c","elianto","#3366ff99","-1","-1","1","+10","[]","0","2","","","14923","89","5","2","win","no-go","0"
"pit-trial","208","1407720","0.0-94.0","battery-v0.2","","""event"",""trial"",""time""
""fullscreenenter"",""1"",""7138""
","
","
","""event"",""trial"",""time""
""fullscreenenter"",""1"",""7138""
","
","","","654.6000000089407","","","24","14923","6069","z","elianto","#3366ff99"," "," ","1","+10","[1506.2000000029802]","1","2","","","14923","90","4","1","win","go","0"
"pit-trial","209","1412592","0.0-95.0","battery-v0.2","","""event"",""trial"",""time""
""fullscreenenter"",""1"",""7138""
","
","
","""event"",""trial"",""time""
""fullscreenenter"",""1"",""7138""
","
","","","-1","","","24","14923","6069","t","elianto","#f73b6a7A","-1","-1","1","0","[]","0","2","","","14923","91","7","4","lose","no-go","0"
"pit-trial","210","1417464","0.0-96.0","battery-v0.2","","""event"",""trial"",""time""
""fullscreenenter"",""1"",""7138""
","
","
","""event"",""trial"",""time""
""fullscreenenter"",""1"",""7138""
","
","","","-1","","","24","14923","6069","b","elianto","#f73b6a7A"," ","-1","0","-10","[]","0","2","","","14923","92","6","3","lose","go","0"
"pit-trial","211","1421108","0.0-97.0","battery-v0.2","","""event"",""trial"",""time""
""fullscreenenter"",""1"",""7138""
","
","
","""event"",""trial"",""time""
""fullscreenenter"",""1"",""7138""
","
","","","783.2999999970198","","","24","14923","6069","b","elianto","#f73b6a7A"," "," ","1","0","[1634.5999999940395]","1","2","","","14923","93","6","3","lose","go","0"
"pit-trial","212","1424840","0.0-98.0","battery-v0.2","","""event"",""trial"",""time""
""fullscreenenter"",""1"",""7138""
","
","
","""event"",""trial"",""time""
""fullscreenenter"",""1"",""7138""
","
","","","870.1999999880791","","","24","14923","6069","f","elianto","#3366ff99"," "," ","1","+10","[1722.0999999940395]","1","2","","","14923","94","8","1","win","go","0"
"pit-trial","213","1429711","0.0-99.0","battery-v0.2","","""event"",""trial"",""time""
""fullscreenenter"",""1"",""7138""
","
","
","""event"",""trial"",""time""
""fullscreenenter"",""1"",""7138""
","
","","","-1","","","24","14923","6069","t","elianto","#f73b6a7A","-1","-1","1","0","[]","0","2","","","14923","95","7","4","lose","no-go","0"
"pit-trial","214","1434576","0.0-100.0","battery-v0.2","","""event"",""trial"",""time""
""fullscreenenter"",""1"",""7138""
","
","
","""event"",""trial"",""time""
""fullscreenenter"",""1"",""7138""
","
","","","-1","","","24","14923","6069","c","elianto","#3366ff99","-1","-1","1","+10","[]","0","2","","","14923","96","5","2","win","no-go","0"
"pit-trial","215","1439447","0.0-101.0","battery-v0.2","","""event"",""trial"",""time""
""fullscreenenter"",""1"",""7138""
","
","
","""event"",""trial"",""time""
""fullscreenenter"",""1"",""7138""
","
","","","-1","","","24","14923","6069","t","elianto","#f73b6a7A","-1","-1","1","0","[]","0","2","","","14923","97","7","4","lose","no-go","0"
"pit-trial","216","1444312","0.0-102.0","battery-v0.2","","""event"",""trial"",""time""
""fullscreenenter"",""1"",""7138""
","
","
","""event"",""trial"",""time""
""fullscreenenter"",""1"",""7138""
","
","","","-1","","","24","14923","6069","c","elianto","#3366ff99","-1","-1","1","0","[]","0","2","","","14923","98","5","2","win","no-go","1"
"pit-trial","217","1448125","0.0-103.0","battery-v0.2","","""event"",""trial"",""time""
""fullscreenenter"",""1"",""7138""
","
","
","""event"",""trial"",""time""
""fullscreenenter"",""1"",""7138""
","
","","","952.2000000029802","","","24","14923","6069","f","elianto","#3366ff99"," "," ","1","0","[1802.6000000089407]","1","2","","","14923","99","8","1","win","go","1"
"pit-trial","218","1452014","0.0-104.0","battery-v0.2","","""event"",""trial"",""time""
""fullscreenenter"",""1"",""7138""
","
","
","""event"",""trial"",""time""
""fullscreenenter"",""1"",""7138""
","
","","","1030.5","","","24","14923","6069","b","elianto","#f73b6a7A"," "," ","1","0","[1882.7000000029802]","1","2","","","14923","100","6","3","lose","go","0"
"pit-trial","219","1456881","0.0-105.0","battery-v0.2","","""event"",""trial"",""time""
""fullscreenenter"",""1"",""7138""
","
","
","""event"",""trial"",""time""
""fullscreenenter"",""1"",""7138""
","
","","","-1","","","24","14923","6069","t","elianto","#f73b6a7A","-1","-1","1","0","[]","0","2","","","14923","101","7","4","lose","no-go","0"
"pit-trial","220","1460945","0.0-106.0","battery-v0.2","","""event"",""trial"",""time""
""fullscreenenter"",""1"",""7138""
","
","
","""event"",""trial"",""time""
""fullscreenenter"",""1"",""7138""
","
","","","1199.2000000029802","","","24","14923","6069","c","elianto","#3366ff99","-1"," ","0","0","[2051.4000000059605]","1","2","","","14923","102","5","2","win","no-go","0"
"pit-trial","221","1465376","0.0-107.0","battery-v0.2","","""event"",""trial"",""time""
""fullscreenenter"",""1"",""7138""
","
","
","""event"",""trial"",""time""
""fullscreenenter"",""1"",""7138""
","
","","","1566","","","24","14923","6069","n","elianto","#3366ff99"," "," ","1","+10","[2424.7000000029802]","1","2","","","14923","103","9","1","win","go","0"
"pit-trial","222","1468983","0.0-108.0","battery-v0.2","","""event"",""trial"",""time""
""fullscreenenter"",""1"",""7138""
","
","
","""event"",""trial"",""time""
""fullscreenenter"",""1"",""7138""
","
","","","743.5999999940395","","","24","14923","6069","f","elianto","#3366ff99"," "," ","1","+10","[1595.0999999940395]","1","2","","","14923","104","8","1","win","go","0"
"pit-trial","223","1472809","0.0-109.0","battery-v0.2","","""event"",""trial"",""time""
""fullscreenenter"",""1"",""7138""
","
","
","""event"",""trial"",""time""
""fullscreenenter"",""1"",""7138""
","
","","","963.7999999970198","","","24","14923","6069","n","elianto","#3366ff99"," "," ","1","+10","[1815.7999999970198]","1","2","","","14923","105","9","1","win","go","0"
"pit-trial","224","1476400","0.0-110.0","battery-v0.2","","""event"",""trial"",""time""
""fullscreenenter"",""1"",""7138""
","
","
","""event"",""trial"",""time""
""fullscreenenter"",""1"",""7138""
","
","","","724","","","24","14923","6069","z","elianto","#3366ff99"," "," ","1","+10","[1581]","1","2","","","14923","106","4","1","win","go","0"
"pit-trial","225","1480024","0.0-111.0","battery-v0.2","","""event"",""trial"",""time""
""fullscreenenter"",""1"",""7138""
","
","
","""event"",""trial"",""time""
""fullscreenenter"",""1"",""7138""
","
","","","762.0999999940395","","","24","14923","6069","f","elianto","#3366ff99"," "," ","1","+10","[1612.0999999940395]","1","2","","","14923","107","8","1","win","go","0"
"pit-trial","226","1484303","0.0-112.0","battery-v0.2","","""event"",""trial"",""time""
""fullscreenenter"",""1"",""7138""
","
","
","""event"",""trial"",""time""
""fullscreenenter"",""1"",""7138""
","
","","","1420.6000000089407","","","24","14923","6069","b","elianto","#f73b6a7A"," "," ","1","0","[2272.0999999940395]","1","2","","","14923","108","6","3","lose","go","0"
"pit-trial","227","1489167","0.0-113.0","battery-v0.2","","""event"",""trial"",""time""
""fullscreenenter"",""1"",""7138""
","
","
","""event"",""trial"",""time""
""fullscreenenter"",""1"",""7138""
","
","","","-1","","","24","14923","6069","c","elianto","#3366ff99","-1","-1","1","+10","[]","0","2","","","14923","109","5","2","win","no-go","0"
"pit-trial","228","1492888","0.0-114.0","battery-v0.2","","""event"",""trial"",""time""
""fullscreenenter"",""1"",""7138""
","
","
","""event"",""trial"",""time""
""fullscreenenter"",""1"",""7138""
","
","","","855.9000000059605","","","24","14923","6069","b","elianto","#f73b6a7A"," "," ","1","0","[1708.4000000059605]","1","2","","","14923","110","6","3","lose","go","0"
"pit-trial","229","1496546","0.0-115.0","battery-v0.2","","""event"",""trial"",""time""
""fullscreenenter"",""1"",""7138""
","
","
","""event"",""trial"",""time""
""fullscreenenter"",""1"",""7138""
","
","","","792.2000000029802","","","24","14923","6069","n","elianto","#3366ff99"," "," ","1","+10","[1643.4000000059605]","1","2","","","14923","111","9","1","win","go","0"
"pit-trial","230","1499953","0.0-116.0","battery-v0.2","","""event"",""trial"",""time""
""fullscreenenter"",""1"",""7138""
","
","
","""event"",""trial"",""time""
""fullscreenenter"",""1"",""7138""
","
","","","540.8999999910593","","","24","14923","6069","f","elianto","#3366ff99"," "," ","1","+10","[1395.7999999970198]","1","2","","","14923","112","8","1","win","go","0"
"pit-trial","231","1504824","0.0-117.0","battery-v0.2","","""event"",""trial"",""time""
""fullscreenenter"",""1"",""7138""
","
","
","""event"",""trial"",""time""
""fullscreenenter"",""1"",""7138""
","
","","","-1","","","24","14923","6069","c","elianto","#3366ff99","-1","-1","1","+10","[]","0","2","","","14923","113","5","2","win","no-go","0"
"pit-trial","232","1508345","0.0-118.0","battery-v0.2","","""event"",""trial"",""time""
""fullscreenenter"",""1"",""7138""
","
","
","""event"",""trial"",""time""
""fullscreenenter"",""1"",""7138""
","
","","","658.4000000059605","","","24","14923","6069","b","elianto","#f73b6a7A"," "," ","1","-10","[1509.2000000029802]","1","2","","","14923","114","6","3","lose","go","1"
"pit-trial","233","1511849","0.0-119.0","battery-v0.2","","""event"",""trial"",""time""
""fullscreenenter"",""1"",""7138""
","
","
","""event"",""trial"",""time""
""fullscreenenter"",""1"",""7138""
","
","","","638.9000000059605","","","24","14923","6069","f","elianto","#3366ff99"," "," ","1","+10","[1491.2000000029802]","1","2","","","14923","115","8","1","win","go","0"
"pit-trial","234","1515377","0.0-120.0","battery-v0.2","","""event"",""trial"",""time""
""fullscreenenter"",""1"",""7138""
","
","
","""event"",""trial"",""time""
""fullscreenenter"",""1"",""7138""
","
","","","659.2999999970198","","","24","14923","6069","n","elianto","#3366ff99"," "," ","1","+10","[1517.4000000059605]","1","2","","","14923","116","9","1","win","go","0"
"pit-trial","235","1518784","0.0-121.0","battery-v0.2","","""event"",""trial"",""time""
""fullscreenenter"",""1"",""7138""
","
","
","""event"",""trial"",""time""
""fullscreenenter"",""1"",""7138""
","
","","","541.8999999910593","","","24","14923","6069","f","elianto","#3366ff99"," "," ","1","+10","[1399.5]","1","2","","","14923","117","8","1","win","go","0"
"pit-trial","236","1523649","0.0-122.0","battery-v0.2","","""event"",""trial"",""time""
""fullscreenenter"",""1"",""7138""
","
","
","""event"",""trial"",""time""
""fullscreenenter"",""1"",""7138""
","
","","","-1","","","24","14923","6069","c","elianto","#3366ff99","-1","-1","1","0","[]","0","2","","","14923","118","5","2","win","no-go","1"
"pit-trial","237","1527161","0.0-123.0","battery-v0.2","","""event"",""trial"",""time""
""fullscreenenter"",""1"",""7138""
","
","
","""event"",""trial"",""time""
""fullscreenenter"",""1"",""7138""
","
","","","653.7000000029802","","","24","14923","6069","n","elianto","#3366ff99"," "," ","1","+10","[1505]","1","2","","","14923","119","9","1","win","go","0"
"pit-trial","238","1530681","0.0-124.0","battery-v0.2","","""event"",""trial"",""time""
""fullscreenenter"",""1"",""7138""
","
","
","""event"",""trial"",""time""
""fullscreenenter"",""1"",""7138""
","
","","","657.9000000059605","","","24","14923","6069","b","elianto","#f73b6a7A"," "," ","1","0","[1508.4000000059605]","1","2","","","14923","120","6","3","lose","go","0"
"pit-trial","239","1534226","0.0-125.0","battery-v0.2","","""event"",""trial"",""time""
""fullscreenenter"",""1"",""7138""
","
","
","""event"",""trial"",""time""
""fullscreenenter"",""1"",""7138""
","
","","","680.8999999910593","","","24","14923","6069","f","elianto","#3366ff99"," "," ","1","+10","[1532.7999999970198]","1","2","","","14923","121","8","1","win","go","0"
"pit-trial","240","1539096","0.0-126.0","battery-v0.2","","""event"",""trial"",""time""
""fullscreenenter"",""1"",""7138""
","
","
","""event"",""trial"",""time""
""fullscreenenter"",""1"",""7138""
","
","","","-1","","","24","14923","6069","t","elianto","#f73b6a7A","-1","-1","1","0","[]","0","2","","","14923","122","7","4","lose","no-go","0"
"pit-trial","241","1542622","0.0-127.0","battery-v0.2","","""event"",""trial"",""time""
""fullscreenenter"",""1"",""7138""
","
","
","""event"",""trial"",""time""
""fullscreenenter"",""1"",""7138""
","
","","","670.6000000089407","","","24","14923","6069","b","elianto","#f73b6a7A"," "," ","1","0","[1522.7000000029802]","1","2","","","14923","123","6","3","lose","go","0"
"pit-trial","242","1546026","0.0-128.0","battery-v0.2","","""event"",""trial"",""time""
""fullscreenenter"",""1"",""7138""
","
","
","""event"",""trial"",""time""
""fullscreenenter"",""1"",""7138""
","
","","","541.2999999970198","","","24","14923","6069","n","elianto","#3366ff99"," "," ","1","+10","[1395.6000000089407]","1","2","","","14923","124","9","1","win","go","0"
"pit-trial","243","1549521","0.0-129.0","battery-v0.2","","""event"",""trial"",""time""
""fullscreenenter"",""1"",""7138""
","
","
","""event"",""trial"",""time""
""fullscreenenter"",""1"",""7138""
","
","","","629.0999999940395","","","24","14923","6069","f","elianto","#3366ff99"," "," ","1","0","[1485.3999999910593]","1","2","","","14923","125","8","1","win","go","1"
"pit-trial","244","1553027","0.0-130.0","battery-v0.2","","""event"",""trial"",""time""
""fullscreenenter"",""1"",""7138""
","
","
","""event"",""trial"",""time""
""fullscreenenter"",""1"",""7138""
","
","","","642.7999999970198","","","24","14923","6069","n","elianto","#3366ff99"," "," ","1","0","[1495.2999999970198]","1","2","","","14923","126","9","1","win","go","1"
"pit-trial","245","1557897","0.0-131.0","battery-v0.2","","""event"",""trial"",""time""
""fullscreenenter"",""1"",""7138""
","
","
","""event"",""trial"",""time""
""fullscreenenter"",""1"",""7138""
","
","","","-1","","","24","14923","6069","t","elianto","#f73b6a7A","-1","-1","1","0","[]","0","2","","","14923","127","7","4","lose","no-go","0"
"pit-trial","246","1561345","0.0-132.0","battery-v0.2","","""event"",""trial"",""time""
""fullscreenenter"",""1"",""7138""
","
","
","""event"",""trial"",""time""
""fullscreenenter"",""1"",""7138""
","
","","","575.1000000089407","","","24","14923","6069","b","elianto","#f73b6a7A"," "," ","1","0","[1434.7000000029802]","1","2","","","14923","128","6","3","lose","go","0"
"pit-trial","247","1564906","0.0-133.0","battery-v0.2","","""event"",""trial"",""time""
""fullscreenenter"",""1"",""7138""
","
","
","""event"",""trial"",""time""
""fullscreenenter"",""1"",""7138""
","
","","","698.2999999970198","","","24","14923","6069","b","elianto","#f73b6a7A"," "," ","1","0","[1550.2999999970198]","1","2","","","14923","129","6","3","lose","go","0"
"pit-trial","248","1568330","0.0-134.0","battery-v0.2","","""event"",""trial"",""time""
""fullscreenenter"",""1"",""7138""
","
","
","""event"",""trial"",""time""
""fullscreenenter"",""1"",""7138""
","
","","","555.5","","","24","14923","6069","n","elianto","#3366ff99"," "," ","1","+10","[1411.5999999940395]","1","2","","","14923","130","9","1","win","go","0"
"pit-trial","249","1573194","0.0-135.0","battery-v0.2","","""event"",""trial"",""time""
""fullscreenenter"",""1"",""7138""
","
","
","""event"",""trial"",""time""
""fullscreenenter"",""1"",""7138""
","
","","","-1","","","24","14923","6069","t","elianto","#f73b6a7A","-1","-1","1","-10","[]","0","2","","","14923","131","7","4","lose","no-go","1"
"pit-trial","250","1576969","0.0-136.0","battery-v0.2","","""event"",""trial"",""time""
""fullscreenenter"",""1"",""7138""
","
","
","""event"",""trial"",""time""
""fullscreenenter"",""1"",""7138""
","
","","","911.2000000029802","","","24","14923","6069","f","elianto","#3366ff99"," "," ","1","+10","[1763.4000000059605]","1","2","","","14923","132","8","1","win","go","0"
"pit-trial","251","1581833","0.0-137.0","battery-v0.2","","""event"",""trial"",""time""
""fullscreenenter"",""1"",""7138""
","
","
","""event"",""trial"",""time""
""fullscreenenter"",""1"",""7138""
","
","","","-1","","","24","14923","6069","n","elianto","#3366ff99"," ","-1","0","0","[3978.7000000029802]","1","2","","","14923","133","9","1","win","go","0"
"pit-trial","252","1586698","0.0-138.0","battery-v0.2","","""event"",""trial"",""time""
""fullscreenenter"",""1"",""7138""
","
","
","""event"",""trial"",""time""
""fullscreenenter"",""1"",""7138""
","
","","","-1","","","24","14923","6069","t","elianto","#f73b6a7A","-1","-1","1","0","[]","0","2","","","14923","134","7","4","lose","no-go","0"
"pit-trial","253","1590779","0.0-139.0","battery-v0.2","","""event"",""trial"",""time""
""fullscreenenter"",""1"",""7138""
","
","
","""event"",""trial"",""time""
""fullscreenenter"",""1"",""7138""
","
","","","1220.7999999970198","","","24","14923","6069","b","elianto","#f73b6a7A"," "," ","1","0","[2071.199999988079]","1","2","","","14923","135","6","3","lose","go","0"
"pit-trial","254","1594123","0.0-140.0","battery-v0.2","","""event"",""trial"",""time""
""fullscreenenter"",""1"",""7138""
","
","
","""event"",""trial"",""time""
""fullscreenenter"",""1"",""7138""
","
","","","484.3999999910593","","","24","14923","6069","f","elianto","#3366ff99"," "," ","1","+10","[1335.2999999970198]","1","2","","","14923","136","8","1","win","go","0"
"pit-trial","255","1597459","0.0-141.0","battery-v0.2","","""event"",""trial"",""time""
""fullscreenenter"",""1"",""7138""
","
","
","""event"",""trial"",""time""
""fullscreenenter"",""1"",""7138""
","
","","","475.5","","","24","14923","6069","n","elianto","#3366ff99"," "," ","1","+10","[1329.3999999910593]","1","2","","","14923","137","9","1","win","go","0"
"pit-trial","256","1602331","0.0-142.0","battery-v0.2","","""event"",""trial"",""time""
""fullscreenenter"",""1"",""7138""
","
","
","""event"",""trial"",""time""
""fullscreenenter"",""1"",""7138""
","
","","","-1","","","24","14923","6069","t","elianto","#f73b6a7A","-1","-1","1","0","[]","0","2","","","14923","138","7","4","lose","no-go","0"
"pit-trial","257","1605682","0.0-143.0","battery-v0.2","","""event"",""trial"",""time""
""fullscreenenter"",""1"",""7138""
","
","
","""event"",""trial"",""time""
""fullscreenenter"",""1"",""7138""
","
","","","485.80000001192093","","","24","14923","6069","f","elianto","#3366ff99"," "," ","1","0","[1343.6000000089407]","1","2","","","14923","139","8","1","win","go","1"
"pit-trial","258","1609435","0.0-144.0","battery-v0.2","","""event"",""trial"",""time""
""fullscreenenter"",""1"",""7138""
","
","
","""event"",""trial"",""time""
""fullscreenenter"",""1"",""7138""
","
","","","890.5","","","24","14923","6069","b","elianto","#f73b6a7A"," "," ","1","0","[1742.1000000089407]","1","2","","","14923","140","6","3","lose","go","0"
"pit-instructions","259","1823849","0.0-145.0","battery-v0.2","","""event"",""trial"",""time""
""fullscreenenter"",""1"",""7138""
","
","
","""event"",""trial"",""time""
""fullscreenenter"",""1"",""7138""
","
","","[{""page_index"":0,""viewing_time"":167894.29999999702},{""page_index"":1,""viewing_time"":46516.29999999702}]","214410.79999999702","","","","","","","","","","","","","","","","","","","","","","","",""
"pit-trial","260","1827252","0.0-146.0","battery-v0.2","","""event"",""trial"",""time""
""fullscreenenter"",""1"",""7138""
","
","
","""event"",""trial"",""time""
""fullscreenenter"",""1"",""7138""
","
","","","531.5","","","24","14923","6069","u","elianto","#f73b6a7A","-1"," ","0","-10","[1386.2999999970198]","1","3","","","14923","141","0","4","lose","no-go","0"
"pit-trial","261","1831524","0.0-147.0","battery-v0.2","","""event"",""trial"",""time""
""fullscreenenter"",""1"",""7138""
","
","
","""event"",""trial"",""time""
""fullscreenenter"",""1"",""7138""
","
","","","1415.3999999910593","","","24","14923","6069","a","elianto","#f73b6a7A","-1"," ","0","0","[2266.2999999970198]","1","3","","","14923","142","2","4","lose","no-go","1"
"pit-trial","262","1835925","0.0-148.0","battery-v0.2","","""event"",""trial"",""time""
""fullscreenenter"",""1"",""7138""
","
","
","""event"",""trial"",""time""
""fullscreenenter"",""1"",""7138""
","
","","","1539.3999999910593","","","24","14923","6069","g","elianto","#f73b6a7A"," "," ","1","0","[2394.7000000029802]","1","3","","","14923","143","3","3","lose","go","0"
"pit-trial","263","1839653","0.0-149.0","battery-v0.2","","""event"",""trial"",""time""
""fullscreenenter"",""1"",""7138""
","
","
","""event"",""trial"",""time""
""fullscreenenter"",""1"",""7138""
","
","","","856.5999999940395","","","24","14923","6069","l","elianto","#3366ff99"," "," ","1","+10","[1715.2000000029802]","1","3","","","14923","144","1","1","win","go","0"
"pit-trial","264","1843148","0.0-150.0","battery-v0.2","","""event"",""trial"",""time""
""fullscreenenter"",""1"",""7138""
","
","
","""event"",""trial"",""time""
""fullscreenenter"",""1"",""7138""
","
","","","625.7000000029802","","","24","14923","6069","g","elianto","#f73b6a7A"," "," ","1","0","[1484.5999999940395]","1","3","","","14923","145","3","3","lose","go","0"
"pit-trial","265","1846596","0.0-151.0","battery-v0.2","","""event"",""trial"",""time""
""fullscreenenter"",""1"",""7138""
","
","
","""event"",""trial"",""time""
""fullscreenenter"",""1"",""7138""
","
