"trial_type","trial_index","time_elapsed","internal_node_id","task_version","subject_id","interactions","blur_events","focus_events","fullscreenenter_events","fullscreenexit_events","success","view_history","rt","responses","num_errors","age","subject","participantId","rune","rune_set","hex","correct","choice","accuracy","outcome","keys","total_keys","block","practice","value","sub","trial","stimulus","robot","valence","action","sham"
"pavlovia","0","18","0.0-0.0","battery-v0.2","","""event"",""trial"",""time""
""fullscreenenter"",""1"",""3609""
","
","
","""event"",""trial"",""time""
""fullscreenenter"",""1"",""3609""
","
","","","","","","","","","","","","","","","","","","","","","","","","","","",""
"fullscreen","1","4577","0.0-1.0","battery-v0.2","","""event"",""trial"",""time""
""fullscreenenter"",""1"",""3609""
","
","
","""event"",""trial"",""time""
""fullscreenenter"",""1"",""3609""
","
","true","","","","","","","","","","","","","","","","","","","","","","","","","",""
"pit-instructions","2","9091","0.0-2.0-0.0","battery-v0.2","","""event"",""trial"",""time""
""fullscreenenter"",""1"",""3609""
","
","
","""event"",""trial"",""time""
""fullscreenenter"",""1"",""3609""
","
","","[{""page_index"":0,""viewing_time"":4505.899999976158}]","4507.599999964237","","","","","","","","","","","","","","","","","","","","","","","",""
"pit-comprehension","3","12970","0.0-2.0-1.0-0.0","battery-v0.2","","""event"",""trial"",""time""
""fullscreenenter"",""1"",""3609""
","
","
","""event"",""trial"",""time""
""fullscreenenter"",""1"",""3609""
","
","","","3870.100000023842","[""shark""]","0","14","4935","2144","","","","","","","","","","","","","","","","","","",""
"pit-instructions","4","19906","0.0-2.0-1.0-1.0","battery-v0.2","","""event"",""trial"",""time""
""fullscreenenter"",""1"",""3609""
","
","
","""event"",""trial"",""time""
""fullscreenenter"",""1"",""3609""
","
","","[{""page_index"":0,""viewing_time"":6917}]","6917.699999988079","","","","","","","","","","","","","","","","","","","","","","","",""
"pit-comprehension","5","22671","0.0-2.0-2.0-0.0","battery-v0.2","","""event"",""trial"",""time""
""fullscreenenter"",""1"",""3609""
","
","
","""event"",""trial"",""time""
""fullscreenenter"",""1"",""3609""
","
","","","2756.5","[""tiger""]","0","14","4935","2144","","","","","","","","","","","","","","","","","","",""
"pit-instructions","6","24024","0.0-2.0-2.0-1.0","battery-v0.2","","""event"",""trial"",""time""
""fullscreenenter"",""1"",""3609""
","
","
","""event"",""trial"",""time""
""fullscreenenter"",""1"",""3609""
","
","","[{""page_index"":0,""viewing_time"":1346.199999988079}]","1346.8999999761581","","","","","","","","","","","","","","","","","","","","","","","",""
"pit-instructions","7","138137","0.0-2.0-3.0","battery-v0.2","","""event"",""trial"",""time""
""fullscreenenter"",""1"",""3609""
","
","
","""event"",""trial"",""time""
""fullscreenenter"",""1"",""3609""
","
","","[{""page_index"":0,""viewing_time"":9285.100000023842},{""page_index"":1,""viewing_time"":6614.5},{""page_index"":2,""viewing_time"":7853.899999976158},{""page_index"":3,""viewing_time"":8535},{""page_index"":4,""viewing_time"":13895.600000023842},{""page_index"":5,""viewing_time"":6665.5},{""page_index"":6,""viewing_time"":7529.199999988079},{""page_index"":7,""viewing_time"":7888},{""page_index"":8,""viewing_time"":6102.599999964237},{""page_index"":9,""viewing_time"":8116.200000047684},{""page_index"":10,""viewing_time"":9480},{""page_index"":11,""viewing_time"":7830.899999976158},{""page_index"":12,""viewing_time"":7687.600000023842},{""page_index"":13,""viewing_time"":6621}]","114106.39999997616","","","","","","","","","","","","","","","","","","","","","","","",""
"pit-trial","8","141875","0.0-2.0-4.0-0.0","battery-v0.2","","""event"",""trial"",""time""
""fullscreenenter"",""1"",""3609""
","
","
","""event"",""trial"",""time""
""fullscreenenter"",""1"",""3609""
","
","","","865.6999999880791","","","14","4935","2144","&#9784;","elianto","#FFFFF080"," "," ","1","&#10004","[1715.800000011921]","1","0","0","","","","","","","",""
"pit-trial","9","145512","0.0-2.0-4.1-0.1","battery-v0.2","","""event"",""trial"",""time""
""fullscreenenter"",""1"",""3609""
","
","
","""event"",""trial"",""time""
""fullscreenenter"",""1"",""3609""
","
","","","760.9000000357628","","","14","4935","2144","&#9784;","elianto","#FFFFF080"," "," ","1","&#10004","[1618.2000000476837]","1","0","0","","","","","","","",""
"pit-trial","10","148904","0.0-2.0-4.2-0.2","battery-v0.2","","""event"",""trial"",""time""
""fullscreenenter"",""1"",""3609""
","
","
","""event"",""trial"",""time""
""fullscreenenter"",""1"",""3609""
","
","","","521.1999999880791","","","14","4935","2144","&#9784;","elianto","#FFFFF080"," "," ","1","&#10004","[1374.699999988079]","1","0","0","","","","","","","",""
"pit-trial","11","152402","0.0-2.0-4.3-0.3","battery-v0.2","","""event"",""trial"",""time""
""fullscreenenter"",""1"",""3609""
","
","
","""event"",""trial"",""time""
""fullscreenenter"",""1"",""3609""
","
","","","628.5","","","14","4935","2144","&#9784;","elianto","#FFFFF080"," "," ","1","&#10004","[1486.0999999642372]","1","0","0","","","","","","","",""
"pit-trial","12","155934","0.0-2.0-4.4-0.4","battery-v0.2","","""event"",""trial"",""time""
""fullscreenenter"",""1"",""3609""
","
","
","""event"",""trial"",""time""
""fullscreenenter"",""1"",""3609""
","
","","","652.6000000238419","","","14","4935","2144","&#9784;","elianto","#FFFFF080"," "," ","1","&#10004","[1503.7999999523163]","1","0","0","","","","","","","",""
"pit-instructions","13","182725","0.0-2.0-5.0","battery-v0.2","","""event"",""trial"",""time""
""fullscreenenter"",""1"",""3609""
","
","
","""event"",""trial"",""time""
""fullscreenenter"",""1"",""3609""
","
","","[{""page_index"":0,""viewing_time"":5707},{""page_index"":1,""viewing_time"":5857},{""page_index"":2,""viewing_time"":4946.199999988079},{""page_index"":3,""viewing_time"":10267.600000023842}]","26778.80000001192","","","","","","","","","","","","","","","","","","","","","","","",""
"pit-trial","14","187613","0.0-2.0-6.0-0.0","battery-v0.2","","""event"",""trial"",""time""
""fullscreenenter"",""1"",""3609""
","
","
","""event"",""trial"",""time""
""fullscreenenter"",""1"",""3609""
","
","","","-1","","","14","4935","2144","&#9854;","elianto","#FFFFF080","-1","-1","1","&#10004","[]","0","0","1","","","","","","","",""
"pit-trial","15","192494","0.0-2.0-6.1-0.1","battery-v0.2","","""event"",""trial"",""time""
""fullscreenenter"",""1"",""3609""
","
","
","""event"",""trial"",""time""
""fullscreenenter"",""1"",""3609""
","
","","","-1","","","14","4935","2144","&#9854;","elianto","#FFFFF080","-1","-1","1","&#10004","[]","0","0","1","","","","","","","",""
"pit-trial","16","197381","0.0-2.0-6.2-0.2","battery-v0.2","","""event"",""trial"",""time""
""fullscreenenter"",""1"",""3609""
","
","
","""event"",""trial"",""time""
""fullscreenenter"",""1"",""3609""
","
","","","-1","","","14","4935","2144","&#9854;","elianto","#FFFFF080","-1","-1","1","&#10004","[]","0","0","1","","","","","","","",""
"pit-trial","17","202260","0.0-2.0-6.3-0.3","battery-v0.2","","""event"",""trial"",""time""
""fullscreenenter"",""1"",""3609""
","
","
","""event"",""trial"",""time""
""fullscreenenter"",""1"",""3609""
","
","","","-1","","","14","4935","2144","&#9854;","elianto","#FFFFF080","-1","-1","1","&#10004","[]","0","0","1","","","","","","","",""
"pit-trial","18","207139","0.0-2.0-6.4-0.4","battery-v0.2","","""event"",""trial"",""time""
""fullscreenenter"",""1"",""3609""
","
","
","""event"",""trial"",""time""
""fullscreenenter"",""1"",""3609""
","
","","","-1","","","14","4935","2144","&#9854;","elianto","#FFFFF080","-1","-1","1","&#10004","[]","0","0","1","","","","","","","",""
"pit-instructions","19","337641","0.0-2.0-7.0","battery-v0.2","","""event"",""trial"",""time""
""fullscreenenter"",""1"",""3609""
","
","
","""event"",""trial"",""time""
""fullscreenenter"",""1"",""3609""
","
","","[{""page_index"":0,""viewing_time"":6314.600000023842},{""page_index"":1,""viewing_time"":6636.799999952316},{""page_index"":2,""viewing_time"":6102.400000035763},{""page_index"":3,""viewing_time"":6953.899999976158},{""page_index"":4,""viewing_time"":5586.100000023842},{""page_index"":5,""viewing_time"":5543.5},{""page_index"":6,""viewing_time"":5258.699999988079},{""page_index"":7,""viewing_time"":8071},{""page_index"":8,""viewing_time"":7832.399999976158},{""page_index"":9,""viewing_time"":6512.200000047684},{""page_index"":10,""viewing_time"":8175.299999952316},{""page_index"":11,""viewing_time"":4939},{""page_index"":12,""viewing_time"":7007.400000035763},{""page_index"":13,""viewing_time"":9213.800000011921},{""page_index"":14,""viewing_time"":8432.099999964237},{""page_index"":15,""viewing_time"":8311.800000011921},{""page_index"":16,""viewing_time"":9479},{""page_index"":17,""viewing_time"":10121.800000011921}]","130492.80000001192","","","","","","","","","","","","","","","","","","","","","","","",""
"pit-trial","20","340936","0.0-2.0-8.0-0.0","battery-v0.2","","""event"",""trial"",""time""
""fullscreenenter"",""1"",""3609""
","
","
","""event"",""trial"",""time""
""fullscreenenter"",""1"",""3609""
","
","","","422.69999998807907","","","14","4935","2144","&#9776;","elianto","#3366ff99"," "," ","1","+10","[1277.699999988079]","1","0","1","","","","","","","",""
"pit-trial","21","344285","0.0-2.0-8.0-1.0","battery-v0.2","","""event"",""trial"",""time""
""fullscreenenter"",""1"",""3609""
","
","
","""event"",""trial"",""time""
""fullscreenenter"",""1"",""3609""
","
","","","467.2999999523163","","","14","4935","2144","&#9776;","elianto","#3366ff99"," "," ","1","+10","[1325.5]","1","0","1","","","","","","","",""
"pit-trial","22","347602","0.0-2.0-8.0-2.0","battery-v0.2","","""event"",""trial"",""time""
""fullscreenenter"",""1"",""3609""
","
","
","""event"",""trial"",""time""
""fullscreenenter"",""1"",""3609""
","
","","","438.2000000476837","","","14","4935","2144","&#9776;","elianto","#3366ff99"," "," ","1","+10","[1299.6000000238419]","1","0","1","","","","","","","",""
"pit-trial","23","350911","0.0-2.0-8.0-3.0","battery-v0.2","","""event"",""trial"",""time""
""fullscreenenter"",""1"",""3609""
","
","
","""event"",""trial"",""time""
""fullscreenenter"",""1"",""3609""
","
","","","433.5","","","14","4935","2144","&#9776;","elianto","#3366ff99"," "," ","1","0","[1292.3999999761581]","1","0","1","","","","","","","",""
"pit-trial","24","354307","0.0-2.0-8.0-4.0","battery-v0.2","","""event"",""trial"",""time""
""fullscreenenter"",""1"",""3609""
","
","
","""event"",""trial"",""time""
""fullscreenenter"",""1"",""3609""
","
","","","533.3999999761581","","","14","4935","2144","&#9776;","elianto","#3366ff99"," "," ","1","+10","[1385.9000000357628]","1","0","1","","","","","","","",""
"pit-trial","25","357683","0.0-2.0-8.1-0.1","battery-v0.2","","""event"",""trial"",""time""
""fullscreenenter"",""1"",""3609""
","
","
","""event"",""trial"",""time""
""fullscreenenter"",""1"",""3609""
","
","","","508.89999997615814","","","14","4935","2144","&#9776;","elianto","#3366ff99"," "," ","1","+10","[1361.3999999761581]","1","0","1","","","","","","","",""
"pit-trial","26","361031","0.0-2.0-8.1-1.1","battery-v0.2","","""event"",""trial"",""time""
""fullscreenenter"",""1"",""3609""
","
","
","""event"",""trial"",""time""
""fullscreenenter"",""1"",""3609""
","
","","","472","","","14","4935","2144","&#9776;","elianto","#3366ff99"," "," ","1","+10","[1323.199999988079]","1","0","1","","","","","","","",""
"pit-trial","27","364338","0.0-2.0-8.1-2.1","battery-v0.2","","""event"",""trial"",""time""
""fullscreenenter"",""1"",""3609""
","
","
","""event"",""trial"",""time""
""fullscreenenter"",""1"",""3609""
","
","","","424","","","14","4935","2144","&#9776;","elianto","#3366ff99"," "," ","1","+10","[1275.6000000238419]","1","0","1","","","","","","","",""
"pit-trial","28","367696","0.0-2.0-8.1-3.1","battery-v0.2","","""event"",""trial"",""time""
""fullscreenenter"",""1"",""3609""
","
","
","""event"",""trial"",""time""
""fullscreenenter"",""1"",""3609""
","
","","","486.80000001192093","","","14","4935","2144","&#9776;","elianto","#3366ff99"," "," ","1","0","[1344.3999999761581]","1","0","1","","","","","","","",""
"pit-trial","29","371117","0.0-2.0-8.1-4.1","battery-v0.2","","""event"",""trial"",""time""
""fullscreenenter"",""1"",""3609""
","
","
","""event"",""trial"",""time""
""fullscreenenter"",""1"",""3609""
","
","","","554.9000000357628","","","14","4935","2144","&#9776;","elianto","#3366ff99"," "," ","1","+10","[1407.5]","1","0","1","","","","","","","",""
"pit-trial","30","374357","0.0-2.0-8.2-0.2","battery-v0.2","","""event"",""trial"",""time""
""fullscreenenter"",""1"",""3609""
","
","
","""event"",""trial"",""time""
""fullscreenenter"",""1"",""3609""
","
","","","367.69999998807907","","","14","4935","2144","&#9776;","elianto","#3366ff99"," "," ","1","+10","[1223.699999988079,1248.199999988079]","2","0","1","","","","","","","",""
"pit-trial","31","377749","0.0-2.0-8.2-1.2","battery-v0.2","","""event"",""trial"",""time""
""fullscreenenter"",""1"",""3609""
","
","
","""event"",""trial"",""time""
""fullscreenenter"",""1"",""3609""
","
","","","519.7000000476837","","","14","4935","2144","&#9776;","elianto","#3366ff99"," "," ","1","+10","[1374.4000000357628]","1","0","1","","","","","","","",""
"pit-trial","32","381121","0.0-2.0-8.2-2.2","battery-v0.2","","""event"",""trial"",""time""
""fullscreenenter"",""1"",""3609""
","
","
","""event"",""trial"",""time""
""fullscreenenter"",""1"",""3609""
","
","","","511.89999997615814","","","14","4935","2144","&#9776;","elianto","#3366ff99"," "," ","1","+10","[1363.8999999761581]","1","0","1","","","","","","","",""
"pit-trial","33","384376","0.0-2.0-8.2-3.2","battery-v0.2","","""event"",""trial"",""time""
""fullscreenenter"",""1"",""3609""
","
","
","""event"",""trial"",""time""
""fullscreenenter"",""1"",""3609""
","
","","","390.5999999642372","","","14","4935","2144","&#9776;","elianto","#3366ff99"," "," ","1","0","[1246]","1","0","1","","","","","","","",""
"pit-trial","34","387873","0.0-2.0-8.2-4.2","battery-v0.2","","""event"",""trial"",""time""
""fullscreenenter"",""1"",""3609""
","
","
","""event"",""trial"",""time""
""fullscreenenter"",""1"",""3609""
","
","","","629.6999999880791","","","14","4935","2144","&#9776;","elianto","#3366ff99"," "," ","1","+10","[1482.8999999761581]","1","0","1","","","","","","","",""
"call-function","35","387876","0.0-2.0-9.0","battery-v0.2","","""event"",""trial"",""time""
""fullscreenenter"",""1"",""3609""
","
","
","""event"",""trial"",""time""
""fullscreenenter"",""1"",""3609""
","
","","","","","","","","","","","","","","","","","","","","","","","","","","",""
"pit-instructions","36","431795","0.0-2.0-10.0","battery-v0.2","","""event"",""trial"",""time""
""fullscreenenter"",""1"",""3609""
","
","
","""event"",""trial"",""time""
""fullscreenenter"",""1"",""3609""
","
","","[{""page_index"":0,""viewing_time"":7033.300000011921},{""page_index"":1,""viewing_time"":7758.299999952316},{""page_index"":2,""viewing_time"":9853.100000023842},{""page_index"":3,""viewing_time"":11807.800000011921},{""page_index"":4,""viewing_time"":7465.199999988079}]","43918.5","","","","","","","","","","","","","","","","","","","","","","","",""
"pit-trial","37","436678","0.0-2.0-11.0-0.0","battery-v0.2","","""event"",""trial"",""time""
""fullscreenenter"",""1"",""3609""
","
","
","""event"",""trial"",""time""
""fullscreenenter"",""1"",""3609""
","
","","","-1","","","14","4935","2144","&#9761;","elianto","#3366ff99","-1","-1","1","+10","[]","0","0","2","","","","","","","",""
"pit-trial","38","441574","0.0-2.0-11.0-1.0","battery-v0.2","","""event"",""trial"",""time""
""fullscreenenter"",""1"",""3609""
","
","
","""event"",""trial"",""time""
""fullscreenenter"",""1"",""3609""
","
","","","-1","","","14","4935","2144","&#9761;","elianto","#3366ff99","-1","-1","1","+10","[]","0","0","2","","","","","","","",""
"pit-trial","39","446449","0.0-2.0-11.0-2.0","battery-v0.2","","""event"",""trial"",""time""
""fullscreenenter"",""1"",""3609""
","
","
","""event"",""trial"",""time""
""fullscreenenter"",""1"",""3609""
","
","","","-1","","","14","4935","2144","&#9761;","elianto","#3366ff99","-1","-1","1","+10","[]","0","0","2","","","","","","","",""
"pit-trial","40","451319","0.0-2.0-11.0-3.0","battery-v0.2","","""event"",""trial"",""time""
""fullscreenenter"",""1"",""3609""
","
","
","""event"",""trial"",""time""
""fullscreenenter"",""1"",""3609""
","
","","","-1","","","14","4935","2144","&#9761;","elianto","#3366ff99","-1","-1","1","0","[]","0","0","2","","","","","","","",""
"pit-trial","41","456200","0.0-2.0-11.0-4.0","battery-v0.2","","""event"",""trial"",""time""
""fullscreenenter"",""1"",""3609""
","
","
","""event"",""trial"",""time""
""fullscreenenter"",""1"",""3609""
","
","","","-1","","","14","4935","2144","&#9761;","elianto","#3366ff99","-1","-1","1","+10","[3229.199999988079]","1","0","2","","","","","","","",""
"pit-trial","42","461106","0.0-2.0-11.1-0.1","battery-v0.2","","""event"",""trial"",""time""
""fullscreenenter"",""1"",""3609""
","
","
","""event"",""trial"",""time""
""fullscreenenter"",""1"",""3609""
","
","","","-1","","","14","4935","2144","&#9761;","elianto","#3366ff99","-1","-1","1","+10","[]","0","0","2","","","","","","","",""
"pit-trial","43","465976","0.0-2.0-11.1-1.1","battery-v0.2","","""event"",""trial"",""time""
""fullscreenenter"",""1"",""3609""
","
","
","""event"",""trial"",""time""
""fullscreenenter"",""1"",""3609""
","
","","","-1","","","14","4935","2144","&#9761;","elianto","#3366ff99","-1","-1","1","+10","[]","0","0","2","","","","","","","",""
"pit-trial","44","470839","0.0-2.0-11.1-2.1","battery-v0.2","","""event"",""trial"",""time""
""fullscreenenter"",""1"",""3609""
","
","
","""event"",""trial"",""time""
""fullscreenenter"",""1"",""3609""
","
","","","-1","","","14","4935","2144","&#9761;","elianto","#3366ff99","-1","-1","1","+10","[]","0","0","2","","","","","","","",""
"pit-trial","45","474421","0.0-2.0-11.1-3.1","battery-v0.2","","""event"",""trial"",""time""
""fullscreenenter"",""1"",""3609""
","
","
","""event"",""trial"",""time""
""fullscreenenter"",""1"",""3609""
","
","","","714.1000000238419","","","14","4935","2144","&#9761;","elianto","#3366ff99","-1"," ","0","+10","[1566.300000011921]","1","0","2","","","","","","","",""
"pit-trial","46","479305","0.0-2.0-11.1-4.1","battery-v0.2","","""event"",""trial"",""time""
""fullscreenenter"",""1"",""3609""
","
","
","""event"",""trial"",""time""
""fullscreenenter"",""1"",""3609""
","
","","","-1","","","14","4935","2144","&#9761;","elianto","#3366ff99","-1","-1","1","+10","[]","0","0","2","","","","","","","",""
"pit-trial","47","484182","0.0-2.0-11.2-0.2","battery-v0.2","","""event"",""trial"",""time""
""fullscreenenter"",""1"",""3609""
","
","
","""event"",""trial"",""time""
""fullscreenenter"",""1"",""3609""
","
","","","-1","","","14","4935","2144","&#9761;","elianto","#3366ff99","-1","-1","1","+10","[]","0","0","2","","","","","","","",""
"pit-trial","48","489055","0.0-2.0-11.2-1.2","battery-v0.2","","""event"",""trial"",""time""
""fullscreenenter"",""1"",""3609""
","
","
","""event"",""trial"",""time""
""fullscreenenter"",""1"",""3609""
","
","","","-1","","","14","4935","2144","&#9761;","elianto","#3366ff99","-1","-1","1","+10","[]","0","0","2","","","","","","","",""
"pit-trial","49","493922","0.0-2.0-11.2-2.2","battery-v0.2","","""event"",""trial"",""time""
""fullscreenenter"",""1"",""3609""
","
","
","""event"",""trial"",""time""
""fullscreenenter"",""1"",""3609""
","
","","","-1","","","14","4935","2144","&#9761;","elianto","#3366ff99","-1","-1","1","+10","[]","0","0","2","","","","","","","",""
"pit-trial","50","498797","0.0-2.0-11.2-3.2","battery-v0.2","","""event"",""trial"",""time""
""fullscreenenter"",""1"",""3609""
","
","
","""event"",""trial"",""time""
""fullscreenenter"",""1"",""3609""
","
","","","-1","","","14","4935","2144","&#9761;","elianto","#3366ff99","-1","-1","1","0","[]","0","0","2","","","","","","","",""
"pit-trial","51","503678","0.0-2.0-11.2-4.2","battery-v0.2","","""event"",""trial"",""time""
""fullscreenenter"",""1"",""3609""
","
","
","""event"",""trial"",""time""
""fullscreenenter"",""1"",""3609""
","
","","","-1","","","14","4935","2144","&#9761;","elianto","#3366ff99","-1","-1","1","+10","[]","0","0","2","","","","","","","",""
"pit-trial","52","508549","0.0-2.0-11.3-0.3","battery-v0.2","","""event"",""trial"",""time""
""fullscreenenter"",""1"",""3609""
","
","
","""event"",""trial"",""time""
""fullscreenenter"",""1"",""3609""
","
","","","-1","","","14","4935","2144","&#9761;","elianto","#3366ff99","-1","-1","1","+10","[]","0","0","2","","","","","","","",""
"pit-trial","53","513428","0.0-2.0-11.3-1.3","battery-v0.2","","""event"",""trial"",""time""
""fullscreenenter"",""1"",""3609""
","
","
","""event"",""trial"",""time""
""fullscreenenter"",""1"",""3609""
","
","","","-1","","","14","4935","2144","&#9761;","elianto","#3366ff99","-1","-1","1","+10","[]","0","0","2","","","","","","","",""
"pit-trial","54","518299","0.0-2.0-11.3-2.3","battery-v0.2","","""event"",""trial"",""time""
""fullscreenenter"",""1"",""3609""
","
","
","""event"",""trial"",""time""
""fullscreenenter"",""1"",""3609""
","
","","","-1","","","14","4935","2144","&#9761;","elianto","#3366ff99","-1","-1","1","+10","[]","0","0","2","","","","","","","",""
"pit-trial","55","523170","0.0-2.0-11.3-3.3","battery-v0.2","","""event"",""trial"",""time""
""fullscreenenter"",""1"",""3609""
","
","
","""event"",""trial"",""time""
""fullscreenenter"",""1"",""3609""
","
","","","-1","","","14","4935","2144","&#9761;","elianto","#3366ff99","-1","-1","1","0","[]","0","0","2","","","","","","","",""
"pit-trial","56","528073","0.0-2.0-11.3-4.3","battery-v0.2","","""event"",""trial"",""time""
""fullscreenenter"",""1"",""3609""
","
","
","""event"",""trial"",""time""
""fullscreenenter"",""1"",""3609""
","
","","","-1","","","14","4935","2144","&#9761;","elianto","#3366ff99","-1","-1","1","+10","[]","0","0","2","","","","","","","",""
"call-function","57","528076","0.0-2.0-12.0","battery-v0.2","","""event"",""trial"",""time""
""fullscreenenter"",""1"",""3609""
","
","
","""event"",""trial"",""time""
""fullscreenenter"",""1"",""3609""
","
","","","","","","","","","","","","","","","","","","","","","","","","","","",""
"pit-instructions","58","563683","0.0-2.0-13.0","battery-v0.2","","""event"",""trial"",""time""
""fullscreenenter"",""1"",""3609""
","
","
","""event"",""trial"",""time""
""fullscreenenter"",""1"",""3609""
","
","","[{""page_index"":0,""viewing_time"":6558.899999976158},{""page_index"":1,""viewing_time"":8011.199999988079},{""page_index"":2,""viewing_time"":3201.600000023842},{""page_index"":3,""viewing_time"":11521.899999976158},{""page_index"":4,""viewing_time"":6312.300000011921}]","35606.89999997616","","","","","","","","","","","","","","","","","","","","","","","",""
"pit-trial","59","568579","0.0-2.0-14.0-0.0","battery-v0.2","","""event"",""trial"",""time""
""fullscreenenter"",""1"",""3609""
","
","
","""event"",""trial"",""time""
""fullscreenenter"",""1"",""3609""
","
","","","-1","","","14","4935","2144","&#9826;","elianto","#f73b6a7A","-1","-1","1","0","[]","0","0","3","","","","","","","",""
"pit-trial","60","571802","0.0-2.0-14.0-1.0","battery-v0.2","","""event"",""trial"",""time""
""fullscreenenter"",""1"",""3609""
","
","
","""event"",""trial"",""time""
""fullscreenenter"",""1"",""3609""
","
","","","354.39999997615814","","","14","4935","2144","&#9826;","elianto","#f73b6a7A","-1"," ","0","-10","[1205.800000011921]","1","0","3","","","","","","","",""
"pit-trial","61","576675","0.0-2.0-14.0-2.0","battery-v0.2","","""event"",""trial"",""time""
""fullscreenenter"",""1"",""3609""
","
","
","""event"",""trial"",""time""
""fullscreenenter"",""1"",""3609""
","
","","","-1","","","14","4935","2144","&#9826;","elianto","#f73b6a7A","-1","-1","1","0","[]","0","0","3","","","","","","","",""
"pit-trial","62","581560","0.0-2.0-14.0-3.0","battery-v0.2","","""event"",""trial"",""time""
""fullscreenenter"",""1"",""3609""
","
","
","""event"",""trial"",""time""
""fullscreenenter"",""1"",""3609""
","
","","","-1","","","14","4935","2144","&#9826;","elianto","#f73b6a7A","-1","-1","1","-10","[]","0","0","3","","","","","","","",""
"pit-trial","63","586426","0.0-2.0-14.0-4.0","battery-v0.2","","""event"",""trial"",""time""
""fullscreenenter"",""1"",""3609""
","
","
","""event"",""trial"",""time""
""fullscreenenter"",""1"",""3609""
","
","","","-1","","","14","4935","2144","&#9826;","elianto","#f73b6a7A","-1","-1","1","0","[]","0","0","3","","","","","","","",""
"pit-trial","64","591311","0.0-2.0-14.1-0.1","battery-v0.2","","""event"",""trial"",""time""
""fullscreenenter"",""1"",""3609""
","
","
","""event"",""trial"",""time""
""fullscreenenter"",""1"",""3609""
","
","","","-1","","","14","4935","2144","&#9826;","elianto","#f73b6a7A","-1","-1","1","0","[]","0","0","3","","","","","","","",""
"pit-trial","65","596175","0.0-2.0-14.1-1.1","battery-v0.2","","""event"",""trial"",""time""
""fullscreenenter"",""1"",""3609""
","
","
","""event"",""trial"",""time""
""fullscreenenter"",""1"",""3609""
","
","","","-1","","","14","4935","2144","&#9826;","elianto","#f73b6a7A","-1","-1","1","0","[]","0","0","3","","","","","","","",""
"pit-trial","66","601046","0.0-2.0-14.1-2.1","battery-v0.2","","""event"",""trial"",""time""
""fullscreenenter"",""1"",""3609""
","
","
","""event"",""trial"",""time""
""fullscreenenter"",""1"",""3609""
","
","","","-1","","","14","4935","2144","&#9826;","elianto","#f73b6a7A","-1","-1","1","0","[]","0","0","3","","","","","","","",""
"pit-trial","67","605919","0.0-2.0-14.1-3.1","battery-v0.2","","""event"",""trial"",""time""
""fullscreenenter"",""1"",""3609""
","
","
","""event"",""trial"",""time""
""fullscreenenter"",""1"",""3609""
","
","","","-1","","","14","4935","2144","&#9826;","elianto","#f73b6a7A","-1","-1","1","-10","[]","0","0","3","","","","","","","",""
"pit-trial","68","610788","0.0-2.0-14.1-4.1","battery-v0.2","","""event"",""trial"",""time""
""fullscreenenter"",""1"",""3609""
","
","
","""event"",""trial"",""time""
""fullscreenenter"",""1"",""3609""
","
","","","-1","","","14","4935","2144","&#9826;","elianto","#f73b6a7A","-1","-1","1","0","[]","0","0","3","","","","","","","",""
"pit-trial","69","615657","0.0-2.0-14.2-0.2","battery-v0.2","","""event"",""trial"",""time""
""fullscreenenter"",""1"",""3609""
","
","
","""event"",""trial"",""time""
""fullscreenenter"",""1"",""3609""
","
","","","-1","","","14","4935","2144","&#9826;","elianto","#f73b6a7A","-1","-1","1","0","[]","0","0","3","","","","","","","",""
"pit-trial","70","620527","0.0-2.0-14.2-1.2","battery-v0.2","","""event"",""trial"",""time""
""fullscreenenter"",""1"",""3609""
","
","
","""event"",""trial"",""time""
""fullscreenenter"",""1"",""3609""
","
","","","-1","","","14","4935","2144","&#9826;","elianto","#f73b6a7A","-1","-1","1","0","[]","0","0","3","","","","","","","",""
"pit-trial","71","625399","0.0-2.0-14.2-2.2","battery-v0.2","","""event"",""trial"",""time""
""fullscreenenter"",""1"",""3609""
","
","
","""event"",""trial"",""time""
""fullscreenenter"",""1"",""3609""
","
","","","-1","","","14","4935","2144","&#9826;","elianto","#f73b6a7A","-1","-1","1","0","[]","0","0","3","","","","","","","",""
"pit-trial","72","628679","0.0-2.0-14.2-3.2","battery-v0.2","","""event"",""trial"",""time""
""fullscreenenter"",""1"",""3609""
","
","
","""event"",""trial"",""time""
""fullscreenenter"",""1"",""3609""
","
","","","403.0999999642372","","","14","4935","2144","&#9826;","elianto","#f73b6a7A","-1"," ","0","0","[1262.8999999761581]","1","0","3","","","","","","","",""
"pit-trial","73","633549","0.0-2.0-14.2-4.2","battery-v0.2","","""event"",""trial"",""time""
""fullscreenenter"",""1"",""3609""
","
","
","""event"",""trial"",""time""
""fullscreenenter"",""1"",""3609""
","
","","","-1","","","14","4935","2144","&#9826;","elianto","#f73b6a7A","-1","-1","1","0","[]","0","0","3","","","","","","","",""
"pit-trial","74","638415","0.0-2.0-14.3-0.3","battery-v0.2","","""event"",""trial"",""time""
""fullscreenenter"",""1"",""3609""
","
","
","""event"",""trial"",""time""
""fullscreenenter"",""1"",""3609""
","
","","","-1","","","14","4935","2144","&#9826;","elianto","#f73b6a7A","-1","-1","1","0","[]","0","0","3","","","","","","","",""
"pit-trial","75","643288","0.0-2.0-14.3-1.3","battery-v0.2","","""event"",""trial"",""time""
""fullscreenenter"",""1"",""3609""
","
","
","""event"",""trial"",""time""
""fullscreenenter"",""1"",""3609""
","
","","","-1","","","14","4935","2144","&#9826;","elianto","#f73b6a7A","-1","-1","1","0","[]","0","0","3","","","","","","","",""
"pit-trial","76","648152","0.0-2.0-14.3-2.3","battery-v0.2","","""event"",""trial"",""time""
""fullscreenenter"",""1"",""3609""
","
","
","""event"",""trial"",""time""
""fullscreenenter"",""1"",""3609""
","
","","","-1","","","14","4935","2144","&#9826;","elianto","#f73b6a7A","-1","-1","1","0","[]","0","0","3","","","","","","","",""
"pit-trial","77","653025","0.0-2.0-14.3-3.3","battery-v0.2","","""event"",""trial"",""time""
""fullscreenenter"",""1"",""3609""
","
","
","""event"",""trial"",""time""
""fullscreenenter"",""1"",""3609""
","
","","","-1","","","14","4935","2144","&#9826;","elianto","#f73b6a7A","-1","-1","1","-10","[]","0","0","3","","","","","","","",""
"pit-trial","78","657889","0.0-2.0-14.3-4.3","battery-v0.2","","""event"",""trial"",""time""
""fullscreenenter"",""1"",""3609""
","
","
","""event"",""trial"",""time""
""fullscreenenter"",""1"",""3609""
","
","","","-1","","","14","4935","2144","&#9826;","elianto","#f73b6a7A","-1","-1","1","0","[]","0","0","3","","","","","","","",""
"call-function","79","657891","0.0-2.0-15.0","battery-v0.2","","""event"",""trial"",""time""
""fullscreenenter"",""1"",""3609""
","
","
","""event"",""trial"",""time""
""fullscreenenter"",""1"",""3609""
","
","","","","","","","","","","","","","","","","","","","","","","","","","","",""
"pit-instructions","80","686072","0.0-2.0-16.0","battery-v0.2","","""event"",""trial"",""time""
""fullscreenenter"",""1"",""3609""
","
","
","""event"",""trial"",""time""
""fullscreenenter"",""1"",""3609""
","
","","[{""page_index"":0,""viewing_time"":7473},{""page_index"":1,""viewing_time"":8476.699999988079},{""page_index"":2,""viewing_time"":5223.599999964237},{""page_index"":3,""viewing_time"":7007.700000047684}]","28182.099999964237","","","","","","","","","","","","","","","","","","","","","","","",""
"pit-trial","81","689757","0.0-2.0-17.0-0.0","battery-v0.2","","""event"",""trial"",""time""
""fullscreenenter"",""1"",""3609""
","
","
","""event"",""trial"",""time""
""fullscreenenter"",""1"",""3609""
","
","","","810.3999999761581","","","14","4935","2144","&#9789;","elianto","#f73b6a7A"," "," ","1","0","[1661.199999988079]","1","0","4","","","","","","","",""
"pit-trial","82","693102","0.0-2.0-17.0-1.0","battery-v0.2","","""event"",""trial"",""time""
""fullscreenenter"",""1"",""3609""
","
","
","""event"",""trial"",""time""
""fullscreenenter"",""1"",""3609""
","
","","","475.4000000357628","","","14","4935","2144","&#9789;","elianto","#f73b6a7A"," "," ","1","0","[1327.699999988079]","1","0","4","","","","","","","",""
"pit-trial","83","696601","0.0-2.0-17.0-2.0","battery-v0.2","","""event"",""trial"",""time""
""fullscreenenter"",""1"",""3609""
","
","
","""event"",""trial"",""time""
""fullscreenenter"",""1"",""3609""
","
","","","625.1999999880791","","","14","4935","2144","&#9789;","elianto","#f73b6a7A"," "," ","1","0","[1479.6000000238419]","1","0","4","","","","","","","",""
"pit-trial","84","700151","0.0-2.0-17.0-3.0","battery-v0.2","","""event"",""trial"",""time""
""fullscreenenter"",""1"",""3609""
","
","
","""event"",""trial"",""time""
""fullscreenenter"",""1"",""3609""
","
","","","675.8000000119209","","","14","4935","2144","&#9789;","elianto","#f73b6a7A"," "," ","1","-10","[1531.3999999761581]","1","0","4","","","","","","","",""
"pit-trial","85","704130","0.0-2.0-17.0-4.0","battery-v0.2","","""event"",""trial"",""time""
""fullscreenenter"",""1"",""3609""
","
","
","""event"",""trial"",""time""
""fullscreenenter"",""1"",""3609""
","
","","","1102.8999999761581","","","14","4935","2144","&#9789;","elianto","#f73b6a7A"," "," ","1","0","[1958.0999999642372]","1","0","4","","","","","","","",""
"pit-trial","86","707425","0.0-2.0-17.1-0.1","battery-v0.2","","""event"",""trial"",""time""
""fullscreenenter"",""1"",""3609""
","
","
","""event"",""trial"",""time""
""fullscreenenter"",""1"",""3609""
","
","","","423.39999997615814","","","14","4935","2144","&#9789;","elianto","#f73b6a7A"," "," ","1","0","[1282]","1","0","4","","","","","","","",""
"pit-trial","87","710649","0.0-2.0-17.1-1.1","battery-v0.2","","""event"",""trial"",""time""
""fullscreenenter"",""1"",""3609""
","
","
","""event"",""trial"",""time""
""fullscreenenter"",""1"",""3609""
","
","","","348.80000001192093","","","14","4935","2144","&#9789;","elianto","#f73b6a7A"," "," ","1","0","[1200.699999988079]","1","0","4","","","","","","","",""
"pit-trial","88","713889","0.0-2.0-17.1-2.1","battery-v0.2","","""event"",""trial"",""time""
""fullscreenenter"",""1"",""3609""
","
","
","""event"",""trial"",""time""
""fullscreenenter"",""1"",""3609""
","
","","","352.4000000357628","","","14","4935","2144","&#9789;","elianto","#f73b6a7A"," "," ","1","0","[1209.300000011921]","1","0","4","","","","","","","",""
"pit-trial","89","718769","0.0-2.0-17.1-3.1","battery-v0.2","","""event"",""trial"",""time""
""fullscreenenter"",""1"",""3609""
","
","
","""event"",""trial"",""time""
""fullscreenenter"",""1"",""3609""
","
","","","-1","","","14","4935","2144","&#9789;","elianto","#f73b6a7A"," ","-1","0","0","[]","0","0","4","","","","","","","",""
"pit-trial","90","722212","0.0-2.0-17.1-4.1","battery-v0.2","","""event"",""trial"",""time""
""fullscreenenter"",""1"",""3609""
","
","
","""event"",""trial"",""time""
""fullscreenenter"",""1"",""3609""
","
","","","575.6999999880791","","","14","4935","2144","&#9789;","elianto","#f73b6a7A"," "," ","1","0","[1428.8999999761581]","1","0","4","","","","","","","",""
"pit-trial","91","725219","0.0-2.0-17.2-0.2","battery-v0.2","","""event"",""trial"",""time""
""fullscreenenter"",""1"",""3609""
","
","
","""event"",""trial"",""time""
""fullscreenenter"",""1"",""3609""
","
","","","138.29999995231628","","","14","4935","2144","&#9789;","elianto","#f73b6a7A"," "," ","1","0","[996.3999999761581]","1","0","4","","","","","","","",""
"pit-trial","92","728173","0.0-2.0-17.2-1.2","battery-v0.2","","""event"",""trial"",""time""
""fullscreenenter"",""1"",""3609""
","
","
","""event"",""trial"",""time""
""fullscreenenter"",""1"",""3609""
","
","","","87.60000002384186","","","14","4935","2144","&#9789;","elianto","#f73b6a7A"," "," ","1","0","[942.1999999880791]","1","0","4","","","","","","","",""
"pit-trial","93","731160","0.0-2.0-17.2-2.2","battery-v0.2","","""event"",""trial"",""time""
""fullscreenenter"",""1"",""3609""
","
","
","""event"",""trial"",""time""
""fullscreenenter"",""1"",""3609""
","
","","","123.19999998807907","","","14","4935","2144","&#9789;","elianto","#f73b6a7A"," "," ","1","0","[974.1999999880791]","1","0","4","","","","","","","",""
"pit-trial","94","734184","0.0-2.0-17.2-3.2","battery-v0.2","","""event"",""trial"",""time""
""fullscreenenter"",""1"",""3609""
","
","
","""event"",""trial"",""time""
""fullscreenenter"",""1"",""3609""
","
","","","165","","","14","4935","2144","&#9789;","elianto","#f73b6a7A"," "," ","1","-10","[1016]","1","0","4","","","","","","","",""
"pit-trial","95","738112","0.0-2.0-17.2-4.2","battery-v0.2","","""event"",""trial"",""time""
""fullscreenenter"",""1"",""3609""
","
","
","""event"",""trial"",""time""
""fullscreenenter"",""1"",""3609""
","
","","","1066.699999988079","","","14","4935","2144","&#9789;","elianto","#f73b6a7A"," "," ","1","0","[1923.1000000238419]","1","0","4","","","","","","","",""
"pit-trial","96","741016","0.0-2.0-17.3-0.3","battery-v0.2","","""event"",""trial"",""time""
""fullscreenenter"",""1"",""3609""
","
","
","""event"",""trial"",""time""
""fullscreenenter"",""1"",""3609""
","
","","","44.39999997615814","","","14","4935","2144","&#9789;","elianto","#f73b6a7A"," "," ","1","0","[896.6999999880791]","1","0","4","","","","","","","",""
"pit-trial","97","744453","0.0-2.0-17.3-1.3","battery-v0.2","","""event"",""trial"",""time""
""fullscreenenter"",""1"",""3609""
","
","
","""event"",""trial"",""time""
""fullscreenenter"",""1"",""3609""
","
","","","573.3000000119209","","","14","4935","2144","&#9789;","elianto","#f73b6a7A"," "," ","1","0","[847.1999999880791,1426.9000000357628]","2","0","4","","","","","","","",""
"pit-trial","98","747702","0.0-2.0-17.3-2.3","battery-v0.2","","""event"",""trial"",""time""
""fullscreenenter"",""1"",""3609""
","
","
","""event"",""trial"",""time""
""fullscreenenter"",""1"",""3609""
","
","","","382.2999999523163","","","14","4935","2144","&#9789;","elianto","#f73b6a7A"," "," ","1","0","[1236.699999988079]","1","0","4","","","","","","","",""
"pit-trial","99","750767","0.0-2.0-17.3-3.3","battery-v0.2","","""event"",""trial"",""time""
""fullscreenenter"",""1"",""3609""
","
","
","""event"",""trial"",""time""
""fullscreenenter"",""1"",""3609""
","
","","","193","","","14","4935","2144","&#9789;","elianto","#f73b6a7A"," "," ","1","-10","[1048.800000011921]","1","0","4","","","","","","","",""
"pit-trial","100","753998","0.0-2.0-17.3-4.3","battery-v0.2","","""event"",""trial"",""time""
""fullscreenenter"",""1"",""3609""
","
","
","""event"",""trial"",""time""
""fullscreenenter"",""1"",""3609""
","
","","","359.80000001192093","","","14","4935","2144","&#9789;","elianto","#f73b6a7A"," "," ","1","0","[1217.6000000238419]","1","0","4","","","","","","","",""
"call-function","101","754001","0.0-2.0-18.0","battery-v0.2","","""event"",""trial"",""time""
""fullscreenenter"",""1"",""3609""
","
","
","""event"",""trial"",""time""
""fullscreenenter"",""1"",""3609""
","
","","","","","","","","","","","","","","","","","","","","","","","","","","",""
"pit-instructions","102","831991","0.0-2.0-19.0","battery-v0.2","","""event"",""trial"",""time""
""fullscreenenter"",""1"",""3609""
","
","
","""event"",""trial"",""time""
""fullscreenenter"",""1"",""3609""
","
","","[{""page_index"":0,""viewing_time"":7286.5},{""page_index"":1,""viewing_time"":8453.100000023842},{""page_index"":2,""viewing_time"":15449.5},{""page_index"":3,""viewing_time"":8090},{""page_index"":4,""viewing_time"":9931},{""page_index"":5,""viewing_time"":8177.699999988079},{""page_index"":6,""viewing_time"":8919.300000011921},{""page_index"":7,""viewing_time"":7393.699999988079},{""page_index"":8,""viewing_time"":4289.399999976158}]","77991","","","","","","","","","","","","","","","","","","","","","","","",""
"pit-comprehension","103","837134","0.0-2.0-20.0-0.0","battery-v0.2","","""event"",""trial"",""time""
""fullscreenenter"",""1"",""3609""
","
","
","""event"",""trial"",""time""
""fullscreenenter"",""1"",""3609""
","
","","","5133.299999952316","[""SPACE""]","0","14","4935","2144","","","","","","","","","","","","","","","","","","",""
"pit-instructions","104","840445","0.0-2.0-20.0-1.0","battery-v0.2","","""event"",""trial"",""time""
""fullscreenenter"",""1"",""3609""
","
","
","""event"",""trial"",""time""
""fullscreenenter"",""1"",""3609""
","
","","[{""page_index"":0,""viewing_time"":3232.800000011921}]","3233.699999988079","","","","","","","","","","","","","","","","","","","","","","","",""
"pit-comprehension","105","846017","0.0-2.0-21.0-0.0","battery-v0.2","","""event"",""trial"",""time""
""fullscreenenter"",""1"",""3609""
","
","
","""event"",""trial"",""time""
""fullscreenenter"",""1"",""3609""
","
","","","5564.100000023842","[""10""]","0","14","4935","2144","","","","","","","","","","","","","","","","","","",""
"pit-instructions","106","847691","0.0-2.0-21.0-1.0","battery-v0.2","","""event"",""trial"",""time""
""fullscreenenter"",""1"",""3609""
","
","
","""event"",""trial"",""time""
""fullscreenenter"",""1"",""3609""
","
","","[{""page_index"":0,""viewing_time"":1610.5}]","1611.199999988079","","","","","","","","","","","","","","","","","","","","","","","",""
"pit-comprehension","107","853987","0.0-2.0-22.0-0.0","battery-v0.2","","""event"",""trial"",""time""
""fullscreenenter"",""1"",""3609""
","
","
","""event"",""trial"",""time""
""fullscreenenter"",""1"",""3609""
","
","","","6290.399999976158","[""0""]","0","14","4935","2144","","","","","","","","","","","","","","","","","","",""
"pit-instructions","108","855642","0.0-2.0-22.0-1.0","battery-v0.2","","""event"",""trial"",""time""
""fullscreenenter"",""1"",""3609""
","
","
","""event"",""trial"",""time""
""fullscreenenter"",""1"",""3609""
","
","","[{""page_index"":0,""viewing_time"":1584.699999988079}]","1585.4000000357628","","","","","","","","","","","","","","","","","","","","","","","",""
"pit-comprehension","109","864093","0.0-2.0-23.0-0.0","battery-v0.2","","""event"",""trial"",""time""
""fullscreenenter"",""1"",""3609""
","
","
","""event"",""trial"",""time""
""fullscreenenter"",""1"",""3609""
","
","","","8445.5","[""True""]","0","14","4935","2144","","","","","","","","","","","","","","","","","","",""
"pit-instructions","110","865817","0.0-2.0-23.0-1.0","battery-v0.2","","""event"",""trial"",""time""
""fullscreenenter"",""1"",""3609""
","
","
","""event"",""trial"",""time""
""fullscreenenter"",""1"",""3609""
","
","","[{""page_index"":0,""viewing_time"":1642.2999999523163}]","1643","","","","","","","","","","","","","","","","","","","","","","","",""
"pit-comprehension","111","873180","0.0-2.0-24.0-0.0","battery-v0.2","","""event"",""trial"",""time""
""fullscreenenter"",""1"",""3609""
","
","
","""event"",""trial"",""time""
""fullscreenenter"",""1"",""3609""
","
","","","7357.300000011921","[""True""]","0","14","4935","2144","","","","","","","","","","","","","","","","","","",""
"pit-instructions","112","874287","0.0-2.0-24.0-1.0","battery-v0.2","","""event"",""trial"",""time""
""fullscreenenter"",""1"",""3609""
","
","
","""event"",""trial"",""time""
""fullscreenenter"",""1"",""3609""
","
","","[{""page_index"":0,""viewing_time"":1033.5999999642372}]","1033.8999999761581","","","","","","","","","","","","","","","","","","","","","","","",""
"pit-comprehension","113","880722","0.0-2.0-25.0-0.0","battery-v0.2","","""event"",""trial"",""time""
""fullscreenenter"",""1"",""3609""
","
","
","""event"",""trial"",""time""
""fullscreenenter"",""1"",""3609""
","
","","","6428.399999976158","[""True""]","0","14","4935","2144","","","","","","","","","","","","","","","","","","",""
"pit-instructions","114","883615","0.0-2.0-25.0-1.0","battery-v0.2","","""event"",""trial"",""time""
""fullscreenenter"",""1"",""3609""
","
","
","""event"",""trial"",""time""
""fullscreenenter"",""1"",""3609""
","
","","[{""page_index"":0,""viewing_time"":2810.899999976158}]","2811.5","","","","","","","","","","","","","","","","","","","","","","","",""
"pit-comprehension","115","888545","0.0-2.0-26.0-0.0","battery-v0.2","","""event"",""trial"",""time""
""fullscreenenter"",""1"",""3609""
","
","
","""event"",""trial"",""time""
""fullscreenenter"",""1"",""3609""
","
","","","4925.399999976158","[""False""]","0","14","4935","2144","","","","","","","","","","","","","","","","","","",""
"pit-instructions","116","892814","0.0-2.0-26.0-1.0","battery-v0.2","","""event"",""trial"",""time""
""fullscreenenter"",""1"",""3609""
","
","
","""event"",""trial"",""time""
""fullscreenenter"",""1"",""3609""
","
","","[{""page_index"":0,""viewing_time"":4175.100000023842}]","4175.800000011921","","","","","","","","","","","","","","","","","","","","","","","",""
"pit-instructions","117","911385","0.0-3.0","battery-v0.2","","""event"",""trial"",""time""
""fullscreenenter"",""1"",""3609""
","
","
","""event"",""trial"",""time""
""fullscreenenter"",""1"",""3609""
","
","","[{""page_index"":0,""viewing_time"":4867.099999964237},{""page_index"":1,""viewing_time"":5740.900000035763},{""page_index"":2,""viewing_time"":7959.099999964237}]","18568","","","","","","","","","","","","","","","","","","","","","","","",""
"pit-trial","118","914806","0.0-4.0","battery-v0.2","","""event"",""trial"",""time""
""fullscreenenter"",""1"",""3609""
","
","
","""event"",""trial"",""time""
""fullscreenenter"",""1"",""3609""
","
","","","528.0999999642372","","","14","4935","2144","&#9728;","elianto","#f73b6a7A","-1"," ","0","0","[1388.1000000238419]","1","1","","","4935","1","0","4","lose","no-go","1"
"pit-trial","119","918464","0.0-5.0","battery-v0.2","","""event"",""trial"",""time""
""fullscreenenter"",""1"",""3609""
","
","
","""event"",""trial"",""time""
""fullscreenenter"",""1"",""3609""
","
","","","795.1000000238419","","","14","4935","2144","&#9733;","elianto","#3366ff99","-1"," ","0","0","[1646]","1","1","","","4935","2","2","2","win","no-go","0"
"pit-trial","120","922517","0.0-6.0","battery-v0.2","","""event"",""trial"",""time""
""fullscreenenter"",""1"",""3609""
","
","
","""event"",""trial"",""time""
""fullscreenenter"",""1"",""3609""
","
","","","1163.5999999642372","","","14","4935","2144","&#9730;","elianto","#3366ff99"," "," ","1","+10","[2020.199999988079]","1","1","","","4935","3","1","1","win","go","0"
"pit-trial","121","927389","0.0-7.0","battery-v0.2","","""event"",""trial"",""time""
""fullscreenenter"",""1"",""3609""
","
","
","""event"",""trial"",""time""
""fullscreenenter"",""1"",""3609""
","
","","","-1","","","14","4935","2144","&#9752;","elianto","#f73b6a7A"," ","-1","0","-10","[]","0","1","","","4935","4","3","3","lose","go","0"
"pit-trial","122","931830","0.0-8.0","battery-v0.2","","""event"",""trial"",""time""
""fullscreenenter"",""1"",""3609""
","
","
","""event"",""trial"",""time""
""fullscreenenter"",""1"",""3609""
","
","","","1575","","","14","4935","2144","&#9733;","elianto","#3366ff99","-1"," ","0","0","[2426]","1","1","","","4935","5","2","2","win","no-go","0"
"pit-trial","123","935798","0.0-9.0","battery-v0.2","","""event"",""trial"",""time""
""fullscreenenter"",""1"",""3609""
","
","
","""event"",""trial"",""time""
""fullscreenenter"",""1"",""3609""
","
","","","1091","","","14","4935","2144","&#9730;","elianto","#3366ff99"," "," ","1","+10","[1947.3999999761581]","1","1","","","4935","6","1","1","win","go","0"
"pit-trial","124","940251","0.0-10.0","battery-v0.2","","""event"",""trial"",""time""
""fullscreenenter"",""1"",""3609""
","
","
","""event"",""trial"",""time""
""fullscreenenter"",""1"",""3609""
","
","","","1572.6000000238419","","","14","4935","2144","&#9752;","elianto","#f73b6a7A"," "," ","1","0","[2427.699999988079]","1","1","","","4935","7","3","3","lose","go","0"
"pit-trial","125","944574","0.0-11.0","battery-v0.2","","""event"",""trial"",""time""
""fullscreenenter"",""1"",""3609""
","
","
","""event"",""trial"",""time""
""fullscreenenter"",""1"",""3609""
","
","","","1453.3999999761581","","","14","4935","2144","&#9728;","elianto","#f73b6a7A","-1"," ","0","-10","[2305]","1","1","","","4935","8","0","4","lose","no-go","0"
"pit-trial","126","948239","0.0-12.0","battery-v0.2","","""event"",""trial"",""time""
""fullscreenenter"",""1"",""3609""
","
","
","""event"",""trial"",""time""
""fullscreenenter"",""1"",""3609""
","
","","","803.8000000119209","","","14","4935","2144","&#9752;","elianto","#f73b6a7A"," "," ","1","-10","[1657.8999999761581]","1","1","","","4935","9","3","3","lose","go","1"
"pit-trial","127","953106","0.0-13.0","battery-v0.2","","""event"",""trial"",""time""
""fullscreenenter"",""1"",""3609""
","
","
","""event"",""trial"",""time""
""fullscreenenter"",""1"",""3609""
","
","","","-1","","","14","4935","2144","&#9728;","elianto","#f73b6a7A","-1","-1","1","0","[]","0","1","","","4935","10","0","4","lose","no-go","0"
"pit-trial","128","957517","0.0-14.0","battery-v0.2","","""event"",""trial"",""time""
""fullscreenenter"",""1"",""3609""
","
","
","""event"",""trial"",""time""
""fullscreenenter"",""1"",""3609""
","
","","","1534.5","","","14","4935","2144","&#9733;","elianto","#3366ff99","-1"," ","0","0","[2396]","1","1","","","4935","11","2","2","win","no-go","0"
"pit-trial","129","961155","0.0-15.0","battery-v0.2","","""event"",""trial"",""time""
""fullscreenenter"",""1"",""3609""
","
","
","""event"",""trial"",""time""
""fullscreenenter"",""1"",""3609""
","
","","","769.6000000238419","","","14","4935","2144","&#9730;","elianto","#3366ff99"," "," ","1","+10","[1621.800000011921]","1","1","","","4935","12","1","1","win","go","0"
"pit-trial","130","966037","0.0-16.0","battery-v0.2","","""event"",""trial"",""time""
""fullscreenenter"",""1"",""3609""
","
","
","""event"",""trial"",""time""
""fullscreenenter"",""1"",""3609""
","
","","","-1","","","14","4935","2144","&#9733;","elianto","#3366ff99","-1","-1","1","+10","[]","0","1","","","4935","13","2","2","win","no-go","0"
"pit-trial","131","970397","0.0-17.0","battery-v0.2","","""event"",""trial"",""time""
""fullscreenenter"",""1"",""3609""
","
","
","""event"",""trial"",""time""
""fullscreenenter"",""1"",""3609""
","
","","","1495.4000000357628","","","14","4935","2144","&#9728;","elianto","#f73b6a7A","-1"," ","0","-10","[2347.5]","1","1","","","4935","14","0","4","lose","no-go","0"
"pit-trial","132","974207","0.0-18.0","battery-v0.2","","""event"",""trial"",""time""
""fullscreenenter"",""1"",""3609""
","
","
","""event"",""trial"",""time""
""fullscreenenter"",""1"",""3609""
","
","","","937.6000000238419","","","14","4935","2144","&#9730;","elianto","#3366ff99"," "," ","1","+10","[1793.6000000238419]","1","1","","","4935","15","1","1","win","go","0"
"pit-trial","133","977700","0.0-19.0","battery-v0.2","","""event"",""trial"",""time""
""fullscreenenter"",""1"",""3609""
","
","
","""event"",""trial"",""time""
""fullscreenenter"",""1"",""3609""
","
","","","619.2999999523163","","","14","4935","2144","&#9752;","elianto","#f73b6a7A"," "," ","1","-10","[1478.8999999761581]","1","1","","","4935","16","3","3","lose","go","1"
"pit-trial","134","981103","0.0-20.0","battery-v0.2","","""event"",""trial"",""time""
""fullscreenenter"",""1"",""3609""
","
","
","""event"",""trial"",""time""
""fullscreenenter"",""1"",""3609""
","
","","","535.3999999761581","","","14","4935","2144","&#9733;","elianto","#3366ff99","-1"," ","0","+10","[1387.800000011921]","1","1","","","4935","17","2","2","win","no-go","1"
"pit-trial","135","985630","0.0-21.0","battery-v0.2","","""event"",""trial"",""time""
""fullscreenenter"",""1"",""3609""
","
","
","""event"",""trial"",""time""
""fullscreenenter"",""1"",""3609""
","
","","","1655.3999999761581","","","14","4935","2144","&#9752;","elianto","#f73b6a7A"," "," ","1","0","[2508.800000011921]","1","1","","","4935","18","3","3","lose","go","0"
"pit-trial","136","989319","0.0-22.0","battery-v0.2","","""event"",""trial"",""time""
""fullscreenenter"",""1"",""3609""
","
","
","""event"",""trial"",""time""
""fullscreenenter"",""1"",""3609""
","
","","","816.8999999761581","","","14","4935","2144","&#9730;","elianto","#3366ff99"," "," ","1","+10","[1671.199999988079]","1","1","","","4935","19","1","1","win","go","0"
"pit-trial","137","994190","0.0-23.0","battery-v0.2","","""event"",""trial"",""time""
""fullscreenenter"",""1"",""3609""
","
","
","""event"",""trial"",""time""
""fullscreenenter"",""1"",""3609""
","
","","","-1","","","14","4935","2144","&#9728;","elianto","#f73b6a7A","-1","-1","1","0","[]","0","1","","","4935","20","0","4","lose","no-go","0"
"pit-instructions","138","1007139","0.0-24.0","battery-v0.2","","""event"",""trial"",""time""
""fullscreenenter"",""1"",""3609""
","
","
","""event"",""trial"",""time""
""fullscreenenter"",""1"",""3609""
","
","","[{""page_index"":0,""viewing_time"":6560.899999976158},{""page_index"":1,""viewing_time"":6383.899999976158}]","12946.299999952316","","","","","","","","","","","","","","","","","","","","","","","",""
"pit-trial","139","1010990","0.0-25.0","battery-v0.2","","""event"",""trial"",""time""
""fullscreenenter"",""1"",""3609""
","
","
","""event"",""trial"",""time""
""fullscreenenter"",""1"",""3609""
","
","","","983.8000000119209","","","14","4935","2144","j","elianto","#f73b6a7A"," "," ","1","0","[1838.3999999761581]","1","2","","","4935","21","0","3","lose","go","0"
"pit-trial","140","1015866","0.0-26.0","battery-v0.2","","""event"",""trial"",""time""
""fullscreenenter"",""1"",""3609""
","
","
","""event"",""trial"",""time""
""fullscreenenter"",""1"",""3609""
","
","","","-1","","","14","4935","2144","e","elianto","#f73b6a7A"," ","-1","0","-10","[]","0","2","","","4935","22","2","3","lose","go","0"
"pit-trial","141","1019451","0.0-27.0","battery-v0.2","","""event"",""trial"",""time""
""fullscreenenter"",""1"",""3609""
","
","
","""event"",""trial"",""time""
""fullscreenenter"",""1"",""3609""
","
","","","721.3999999761581","","","14","4935","2144","w","elianto","#f73b6a7A","-1"," ","0","-10","[1574.5]","1","2","","","4935","23","3","4","lose","no-go","0"
"pit-trial","142","1023121","0.0-28.0","battery-v0.2","","""event"",""trial"",""time""
""fullscreenenter"",""1"",""3609""
","
","
","""event"",""trial"",""time""
""fullscreenenter"",""1"",""3609""
","
","","","792.1999999880791","","","14","4935","2144","d","elianto","#3366ff99","-1"," ","0","0","[1643.4000000357628]","1","2","","","4935","24","1","2","win","no-go","0"
"pit-trial","143","1027991","0.0-29.0","battery-v0.2","","""event"",""trial"",""time""
""fullscreenenter"",""1"",""3609""
","
","
","""event"",""trial"",""time""
""fullscreenenter"",""1"",""3609""
","
","","","-1","","","14","4935","2144","d","elianto","#3366ff99","-1","-1","1","+10","[]","0","2","","","4935","25","1","2","win","no-go","0"
"pit-trial","144","1031714","0.0-30.0","battery-v0.2","","""event"",""trial"",""time""
""fullscreenenter"",""1"",""3609""
","
","
","""event"",""trial"",""time""
""fullscreenenter"",""1"",""3609""
","
","","","838.4000000357628","","","14","4935","2144","j","elianto","#f73b6a7A"," "," ","1","0","[1694.199999988079]","1","2","","","4935","26","0","3","lose","go","0"
"pit-trial","145","1035792","0.0-31.0","battery-v0.2","","""event"",""trial"",""time""
""fullscreenenter"",""1"",""3609""
","
","
","""event"",""trial"",""time""
""fullscreenenter"",""1"",""3609""
","
","","","1210.300000011921","","","14","4935","2144","e","elianto","#f73b6a7A"," "," ","1","0","[2063]","1","2","","","4935","27","2","3","lose","go","0"
"pit-trial","146","1040664","0.0-32.0","battery-v0.2","","""event"",""trial"",""time""
""fullscreenenter"",""1"",""3609""
","
","
","""event"",""trial"",""time""
""fullscreenenter"",""1"",""3609""
","
","","","-1","","","14","4935","2144","w","elianto","#f73b6a7A","-1","-1","1","-10","[]","0","2","","","4935","28","3","4","lose","no-go","1"
"pit-trial","147","1044727","0.0-33.0","battery-v0.2","","""event"",""trial"",""time""
""fullscreenenter"",""1"",""3609""
","
","
","""event"",""trial"",""time""
""fullscreenenter"",""1"",""3609""
","
","","","1196.6000000238419","","","14","4935","2144","j","elianto","#f73b6a7A"," "," ","1","0","[2049.100000023842]","1","2","","","4935","29","0","3","lose","go","0"
"pit-trial","148","1049602","0.0-34.0","battery-v0.2","","""event"",""trial"",""time""
""fullscreenenter"",""1"",""3609""
","
","
","""event"",""trial"",""time""
""fullscreenenter"",""1"",""3609""
","
","","","-1","","","14","4935","2144","d","elianto","#3366ff99","-1","-1","1","+10","[]","0","2","","","4935","30","1","2","win","no-go","0"
"pit-trial","149","1053503","0.0-35.0","battery-v0.2","","""event"",""trial"",""time""
""fullscreenenter"",""1"",""3609""
","
","
","""event"",""trial"",""time""
""fullscreenenter"",""1"",""3609""
","
","","","1038.5","","","14","4935","2144","e","elianto","#f73b6a7A"," "," ","1","0","[1888.800000011921]","1","2","","","4935","31","2","3","lose","go","0"
"pit-trial","150","1058369","0.0-36.0","battery-v0.2","","""event"",""trial"",""time""
""fullscreenenter"",""1"",""3609""
","
","
","""event"",""trial"",""time""
""fullscreenenter"",""1"",""3609""
","
","","","-1","","","14","4935","2144","w","elianto","#f73b6a7A","-1","-1","1","0","[]","0","2","","","4935","32","3","4","lose","no-go","0"
"pit-trial","151","1063242","0.0-37.0","battery-v0.2","","""event"",""trial"",""time""
""fullscreenenter"",""1"",""3609""
","
","
","""event"",""trial"",""time""
""fullscreenenter"",""1"",""3609""
","
","","","-1","","","14","4935","2144","w","elianto","#f73b6a7A","-1","-1","1","0","[]","0","2","","","4935","33","3","4","lose","no-go","0"
"pit-trial","152","1066994","0.0-38.0","battery-v0.2","","""event"",""trial"",""time""
""fullscreenenter"",""1"",""3609""
","
","
","""event"",""trial"",""time""
""fullscreenenter"",""1"",""3609""
","
","","","885.4000000357628","","","14","4935","2144","e","elianto","#f73b6a7A"," "," ","1","-10","[1742.800000011921]","1","2","","","4935","34","2","3","lose","go","1"
"pit-trial","153","1070513","0.0-39.0","battery-v0.2","","""event"",""trial"",""time""
""fullscreenenter"",""1"",""3609""
","
","
","""event"",""trial"",""time""
""fullscreenenter"",""1"",""3609""
","
","","","649.8999999761581","","","14","4935","2144","j","elianto","#f73b6a7A"," "," ","1","0","[1505]","1","2","","","4935","35","0","3","lose","go","0"
"pit-trial","154","1074023","0.0-40.0","battery-v0.2","","""event"",""trial"",""time""
""fullscreenenter"",""1"",""3609""
","
","
","""event"",""trial"",""time""
""fullscreenenter"",""1"",""3609""
","
","","","646.5","","","14","4935","2144","d","elianto","#3366ff99","-1"," ","0","0","[1499.4000000357628]","1","2","","","4935","36","1","2","win","no-go","0"
"pit-trial","155","1078899","0.0-41.0","battery-v0.2","","""event"",""trial"",""time""
""fullscreenenter"",""1"",""3609""
","
","
","""event"",""trial"",""time""
""fullscreenenter"",""1"",""3609""
","
","","","-1","","","14","4935","2144","d","elianto","#3366ff99","-1","-1","1","+10","[]","0","2","","","4935","37","1","2","win","no-go","0"
"pit-trial","156","1083769","0.0-42.0","battery-v0.2","","""event"",""trial"",""time""
""fullscreenenter"",""1"",""3609""
","
","
","""event"",""trial"",""time""
""fullscreenenter"",""1"",""3609""
","
","","","-1","","","14","4935","2144","w","elianto","#f73b6a7A","-1","-1","1","0","[]","0","2","","","4935","38","3","4","lose","no-go","0"
"pit-trial","157","1087270","0.0-43.0","battery-v0.2","","""event"",""trial"",""time""
""fullscreenenter"",""1"",""3609""
","
","
","""event"",""trial"",""time""
""fullscreenenter"",""1"",""3609""
","
","","","620.3000000119209","","","14","4935","2144","j","elianto","#f73b6a7A"," "," ","1","-10","[1482.5]","1","2","","","4935","39","0","3","lose","go","1"
"pit-trial","158","1092146","0.0-44.0","battery-v0.2","","""event"",""trial"",""time""
""fullscreenenter"",""1"",""3609""
","
","
","""event"",""trial"",""time""
""fullscreenenter"",""1"",""3609""
","
","","","-1","","","14","4935","2144","e","elianto","#f73b6a7A"," ","-1","0","-10","[2864.399999976158]","1","2","","","4935","40","2","3","lose","go","0"
"pit-trial","159","1097031","0.0-45.0","battery-v0.2","","""event"",""trial"",""time""
""fullscreenenter"",""1"",""3609""
","
","
","""event"",""trial"",""time""
""fullscreenenter"",""1"",""3609""
","
","","","-1","","","14","4935","2144","w","elianto","#f73b6a7A","-1","-1","1","0","[]","0","2","","","4935","41","3","4","lose","no-go","0"
"pit-trial","160","1100849","0.0-46.0","battery-v0.2","","""event"",""trial"",""time""
""fullscreenenter"",""1"",""3609""
","
","
","""event"",""trial"",""time""
""fullscreenenter"",""1"",""3609""
","
","","","957.5999999642372","","","14","4935","2144","d","elianto","#3366ff99","-1"," ","0","0","[1810.5999999642372,3460]","2","2","","","4935","42","1","2","win","no-go","0"
"pit-trial","161","1104524","0.0-47.0","battery-v0.2","","""event"",""trial"",""time""
""fullscreenenter"",""1"",""3609""
","
","
","""event"",""trial"",""time""
""fullscreenenter"",""1"",""3609""
","
","","","801.1000000238419","","","14","4935","2144","e","elianto","#f73b6a7A"," "," ","1","-10","[1652.8999999761581]","1","2","","","4935","43","2","3","lose","go","1"
"pit-trial","162","1108335","0.0-48.0","battery-v0.2","","""event"",""trial"",""time""
""fullscreenenter"",""1"",""3609""
","
","
","""event"",""trial"",""time""
""fullscreenenter"",""1"",""3609""
","
","","","939.6000000238419","","","14","4935","2144","j","elianto","#f73b6a7A"," "," ","1","0","[1798.6000000238419]","1","2","","","4935","44","0","3","lose","go","0"
"pit-trial","163","1111923","0.0-49.0","battery-v0.2","","""event"",""trial"",""time""
""fullscreenenter"",""1"",""3609""
","
","
","""event"",""trial"",""time""
""fullscreenenter"",""1"",""3609""
","
","","","727","","","14","4935","2144","j","elianto","#f73b6a7A"," "," ","1","-10","[1579.699999988079]","1","2","","","4935","45","0","3","lose","go","1"
"pit-trial","164","1115612","0.0-50.0","battery-v0.2","","""event"",""trial"",""time""
""fullscreenenter"",""1"",""3609""
","
","
","""event"",""trial"",""time""
""fullscreenenter"",""1"",""3609""
","
","","","817.8999999761581","","","14","4935","2144","e","elianto","#f73b6a7A"," "," ","1","0","[1678.6000000238419]","1","2","","","4935","46","2","3","lose","go","0"
"pit-trial","165","1120486","0.0-51.0","battery-v0.2","","""event"",""trial"",""time""
""fullscreenenter"",""1"",""3609""
","
","
","""event"",""trial"",""time""
""fullscreenenter"",""1"",""3609""
","
","","","-1","","","14","4935","2144","d","elianto","#3366ff99","-1","-1","1","+10","[]","0","2","","","4935","47","1","2","win","no-go","0"
"pit-trial","166","1125355","0.0-52.0","battery-v0.2","","""event"",""trial"",""time""
""fullscreenenter"",""1"",""3609""
","
","
","""event"",""trial"",""time""
""fullscreenenter"",""1"",""3609""
","
","","","-1","","","14","4935","2144","w","elianto","#f73b6a7A","-1","-1","1","-10","[]","0","2","","","4935","48","3","4","lose","no-go","1"
"pit-trial","167","1130223","0.0-53.0","battery-v0.2","","""event"",""trial"",""time""
""fullscreenenter"",""1"",""3609""
","
","
","""event"",""trial"",""time""
""fullscreenenter"",""1"",""3609""
","
","","","-1","","","14","4935","2144","d","elianto","#3366ff99","-1","-1","1","0","[]","0","2","","","4935","49","1","2","win","no-go","1"
"pit-trial","168","1134136","0.0-54.0","battery-v0.2","","""event"",""trial"",""time""
""fullscreenenter"",""1"",""3609""
","
","
","""event"",""trial"",""time""
""fullscreenenter"",""1"",""3609""
","
","","","1034.800000011921","","","14","4935","2144","j","elianto","#f73b6a7A"," "," ","1","0","[1895.1000000238419]","1","2","","","4935","50","0","3","lose","go","0"
"pit-trial","169","1137533","0.0-55.0","battery-v0.2","","""event"",""trial"",""time""
""fullscreenenter"",""1"",""3609""
","
","
","""event"",""trial"",""time""
""fullscreenenter"",""1"",""3609""
","
","","","535.8000000119209","","","14","4935","2144","e","elianto","#f73b6a7A"," "," ","1","0","[1386.4000000357628]","1","2","","","4935","51","2","3","lose","go","0"
"pit-trial","170","1142412","0.0-56.0","battery-v0.2","","""event"",""trial"",""time""
""fullscreenenter"",""1"",""3609""
","
","
","""event"",""trial"",""time""
""fullscreenenter"",""1"",""3609""
","
","","","-1","","","14","4935","2144","w","elianto","#f73b6a7A","-1","-1","1","0","[]","0","2","","","4935","52","3","4","lose","no-go","0"
"pit-trial","171","1147282","0.0-57.0","battery-v0.2","","""event"",""trial"",""time""
""fullscreenenter"",""1"",""3609""
","
","
","""event"",""trial"",""time""
""fullscreenenter"",""1"",""3609""
","
","","","-1","","","14","4935","2144","d","elianto","#3366ff99","-1","-1","1","+10","[]","0","2","","","4935","53","1","2","win","no-go","0"
"pit-trial","172","1151018","0.0-58.0","battery-v0.2","","""event"",""trial"",""time""
""fullscreenenter"",""1"",""3609""
","
","
","""event"",""trial"",""time""
""fullscreenenter"",""1"",""3609""
","
","","","876.8999999761581","","","14","4935","2144","e","elianto","#f73b6a7A"," "," ","1","0","[1728.300000011921]","1","2","","","4935","54","2","3","lose","go","0"
"pit-trial","173","1155898","0.0-59.0","battery-v0.2","","""event"",""trial"",""time""
""fullscreenenter"",""1"",""3609""
","
","
","""event"",""trial"",""time""
""fullscreenenter"",""1"",""3609""
","
","","","-1","","","14","4935","2144","w","elianto","#f73b6a7A","-1","-1","1","0","[]","0","2","","","4935","55","3","4","lose","no-go","0"
"pit-trial","174","1159913","0.0-60.0","battery-v0.2","","""event"",""trial"",""time""
""fullscreenenter"",""1"",""3609""
","
","
","""event"",""trial"",""time""
""fullscreenenter"",""1"",""3609""
","
","","","1152.5","","","14","4935","2144","j","elianto","#f73b6a7A"," "," ","1","0","[2004.800000011921]","1","2","","","4935","56","0","3","lose","go","0"
"pit-trial","175","1163450","0.0-61.0","battery-v0.2","","""event"",""trial"",""time""
""fullscreenenter"",""1"",""3609""
","
","
","""event"",""trial"",""time""
""fullscreenenter"",""1"",""3609""
","
","","","672.3000000119209","","","14","4935","2144","e","elianto","#f73b6a7A"," "," ","1","0","[1526.3999999761581]","1","2","","","4935","57","2","3","lose","go","0"
"pit-trial","176","1167286","0.0-62.0","battery-v0.2","","""event"",""trial"",""time""
""fullscreenenter"",""1"",""3609""
","
","
","""event"",""trial"",""time""
""fullscreenenter"",""1"",""3609""
","
","","","970.9000000357628","","","14","4935","2144","s","elianto","#3366ff99"," "," ","1","+10","[1822.6000000238419]","1","2","","","4935","58","4","1","win","go","0"
"pit-trial","177","1172152","0.0-63.0","battery-v0.2","","""event"",""trial"",""time""
""fullscreenenter"",""1"",""3609""
","
","
","""event"",""trial"",""time""
""fullscreenenter"",""1"",""3609""
","
","","","-1","","","14","4935","2144","w","elianto","#f73b6a7A","-1","-1","1","0","[]","0","2","","","4935","59","3","4","lose","no-go","0"
"pit-trial","178","1175877","0.0-64.0","battery-v0.2","","""event"",""trial"",""time""
""fullscreenenter"",""1"",""3609""
","
","
","""event"",""trial"",""time""
""fullscreenenter"",""1"",""3609""
","
","","","858.1000000238419","","","14","4935","2144","j","elianto","#f73b6a7A"," "," ","1","0","[1708.800000011921]","1","2","","","4935","60","0","3","lose","go","0"
"pit-trial","179","1180752","0.0-65.0","battery-v0.2","","""event"",""trial"",""time""
""fullscreenenter"",""1"",""3609""
","
","
","""event"",""trial"",""time""
""fullscreenenter"",""1"",""3609""
","
","","","-1","","","14","4935","2144","d","elianto","#3366ff99","-1","-1","1","+10","[]","0","2","","","4935","61","1","2","win","no-go","0"
"pit-trial","180","1184324","0.0-66.0","battery-v0.2","","""event"",""trial"",""time""
""fullscreenenter"",""1"",""3609""
","
","
","""event"",""trial"",""time""
""fullscreenenter"",""1"",""3609""
","
","","","709.3999999761581","","","14","4935","2144","s","elianto","#3366ff99"," "," ","1","+10","[1560.699999988079]","1","2","","","4935","62","4","1","win","go","0"
"pit-trial","181","1188267","0.0-67.0","battery-v0.2","","""event"",""trial"",""time""
""fullscreenenter"",""1"",""3609""
","
","
","""event"",""trial"",""time""
""fullscreenenter"",""1"",""3609""
","
","","","1072.5","","","14","4935","2144","e","elianto","#f73b6a7A"," "," ","1","0","[1931.3999999761581]","1","2","","","4935","63","2","3","lose","go","0"
"pit-trial","182","1193148","0.0-68.0","battery-v0.2","","""event"",""trial"",""time""
""fullscreenenter"",""1"",""3609""
","
","
","""event"",""trial"",""time""
""fullscreenenter"",""1"",""3609""
","
","","","-1","","","14","4935","2144","w","elianto","#f73b6a7A","-1","-1","1","0","[]","0","2","","","4935","64","3","4","lose","no-go","0"
"pit-trial","183","1196987","0.0-69.0","battery-v0.2","","""event"",""trial"",""time""
""fullscreenenter"",""1"",""3609""
","
","
","""event"",""trial"",""time""
""fullscreenenter"",""1"",""3609""
","
","","","979","","","14","4935","2144","p","elianto","#3366ff99","-1"," ","0","0","[1830.5999999642372]","1","2","","","4935","65","5","2","win","no-go","0"
"pit-trial","184","1200474","0.0-70.0","battery-v0.2","","""event"",""trial"",""time""
""fullscreenenter"",""1"",""3609""
","
","
","""event"",""trial"",""time""
""fullscreenenter"",""1"",""3609""
","
","","","625.4000000357628","","","14","4935","2144","s","elianto","#3366ff99"," "," ","1","+10","[1476.1000000238419]","1","2","","","4935","66","4","1","win","go","0"
"pit-trial","185","1204116","0.0-71.0","battery-v0.2","","""event"",""trial"",""time""
""fullscreenenter"",""1"",""3609""
","
","
","""event"",""trial"",""time""
""fullscreenenter"",""1"",""3609""
","
","","","766.1000000238419","","","14","4935","2144","d","elianto","#3366ff99","-1"," ","0","0","[1624.4000000357628]","1","2","","","4935","67","1","2","win","no-go","0"
"pit-trial","186","1208990","0.0-72.0","battery-v0.2","","""event"",""trial"",""time""
""fullscreenenter"",""1"",""3609""
","
","
","""event"",""trial"",""time""
""fullscreenenter"",""1"",""3609""
","
","","","-1","","","14","4935","2144","w","elianto","#f73b6a7A","-1","-1","1","0","[]","0","2","","","4935","68","3","4","lose","no-go","0"
"pit-trial","187","1213864","0.0-73.0","battery-v0.2","","""event"",""trial"",""time""
""fullscreenenter"",""1"",""3609""
","
","
","""event"",""trial"",""time""
""fullscreenenter"",""1"",""3609""
","
","","","-1","","","14","4935","2144","d","elianto","#3366ff99","-1","-1","1","+10","[]","0","2","","","4935","69","1","2","win","no-go","0"
"pit-trial","188","1218729","0.0-74.0","battery-v0.2","","""event"",""trial"",""time""
""fullscreenenter"",""1"",""3609""
","
","
","""event"",""trial"",""time""
""fullscreenenter"",""1"",""3609""
","
","","","-1","","","14","4935","2144","p","elianto","#3366ff99","-1","-1","1","+10","[]","0","2","","","4935","70","5","2","win","no-go","0"
"pit-trial","189","1222445","0.0-75.0","battery-v0.2","","""event"",""trial"",""time""
""fullscreenenter"",""1"",""3609""
","
","
","""event"",""trial"",""time""
""fullscreenenter"",""1"",""3609""
","
","","","849.1999999880791","","","14","4935","2144","e","elianto","#f73b6a7A"," "," ","1","0","[1701]","1","2","","","4935","71","2","3","lose","go","0"
"pit-trial","190","1226390","0.0-76.0","battery-v0.2","","""event"",""trial"",""time""
""fullscreenenter"",""1"",""3609""
","
","
","""event"",""trial"",""time""
""fullscreenenter"",""1"",""3609""
","
","","","1072.4000000357628","","","14","4935","2144","s","elianto","#3366ff99"," "," ","1","+10","[1926.699999988079]","1","2","","","4935","72","4","1","win","go","0"
"pit-trial","191","1231268","0.0-77.0","battery-v0.2","","""event"",""trial"",""time""
""fullscreenenter"",""1"",""3609""
","
","
","""event"",""trial"",""time""
""fullscreenenter"",""1"",""3609""
","
","","","-1","","","14","4935","2144","p","elianto","#3366ff99","-1","-1","1","+10","[]","0","2","","","4935","73","5","2","win","no-go","0"
"pit-trial","192","1236143","0.0-78.0","battery-v0.2","","""event"",""trial"",""time""
""fullscreenenter"",""1"",""3609""
","
","
","""event"",""trial"",""time""
""fullscreenenter"",""1"",""3609""
","
","","","-1","","","14","4935","2144","d","elianto","#3366ff99","-1","-1","1","0","[]","0","2","","","4935","74","1","2","win","no-go","1"
"pit-trial","193","1239771","0.0-79.0","battery-v0.2","","""event"",""trial"",""time""
""fullscreenenter"",""1"",""3609""
","
","
","""event"",""trial"",""time""
""fullscreenenter"",""1"",""3609""
","
","","","757","","","14","4935","2144","s","elianto","#3366ff99"," "," ","1","+10","[1612.9000000357628]","1","2","","","4935","75","4","1","win","go","0"
"pit-trial","194","1244646","0.0-80.0","battery-v0.2","","""event"",""trial"",""time""
""fullscreenenter"",""1"",""3609""
","
","
","""event"",""trial"",""time""
""fullscreenenter"",""1"",""3609""
","
","","","-1","","","14","4935","2144","w","elianto","#f73b6a7A","-1","-1","1","0","[]","0","2","","","4935","76","3","4","lose","no-go","0"
"pit-trial","195","1249530","0.0-81.0","battery-v0.2","","""event"",""trial"",""time""
""fullscreenenter"",""1"",""3609""
","
","
","""event"",""trial"",""time""
""fullscreenenter"",""1"",""3609""
","
","","","-1","","","14","4935","2144","w","elianto","#f73b6a7A","-1","-1","1","0","[]","0","2","","","4935","77","3","4","lose","no-go","0"
"pit-trial","196","1254414","0.0-82.0","battery-v0.2","","""event"",""trial"",""time""
""fullscreenenter"",""1"",""3609""
","
","
","""event"",""trial"",""time""
""fullscreenenter"",""1"",""3609""
","
","","","-1","","","14","4935","2144","p","elianto","#3366ff99","-1","-1","1","+10","[]","0","2","","","4935","78","5","2","win","no-go","0"
"pit-trial","197","1258065","0.0-83.0","battery-v0.2","","""event"",""trial"",""time""
""fullscreenenter"",""1"",""3609""
","
","
","""event"",""trial"",""time""
""fullscreenenter"",""1"",""3609""
","
","","","789.8999999761581","","","14","4935","2144","s","elianto","#3366ff99"," "," ","1","+10","[1641.0999999642372]","1","2","","","4935","79","4","1","win","go","0"
"pit-trial","198","1261631","0.0-84.0","battery-v0.2","","""event"",""trial"",""time""
""fullscreenenter"",""1"",""3609""
","
","
","""event"",""trial"",""time""
""fullscreenenter"",""1"",""3609""
","
","","","702.1999999880791","","","14","4935","2144","s","elianto","#3366ff99"," "," ","1","+10","[1554.300000011921]","1","2","","","4935","80","4","1","win","go","0"
"pit-trial","199","1266504","0.0-85.0","battery-v0.2","","""event"",""trial"",""time""
""fullscreenenter"",""1"",""3609""
","
","
","""event"",""trial"",""time""
""fullscreenenter"",""1"",""3609""
","
","","","-1","","","14","4935","2144","p","elianto","#3366ff99","-1","-1","1","+10","[]","0","2","","","4935","81","5","2","win","no-go","0"
"pit-trial","200","1270171","0.0-86.0","battery-v0.2","","""event"",""trial"",""time""
""fullscreenenter"",""1"",""3609""
","
","
","""event"",""trial"",""time""
""fullscreenenter"",""1"",""3609""
","
","","","796.8000000119209","","","14","4935","2144","s","elianto","#3366ff99"," "," ","1","+10","[1652.800000011921]","1","2","","","4935","82","4","1","win","go","0"
"pit-trial","201","1273933","0.0-87.0","battery-v0.2","","""event"",""trial"",""time""
""fullscreenenter"",""1"",""3609""
","
","
","""event"",""trial"",""time""
""fullscreenenter"",""1"",""3609""
","
","","","889.6000000238419","","","14","4935","2144","w","elianto","#f73b6a7A","-1"," ","0","-10","[1750]","1","2","","","4935","83","3","4","lose","no-go","0"
"pit-trial","202","1277767","0.0-88.0","battery-v0.2","","""event"",""trial"",""time""
""fullscreenenter"",""1"",""3609""
","
","
","""event"",""trial"",""time""
""fullscreenenter"",""1"",""3609""
","
","","","961.1999999880791","","","14","4935","2144","a","elianto","#f73b6a7A","-1"," ","0","-10","[1814.2999999523163]","1","2","","","4935","84","7","4","lose","no-go","0"
"pit-trial","203","1282635","0.0-89.0","battery-v0.2","","""event"",""trial"",""time""
""fullscreenenter"",""1"",""3609""
","
","
","""event"",""trial"",""time""
""fullscreenenter"",""1"",""3609""
","
","","","-1","","","14","4935","2144","p","elianto","#3366ff99","-1","-1","1","+10","[]","0","2","","","4935","85","5","2","win","no-go","0"
"pit-trial","204","1287483","0.0-90.0","battery-v0.2","","""event"",""trial"",""time""
""fullscreenenter"",""1"",""3609""
","
","
","""event"",""trial"",""time""
""fullscreenenter"",""1"",""3609""
","
","","","1984.1000000238419","","","14","4935","2144","g","elianto","#f73b6a7A"," "," ","1","-10","[2834.199999988079]","1","2","","","4935","86","6","3","lose","go","1"
"pit-trial","205","1292354","0.0-91.0","battery-v0.2","","""event"",""trial"",""time""
""fullscreenenter"",""1"",""3609""
","
","
","""event"",""trial"",""time""
""fullscreenenter"",""1"",""3609""
","
","","","-1","","","14","4935","2144","a","elianto","#f73b6a7A","-1","-1","1","0","[]","0","2","","","4935","87","7","4","lose","no-go","0"
"pit-trial","206","1296065","0.0-92.0","battery-v0.2","","""event"",""trial"",""time""
""fullscreenenter"",""1"",""3609""
","
","
","""event"",""trial"",""time""
""fullscreenenter"",""1"",""3609""
","
","","","851.6000000238419","","","14","4935","2144","s","elianto","#3366ff99"," "," ","1","+10","[1702.3999999761581]","1","2","","","4935","88","4","1","win","go","0"
"pit-trial","207","1300945","0.0-93.0","battery-v0.2","","""event"",""trial"",""time""
""fullscreenenter"",""1"",""3609""
","
","
","""event"",""trial"",""time""
""fullscreenenter"",""1"",""3609""
","
","","","-1","","","14","4935","2144","a","elianto","#f73b6a7A","-1","-1","1","-10","[]","0","2","","","4935","89","7","4","lose","no-go","1"
"pit-trial","208","1304521","0.0-94.0","battery-v0.2","","""event"",""trial"",""time""
""fullscreenenter"",""1"",""3609""
","
","
","""event"",""trial"",""time""
""fullscreenenter"",""1"",""3609""
","
","","","716.8999999761581","","","14","4935","2144","s","elianto","#3366ff99"," "," ","1","0","[1568.5]","1","2","","","4935","90","4","1","win","go","1"
"pit-trial","209","1309387","0.0-95.0","battery-v0.2","","""event"",""trial"",""time""
""fullscreenenter"",""1"",""3609""
","
","
","""event"",""trial"",""time""
""fullscreenenter"",""1"",""3609""
","
","","","-1","","","14","4935","2144","g","elianto","#f73b6a7A"," ","-1","0","-10","[]","0","2","","","4935","91","6","3","lose","go","0"
"pit-trial","210","1314258","0.0-96.0","battery-v0.2","","""event"",""trial"",""time""
""fullscreenenter"",""1"",""3609""
","
","
","""event"",""trial"",""time""
""fullscreenenter"",""1"",""3609""
","
","","","-1","","","14","4935","2144","p","elianto","#3366ff99","-1","-1","1","+10","[]","0","2","","","4935","92","5","2","win","no-go","0"
"pit-trial","211","1319131","0.0-97.0","battery-v0.2","","""event"",""trial"",""time""
""fullscreenenter"",""1"",""3609""
","
","
","""event"",""trial"",""time""
""fullscreenenter"",""1"",""3609""
","
","","","-1","","","14","4935","2144","a","elianto","#f73b6a7A","-1","-1","1","0","[]","0","2","","","4935","93","7","4","lose","no-go","0"
"pit-trial","212","1324012","0.0-98.0","battery-v0.2","","""event"",""trial"",""time""
""fullscreenenter"",""1"",""3609""
","
","
","""event"",""trial"",""time""
""fullscreenenter"",""1"",""3609""
","
","","","-1","","","14","4935","2144","p","elianto","#3366ff99","-1","-1","1","+10","[]","0","2","","","4935","94","5","2","win","no-go","0"
"pit-trial","213","1328741","0.0-99.0","battery-v0.2","","""event"",""trial"",""time""
""fullscreenenter"",""1"",""3609""
","
","
","""event"",""trial"",""time""
""fullscreenenter"",""1"",""3609""
","
","","","1861.800000011921","","","14","4935","2144","l","elianto","#3366ff99"," "," ","1","0","[2713.900000035763]","1","2","","","4935","95","8","1","win","go","1"
"pit-trial","214","1333491","0.0-100.0","battery-v0.2","","""event"",""trial"",""time""
""fullscreenenter"",""1"",""3609""
","
","
","""event"",""trial"",""time""
""fullscreenenter"",""1"",""3609""
","
","","","1884.8999999761581","","","14","4935","2144","g","elianto","#f73b6a7A"," "," ","1","-10","[2741.2999999523163]","1","2","","","4935","96","6","3","lose","go","1"
"pit-trial","215","1338371","0.0-101.0","battery-v0.2","","""event"",""trial"",""time""
""fullscreenenter"",""1"",""3609""
","
","
","""event"",""trial"",""time""
""fullscreenenter"",""1"",""3609""
","
","","","-1","","","14","4935","2144","p","elianto","#3366ff99","-1","-1","1","+10","[]","0","2","","","4935","97","5","2","win","no-go","0"
"pit-trial","216","1343242","0.0-102.0","battery-v0.2","","""event"",""trial"",""time""
""fullscreenenter"",""1"",""3609""
","
","
","""event"",""trial"",""time""
""fullscreenenter"",""1"",""3609""
","
","","","-1","","","14","4935","2144","g","elianto","#f73b6a7A"," ","-1","0","-10","[]","0","2","","","4935","98","6","3","lose","go","0"
"pit-trial","217","1347685","0.0-103.0","battery-v0.2","","""event"",""trial"",""time""
""fullscreenenter"",""1"",""3609""
","
","
","""event"",""trial"",""time""
""fullscreenenter"",""1"",""3609""
","
","","","1573.800000011921","","","14","4935","2144","l","elianto","#3366ff99"," "," ","1","+10","[2428.199999988079]","1","2","","","4935","99","8","1","win","go","0"
"pit-trial","218","1352572","0.0-104.0","battery-v0.2","","""event"",""trial"",""time""
""fullscreenenter"",""1"",""3609""
","
","
","""event"",""trial"",""time""
""fullscreenenter"",""1"",""3609""
","
","","","-1","","","14","4935","2144","a","elianto","#f73b6a7A","-1","-1","1","0","[]","0","2","","","4935","100","7","4","lose","no-go","0"
"pit-trial","219","1356271","0.0-105.0","battery-v0.2","","""event"",""trial"",""time""
""fullscreenenter"",""1"",""3609""
","
","
","""event"",""trial"",""time""
""fullscreenenter"",""1"",""3609""
","
","","","829","","","14","4935","2144","l","elianto","#3366ff99"," "," ","1","0","[1687.1000000238419]","1","2","","","4935","101","8","1","win","go","1"
"pit-trial","220","1361145","0.0-106.0","battery-v0.2","","""event"",""trial"",""time""
""fullscreenenter"",""1"",""3609""
","
","
","""event"",""trial"",""time""
""fullscreenenter"",""1"",""3609""
","
","","","-1","","","14","4935","2144","a","elianto","#f73b6a7A","-1","-1","1","-10","[]","0","2","","","4935","102","7","4","lose","no-go","1"
"pit-trial","221","1365058","0.0-107.0","battery-v0.2","","""event"",""trial"",""time""
""fullscreenenter"",""1"",""3609""
","
","
","""event"",""trial"",""time""
""fullscreenenter"",""1"",""3609""
","
","","","1045.199999988079","","","14","4935","2144","u","elianto","#3366ff99"," "," ","1","+10","[1896.800000011921]","1","2","","","4935","103","9","1","win","go","0"
"pit-trial","222","1369931","0.0-108.0","battery-v0.2","","""event"",""trial"",""time""
""fullscreenenter"",""1"",""3609""
","
","
","""event"",""trial"",""time""
""fullscreenenter"",""1"",""3609""
","
","","","-1","","","14","4935","2144","p","elianto","#3366ff99","-1","-1","1","+10","[]","0","2","","","4935","104","5","2","win","no-go","0"
"pit-trial","223","1373745","0.0-109.0","battery-v0.2","","""event"",""trial"",""time""
""fullscreenenter"",""1"",""3609""
","
","
","""event"",""trial"",""time""
""fullscreenenter"",""1"",""3609""
","
","","","949.8000000119209","","","14","4935","2144","s","elianto","#3366ff99"," "," ","1","+10","[1801.8999999761581]","1","2","","","4935","105","4","1","win","go","0"
"pit-trial","224","1377589","0.0-110.0","battery-v0.2","","""event"",""trial"",""time""
""fullscreenenter"",""1"",""3609""
","
","
","""event"",""trial"",""time""
""fullscreenenter"",""1"",""3609""
","
","","","977.1999999880791","","","14","4935","2144","u","elianto","#3366ff99"," "," ","1","+10","[1828.699999988079]","1","2","","","4935","106","9","1","win","go","0"
"pit-trial","225","1381668","0.0-111.0","battery-v0.2","","""event"",""trial"",""time""
""fullscreenenter"",""1"",""3609""
","
","
","""event"",""trial"",""time""
""fullscreenenter"",""1"",""3609""
","
","","","1209.5","","","14","4935","2144","l","elianto","#3366ff99"," "," ","1","0","[2067.5]","1","2","","","4935","107","8","1","win","go","1"
"pit-trial","226","1385974","0.0-112.0","battery-v0.2","","""event"",""trial"",""time""
""fullscreenenter"",""1"",""3609""
","
","
","""event"",""trial"",""time""
""fullscreenenter"",""1"",""3609""
","
","","","1427.9000000357628","","","14","4935","2144","g","elianto","#f73b6a7A"," "," ","1","0","[2289]","1","2","","","4935","108","6","3","lose","go","0"
"pit-trial","227","1390853","0.0-113.0","battery-v0.2","","""event"",""trial"",""time""
""fullscreenenter"",""1"",""3609""
","
","
","""event"",""trial"",""time""
""fullscreenenter"",""1"",""3609""
","
","","","-1","","","14","4935","2144","p","elianto","#3366ff99","-1","-1","1","+10","[]","0","2","","","4935","109","5","2","win","no-go","0"
"pit-trial","228","1394767","0.0-114.0","battery-v0.2","","""event"",""trial"",""time""
""fullscreenenter"",""1"",""3609""
","
","
","""event"",""trial"",""time""
""fullscreenenter"",""1"",""3609""
","
","","","1038.2999999523163","","","14","4935","2144","u","elianto","#3366ff99"," "," ","1","+10","[1897.5]","1","2","","","4935","110","9","1","win","go","0"
"pit-trial","229","1399635","0.0-115.0","battery-v0.2","","""event"",""trial"",""time""
""fullscreenenter"",""1"",""3609""
","
","
","""event"",""trial"",""time""
""fullscreenenter"",""1"",""3609""
","
","","","-1","","","14","4935","2144","g","elianto","#f73b6a7A"," ","-1","0","0","[]","0","2","","","4935","111","6","3","lose","go","1"
"pit-trial","230","1404506","0.0-116.0","battery-v0.2","","""event"",""trial"",""time""
""fullscreenenter"",""1"",""3609""
","
","
","""event"",""trial"",""time""
""fullscreenenter"",""1"",""3609""
","
","","","-1","","","14","4935","2144","l","elianto","#3366ff99"," ","-1","0","+10","[]","0","2","","","4935","112","8","1","win","go","1"
"pit-trial","231","1408375","0.0-117.0","battery-v0.2","","""event"",""trial"",""time""
""fullscreenenter"",""1"",""3609""
","
","
","""event"",""trial"",""time""
""fullscreenenter"",""1"",""3609""
","
","","","999.6999999880791","","","14","4935","2144","g","elianto","#f73b6a7A"," "," ","1","0","[1851.3999999761581]","1","2","","","4935","113","6","3","lose","go","0"
"pit-trial","232","1413247","0.0-118.0","battery-v0.2","","""event"",""trial"",""time""
""fullscreenenter"",""1"",""3609""
","
","
","""event"",""trial"",""time""
""fullscreenenter"",""1"",""3609""
","
","","","-1","","","14","4935","2144","p","elianto","#3366ff99","-1","-1","1","0","[]","0","2","","","4935","114","5","2","win","no-go","1"
"pit-trial","233","1418120","0.0-119.0","battery-v0.2","","""event"",""trial"",""time""
""fullscreenenter"",""1"",""3609""
","
","
","""event"",""trial"",""time""
""fullscreenenter"",""1"",""3609""
","
","","","-1","","","14","4935","2144","l","elianto","#3366ff99"," ","-1","0","0","[]","0","2","","","4935","115","8","1","win","go","0"
"pit-trial","234","1421882","0.0-120.0","battery-v0.2","","""event"",""trial"",""time""
""fullscreenenter"",""1"",""3609""
","
","
","""event"",""trial"",""time""
""fullscreenenter"",""1"",""3609""
","
","","","898.3999999761581","","","14","4935","2144","u","elianto","#3366ff99"," "," ","1","+10","[1754.5]","1","2","","","4935","116","9","1","win","go","0"
"pit-trial","235","1425463","0.0-121.0","battery-v0.2","","""event"",""trial"",""time""
""fullscreenenter"",""1"",""3609""
","
","
","""event"",""trial"",""time""
""fullscreenenter"",""1"",""3609""
","
","","","716.6999999880791","","","14","4935","2144","u","elianto","#3366ff99"," "," ","1","+10","[1566.9000000357628]","1","2","","","4935","117","9","1","win","go","0"
"pit-trial","236","1430340","0.0-122.0","battery-v0.2","","""event"",""trial"",""time""
""fullscreenenter"",""1"",""3609""
","
","
","""event"",""trial"",""time""
""fullscreenenter"",""1"",""3609""
","
","","","-1","","","14","4935","2144","l","elianto","#3366ff99"," ","-1","0","0","[]","0","2","","","4935","118","8","1","win","go","0"
"pit-trial","237","1435212","0.0-123.0","battery-v0.2","","""event"",""trial"",""time""
""fullscreenenter"",""1"",""3609""
","
","
","""event"",""trial"",""time""
""fullscreenenter"",""1"",""3609""
","
","","","-1","","","14","4935","2144","p","elianto","#3366ff99","-1","-1","1","0","[]","0","2","","","4935","119","5","2","win","no-go","1"
"pit-trial","238","1439525","0.0-124.0","battery-v0.2","","""event"",""trial"",""time""
""fullscreenenter"",""1"",""3609""
","
","
","""event"",""trial"",""time""
""fullscreenenter"",""1"",""3609""
","
","","","1447.8999999761581","","","14","4935","2144","g","elianto","#f73b6a7A"," "," ","1","0","[2298.100000023842]","1","2","","","4935","120","6","3","lose","go","0"
"pit-trial","239","1443065","0.0-125.0","battery-v0.2","","""event"",""trial"",""time""
""fullscreenenter"",""1"",""3609""
","
","
","""event"",""trial"",""time""
""fullscreenenter"",""1"",""3609""
","
","","","674.8999999761581","","","14","4935","2144","u","elianto","#3366ff99"," "," ","1","+10","[1525.5999999642372]","1","2","","","4935","121","9","1","win","go","0"
"pit-trial","240","1447933","0.0-126.0","battery-v0.2","","""event"",""trial"",""time""
""fullscreenenter"",""1"",""3609""
","
","
","""event"",""trial"",""time""
""fullscreenenter"",""1"",""3609""
","
","","","-1","","","14","4935","2144","a","elianto","#f73b6a7A","-1","-1","1","0","[]","0","2","","","4935","122","7","4","lose","no-go","0"
"pit-trial","241","1452802","0.0-127.0","battery-v0.2","","""event"",""trial"",""time""
""fullscreenenter"",""1"",""3609""
","
","
","""event"",""trial"",""time""
""fullscreenenter"",""1"",""3609""
","
","","","-1","","","14","4935","2144","l","elianto","#3366ff99"," ","-1","0","0","[]","0","2","","","4935","123","8","1","win","go","0"
"pit-trial","242","1457681","0.0-128.0","battery-v0.2","","""event"",""trial"",""time""
""fullscreenenter"",""1"",""3609""
","
","
","""event"",""trial"",""time""
""fullscreenenter"",""1"",""3609""
","
","","","-1","","","14","4935","2144","g","elianto","#f73b6a7A"," ","-1","0","0","[]","0","2","","","4935","124","6","3","lose","go","1"
"pit-trial","243","1461435","0.0-129.0","battery-v0.2","","""event"",""trial"",""time""
""fullscreenenter"",""1"",""3609""
","
","
","""event"",""trial"",""time""
""fullscreenenter"",""1"",""3609""
","
","","","889.8999999761581","","","14","4935","2144","l","elianto","#3366ff99"," "," ","1","+10","[1740.5999999642372]","1","2","","","4935","125","8","1","win","go","0"
"pit-trial","244","1466307","0.0-130.0","battery-v0.2","","""event"",""trial"",""time""
""fullscreenenter"",""1"",""3609""
","
","
","""event"",""trial"",""time""
""fullscreenenter"",""1"",""3609""
","
","","","-1","","","14","4935","2144","a","elianto","#f73b6a7A","-1","-1","1","0","[]","0","2","","","4935","126","7","4","lose","no-go","0"
"pit-trial","245","1469852","0.0-131.0","battery-v0.2","","""event"",""trial"",""time""
""fullscreenenter"",""1"",""3609""
","
","
","""event"",""trial"",""time""
""fullscreenenter"",""1"",""3609""
","
","","","679.3000000119209","","","14","4935","2144","u","elianto","#3366ff99"," "," ","1","0","[1533.199999988079]","1","2","","","4935","127","9","1","win","go","1"
"pit-trial","246","1474738","0.0-132.0","battery-v0.2","","""event"",""trial"",""time""
""fullscreenenter"",""1"",""3609""
","
","
","""event"",""trial"",""time""
""fullscreenenter"",""1"",""3609""
","
","","","-1","","","14","4935","2144","g","elianto","#f73b6a7A"," ","-1","0","0","[]","0","2","","","4935","128","6","3","lose","go","1"
"pit-trial","247","1478582","0.0-133.0","battery-v0.2","","""event"",""trial"",""time""
""fullscreenenter"",""1"",""3609""
","
","
","""event"",""trial"",""time""
""fullscreenenter"",""1"",""3609""
","
","","","978.1000000238419","","","14","4935","2144","l","elianto","#3366ff99"," "," ","1","0","[1830.1000000238419]","1","2","","","4935","129","8","1","win","go","1"
"pit-trial","248","1482637","0.0-134.0","battery-v0.2","","""event"",""trial"",""time""
""fullscreenenter"",""1"",""3609""
","
","
","""event"",""trial"",""time""
""fullscreenenter"",""1"",""3609""
","
","","","1194","","","14","4935","2144","g","elianto","#f73b6a7A"," "," ","1","0","[2044.699999988079]","1","2","","","4935","130","6","3","lose","go","0"
"pit-trial","249","1486207","0.0-135.0","battery-v0.2","","""event"",""trial"",""time""
""fullscreenenter"",""1"",""3609""
","
","
","""event"",""trial"",""time""
""fullscreenenter"",""1"",""3609""
","
","","","695.1999999880791","","","14","4935","2144","u","elianto","#3366ff99"," "," ","1","+10","[1553.1000000238419]","1","2","","","4935","131","9","1","win","go","0"
"pit-trial","250","1491080","0.0-136.0","battery-v0.2","","""event"",""trial"",""time""
""fullscreenenter"",""1"",""3609""
","
","
","""event"",""trial"",""time""
""fullscreenenter"",""1"",""3609""
","
","","","-1","","","14","4935","2144","a","elianto","#f73b6a7A","-1","-1","1","-10","[]","0","2","","","4935","132","7","4","lose","no-go","1"
"pit-trial","251","1494960","0.0-137.0","battery-v0.2","","""event"",""trial"",""time""
""fullscreenenter"",""1"",""3609""
","
","
","""event"",""trial"",""time""
""fullscreenenter"",""1"",""3609""
","
","","","1005.5","","","14","4935","2144","l","elianto","#3366ff99"," "," ","1","+10","[1856.7000000476837]","1","2","","","4935","133","8","1","win","go","0"
"pit-trial","252","1499849","0.0-138.0","battery-v0.2","","""event"",""trial"",""time""
""fullscreenenter"",""1"",""3609""
","
","
","""event"",""trial"",""time""
""fullscreenenter"",""1"",""3609""
","
","","","-1","","","14","4935","2144","g","elianto","#f73b6a7A"," ","-1","0","-10","[]","0","2","","","4935","134","6","3","lose","go","0"
"pit-trial","253","1504714","0.0-139.0","battery-v0.2","","""event"",""trial"",""time""
""fullscreenenter"",""1"",""3609""
","
","
","""event"",""trial"",""time""
""fullscreenenter"",""1"",""3609""
","
","","","-1","","","14","4935","2144","a","elianto","#f73b6a7A","-1","-1","1","-10","[]","0","2","","","4935","135","7","4","lose","no-go","1"
"pit-trial","254","1508285","0.0-140.0","battery-v0.2","","""event"",""trial"",""time""
""fullscreenenter"",""1"",""3609""
","
","
","""event"",""trial"",""time""
""fullscreenenter"",""1"",""3609""
","
","","","710.1999999880791","","","14","4935","2144","u","elianto","#3366ff99"," "," ","1","+10","[1560.5]","1","2","","","4935","136","9","1","win","go","0"
"pit-trial","255","1513171","0.0-141.0","battery-v0.2","","""event"",""trial"",""time""
""fullscreenenter"",""1"",""3609""
","
","
","""event"",""trial"",""time""
""fullscreenenter"",""1"",""3609""
","
","","","-1","","","14","4935","2144","l","elianto","#3366ff99"," ","-1","0","+10","[]","0","2","","","4935","137","8","1","win","go","1"
"pit-trial","256","1518055","0.0-142.0","battery-v0.2","","""event"",""trial"",""time""
""fullscreenenter"",""1"",""3609""
","
","
","""event"",""trial"",""time""
""fullscreenenter"",""1"",""3609""
","
","","","-1","","","14","4935","2144","a","elianto","#f73b6a7A","-1","-1","1","0","[]","0","2","","","4935","138","7","4","lose","no-go","0"
"pit-trial","257","1522926","0.0-143.0","battery-v0.2","","""event"",""trial"",""time""
""fullscreenenter"",""1"",""3609""
","
","
","""event"",""trial"",""time""
""fullscreenenter"",""1"",""3609""
","
","","","-1","","","14","4935","2144","g","elianto","#f73b6a7A"," ","-1","0","-10","[]","0","2","","","4935","139","6","3","lose","go","0"
"pit-trial","258","1526467","0.0-144.0","battery-v0.2","","""event"",""trial"",""time""
""fullscreenenter"",""1"",""3609""
","
","
","""event"",""trial"",""time""
""fullscreenenter"",""1"",""3609""
","
","","","678.6000000238419","","","14","4935","2144","u","elianto","#3366ff99"," "," ","1","+10","[1530.699999988079]","1","2","","","4935","140","9","1","win","go","0"
"pit-instructions","259","1542349","0.0-145.0","battery-v0.2","","""event"",""trial"",""time""
""fullscreenenter"",""1"",""3609""
","
","
","""event"",""trial"",""time""
""fullscreenenter"",""1"",""3609""
","
","","[{""page_index"":0,""viewing_time"":7804.5},{""page_index"":1,""viewing_time"":8073.600000023842}]","15879.300000011921","","","","","","","","","","","","","","","","","","","","","","","",""
"pit-trial","260","1546042","0.0-146.0","battery-v0.2","","""event"",""trial"",""time""
""fullscreenenter"",""1"",""3609""
","
","
","""event"",""trial"",""time""
""fullscreenenter"",""1"",""3609""
","
","","","815.9000000357628","","","14","4935","2144","m","elianto","#f73b6a7A","-1"," ","0","0","[1671.8999999761581]","1","3","","","4935","141","0","4","lose","no-go","1"
"pit-trial","261","1549752","0.0-147.0","battery-v0.2","","""event"",""trial"",""time""
""fullscreenenter"",""1"",""3609""
","
","
","""event"",""trial"",""time""
""fullscreenenter"",""1"",""3609""
","
","","","834.6999999880791","","","14","4935","2144","h","elianto","#f73b6a7A"," "," ","1","0","[1687]","1","3","","","4935","142","3","3","lose","go","0"
"pit-trial","262","1554629","0.0-148.0","battery-v0.2","","""event"",""trial"",""time""
""fullscreenenter"",""1"",""3609""
","
","
","""event"",""trial"",""time""
""fullscreenenter"",""1"",""3609""
","
","","","-1","","","14","4935","2144","y","elianto","#f73b6a7A","-1","-1","1","0","[]","0","3","","","4935","143","2","4","lose","no-go","0"
"pit-trial","263","1558234","0.0-149.0","battery-v0.2","","""event"",""trial"",""time""
""fullscreenenter"",""1"",""3609""
","
","
","""event"",""trial"",""time""
""fullscreenenter"",""1"",""3609""
","
","","","726","","","14","4935","2144","r","elianto","#3366ff99"," "," ","1","+10","[1577.300000011921]","1","3","","","4935","144","1","1","win","go","0"
"pit-trial","264","1563107","0.0-150.0","battery-v0.2","","""event"",""trial"",""time""
""fullscreenenter"",""1"",""3609""
","
","
","""event"",""trial"",""time""
""fullscreenenter"",""1"",""3609""
","
","","","-1","","","14","4935","2144","y","elianto","#f73b6a7A","-1","-1","1","0","[]","0","3","","","4935","145","2","4","lose","no-go","0"
"pit-trial","265","1567159","0.0-151.0","battery-v0.2","","""event"",""trial"",""time""
""fullscreenenter"",""1"",""3609""
","
","
","""event"",""trial"",""time""
""fullscreenenter"",""1"",""3609""
","
","","","1178.7000000476837","","","14","4935","2144","m","elianto","#f73b6a7A","-1"," ","0","0","[2031.800000011921]","1","3","","","4935","146","0","4","lose","no-go","1"
"pit-trial","266","1570684","0.0-152.0","battery-v0.2","","""event"",""trial"",""time""
""fullscreenenter"",""1"",""3609""
","
","
","""event"",""trial"",""time""
""fullscreenenter"",""1"",""3609""
","
","","","650.6000000238419","","","14","4935","2144","h","elianto","#f73b6a7A"," "," ","1","-10","[1502.699999988079]","1","3","","","4935","147","3","3","lose","go","1"
"pit-trial","267","1574703","0.0-153.0","battery-v0.2","","""event"",""trial"",""time""
""fullscreenenter"",""1"",""3609""
","
","
","""event"",""trial"",""time""
""fullscreenenter"",""1"",""3609""
","
","","","1142.8999999761581","","","14","4935","2144","r","elianto","#3366ff99"," "," ","1","+10","[2000]","1","3","","","4935","148","1","1","win","go","0"
