"trial_type","trial_index","time_elapsed","internal_node_id","task_version","subject_id","interactions","blur_events","focus_events","fullscreenenter_events","fullscreenexit_events","success","view_history","rt","responses","num_errors","age","subject","participantId","rune","rune_set","hex","correct","choice","accuracy","outcome","keys","total_keys","block","practice","value","sub","trial","stimulus","robot","valence","action","sham"
"pavlovia","0","11","0.0-0.0","battery-v0.2","","""event"",""trial"",""time""
""fullscreenenter"",""1"",""2281""
","
","
","""event"",""trial"",""time""
""fullscreenenter"",""1"",""2281""
","
","","","","","","","","","","","","","","","","","","","","","","","","","","",""
"fullscreen","1","3277","0.0-1.0","battery-v0.2","","""event"",""trial"",""time""
""fullscreenenter"",""1"",""2281""
""blur"",""2"",""4008""
""focus"",""2"",""4678""
""blur"",""2"",""6940""
""focus"",""2"",""10463""
","""event"",""trial"",""time""
""blur"",""2"",""4008""
""blur"",""2"",""6940""
","""event"",""trial"",""time""
""focus"",""2"",""4678""
""focus"",""2"",""10463""
","""event"",""trial"",""time""
""fullscreenenter"",""1"",""2281""
","
","true","","","","","","","","","","","","","","","","","","","","","","","","","",""
"pit-instructions","2","14902","0.0-2.0-0.0","battery-v0.2","","""event"",""trial"",""time""
""fullscreenenter"",""1"",""2281""
""blur"",""2"",""4008""
""focus"",""2"",""4678""
""blur"",""2"",""6940""
""focus"",""2"",""10463""
","""event"",""trial"",""time""
""blur"",""2"",""4008""
""blur"",""2"",""6940""
","""event"",""trial"",""time""
""focus"",""2"",""4678""
""focus"",""2"",""10463""
","""event"",""trial"",""time""
""fullscreenenter"",""1"",""2281""
","
","","[{""page_index"":0,""viewing_time"":11621.199999988079}]","11621.799999952316","","","","","","","","","","","","","","","","","","","","","","","",""
"pit-comprehension","3","18571","0.0-2.0-1.0-0.0","battery-v0.2","","""event"",""trial"",""time""
""fullscreenenter"",""1"",""2281""
""blur"",""2"",""4008""
""focus"",""2"",""4678""
""blur"",""2"",""6940""
""focus"",""2"",""10463""
","""event"",""trial"",""time""
""blur"",""2"",""4008""
""blur"",""2"",""6940""
","""event"",""trial"",""time""
""focus"",""2"",""4678""
""focus"",""2"",""10463""
","""event"",""trial"",""time""
""fullscreenenter"",""1"",""2281""
","
","","","3664.199999988079","[""shark""]","0","15","10159","2488","","","","","","","","","","","","","","","","","","",""
"pit-instructions","4","19787","0.0-2.0-1.0-1.0","battery-v0.2","","""event"",""trial"",""time""
""fullscreenenter"",""1"",""2281""
""blur"",""2"",""4008""
""focus"",""2"",""4678""
""blur"",""2"",""6940""
""focus"",""2"",""10463""
","""event"",""trial"",""time""
""blur"",""2"",""4008""
""blur"",""2"",""6940""
","""event"",""trial"",""time""
""focus"",""2"",""4678""
""focus"",""2"",""10463""
","""event"",""trial"",""time""
""fullscreenenter"",""1"",""2281""
","
","","[{""page_index"":0,""viewing_time"":1203.9000000357628}]","1204.9000000357628","","","","","","","","","","","","","","","","","","","","","","","",""
"pit-comprehension","5","23120","0.0-2.0-2.0-0.0","battery-v0.2","","""event"",""trial"",""time""
""fullscreenenter"",""1"",""2281""
""blur"",""2"",""4008""
""focus"",""2"",""4678""
""blur"",""2"",""6940""
""focus"",""2"",""10463""
","""event"",""trial"",""time""
""blur"",""2"",""4008""
""blur"",""2"",""6940""
","""event"",""trial"",""time""
""focus"",""2"",""4678""
""focus"",""2"",""10463""
","""event"",""trial"",""time""
""fullscreenenter"",""1"",""2281""
","
","","","3327.899999976158","[""tiger""]","0","15","10159","2488","","","","","","","","","","","","","","","","","","",""
"pit-instructions","6","24235","0.0-2.0-2.0-1.0","battery-v0.2","","""event"",""trial"",""time""
""fullscreenenter"",""1"",""2281""
""blur"",""2"",""4008""
""focus"",""2"",""4678""
""blur"",""2"",""6940""
""focus"",""2"",""10463""
""blur"",""7"",""40860""
""focus"",""7"",""42167""
""blur"",""7"",""44308""
""focus"",""7"",""48436""
""blur"",""7"",""50992""
""focus"",""7"",""64816""
""blur"",""7"",""69323""
""focus"",""7"",""70327""
""blur"",""7"",""81357""
""focus"",""7"",""89403""
","""event"",""trial"",""time""
""blur"",""2"",""4008""
""blur"",""2"",""6940""
""blur"",""7"",""40860""
""blur"",""7"",""44308""
""blur"",""7"",""50992""
""blur"",""7"",""69323""
""blur"",""7"",""81357""
","""event"",""trial"",""time""
""focus"",""2"",""4678""
""focus"",""2"",""10463""
""focus"",""7"",""42167""
""focus"",""7"",""48436""
""focus"",""7"",""64816""
""focus"",""7"",""70327""
""focus"",""7"",""89403""
","""event"",""trial"",""time""
""fullscreenenter"",""1"",""2281""
","
","","[{""page_index"":0,""viewing_time"":1111.9000000357628}]","1112.4000000357628","","","","","","","","","","","","","","","","","","","","","","","",""
"pit-instructions","7","139285","0.0-2.0-3.0","battery-v0.2","","""event"",""trial"",""time""
""fullscreenenter"",""1"",""2281""
""blur"",""2"",""4008""
""focus"",""2"",""4678""
""blur"",""2"",""6940""
""focus"",""2"",""10463""
""blur"",""7"",""40860""
""focus"",""7"",""42167""
""blur"",""7"",""44308""
""focus"",""7"",""48436""
""blur"",""7"",""50992""
""focus"",""7"",""64816""
""blur"",""7"",""69323""
""focus"",""7"",""70327""
""blur"",""7"",""81357""
""focus"",""7"",""89403""
","""event"",""trial"",""time""
""blur"",""2"",""4008""
""blur"",""2"",""6940""
""blur"",""7"",""40860""
""blur"",""7"",""44308""
""blur"",""7"",""50992""
""blur"",""7"",""69323""
""blur"",""7"",""81357""
","""event"",""trial"",""time""
""focus"",""2"",""4678""
""focus"",""2"",""10463""
""focus"",""7"",""42167""
""focus"",""7"",""48436""
""focus"",""7"",""64816""
""focus"",""7"",""70327""
""focus"",""7"",""89403""
","""event"",""trial"",""time""
""fullscreenenter"",""1"",""2281""
","
","","[{""page_index"":0,""viewing_time"":8346.899999976158},{""page_index"":1,""viewing_time"":6016.100000023842},{""page_index"":2,""viewing_time"":10218.099999964237},{""page_index"":3,""viewing_time"":16699.400000035763},{""page_index"":4,""viewing_time"":5333.5},{""page_index"":5,""viewing_time"":5167.5},{""page_index"":6,""viewing_time"":13934.199999988079},{""page_index"":7,""viewing_time"":6667.399999976158},{""page_index"":8,""viewing_time"":6216.100000023842},{""page_index"":9,""viewing_time"":8217.300000011921},{""page_index"":10,""viewing_time"":7366.5},{""page_index"":11,""viewing_time"":8717.800000011921},{""page_index"":12,""viewing_time"":6205.299999952316},{""page_index"":13,""viewing_time"":5944.300000011921}]","115051.09999996424","","","","","","","","","","","","","","","","","","","","","","","",""
"pit-trial","8","142632","0.0-2.0-4.0-0.0","battery-v0.2","","""event"",""trial"",""time""
""fullscreenenter"",""1"",""2281""
""blur"",""2"",""4008""
""focus"",""2"",""4678""
""blur"",""2"",""6940""
""focus"",""2"",""10463""
""blur"",""7"",""40860""
""focus"",""7"",""42167""
""blur"",""7"",""44308""
""focus"",""7"",""48436""
""blur"",""7"",""50992""
""focus"",""7"",""64816""
""blur"",""7"",""69323""
""focus"",""7"",""70327""
""blur"",""7"",""81357""
""focus"",""7"",""89403""
","""event"",""trial"",""time""
""blur"",""2"",""4008""
""blur"",""2"",""6940""
""blur"",""7"",""40860""
""blur"",""7"",""44308""
""blur"",""7"",""50992""
""blur"",""7"",""69323""
""blur"",""7"",""81357""
","""event"",""trial"",""time""
""focus"",""2"",""4678""
""focus"",""2"",""10463""
""focus"",""7"",""42167""
""focus"",""7"",""48436""
""focus"",""7"",""64816""
""focus"",""7"",""70327""
""focus"",""7"",""89403""
","""event"",""trial"",""time""
""fullscreenenter"",""1"",""2281""
","
","","","471.60000002384186","","","15","10159","2488","&#9784;","elianto","#FFFFF080"," "," ","1","&#10004","[1332.1000000238419]","1","0","0","","","","","","","",""
"pit-trial","9","145848","0.0-2.0-4.1-0.1","battery-v0.2","","""event"",""trial"",""time""
""fullscreenenter"",""1"",""2281""
""blur"",""2"",""4008""
""focus"",""2"",""4678""
""blur"",""2"",""6940""
""focus"",""2"",""10463""
""blur"",""7"",""40860""
""focus"",""7"",""42167""
""blur"",""7"",""44308""
""focus"",""7"",""48436""
""blur"",""7"",""50992""
""focus"",""7"",""64816""
""blur"",""7"",""69323""
""focus"",""7"",""70327""
""blur"",""7"",""81357""
""focus"",""7"",""89403""
","""event"",""trial"",""time""
""blur"",""2"",""4008""
""blur"",""2"",""6940""
""blur"",""7"",""40860""
""blur"",""7"",""44308""
""blur"",""7"",""50992""
""blur"",""7"",""69323""
""blur"",""7"",""81357""
","""event"",""trial"",""time""
""focus"",""2"",""4678""
""focus"",""2"",""10463""
""focus"",""7"",""42167""
""focus"",""7"",""48436""
""focus"",""7"",""64816""
""focus"",""7"",""70327""
""focus"",""7"",""89403""
","""event"",""trial"",""time""
""fullscreenenter"",""1"",""2281""
","
","","","345.80000001192093","","","15","10159","2488","&#9784;","elianto","#FFFFF080"," "," ","1","&#10004","[1200.8999999761581]","1","0","0","","","","","","","",""
"pit-trial","10","149019","0.0-2.0-4.2-0.2","battery-v0.2","","""event"",""trial"",""time""
""fullscreenenter"",""1"",""2281""
""blur"",""2"",""4008""
""focus"",""2"",""4678""
""blur"",""2"",""6940""
""focus"",""2"",""10463""
""blur"",""7"",""40860""
""focus"",""7"",""42167""
""blur"",""7"",""44308""
""focus"",""7"",""48436""
""blur"",""7"",""50992""
""focus"",""7"",""64816""
""blur"",""7"",""69323""
""focus"",""7"",""70327""
""blur"",""7"",""81357""
""focus"",""7"",""89403""
","""event"",""trial"",""time""
""blur"",""2"",""4008""
""blur"",""2"",""6940""
""blur"",""7"",""40860""
""blur"",""7"",""44308""
""blur"",""7"",""50992""
""blur"",""7"",""69323""
""blur"",""7"",""81357""
","""event"",""trial"",""time""
""focus"",""2"",""4678""
""focus"",""2"",""10463""
""focus"",""7"",""42167""
""focus"",""7"",""48436""
""focus"",""7"",""64816""
""focus"",""7"",""70327""
""focus"",""7"",""89403""
","""event"",""trial"",""time""
""fullscreenenter"",""1"",""2281""
","
","","","307.5999999642372","","","15","10159","2488","&#9784;","elianto","#FFFFF080"," "," ","1","&#10004","[1158.300000011921]","1","0","0","","","","","","","",""
"pit-trial","11","152520","0.0-2.0-4.3-0.3","battery-v0.2","","""event"",""trial"",""time""
""fullscreenenter"",""1"",""2281""
""blur"",""2"",""4008""
""focus"",""2"",""4678""
""blur"",""2"",""6940""
""focus"",""2"",""10463""
""blur"",""7"",""40860""
""focus"",""7"",""42167""
""blur"",""7"",""44308""
""focus"",""7"",""48436""
""blur"",""7"",""50992""
""focus"",""7"",""64816""
""blur"",""7"",""69323""
""focus"",""7"",""70327""
""blur"",""7"",""81357""
""focus"",""7"",""89403""
","""event"",""trial"",""time""
""blur"",""2"",""4008""
""blur"",""2"",""6940""
""blur"",""7"",""40860""
""blur"",""7"",""44308""
""blur"",""7"",""50992""
""blur"",""7"",""69323""
""blur"",""7"",""81357""
","""event"",""trial"",""time""
""focus"",""2"",""4678""
""focus"",""2"",""10463""
""focus"",""7"",""42167""
""focus"",""7"",""48436""
""focus"",""7"",""64816""
""focus"",""7"",""70327""
""focus"",""7"",""89403""
","""event"",""trial"",""time""
""fullscreenenter"",""1"",""2281""
","
","","","634.1000000238419","","","15","10159","2488","&#9784;","elianto","#FFFFF080"," "," ","1","&#10004","[1487.0999999642372]","1","0","0","","","","","","","",""
"pit-trial","12","156124","0.0-2.0-4.4-0.4","battery-v0.2","","""event"",""trial"",""time""
""fullscreenenter"",""1"",""2281""
""blur"",""2"",""4008""
""focus"",""2"",""4678""
""blur"",""2"",""6940""
""focus"",""2"",""10463""
""blur"",""7"",""40860""
""focus"",""7"",""42167""
""blur"",""7"",""44308""
""focus"",""7"",""48436""
""blur"",""7"",""50992""
""focus"",""7"",""64816""
""blur"",""7"",""69323""
""focus"",""7"",""70327""
""blur"",""7"",""81357""
""focus"",""7"",""89403""
""blur"",""13"",""158774""
""focus"",""13"",""160335""
","""event"",""trial"",""time""
""blur"",""2"",""4008""
""blur"",""2"",""6940""
""blur"",""7"",""40860""
""blur"",""7"",""44308""
""blur"",""7"",""50992""
""blur"",""7"",""69323""
""blur"",""7"",""81357""
""blur"",""13"",""158774""
","""event"",""trial"",""time""
""focus"",""2"",""4678""
""focus"",""2"",""10463""
""focus"",""7"",""42167""
""focus"",""7"",""48436""
""focus"",""7"",""64816""
""focus"",""7"",""70327""
""focus"",""7"",""89403""
""focus"",""13"",""160335""
","""event"",""trial"",""time""
""fullscreenenter"",""1"",""2281""
","
","","","737.6000000238419","","","15","10159","2488","&#9784;","elianto","#FFFFF080"," "," ","1","&#10004","[1593.6000000238419]","1","0","0","","","","","","","",""
"pit-instructions","13","180152","0.0-2.0-5.0","battery-v0.2","","""event"",""trial"",""time""
""fullscreenenter"",""1"",""2281""
""blur"",""2"",""4008""
""focus"",""2"",""4678""
""blur"",""2"",""6940""
""focus"",""2"",""10463""
""blur"",""7"",""40860""
""focus"",""7"",""42167""
""blur"",""7"",""44308""
""focus"",""7"",""48436""
""blur"",""7"",""50992""
""focus"",""7"",""64816""
""blur"",""7"",""69323""
""focus"",""7"",""70327""
""blur"",""7"",""81357""
""focus"",""7"",""89403""
""blur"",""13"",""158774""
""focus"",""13"",""160335""
","""event"",""trial"",""time""
""blur"",""2"",""4008""
""blur"",""2"",""6940""
""blur"",""7"",""40860""
""blur"",""7"",""44308""
""blur"",""7"",""50992""
""blur"",""7"",""69323""
""blur"",""7"",""81357""
""blur"",""13"",""158774""
","""event"",""trial"",""time""
""focus"",""2"",""4678""
""focus"",""2"",""10463""
""focus"",""7"",""42167""
""focus"",""7"",""48436""
""focus"",""7"",""64816""
""focus"",""7"",""70327""
""focus"",""7"",""89403""
""focus"",""13"",""160335""
","""event"",""trial"",""time""
""fullscreenenter"",""1"",""2281""
","
","","[{""page_index"":0,""viewing_time"":5773.300000011921},{""page_index"":1,""viewing_time"":6150.300000011921},{""page_index"":2,""viewing_time"":6466.899999976158},{""page_index"":3,""viewing_time"":5633.400000035763}]","24024.5","","","","","","","","","","","","","","","","","","","","","","","",""
"pit-trial","14","185022","0.0-2.0-6.0-0.0","battery-v0.2","","""event"",""trial"",""time""
""fullscreenenter"",""1"",""2281""
""blur"",""2"",""4008""
""focus"",""2"",""4678""
""blur"",""2"",""6940""
""focus"",""2"",""10463""
""blur"",""7"",""40860""
""focus"",""7"",""42167""
""blur"",""7"",""44308""
""focus"",""7"",""48436""
""blur"",""7"",""50992""
""focus"",""7"",""64816""
""blur"",""7"",""69323""
""focus"",""7"",""70327""
""blur"",""7"",""81357""
""focus"",""7"",""89403""
""blur"",""13"",""158774""
""focus"",""13"",""160335""
","""event"",""trial"",""time""
""blur"",""2"",""4008""
""blur"",""2"",""6940""
""blur"",""7"",""40860""
""blur"",""7"",""44308""
""blur"",""7"",""50992""
""blur"",""7"",""69323""
""blur"",""7"",""81357""
""blur"",""13"",""158774""
","""event"",""trial"",""time""
""focus"",""2"",""4678""
""focus"",""2"",""10463""
""focus"",""7"",""42167""
""focus"",""7"",""48436""
""focus"",""7"",""64816""
""focus"",""7"",""70327""
""focus"",""7"",""89403""
""focus"",""13"",""160335""
","""event"",""trial"",""time""
""fullscreenenter"",""1"",""2281""
","
","","","-1","","","15","10159","2488","&#9854;","elianto","#FFFFF080","-1","-1","1","&#10004","[]","0","0","1","","","","","","","",""
"pit-trial","15","189893","0.0-2.0-6.1-0.1","battery-v0.2","","""event"",""trial"",""time""
""fullscreenenter"",""1"",""2281""
""blur"",""2"",""4008""
""focus"",""2"",""4678""
""blur"",""2"",""6940""
""focus"",""2"",""10463""
""blur"",""7"",""40860""
""focus"",""7"",""42167""
""blur"",""7"",""44308""
""focus"",""7"",""48436""
""blur"",""7"",""50992""
""focus"",""7"",""64816""
""blur"",""7"",""69323""
""focus"",""7"",""70327""
""blur"",""7"",""81357""
""focus"",""7"",""89403""
""blur"",""13"",""158774""
""focus"",""13"",""160335""
","""event"",""trial"",""time""
""blur"",""2"",""4008""
""blur"",""2"",""6940""
""blur"",""7"",""40860""
""blur"",""7"",""44308""
""blur"",""7"",""50992""
""blur"",""7"",""69323""
""blur"",""7"",""81357""
""blur"",""13"",""158774""
","""event"",""trial"",""time""
""focus"",""2"",""4678""
""focus"",""2"",""10463""
""focus"",""7"",""42167""
""focus"",""7"",""48436""
""focus"",""7"",""64816""
""focus"",""7"",""70327""
""focus"",""7"",""89403""
""focus"",""13"",""160335""
","""event"",""trial"",""time""
""fullscreenenter"",""1"",""2281""
","
","","","-1","","","15","10159","2488","&#9854;","elianto","#FFFFF080","-1","-1","1","&#10004","[]","0","0","1","","","","","","","",""
"pit-trial","16","194765","0.0-2.0-6.2-0.2","battery-v0.2","","""event"",""trial"",""time""
""fullscreenenter"",""1"",""2281""
""blur"",""2"",""4008""
""focus"",""2"",""4678""
""blur"",""2"",""6940""
""focus"",""2"",""10463""
""blur"",""7"",""40860""
""focus"",""7"",""42167""
""blur"",""7"",""44308""
""focus"",""7"",""48436""
""blur"",""7"",""50992""
""focus"",""7"",""64816""
""blur"",""7"",""69323""
""focus"",""7"",""70327""
""blur"",""7"",""81357""
""focus"",""7"",""89403""
""blur"",""13"",""158774""
""focus"",""13"",""160335""
","""event"",""trial"",""time""
""blur"",""2"",""4008""
""blur"",""2"",""6940""
""blur"",""7"",""40860""
""blur"",""7"",""44308""
""blur"",""7"",""50992""
""blur"",""7"",""69323""
""blur"",""7"",""81357""
""blur"",""13"",""158774""
","""event"",""trial"",""time""
""focus"",""2"",""4678""
""focus"",""2"",""10463""
""focus"",""7"",""42167""
""focus"",""7"",""48436""
""focus"",""7"",""64816""
""focus"",""7"",""70327""
""focus"",""7"",""89403""
""focus"",""13"",""160335""
","""event"",""trial"",""time""
""fullscreenenter"",""1"",""2281""
","
","","","-1","","","15","10159","2488","&#9854;","elianto","#FFFFF080","-1","-1","1","&#10004","[]","0","0","1","","","","","","","",""
"pit-trial","17","199634","0.0-2.0-6.3-0.3","battery-v0.2","","""event"",""trial"",""time""
""fullscreenenter"",""1"",""2281""
""blur"",""2"",""4008""
""focus"",""2"",""4678""
""blur"",""2"",""6940""
""focus"",""2"",""10463""
""blur"",""7"",""40860""
""focus"",""7"",""42167""
""blur"",""7"",""44308""
""focus"",""7"",""48436""
""blur"",""7"",""50992""
""focus"",""7"",""64816""
""blur"",""7"",""69323""
""focus"",""7"",""70327""
""blur"",""7"",""81357""
""focus"",""7"",""89403""
""blur"",""13"",""158774""
""focus"",""13"",""160335""
","""event"",""trial"",""time""
""blur"",""2"",""4008""
""blur"",""2"",""6940""
""blur"",""7"",""40860""
""blur"",""7"",""44308""
""blur"",""7"",""50992""
""blur"",""7"",""69323""
""blur"",""7"",""81357""
""blur"",""13"",""158774""
","""event"",""trial"",""time""
""focus"",""2"",""4678""
""focus"",""2"",""10463""
""focus"",""7"",""42167""
""focus"",""7"",""48436""
""focus"",""7"",""64816""
""focus"",""7"",""70327""
""focus"",""7"",""89403""
""focus"",""13"",""160335""
","""event"",""trial"",""time""
""fullscreenenter"",""1"",""2281""
","
","","","-1","","","15","10159","2488","&#9854;","elianto","#FFFFF080","-1","-1","1","&#10004","[]","0","0","1","","","","","","","",""
"pit-trial","18","204508","0.0-2.0-6.4-0.4","battery-v0.2","","""event"",""trial"",""time""
""fullscreenenter"",""1"",""2281""
""blur"",""2"",""4008""
""focus"",""2"",""4678""
""blur"",""2"",""6940""
""focus"",""2"",""10463""
""blur"",""7"",""40860""
""focus"",""7"",""42167""
""blur"",""7"",""44308""
""focus"",""7"",""48436""
""blur"",""7"",""50992""
""focus"",""7"",""64816""
""blur"",""7"",""69323""
""focus"",""7"",""70327""
""blur"",""7"",""81357""
""focus"",""7"",""89403""
""blur"",""13"",""158774""
""focus"",""13"",""160335""
","""event"",""trial"",""time""
""blur"",""2"",""4008""
""blur"",""2"",""6940""
""blur"",""7"",""40860""
""blur"",""7"",""44308""
""blur"",""7"",""50992""
""blur"",""7"",""69323""
""blur"",""7"",""81357""
""blur"",""13"",""158774""
","""event"",""trial"",""time""
""focus"",""2"",""4678""
""focus"",""2"",""10463""
""focus"",""7"",""42167""
""focus"",""7"",""48436""
""focus"",""7"",""64816""
""focus"",""7"",""70327""
""focus"",""7"",""89403""
""focus"",""13"",""160335""
","""event"",""trial"",""time""
""fullscreenenter"",""1"",""2281""
","
","","","-1","","","15","10159","2488","&#9854;","elianto","#FFFFF080","-1","-1","1","&#10004","[]","0","0","1","","","","","","","",""
"pit-instructions","19","331268","0.0-2.0-7.0","battery-v0.2","","""event"",""trial"",""time""
""fullscreenenter"",""1"",""2281""
""blur"",""2"",""4008""
""focus"",""2"",""4678""
""blur"",""2"",""6940""
""focus"",""2"",""10463""
""blur"",""7"",""40860""
""focus"",""7"",""42167""
""blur"",""7"",""44308""
""focus"",""7"",""48436""
""blur"",""7"",""50992""
""focus"",""7"",""64816""
""blur"",""7"",""69323""
""focus"",""7"",""70327""
""blur"",""7"",""81357""
""focus"",""7"",""89403""
""blur"",""13"",""158774""
""focus"",""13"",""160335""
","""event"",""trial"",""time""
""blur"",""2"",""4008""
""blur"",""2"",""6940""
""blur"",""7"",""40860""
""blur"",""7"",""44308""
""blur"",""7"",""50992""
""blur"",""7"",""69323""
""blur"",""7"",""81357""
""blur"",""13"",""158774""
","""event"",""trial"",""time""
""focus"",""2"",""4678""
""focus"",""2"",""10463""
""focus"",""7"",""42167""
""focus"",""7"",""48436""
""focus"",""7"",""64816""
""focus"",""7"",""70327""
""focus"",""7"",""89403""
""focus"",""13"",""160335""
","""event"",""trial"",""time""
""fullscreenenter"",""1"",""2281""
","
","","[{""page_index"":0,""viewing_time"":5923},{""page_index"":1,""viewing_time"":8383.900000035763},{""page_index"":2,""viewing_time"":6066.5},{""page_index"":3,""viewing_time"":6333.399999976158},{""page_index"":4,""viewing_time"":9917.199999988079},{""page_index"":5,""viewing_time"":5267.100000023842},{""page_index"":6,""viewing_time"":6350.800000011921},{""page_index"":7,""viewing_time"":7816.399999976158},{""page_index"":8,""viewing_time"":7817.100000023842},{""page_index"":9,""viewing_time"":8100.199999988079},{""page_index"":10,""viewing_time"":7116.800000011921},{""page_index"":11,""viewing_time"":4717},{""page_index"":12,""viewing_time"":6617},{""page_index"":13,""viewing_time"":7482.699999988079},{""page_index"":14,""viewing_time"":7217.800000011921},{""page_index"":15,""viewing_time"":7150},{""page_index"":16,""viewing_time"":7133.699999988079},{""page_index"":17,""viewing_time"":7350.300000011921}]","126761.70000004768","","","","","","","","","","","","","","","","","","","","","","","",""
"pit-trial","20","334780","0.0-2.0-8.0-0.0","battery-v0.2","","""event"",""trial"",""time""
""fullscreenenter"",""1"",""2281""
""blur"",""2"",""4008""
""focus"",""2"",""4678""
""blur"",""2"",""6940""
""focus"",""2"",""10463""
""blur"",""7"",""40860""
""focus"",""7"",""42167""
""blur"",""7"",""44308""
""focus"",""7"",""48436""
""blur"",""7"",""50992""
""focus"",""7"",""64816""
""blur"",""7"",""69323""
""focus"",""7"",""70327""
""blur"",""7"",""81357""
""focus"",""7"",""89403""
""blur"",""13"",""158774""
""focus"",""13"",""160335""
","""event"",""trial"",""time""
""blur"",""2"",""4008""
""blur"",""2"",""6940""
""blur"",""7"",""40860""
""blur"",""7"",""44308""
""blur"",""7"",""50992""
""blur"",""7"",""69323""
""blur"",""7"",""81357""
""blur"",""13"",""158774""
","""event"",""trial"",""time""
""focus"",""2"",""4678""
""focus"",""2"",""10463""
""focus"",""7"",""42167""
""focus"",""7"",""48436""
""focus"",""7"",""64816""
""focus"",""7"",""70327""
""focus"",""7"",""89403""
""focus"",""13"",""160335""
","""event"",""trial"",""time""
""fullscreenenter"",""1"",""2281""
","
","","","652.8000000119209","","","15","10159","2488","&#9776;","elianto","#3366ff99"," "," ","1","+10","[1505.3999999761581]","1","0","1","","","","","","","",""
"pit-trial","21","338087","0.0-2.0-8.0-1.0","battery-v0.2","","""event"",""trial"",""time""
""fullscreenenter"",""1"",""2281""
""blur"",""2"",""4008""
""focus"",""2"",""4678""
""blur"",""2"",""6940""
""focus"",""2"",""10463""
""blur"",""7"",""40860""
""focus"",""7"",""42167""
""blur"",""7"",""44308""
""focus"",""7"",""48436""
""blur"",""7"",""50992""
""focus"",""7"",""64816""
""blur"",""7"",""69323""
""focus"",""7"",""70327""
""blur"",""7"",""81357""
""focus"",""7"",""89403""
""blur"",""13"",""158774""
""focus"",""13"",""160335""
","""event"",""trial"",""time""
""blur"",""2"",""4008""
""blur"",""2"",""6940""
""blur"",""7"",""40860""
""blur"",""7"",""44308""
""blur"",""7"",""50992""
""blur"",""7"",""69323""
""blur"",""7"",""81357""
""blur"",""13"",""158774""
","""event"",""trial"",""time""
""focus"",""2"",""4678""
""focus"",""2"",""10463""
""focus"",""7"",""42167""
""focus"",""7"",""48436""
""focus"",""7"",""64816""
""focus"",""7"",""70327""
""focus"",""7"",""89403""
""focus"",""13"",""160335""
","""event"",""trial"",""time""
""fullscreenenter"",""1"",""2281""
","
","","","439.89999997615814","","","15","10159","2488","&#9776;","elianto","#3366ff99"," "," ","1","+10","[1291.800000011921]","1","0","1","","","","","","","",""
"pit-trial","22","341211","0.0-2.0-8.0-2.0","battery-v0.2","","""event"",""trial"",""time""
""fullscreenenter"",""1"",""2281""
""blur"",""2"",""4008""
""focus"",""2"",""4678""
""blur"",""2"",""6940""
""focus"",""2"",""10463""
""blur"",""7"",""40860""
""focus"",""7"",""42167""
""blur"",""7"",""44308""
""focus"",""7"",""48436""
""blur"",""7"",""50992""
""focus"",""7"",""64816""
""blur"",""7"",""69323""
""focus"",""7"",""70327""
""blur"",""7"",""81357""
""focus"",""7"",""89403""
""blur"",""13"",""158774""
""focus"",""13"",""160335""
","""event"",""trial"",""time""
""blur"",""2"",""4008""
""blur"",""2"",""6940""
""blur"",""7"",""40860""
""blur"",""7"",""44308""
""blur"",""7"",""50992""
""blur"",""7"",""69323""
""blur"",""7"",""81357""
""blur"",""13"",""158774""
","""event"",""trial"",""time""
""focus"",""2"",""4678""
""focus"",""2"",""10463""
""focus"",""7"",""42167""
""focus"",""7"",""48436""
""focus"",""7"",""64816""
""focus"",""7"",""70327""
""focus"",""7"",""89403""
""focus"",""13"",""160335""
","""event"",""trial"",""time""
""fullscreenenter"",""1"",""2281""
","
","","","256.69999998807907","","","15","10159","2488","&#9776;","elianto","#3366ff99"," "," ","1","+10","[1110.6000000238419]","1","0","1","","","","","","","",""
"pit-trial","23","344495","0.0-2.0-8.0-3.0","battery-v0.2","","""event"",""trial"",""time""
""fullscreenenter"",""1"",""2281""
""blur"",""2"",""4008""
""focus"",""2"",""4678""
""blur"",""2"",""6940""
""focus"",""2"",""10463""
""blur"",""7"",""40860""
""focus"",""7"",""42167""
""blur"",""7"",""44308""
""focus"",""7"",""48436""
""blur"",""7"",""50992""
""focus"",""7"",""64816""
""blur"",""7"",""69323""
""focus"",""7"",""70327""
""blur"",""7"",""81357""
""focus"",""7"",""89403""
""blur"",""13"",""158774""
""focus"",""13"",""160335""
","""event"",""trial"",""time""
""blur"",""2"",""4008""
""blur"",""2"",""6940""
""blur"",""7"",""40860""
""blur"",""7"",""44308""
""blur"",""7"",""50992""
""blur"",""7"",""69323""
""blur"",""7"",""81357""
""blur"",""13"",""158774""
","""event"",""trial"",""time""
""focus"",""2"",""4678""
""focus"",""2"",""10463""
""focus"",""7"",""42167""
""focus"",""7"",""48436""
""focus"",""7"",""64816""
""focus"",""7"",""70327""
""focus"",""7"",""89403""
""focus"",""13"",""160335""
","""event"",""trial"",""time""
""fullscreenenter"",""1"",""2281""
","
","","","420.9000000357628","","","15","10159","2488","&#9776;","elianto","#3366ff99"," "," ","1","0","[1271.4000000357628]","1","0","1","","","","","","","",""
"pit-trial","24","347735","0.0-2.0-8.0-4.0","battery-v0.2","","""event"",""trial"",""time""
""fullscreenenter"",""1"",""2281""
""blur"",""2"",""4008""
""focus"",""2"",""4678""
""blur"",""2"",""6940""
""focus"",""2"",""10463""
""blur"",""7"",""40860""
""focus"",""7"",""42167""
""blur"",""7"",""44308""
""focus"",""7"",""48436""
""blur"",""7"",""50992""
""focus"",""7"",""64816""
""blur"",""7"",""69323""
""focus"",""7"",""70327""
""blur"",""7"",""81357""
""focus"",""7"",""89403""
""blur"",""13"",""158774""
""focus"",""13"",""160335""
","""event"",""trial"",""time""
""blur"",""2"",""4008""
""blur"",""2"",""6940""
""blur"",""7"",""40860""
""blur"",""7"",""44308""
""blur"",""7"",""50992""
""blur"",""7"",""69323""
""blur"",""7"",""81357""
""blur"",""13"",""158774""
","""event"",""trial"",""time""
""focus"",""2"",""4678""
""focus"",""2"",""10463""
""focus"",""7"",""42167""
""focus"",""7"",""48436""
""focus"",""7"",""64816""
""focus"",""7"",""70327""
""focus"",""7"",""89403""
""focus"",""13"",""160335""
","""event"",""trial"",""time""
""fullscreenenter"",""1"",""2281""
","
","","","373.10000002384186","","","15","10159","2488","&#9776;","elianto","#3366ff99"," "," ","1","+10","[1224.199999988079]","1","0","1","","","","","","","",""
"pit-trial","25","352211","0.0-2.0-8.1-0.1","battery-v0.2","","""event"",""trial"",""time""
""fullscreenenter"",""1"",""2281""
""blur"",""2"",""4008""
""focus"",""2"",""4678""
""blur"",""2"",""6940""
""focus"",""2"",""10463""
""blur"",""7"",""40860""
""focus"",""7"",""42167""
""blur"",""7"",""44308""
""focus"",""7"",""48436""
""blur"",""7"",""50992""
""focus"",""7"",""64816""
""blur"",""7"",""69323""
""focus"",""7"",""70327""
""blur"",""7"",""81357""
""focus"",""7"",""89403""
""blur"",""13"",""158774""
""focus"",""13"",""160335""
","""event"",""trial"",""time""
""blur"",""2"",""4008""
""blur"",""2"",""6940""
""blur"",""7"",""40860""
""blur"",""7"",""44308""
""blur"",""7"",""50992""
""blur"",""7"",""69323""
""blur"",""7"",""81357""
""blur"",""13"",""158774""
","""event"",""trial"",""time""
""focus"",""2"",""4678""
""focus"",""2"",""10463""
""focus"",""7"",""42167""
""focus"",""7"",""48436""
""focus"",""7"",""64816""
""focus"",""7"",""70327""
""focus"",""7"",""89403""
""focus"",""13"",""160335""
","""event"",""trial"",""time""
""fullscreenenter"",""1"",""2281""
","
","","","1613.699999988079","","","15","10159","2488","&#9776;","elianto","#3366ff99"," "," ","1","+10","[2468.800000011921]","1","0","1","","","","","","","",""
"pit-trial","26","355697","0.0-2.0-8.1-1.1","battery-v0.2","","""event"",""trial"",""time""
""fullscreenenter"",""1"",""2281""
""blur"",""2"",""4008""
""focus"",""2"",""4678""
""blur"",""2"",""6940""
""focus"",""2"",""10463""
""blur"",""7"",""40860""
""focus"",""7"",""42167""
""blur"",""7"",""44308""
""focus"",""7"",""48436""
""blur"",""7"",""50992""
""focus"",""7"",""64816""
""blur"",""7"",""69323""
""focus"",""7"",""70327""
""blur"",""7"",""81357""
""focus"",""7"",""89403""
""blur"",""13"",""158774""
""focus"",""13"",""160335""
","""event"",""trial"",""time""
""blur"",""2"",""4008""
""blur"",""2"",""6940""
""blur"",""7"",""40860""
""blur"",""7"",""44308""
""blur"",""7"",""50992""
""blur"",""7"",""69323""
""blur"",""7"",""81357""
""blur"",""13"",""158774""
","""event"",""trial"",""time""
""focus"",""2"",""4678""
""focus"",""2"",""10463""
""focus"",""7"",""42167""
""focus"",""7"",""48436""
""focus"",""7"",""64816""
""focus"",""7"",""70327""
""focus"",""7"",""89403""
""focus"",""13"",""160335""
","""event"",""trial"",""time""
""fullscreenenter"",""1"",""2281""
","
","","","623.6000000238419","","","15","10159","2488","&#9776;","elianto","#3366ff99"," "," ","1","+10","[1474.9000000357628]","1","0","1","","","","","","","",""
"pit-trial","27","358962","0.0-2.0-8.1-2.1","battery-v0.2","","""event"",""trial"",""time""
""fullscreenenter"",""1"",""2281""
""blur"",""2"",""4008""
""focus"",""2"",""4678""
""blur"",""2"",""6940""
""focus"",""2"",""10463""
""blur"",""7"",""40860""
""focus"",""7"",""42167""
""blur"",""7"",""44308""
""focus"",""7"",""48436""
""blur"",""7"",""50992""
""focus"",""7"",""64816""
""blur"",""7"",""69323""
""focus"",""7"",""70327""
""blur"",""7"",""81357""
""focus"",""7"",""89403""
""blur"",""13"",""158774""
""focus"",""13"",""160335""
","""event"",""trial"",""time""
""blur"",""2"",""4008""
""blur"",""2"",""6940""
""blur"",""7"",""40860""
""blur"",""7"",""44308""
""blur"",""7"",""50992""
""blur"",""7"",""69323""
""blur"",""7"",""81357""
""blur"",""13"",""158774""
","""event"",""trial"",""time""
""focus"",""2"",""4678""
""focus"",""2"",""10463""
""focus"",""7"",""42167""
""focus"",""7"",""48436""
""focus"",""7"",""64816""
""focus"",""7"",""70327""
""focus"",""7"",""89403""
""focus"",""13"",""160335""
","""event"",""trial"",""time""
""fullscreenenter"",""1"",""2281""
","
","","","402.5999999642372","","","15","10159","2488","&#9776;","elianto","#3366ff99"," "," ","1","+10","[1256.6000000238419,2060.400000035763]","2","0","1","","","","","","","",""
"pit-trial","28","362442","0.0-2.0-8.1-3.1","battery-v0.2","","""event"",""trial"",""time""
""fullscreenenter"",""1"",""2281""
""blur"",""2"",""4008""
""focus"",""2"",""4678""
""blur"",""2"",""6940""
""focus"",""2"",""10463""
""blur"",""7"",""40860""
""focus"",""7"",""42167""
""blur"",""7"",""44308""
""focus"",""7"",""48436""
""blur"",""7"",""50992""
""focus"",""7"",""64816""
""blur"",""7"",""69323""
""focus"",""7"",""70327""
""blur"",""7"",""81357""
""focus"",""7"",""89403""
""blur"",""13"",""158774""
""focus"",""13"",""160335""
","""event"",""trial"",""time""
""blur"",""2"",""4008""
""blur"",""2"",""6940""
""blur"",""7"",""40860""
""blur"",""7"",""44308""
""blur"",""7"",""50992""
""blur"",""7"",""69323""
""blur"",""7"",""81357""
""blur"",""13"",""158774""
","""event"",""trial"",""time""
""focus"",""2"",""4678""
""focus"",""2"",""10463""
""focus"",""7"",""42167""
""focus"",""7"",""48436""
""focus"",""7"",""64816""
""focus"",""7"",""70327""
""focus"",""7"",""89403""
""focus"",""13"",""160335""
","""event"",""trial"",""time""
""fullscreenenter"",""1"",""2281""
","
","","","623.8000000119209","","","15","10159","2488","&#9776;","elianto","#3366ff99"," "," ","1","0","[1474.800000011921]","1","0","1","","","","","","","",""
"pit-trial","29","365614","0.0-2.0-8.1-4.1","battery-v0.2","","""event"",""trial"",""time""
""fullscreenenter"",""1"",""2281""
""blur"",""2"",""4008""
""focus"",""2"",""4678""
""blur"",""2"",""6940""
""focus"",""2"",""10463""
""blur"",""7"",""40860""
""focus"",""7"",""42167""
""blur"",""7"",""44308""
""focus"",""7"",""48436""
""blur"",""7"",""50992""
""focus"",""7"",""64816""
""blur"",""7"",""69323""
""focus"",""7"",""70327""
""blur"",""7"",""81357""
""focus"",""7"",""89403""
""blur"",""13"",""158774""
""focus"",""13"",""160335""
","""event"",""trial"",""time""
""blur"",""2"",""4008""
""blur"",""2"",""6940""
""blur"",""7"",""40860""
""blur"",""7"",""44308""
""blur"",""7"",""50992""
""blur"",""7"",""69323""
""blur"",""7"",""81357""
""blur"",""13"",""158774""
","""event"",""trial"",""time""
""focus"",""2"",""4678""
""focus"",""2"",""10463""
""focus"",""7"",""42167""
""focus"",""7"",""48436""
""focus"",""7"",""64816""
""focus"",""7"",""70327""
""focus"",""7"",""89403""
""focus"",""13"",""160335""
","""event"",""trial"",""time""
""fullscreenenter"",""1"",""2281""
","
","","","310.60000002384186","","","15","10159","2488","&#9776;","elianto","#3366ff99"," "," ","1","+10","[1161.3999999761581]","1","0","1","","","","","","","",""
"pit-trial","30","369238","0.0-2.0-8.2-0.2","battery-v0.2","","""event"",""trial"",""time""
""fullscreenenter"",""1"",""2281""
""blur"",""2"",""4008""
""focus"",""2"",""4678""
""blur"",""2"",""6940""
""focus"",""2"",""10463""
""blur"",""7"",""40860""
""focus"",""7"",""42167""
""blur"",""7"",""44308""
""focus"",""7"",""48436""
""blur"",""7"",""50992""
""focus"",""7"",""64816""
""blur"",""7"",""69323""
""focus"",""7"",""70327""
""blur"",""7"",""81357""
""focus"",""7"",""89403""
""blur"",""13"",""158774""
""focus"",""13"",""160335""
","""event"",""trial"",""time""
""blur"",""2"",""4008""
""blur"",""2"",""6940""
""blur"",""7"",""40860""
""blur"",""7"",""44308""
""blur"",""7"",""50992""
""blur"",""7"",""69323""
""blur"",""7"",""81357""
""blur"",""13"",""158774""
","""event"",""trial"",""time""
""focus"",""2"",""4678""
""focus"",""2"",""10463""
""focus"",""7"",""42167""
""focus"",""7"",""48436""
""focus"",""7"",""64816""
""focus"",""7"",""70327""
""focus"",""7"",""89403""
""focus"",""13"",""160335""
","""event"",""trial"",""time""
""fullscreenenter"",""1"",""2281""
","
","","","752.8000000119209","","","15","10159","2488","&#9776;","elianto","#3366ff99"," "," ","1","+10","[1610.3999999761581]","1","0","1","","","","","","","",""
"pit-trial","31","372657","0.0-2.0-8.2-1.2","battery-v0.2","","""event"",""trial"",""time""
""fullscreenenter"",""1"",""2281""
""blur"",""2"",""4008""
""focus"",""2"",""4678""
""blur"",""2"",""6940""
""focus"",""2"",""10463""
""blur"",""7"",""40860""
""focus"",""7"",""42167""
""blur"",""7"",""44308""
""focus"",""7"",""48436""
""blur"",""7"",""50992""
""focus"",""7"",""64816""
""blur"",""7"",""69323""
""focus"",""7"",""70327""
""blur"",""7"",""81357""
""focus"",""7"",""89403""
""blur"",""13"",""158774""
""focus"",""13"",""160335""
","""event"",""trial"",""time""
""blur"",""2"",""4008""
""blur"",""2"",""6940""
""blur"",""7"",""40860""
""blur"",""7"",""44308""
""blur"",""7"",""50992""
""blur"",""7"",""69323""
""blur"",""7"",""81357""
""blur"",""13"",""158774""
","""event"",""trial"",""time""
""focus"",""2"",""4678""
""focus"",""2"",""10463""
""focus"",""7"",""42167""
""focus"",""7"",""48436""
""focus"",""7"",""64816""
""focus"",""7"",""70327""
""focus"",""7"",""89403""
""focus"",""13"",""160335""
","""event"",""trial"",""time""
""fullscreenenter"",""1"",""2281""
","
","","","554.3999999761581","","","15","10159","2488","&#9776;","elianto","#3366ff99"," "," ","1","+10","[1410.3999999761581]","1","0","1","","","","","","","",""
"pit-trial","32","376027","0.0-2.0-8.2-2.2","battery-v0.2","","""event"",""trial"",""time""
""fullscreenenter"",""1"",""2281""
""blur"",""2"",""4008""
""focus"",""2"",""4678""
""blur"",""2"",""6940""
""focus"",""2"",""10463""
""blur"",""7"",""40860""
""focus"",""7"",""42167""
""blur"",""7"",""44308""
""focus"",""7"",""48436""
""blur"",""7"",""50992""
""focus"",""7"",""64816""
""blur"",""7"",""69323""
""focus"",""7"",""70327""
""blur"",""7"",""81357""
""focus"",""7"",""89403""
""blur"",""13"",""158774""
""focus"",""13"",""160335""
","""event"",""trial"",""time""
""blur"",""2"",""4008""
""blur"",""2"",""6940""
""blur"",""7"",""40860""
""blur"",""7"",""44308""
""blur"",""7"",""50992""
""blur"",""7"",""69323""
""blur"",""7"",""81357""
""blur"",""13"",""158774""
","""event"",""trial"",""time""
""focus"",""2"",""4678""
""focus"",""2"",""10463""
""focus"",""7"",""42167""
""focus"",""7"",""48436""
""focus"",""7"",""64816""
""focus"",""7"",""70327""
""focus"",""7"",""89403""
""focus"",""13"",""160335""
","""event"",""trial"",""time""
""fullscreenenter"",""1"",""2281""
","
","","","504","","","15","10159","2488","&#9776;","elianto","#3366ff99"," "," ","1","+10","[1357]","1","0","1","","","","","","","",""
"pit-trial","33","379301","0.0-2.0-8.2-3.2","battery-v0.2","","""event"",""trial"",""time""
""fullscreenenter"",""1"",""2281""
""blur"",""2"",""4008""
""focus"",""2"",""4678""
""blur"",""2"",""6940""
""focus"",""2"",""10463""
""blur"",""7"",""40860""
""focus"",""7"",""42167""
""blur"",""7"",""44308""
""focus"",""7"",""48436""
""blur"",""7"",""50992""
""focus"",""7"",""64816""
""blur"",""7"",""69323""
""focus"",""7"",""70327""
""blur"",""7"",""81357""
""focus"",""7"",""89403""
""blur"",""13"",""158774""
""focus"",""13"",""160335""
","""event"",""trial"",""time""
""blur"",""2"",""4008""
""blur"",""2"",""6940""
""blur"",""7"",""40860""
""blur"",""7"",""44308""
""blur"",""7"",""50992""
""blur"",""7"",""69323""
""blur"",""7"",""81357""
""blur"",""13"",""158774""
","""event"",""trial"",""time""
""focus"",""2"",""4678""
""focus"",""2"",""10463""
""focus"",""7"",""42167""
""focus"",""7"",""48436""
""focus"",""7"",""64816""
""focus"",""7"",""70327""
""focus"",""7"",""89403""
""focus"",""13"",""160335""
","""event"",""trial"",""time""
""fullscreenenter"",""1"",""2281""
","
","","","413.5","","","15","10159","2488","&#9776;","elianto","#3366ff99"," "," ","1","0","[1264.199999988079]","1","0","1","","","","","","","",""
"pit-trial","34","383115","0.0-2.0-8.2-4.2","battery-v0.2","","""event"",""trial"",""time""
""fullscreenenter"",""1"",""2281""
""blur"",""2"",""4008""
""focus"",""2"",""4678""
""blur"",""2"",""6940""
""focus"",""2"",""10463""
""blur"",""7"",""40860""
""focus"",""7"",""42167""
""blur"",""7"",""44308""
""focus"",""7"",""48436""
""blur"",""7"",""50992""
""focus"",""7"",""64816""
""blur"",""7"",""69323""
""focus"",""7"",""70327""
""blur"",""7"",""81357""
""focus"",""7"",""89403""
""blur"",""13"",""158774""
""focus"",""13"",""160335""
","""event"",""trial"",""time""
""blur"",""2"",""4008""
""blur"",""2"",""6940""
""blur"",""7"",""40860""
""blur"",""7"",""44308""
""blur"",""7"",""50992""
""blur"",""7"",""69323""
""blur"",""7"",""81357""
""blur"",""13"",""158774""
","""event"",""trial"",""time""
""focus"",""2"",""4678""
""focus"",""2"",""10463""
""focus"",""7"",""42167""
""focus"",""7"",""48436""
""focus"",""7"",""64816""
""focus"",""7"",""70327""
""focus"",""7"",""89403""
""focus"",""13"",""160335""
","""event"",""trial"",""time""
""fullscreenenter"",""1"",""2281""
","
","","","943.0999999642372","","","15","10159","2488","&#9776;","elianto","#3366ff99"," "," ","1","+10","[1802]","1","0","1","","","","","","","",""
"call-function","35","383118","0.0-2.0-9.0","battery-v0.2","","""event"",""trial"",""time""
""fullscreenenter"",""1"",""2281""
""blur"",""2"",""4008""
""focus"",""2"",""4678""
""blur"",""2"",""6940""
""focus"",""2"",""10463""
""blur"",""7"",""40860""
""focus"",""7"",""42167""
""blur"",""7"",""44308""
""focus"",""7"",""48436""
""blur"",""7"",""50992""
""focus"",""7"",""64816""
""blur"",""7"",""69323""
""focus"",""7"",""70327""
""blur"",""7"",""81357""
""focus"",""7"",""89403""
""blur"",""13"",""158774""
""focus"",""13"",""160335""
","""event"",""trial"",""time""
""blur"",""2"",""4008""
""blur"",""2"",""6940""
""blur"",""7"",""40860""
""blur"",""7"",""44308""
""blur"",""7"",""50992""
""blur"",""7"",""69323""
""blur"",""7"",""81357""
""blur"",""13"",""158774""
","""event"",""trial"",""time""
""focus"",""2"",""4678""
""focus"",""2"",""10463""
""focus"",""7"",""42167""
""focus"",""7"",""48436""
""focus"",""7"",""64816""
""focus"",""7"",""70327""
""focus"",""7"",""89403""
""focus"",""13"",""160335""
","""event"",""trial"",""time""
""fullscreenenter"",""1"",""2281""
","
","","","","","","","","","","","","","","","","","","","","","","","","","","",""
"pit-instructions","36","438533","0.0-2.0-10.0","battery-v0.2","","""event"",""trial"",""time""
""fullscreenenter"",""1"",""2281""
""blur"",""2"",""4008""
""focus"",""2"",""4678""
""blur"",""2"",""6940""
""focus"",""2"",""10463""
""blur"",""7"",""40860""
""focus"",""7"",""42167""
""blur"",""7"",""44308""
""focus"",""7"",""48436""
""blur"",""7"",""50992""
""focus"",""7"",""64816""
""blur"",""7"",""69323""
""focus"",""7"",""70327""
""blur"",""7"",""81357""
""focus"",""7"",""89403""
""blur"",""13"",""158774""
""focus"",""13"",""160335""
","""event"",""trial"",""time""
""blur"",""2"",""4008""
""blur"",""2"",""6940""
""blur"",""7"",""40860""
""blur"",""7"",""44308""
""blur"",""7"",""50992""
""blur"",""7"",""69323""
""blur"",""7"",""81357""
""blur"",""13"",""158774""
","""event"",""trial"",""time""
""focus"",""2"",""4678""
""focus"",""2"",""10463""
""focus"",""7"",""42167""
""focus"",""7"",""48436""
""focus"",""7"",""64816""
""focus"",""7"",""70327""
""focus"",""7"",""89403""
""focus"",""13"",""160335""
","""event"",""trial"",""time""
""fullscreenenter"",""1"",""2281""
","
","","[{""page_index"":0,""viewing_time"":9281.600000023842},{""page_index"":1,""viewing_time"":10949.699999988079},{""page_index"":2,""viewing_time"":14584.5},{""page_index"":3,""viewing_time"":11850.399999976158},{""page_index"":4,""viewing_time"":8750}]","55416.89999997616","","","","","","","","","","","","","","","","","","","","","","","",""
"pit-trial","37","441811","0.0-2.0-11.0-0.0","battery-v0.2","","""event"",""trial"",""time""
""fullscreenenter"",""1"",""2281""
""blur"",""2"",""4008""
""focus"",""2"",""4678""
""blur"",""2"",""6940""
""focus"",""2"",""10463""
""blur"",""7"",""40860""
""focus"",""7"",""42167""
""blur"",""7"",""44308""
""focus"",""7"",""48436""
""blur"",""7"",""50992""
""focus"",""7"",""64816""
""blur"",""7"",""69323""
""focus"",""7"",""70327""
""blur"",""7"",""81357""
""focus"",""7"",""89403""
""blur"",""13"",""158774""
""focus"",""13"",""160335""
","""event"",""trial"",""time""
""blur"",""2"",""4008""
""blur"",""2"",""6940""
""blur"",""7"",""40860""
""blur"",""7"",""44308""
""blur"",""7"",""50992""
""blur"",""7"",""69323""
""blur"",""7"",""81357""
""blur"",""13"",""158774""
","""event"",""trial"",""time""
""focus"",""2"",""4678""
""focus"",""2"",""10463""
""focus"",""7"",""42167""
""focus"",""7"",""48436""
""focus"",""7"",""64816""
""focus"",""7"",""70327""
""focus"",""7"",""89403""
""focus"",""13"",""160335""
","""event"",""trial"",""time""
""fullscreenenter"",""1"",""2281""
","
","","","411.80000001192093","","","15","10159","2488","&#9761;","elianto","#3366ff99","-1"," ","0","0","[1267.300000011921]","1","0","2","","","","","","","",""
"pit-trial","38","446683","0.0-2.0-11.0-1.0","battery-v0.2","","""event"",""trial"",""time""
""fullscreenenter"",""1"",""2281""
""blur"",""2"",""4008""
""focus"",""2"",""4678""
""blur"",""2"",""6940""
""focus"",""2"",""10463""
""blur"",""7"",""40860""
""focus"",""7"",""42167""
""blur"",""7"",""44308""
""focus"",""7"",""48436""
""blur"",""7"",""50992""
""focus"",""7"",""64816""
""blur"",""7"",""69323""
""focus"",""7"",""70327""
""blur"",""7"",""81357""
""focus"",""7"",""89403""
""blur"",""13"",""158774""
""focus"",""13"",""160335""
","""event"",""trial"",""time""
""blur"",""2"",""4008""
""blur"",""2"",""6940""
""blur"",""7"",""40860""
""blur"",""7"",""44308""
""blur"",""7"",""50992""
""blur"",""7"",""69323""
""blur"",""7"",""81357""
""blur"",""13"",""158774""
","""event"",""trial"",""time""
""focus"",""2"",""4678""
""focus"",""2"",""10463""
""focus"",""7"",""42167""
""focus"",""7"",""48436""
""focus"",""7"",""64816""
""focus"",""7"",""70327""
""focus"",""7"",""89403""
""focus"",""13"",""160335""
","""event"",""trial"",""time""
""fullscreenenter"",""1"",""2281""
","
","","","-1","","","15","10159","2488","&#9761;","elianto","#3366ff99","-1","-1","1","+10","[]","0","0","2","","","","","","","",""
"pit-trial","39","451554","0.0-2.0-11.0-2.0","battery-v0.2","","""event"",""trial"",""time""
""fullscreenenter"",""1"",""2281""
""blur"",""2"",""4008""
""focus"",""2"",""4678""
""blur"",""2"",""6940""
""focus"",""2"",""10463""
""blur"",""7"",""40860""
""focus"",""7"",""42167""
""blur"",""7"",""44308""
""focus"",""7"",""48436""
""blur"",""7"",""50992""
""focus"",""7"",""64816""
""blur"",""7"",""69323""
""focus"",""7"",""70327""
""blur"",""7"",""81357""
""focus"",""7"",""89403""
""blur"",""13"",""158774""
""focus"",""13"",""160335""
","""event"",""trial"",""time""
""blur"",""2"",""4008""
""blur"",""2"",""6940""
""blur"",""7"",""40860""
""blur"",""7"",""44308""
""blur"",""7"",""50992""
""blur"",""7"",""69323""
""blur"",""7"",""81357""
""blur"",""13"",""158774""
","""event"",""trial"",""time""
""focus"",""2"",""4678""
""focus"",""2"",""10463""
""focus"",""7"",""42167""
""focus"",""7"",""48436""
""focus"",""7"",""64816""
""focus"",""7"",""70327""
""focus"",""7"",""89403""
""focus"",""13"",""160335""
","""event"",""trial"",""time""
""fullscreenenter"",""1"",""2281""
","
","","","-1","","","15","10159","2488","&#9761;","elianto","#3366ff99","-1","-1","1","+10","[]","0","0","2","","","","","","","",""
"pit-trial","40","456426","0.0-2.0-11.0-3.0","battery-v0.2","","""event"",""trial"",""time""
""fullscreenenter"",""1"",""2281""
""blur"",""2"",""4008""
""focus"",""2"",""4678""
""blur"",""2"",""6940""
""focus"",""2"",""10463""
""blur"",""7"",""40860""
""focus"",""7"",""42167""
""blur"",""7"",""44308""
""focus"",""7"",""48436""
""blur"",""7"",""50992""
""focus"",""7"",""64816""
""blur"",""7"",""69323""
""focus"",""7"",""70327""
""blur"",""7"",""81357""
""focus"",""7"",""89403""
""blur"",""13"",""158774""
""focus"",""13"",""160335""
","""event"",""trial"",""time""
""blur"",""2"",""4008""
""blur"",""2"",""6940""
""blur"",""7"",""40860""
""blur"",""7"",""44308""
""blur"",""7"",""50992""
""blur"",""7"",""69323""
""blur"",""7"",""81357""
""blur"",""13"",""158774""
","""event"",""trial"",""time""
""focus"",""2"",""4678""
""focus"",""2"",""10463""
""focus"",""7"",""42167""
""focus"",""7"",""48436""
""focus"",""7"",""64816""
""focus"",""7"",""70327""
""focus"",""7"",""89403""
""focus"",""13"",""160335""
","""event"",""trial"",""time""
""fullscreenenter"",""1"",""2281""
","
","","","-1","","","15","10159","2488","&#9761;","elianto","#3366ff99","-1","-1","1","0","[]","0","0","2","","","","","","","",""
"pit-trial","41","461298","0.0-2.0-11.0-4.0","battery-v0.2","","""event"",""trial"",""time""
""fullscreenenter"",""1"",""2281""
""blur"",""2"",""4008""
""focus"",""2"",""4678""
""blur"",""2"",""6940""
""focus"",""2"",""10463""
""blur"",""7"",""40860""
""focus"",""7"",""42167""
""blur"",""7"",""44308""
""focus"",""7"",""48436""
""blur"",""7"",""50992""
""focus"",""7"",""64816""
""blur"",""7"",""69323""
""focus"",""7"",""70327""
""blur"",""7"",""81357""
""focus"",""7"",""89403""
""blur"",""13"",""158774""
""focus"",""13"",""160335""
","""event"",""trial"",""time""
""blur"",""2"",""4008""
""blur"",""2"",""6940""
""blur"",""7"",""40860""
""blur"",""7"",""44308""
""blur"",""7"",""50992""
""blur"",""7"",""69323""
""blur"",""7"",""81357""
""blur"",""13"",""158774""
","""event"",""trial"",""time""
""focus"",""2"",""4678""
""focus"",""2"",""10463""
""focus"",""7"",""42167""
""focus"",""7"",""48436""
""focus"",""7"",""64816""
""focus"",""7"",""70327""
""focus"",""7"",""89403""
""focus"",""13"",""160335""
","""event"",""trial"",""time""
""fullscreenenter"",""1"",""2281""
","
","","","-1","","","15","10159","2488","&#9761;","elianto","#3366ff99","-1","-1","1","+10","[]","0","0","2","","","","","","","",""
"pit-trial","42","466170","0.0-2.0-11.1-0.1","battery-v0.2","","""event"",""trial"",""time""
""fullscreenenter"",""1"",""2281""
""blur"",""2"",""4008""
""focus"",""2"",""4678""
""blur"",""2"",""6940""
""focus"",""2"",""10463""
""blur"",""7"",""40860""
""focus"",""7"",""42167""
""blur"",""7"",""44308""
""focus"",""7"",""48436""
""blur"",""7"",""50992""
""focus"",""7"",""64816""
""blur"",""7"",""69323""
""focus"",""7"",""70327""
""blur"",""7"",""81357""
""focus"",""7"",""89403""
""blur"",""13"",""158774""
""focus"",""13"",""160335""
","""event"",""trial"",""time""
""blur"",""2"",""4008""
""blur"",""2"",""6940""
""blur"",""7"",""40860""
""blur"",""7"",""44308""
""blur"",""7"",""50992""
""blur"",""7"",""69323""
""blur"",""7"",""81357""
""blur"",""13"",""158774""
","""event"",""trial"",""time""
""focus"",""2"",""4678""
""focus"",""2"",""10463""
""focus"",""7"",""42167""
""focus"",""7"",""48436""
""focus"",""7"",""64816""
""focus"",""7"",""70327""
""focus"",""7"",""89403""
""focus"",""13"",""160335""
","""event"",""trial"",""time""
""fullscreenenter"",""1"",""2281""
","
","","","-1","","","15","10159","2488","&#9761;","elianto","#3366ff99","-1","-1","1","+10","[]","0","0","2","","","","","","","",""
"pit-trial","43","471039","0.0-2.0-11.1-1.1","battery-v0.2","","""event"",""trial"",""time""
""fullscreenenter"",""1"",""2281""
""blur"",""2"",""4008""
""focus"",""2"",""4678""
""blur"",""2"",""6940""
""focus"",""2"",""10463""
""blur"",""7"",""40860""
""focus"",""7"",""42167""
""blur"",""7"",""44308""
""focus"",""7"",""48436""
""blur"",""7"",""50992""
""focus"",""7"",""64816""
""blur"",""7"",""69323""
""focus"",""7"",""70327""
""blur"",""7"",""81357""
""focus"",""7"",""89403""
""blur"",""13"",""158774""
""focus"",""13"",""160335""
","""event"",""trial"",""time""
""blur"",""2"",""4008""
""blur"",""2"",""6940""
""blur"",""7"",""40860""
""blur"",""7"",""44308""
""blur"",""7"",""50992""
""blur"",""7"",""69323""
""blur"",""7"",""81357""
""blur"",""13"",""158774""
","""event"",""trial"",""time""
""focus"",""2"",""4678""
""focus"",""2"",""10463""
""focus"",""7"",""42167""
""focus"",""7"",""48436""
""focus"",""7"",""64816""
""focus"",""7"",""70327""
""focus"",""7"",""89403""
""focus"",""13"",""160335""
","""event"",""trial"",""time""
""fullscreenenter"",""1"",""2281""
","
","","","-1","","","15","10159","2488","&#9761;","elianto","#3366ff99","-1","-1","1","+10","[]","0","0","2","","","","","","","",""
"pit-trial","44","475913","0.0-2.0-11.1-2.1","battery-v0.2","","""event"",""trial"",""time""
""fullscreenenter"",""1"",""2281""
""blur"",""2"",""4008""
""focus"",""2"",""4678""
""blur"",""2"",""6940""
""focus"",""2"",""10463""
""blur"",""7"",""40860""
""focus"",""7"",""42167""
""blur"",""7"",""44308""
""focus"",""7"",""48436""
""blur"",""7"",""50992""
""focus"",""7"",""64816""
""blur"",""7"",""69323""
""focus"",""7"",""70327""
""blur"",""7"",""81357""
""focus"",""7"",""89403""
""blur"",""13"",""158774""
""focus"",""13"",""160335""
","""event"",""trial"",""time""
""blur"",""2"",""4008""
""blur"",""2"",""6940""
""blur"",""7"",""40860""
""blur"",""7"",""44308""
""blur"",""7"",""50992""
""blur"",""7"",""69323""
""blur"",""7"",""81357""
""blur"",""13"",""158774""
","""event"",""trial"",""time""
""focus"",""2"",""4678""
""focus"",""2"",""10463""
""focus"",""7"",""42167""
""focus"",""7"",""48436""
""focus"",""7"",""64816""
""focus"",""7"",""70327""
""focus"",""7"",""89403""
""focus"",""13"",""160335""
","""event"",""trial"",""time""
""fullscreenenter"",""1"",""2281""
","
","","","-1","","","15","10159","2488","&#9761;","elianto","#3366ff99","-1","-1","1","+10","[]","0","0","2","","","","","","","",""
"pit-trial","45","480780","0.0-2.0-11.1-3.1","battery-v0.2","","""event"",""trial"",""time""
""fullscreenenter"",""1"",""2281""
""blur"",""2"",""4008""
""focus"",""2"",""4678""
""blur"",""2"",""6940""
""focus"",""2"",""10463""
""blur"",""7"",""40860""
""focus"",""7"",""42167""
""blur"",""7"",""44308""
""focus"",""7"",""48436""
""blur"",""7"",""50992""
""focus"",""7"",""64816""
""blur"",""7"",""69323""
""focus"",""7"",""70327""
""blur"",""7"",""81357""
""focus"",""7"",""89403""
""blur"",""13"",""158774""
""focus"",""13"",""160335""
","""event"",""trial"",""time""
""blur"",""2"",""4008""
""blur"",""2"",""6940""
""blur"",""7"",""40860""
""blur"",""7"",""44308""
""blur"",""7"",""50992""
""blur"",""7"",""69323""
""blur"",""7"",""81357""
""blur"",""13"",""158774""
","""event"",""trial"",""time""
""focus"",""2"",""4678""
""focus"",""2"",""10463""
""focus"",""7"",""42167""
""focus"",""7"",""48436""
""focus"",""7"",""64816""
""focus"",""7"",""70327""
""focus"",""7"",""89403""
""focus"",""13"",""160335""
","""event"",""trial"",""time""
""fullscreenenter"",""1"",""2281""
","
","","","-1","","","15","10159","2488","&#9761;","elianto","#3366ff99","-1","-1","1","0","[]","0","0","2","","","","","","","",""
"pit-trial","46","485645","0.0-2.0-11.1-4.1","battery-v0.2","","""event"",""trial"",""time""
""fullscreenenter"",""1"",""2281""
""blur"",""2"",""4008""
""focus"",""2"",""4678""
""blur"",""2"",""6940""
""focus"",""2"",""10463""
""blur"",""7"",""40860""
""focus"",""7"",""42167""
""blur"",""7"",""44308""
""focus"",""7"",""48436""
""blur"",""7"",""50992""
""focus"",""7"",""64816""
""blur"",""7"",""69323""
""focus"",""7"",""70327""
""blur"",""7"",""81357""
""focus"",""7"",""89403""
""blur"",""13"",""158774""
""focus"",""13"",""160335""
","""event"",""trial"",""time""
""blur"",""2"",""4008""
""blur"",""2"",""6940""
""blur"",""7"",""40860""
""blur"",""7"",""44308""
""blur"",""7"",""50992""
""blur"",""7"",""69323""
""blur"",""7"",""81357""
""blur"",""13"",""158774""
","""event"",""trial"",""time""
""focus"",""2"",""4678""
""focus"",""2"",""10463""
""focus"",""7"",""42167""
""focus"",""7"",""48436""
""focus"",""7"",""64816""
""focus"",""7"",""70327""
""focus"",""7"",""89403""
""focus"",""13"",""160335""
","""event"",""trial"",""time""
""fullscreenenter"",""1"",""2281""
","
","","","-1","","","15","10159","2488","&#9761;","elianto","#3366ff99","-1","-1","1","+10","[]","0","0","2","","","","","","","",""
"pit-trial","47","490521","0.0-2.0-11.2-0.2","battery-v0.2","","""event"",""trial"",""time""
""fullscreenenter"",""1"",""2281""
""blur"",""2"",""4008""
""focus"",""2"",""4678""
""blur"",""2"",""6940""
""focus"",""2"",""10463""
""blur"",""7"",""40860""
""focus"",""7"",""42167""
""blur"",""7"",""44308""
""focus"",""7"",""48436""
""blur"",""7"",""50992""
""focus"",""7"",""64816""
""blur"",""7"",""69323""
""focus"",""7"",""70327""
""blur"",""7"",""81357""
""focus"",""7"",""89403""
""blur"",""13"",""158774""
""focus"",""13"",""160335""
","""event"",""trial"",""time""
""blur"",""2"",""4008""
""blur"",""2"",""6940""
""blur"",""7"",""40860""
""blur"",""7"",""44308""
""blur"",""7"",""50992""
""blur"",""7"",""69323""
""blur"",""7"",""81357""
""blur"",""13"",""158774""
","""event"",""trial"",""time""
""focus"",""2"",""4678""
""focus"",""2"",""10463""
""focus"",""7"",""42167""
""focus"",""7"",""48436""
""focus"",""7"",""64816""
""focus"",""7"",""70327""
""focus"",""7"",""89403""
""focus"",""13"",""160335""
","""event"",""trial"",""time""
""fullscreenenter"",""1"",""2281""
","
","","","-1","","","15","10159","2488","&#9761;","elianto","#3366ff99","-1","-1","1","+10","[]","0","0","2","","","","","","","",""
"pit-trial","48","495392","0.0-2.0-11.2-1.2","battery-v0.2","","""event"",""trial"",""time""
""fullscreenenter"",""1"",""2281""
""blur"",""2"",""4008""
""focus"",""2"",""4678""
""blur"",""2"",""6940""
""focus"",""2"",""10463""
""blur"",""7"",""40860""
""focus"",""7"",""42167""
""blur"",""7"",""44308""
""focus"",""7"",""48436""
""blur"",""7"",""50992""
""focus"",""7"",""64816""
""blur"",""7"",""69323""
""focus"",""7"",""70327""
""blur"",""7"",""81357""
""focus"",""7"",""89403""
""blur"",""13"",""158774""
""focus"",""13"",""160335""
","""event"",""trial"",""time""
""blur"",""2"",""4008""
""blur"",""2"",""6940""
""blur"",""7"",""40860""
""blur"",""7"",""44308""
""blur"",""7"",""50992""
""blur"",""7"",""69323""
""blur"",""7"",""81357""
""blur"",""13"",""158774""
","""event"",""trial"",""time""
""focus"",""2"",""4678""
""focus"",""2"",""10463""
""focus"",""7"",""42167""
""focus"",""7"",""48436""
""focus"",""7"",""64816""
""focus"",""7"",""70327""
""focus"",""7"",""89403""
""focus"",""13"",""160335""
","""event"",""trial"",""time""
""fullscreenenter"",""1"",""2281""
","
","","","-1","","","15","10159","2488","&#9761;","elianto","#3366ff99","-1","-1","1","+10","[]","0","0","2","","","","","","","",""
"pit-trial","49","500264","0.0-2.0-11.2-2.2","battery-v0.2","","""event"",""trial"",""time""
""fullscreenenter"",""1"",""2281""
""blur"",""2"",""4008""
""focus"",""2"",""4678""
""blur"",""2"",""6940""
""focus"",""2"",""10463""
""blur"",""7"",""40860""
""focus"",""7"",""42167""
""blur"",""7"",""44308""
""focus"",""7"",""48436""
""blur"",""7"",""50992""
""focus"",""7"",""64816""
""blur"",""7"",""69323""
""focus"",""7"",""70327""
""blur"",""7"",""81357""
""focus"",""7"",""89403""
""blur"",""13"",""158774""
""focus"",""13"",""160335""
","""event"",""trial"",""time""
""blur"",""2"",""4008""
""blur"",""2"",""6940""
""blur"",""7"",""40860""
""blur"",""7"",""44308""
""blur"",""7"",""50992""
""blur"",""7"",""69323""
""blur"",""7"",""81357""
""blur"",""13"",""158774""
","""event"",""trial"",""time""
""focus"",""2"",""4678""
""focus"",""2"",""10463""
""focus"",""7"",""42167""
""focus"",""7"",""48436""
""focus"",""7"",""64816""
""focus"",""7"",""70327""
""focus"",""7"",""89403""
""focus"",""13"",""160335""
","""event"",""trial"",""time""
""fullscreenenter"",""1"",""2281""
","
","","","-1","","","15","10159","2488","&#9761;","elianto","#3366ff99","-1","-1","1","+10","[]","0","0","2","","","","","","","",""
"pit-trial","50","505132","0.0-2.0-11.2-3.2","battery-v0.2","","""event"",""trial"",""time""
""fullscreenenter"",""1"",""2281""
""blur"",""2"",""4008""
""focus"",""2"",""4678""
""blur"",""2"",""6940""
""focus"",""2"",""10463""
""blur"",""7"",""40860""
""focus"",""7"",""42167""
""blur"",""7"",""44308""
""focus"",""7"",""48436""
""blur"",""7"",""50992""
""focus"",""7"",""64816""
""blur"",""7"",""69323""
""focus"",""7"",""70327""
""blur"",""7"",""81357""
""focus"",""7"",""89403""
""blur"",""13"",""158774""
""focus"",""13"",""160335""
","""event"",""trial"",""time""
""blur"",""2"",""4008""
""blur"",""2"",""6940""
""blur"",""7"",""40860""
""blur"",""7"",""44308""
""blur"",""7"",""50992""
""blur"",""7"",""69323""
""blur"",""7"",""81357""
""blur"",""13"",""158774""
","""event"",""trial"",""time""
""focus"",""2"",""4678""
""focus"",""2"",""10463""
""focus"",""7"",""42167""
""focus"",""7"",""48436""
""focus"",""7"",""64816""
""focus"",""7"",""70327""
""focus"",""7"",""89403""
""focus"",""13"",""160335""
","""event"",""trial"",""time""
""fullscreenenter"",""1"",""2281""
","
","","","-1","","","15","10159","2488","&#9761;","elianto","#3366ff99","-1","-1","1","0","[]","0","0","2","","","","","","","",""
"pit-trial","51","509999","0.0-2.0-11.2-4.2","battery-v0.2","","""event"",""trial"",""time""
""fullscreenenter"",""1"",""2281""
""blur"",""2"",""4008""
""focus"",""2"",""4678""
""blur"",""2"",""6940""
""focus"",""2"",""10463""
""blur"",""7"",""40860""
""focus"",""7"",""42167""
""blur"",""7"",""44308""
""focus"",""7"",""48436""
""blur"",""7"",""50992""
""focus"",""7"",""64816""
""blur"",""7"",""69323""
""focus"",""7"",""70327""
""blur"",""7"",""81357""
""focus"",""7"",""89403""
""blur"",""13"",""158774""
""focus"",""13"",""160335""
","""event"",""trial"",""time""
""blur"",""2"",""4008""
""blur"",""2"",""6940""
""blur"",""7"",""40860""
""blur"",""7"",""44308""
""blur"",""7"",""50992""
""blur"",""7"",""69323""
""blur"",""7"",""81357""
""blur"",""13"",""158774""
","""event"",""trial"",""time""
""focus"",""2"",""4678""
""focus"",""2"",""10463""
""focus"",""7"",""42167""
""focus"",""7"",""48436""
""focus"",""7"",""64816""
""focus"",""7"",""70327""
""focus"",""7"",""89403""
""focus"",""13"",""160335""
","""event"",""trial"",""time""
""fullscreenenter"",""1"",""2281""
","
","","","-1","","","15","10159","2488","&#9761;","elianto","#3366ff99","-1","-1","1","+10","[]","0","0","2","","","","","","","",""
"pit-trial","52","514868","0.0-2.0-11.3-0.3","battery-v0.2","","""event"",""trial"",""time""
""fullscreenenter"",""1"",""2281""
""blur"",""2"",""4008""
""focus"",""2"",""4678""
""blur"",""2"",""6940""
""focus"",""2"",""10463""
""blur"",""7"",""40860""
""focus"",""7"",""42167""
""blur"",""7"",""44308""
""focus"",""7"",""48436""
""blur"",""7"",""50992""
""focus"",""7"",""64816""
""blur"",""7"",""69323""
""focus"",""7"",""70327""
""blur"",""7"",""81357""
""focus"",""7"",""89403""
""blur"",""13"",""158774""
""focus"",""13"",""160335""
","""event"",""trial"",""time""
""blur"",""2"",""4008""
""blur"",""2"",""6940""
""blur"",""7"",""40860""
""blur"",""7"",""44308""
""blur"",""7"",""50992""
""blur"",""7"",""69323""
""blur"",""7"",""81357""
""blur"",""13"",""158774""
","""event"",""trial"",""time""
""focus"",""2"",""4678""
""focus"",""2"",""10463""
""focus"",""7"",""42167""
""focus"",""7"",""48436""
""focus"",""7"",""64816""
""focus"",""7"",""70327""
""focus"",""7"",""89403""
""focus"",""13"",""160335""
","""event"",""trial"",""time""
""fullscreenenter"",""1"",""2281""
","
","","","-1","","","15","10159","2488","&#9761;","elianto","#3366ff99","-1","-1","1","+10","[]","0","0","2","","","","","","","",""
"pit-trial","53","519735","0.0-2.0-11.3-1.3","battery-v0.2","","""event"",""trial"",""time""
""fullscreenenter"",""1"",""2281""
""blur"",""2"",""4008""
""focus"",""2"",""4678""
""blur"",""2"",""6940""
""focus"",""2"",""10463""
""blur"",""7"",""40860""
""focus"",""7"",""42167""
""blur"",""7"",""44308""
""focus"",""7"",""48436""
""blur"",""7"",""50992""
""focus"",""7"",""64816""
""blur"",""7"",""69323""
""focus"",""7"",""70327""
""blur"",""7"",""81357""
""focus"",""7"",""89403""
""blur"",""13"",""158774""
""focus"",""13"",""160335""
","""event"",""trial"",""time""
""blur"",""2"",""4008""
""blur"",""2"",""6940""
""blur"",""7"",""40860""
""blur"",""7"",""44308""
""blur"",""7"",""50992""
""blur"",""7"",""69323""
""blur"",""7"",""81357""
""blur"",""13"",""158774""
","""event"",""trial"",""time""
""focus"",""2"",""4678""
""focus"",""2"",""10463""
""focus"",""7"",""42167""
""focus"",""7"",""48436""
""focus"",""7"",""64816""
""focus"",""7"",""70327""
""focus"",""7"",""89403""
""focus"",""13"",""160335""
","""event"",""trial"",""time""
""fullscreenenter"",""1"",""2281""
","
","","","-1","","","15","10159","2488","&#9761;","elianto","#3366ff99","-1","-1","1","+10","[]","0","0","2","","","","","","","",""
"pit-trial","54","524603","0.0-2.0-11.3-2.3","battery-v0.2","","""event"",""trial"",""time""
""fullscreenenter"",""1"",""2281""
""blur"",""2"",""4008""
""focus"",""2"",""4678""
""blur"",""2"",""6940""
""focus"",""2"",""10463""
""blur"",""7"",""40860""
""focus"",""7"",""42167""
""blur"",""7"",""44308""
""focus"",""7"",""48436""
""blur"",""7"",""50992""
""focus"",""7"",""64816""
""blur"",""7"",""69323""
""focus"",""7"",""70327""
""blur"",""7"",""81357""
""focus"",""7"",""89403""
""blur"",""13"",""158774""
""focus"",""13"",""160335""
","""event"",""trial"",""time""
""blur"",""2"",""4008""
""blur"",""2"",""6940""
""blur"",""7"",""40860""
""blur"",""7"",""44308""
""blur"",""7"",""50992""
""blur"",""7"",""69323""
""blur"",""7"",""81357""
""blur"",""13"",""158774""
","""event"",""trial"",""time""
""focus"",""2"",""4678""
""focus"",""2"",""10463""
""focus"",""7"",""42167""
""focus"",""7"",""48436""
""focus"",""7"",""64816""
""focus"",""7"",""70327""
""focus"",""7"",""89403""
""focus"",""13"",""160335""
","""event"",""trial"",""time""
""fullscreenenter"",""1"",""2281""
","
","","","-1","","","15","10159","2488","&#9761;","elianto","#3366ff99","-1","-1","1","+10","[]","0","0","2","","","","","","","",""
"pit-trial","55","529471","0.0-2.0-11.3-3.3","battery-v0.2","","""event"",""trial"",""time""
""fullscreenenter"",""1"",""2281""
""blur"",""2"",""4008""
""focus"",""2"",""4678""
""blur"",""2"",""6940""
""focus"",""2"",""10463""
""blur"",""7"",""40860""
""focus"",""7"",""42167""
""blur"",""7"",""44308""
""focus"",""7"",""48436""
""blur"",""7"",""50992""
""focus"",""7"",""64816""
""blur"",""7"",""69323""
""focus"",""7"",""70327""
""blur"",""7"",""81357""
""focus"",""7"",""89403""
""blur"",""13"",""158774""
""focus"",""13"",""160335""
","""event"",""trial"",""time""
""blur"",""2"",""4008""
""blur"",""2"",""6940""
""blur"",""7"",""40860""
""blur"",""7"",""44308""
""blur"",""7"",""50992""
""blur"",""7"",""69323""
""blur"",""7"",""81357""
""blur"",""13"",""158774""
","""event"",""trial"",""time""
""focus"",""2"",""4678""
""focus"",""2"",""10463""
""focus"",""7"",""42167""
""focus"",""7"",""48436""
""focus"",""7"",""64816""
""focus"",""7"",""70327""
""focus"",""7"",""89403""
""focus"",""13"",""160335""
","""event"",""trial"",""time""
""fullscreenenter"",""1"",""2281""
","
","","","-1","","","15","10159","2488","&#9761;","elianto","#3366ff99","-1","-1","1","0","[]","0","0","2","","","","","","","",""
"pit-trial","56","534338","0.0-2.0-11.3-4.3","battery-v0.2","","""event"",""trial"",""time""
""fullscreenenter"",""1"",""2281""
""blur"",""2"",""4008""
""focus"",""2"",""4678""
""blur"",""2"",""6940""
""focus"",""2"",""10463""
""blur"",""7"",""40860""
""focus"",""7"",""42167""
""blur"",""7"",""44308""
""focus"",""7"",""48436""
""blur"",""7"",""50992""
""focus"",""7"",""64816""
""blur"",""7"",""69323""
""focus"",""7"",""70327""
""blur"",""7"",""81357""
""focus"",""7"",""89403""
""blur"",""13"",""158774""
""focus"",""13"",""160335""
","""event"",""trial"",""time""
""blur"",""2"",""4008""
""blur"",""2"",""6940""
""blur"",""7"",""40860""
""blur"",""7"",""44308""
""blur"",""7"",""50992""
""blur"",""7"",""69323""
""blur"",""7"",""81357""
""blur"",""13"",""158774""
","""event"",""trial"",""time""
""focus"",""2"",""4678""
""focus"",""2"",""10463""
""focus"",""7"",""42167""
""focus"",""7"",""48436""
""focus"",""7"",""64816""
""focus"",""7"",""70327""
""focus"",""7"",""89403""
""focus"",""13"",""160335""
","""event"",""trial"",""time""
""fullscreenenter"",""1"",""2281""
","
","","","-1","","","15","10159","2488","&#9761;","elianto","#3366ff99","-1","-1","1","+10","[]","0","0","2","","","","","","","",""
"call-function","57","534340","0.0-2.0-12.0","battery-v0.2","","""event"",""trial"",""time""
""fullscreenenter"",""1"",""2281""
""blur"",""2"",""4008""
""focus"",""2"",""4678""
""blur"",""2"",""6940""
""focus"",""2"",""10463""
""blur"",""7"",""40860""
""focus"",""7"",""42167""
""blur"",""7"",""44308""
""focus"",""7"",""48436""
""blur"",""7"",""50992""
""focus"",""7"",""64816""
""blur"",""7"",""69323""
""focus"",""7"",""70327""
""blur"",""7"",""81357""
""focus"",""7"",""89403""
""blur"",""13"",""158774""
""focus"",""13"",""160335""
","""event"",""trial"",""time""
""blur"",""2"",""4008""
""blur"",""2"",""6940""
""blur"",""7"",""40860""
""blur"",""7"",""44308""
""blur"",""7"",""50992""
""blur"",""7"",""69323""
""blur"",""7"",""81357""
""blur"",""13"",""158774""
","""event"",""trial"",""time""
""focus"",""2"",""4678""
""focus"",""2"",""10463""
""focus"",""7"",""42167""
""focus"",""7"",""48436""
""focus"",""7"",""64816""
""focus"",""7"",""70327""
""focus"",""7"",""89403""
""focus"",""13"",""160335""
","""event"",""trial"",""time""
""fullscreenenter"",""1"",""2281""
","
","","","","","","","","","","","","","","","","","","","","","","","","","","",""
"pit-instructions","58","575316","0.0-2.0-13.0","battery-v0.2","","""event"",""trial"",""time""
""fullscreenenter"",""1"",""2281""
""blur"",""2"",""4008""
""focus"",""2"",""4678""
""blur"",""2"",""6940""
""focus"",""2"",""10463""
""blur"",""7"",""40860""
""focus"",""7"",""42167""
""blur"",""7"",""44308""
""focus"",""7"",""48436""
""blur"",""7"",""50992""
""focus"",""7"",""64816""
""blur"",""7"",""69323""
""focus"",""7"",""70327""
""blur"",""7"",""81357""
""focus"",""7"",""89403""
""blur"",""13"",""158774""
""focus"",""13"",""160335""
","""event"",""trial"",""time""
""blur"",""2"",""4008""
""blur"",""2"",""6940""
""blur"",""7"",""40860""
""blur"",""7"",""44308""
""blur"",""7"",""50992""
""blur"",""7"",""69323""
""blur"",""7"",""81357""
""blur"",""13"",""158774""
","""event"",""trial"",""time""
""focus"",""2"",""4678""
""focus"",""2"",""10463""
""focus"",""7"",""42167""
""focus"",""7"",""48436""
""focus"",""7"",""64816""
""focus"",""7"",""70327""
""focus"",""7"",""89403""
""focus"",""13"",""160335""
","""event"",""trial"",""time""
""fullscreenenter"",""1"",""2281""
","
","","[{""page_index"":0,""viewing_time"":5108.5},{""page_index"":1,""viewing_time"":11684},{""page_index"":2,""viewing_time"":5224.700000047684},{""page_index"":3,""viewing_time"":12476.599999964237},{""page_index"":4,""viewing_time"":6483}]","40977.60000002384","","","","","","","","","","","","","","","","","","","","","","","",""
"pit-trial","59","580189","0.0-2.0-14.0-0.0","battery-v0.2","","""event"",""trial"",""time""
""fullscreenenter"",""1"",""2281""
""blur"",""2"",""4008""
""focus"",""2"",""4678""
""blur"",""2"",""6940""
""focus"",""2"",""10463""
""blur"",""7"",""40860""
""focus"",""7"",""42167""
""blur"",""7"",""44308""
""focus"",""7"",""48436""
""blur"",""7"",""50992""
""focus"",""7"",""64816""
""blur"",""7"",""69323""
""focus"",""7"",""70327""
""blur"",""7"",""81357""
""focus"",""7"",""89403""
""blur"",""13"",""158774""
""focus"",""13"",""160335""
","""event"",""trial"",""time""
""blur"",""2"",""4008""
""blur"",""2"",""6940""
""blur"",""7"",""40860""
""blur"",""7"",""44308""
""blur"",""7"",""50992""
""blur"",""7"",""69323""
""blur"",""7"",""81357""
""blur"",""13"",""158774""
","""event"",""trial"",""time""
""focus"",""2"",""4678""
""focus"",""2"",""10463""
""focus"",""7"",""42167""
""focus"",""7"",""48436""
""focus"",""7"",""64816""
""focus"",""7"",""70327""
""focus"",""7"",""89403""
""focus"",""13"",""160335""
","""event"",""trial"",""time""
""fullscreenenter"",""1"",""2281""
","
","","","-1","","","15","10159","2488","&#9826;","elianto","#f73b6a7A","-1","-1","1","0","[]","0","0","3","","","","","","","",""
"pit-trial","60","585060","0.0-2.0-14.0-1.0","battery-v0.2","","""event"",""trial"",""time""
""fullscreenenter"",""1"",""2281""
""blur"",""2"",""4008""
""focus"",""2"",""4678""
""blur"",""2"",""6940""
""focus"",""2"",""10463""
""blur"",""7"",""40860""
""focus"",""7"",""42167""
""blur"",""7"",""44308""
""focus"",""7"",""48436""
""blur"",""7"",""50992""
""focus"",""7"",""64816""
""blur"",""7"",""69323""
""focus"",""7"",""70327""
""blur"",""7"",""81357""
""focus"",""7"",""89403""
""blur"",""13"",""158774""
""focus"",""13"",""160335""
","""event"",""trial"",""time""
""blur"",""2"",""4008""
""blur"",""2"",""6940""
""blur"",""7"",""40860""
""blur"",""7"",""44308""
""blur"",""7"",""50992""
""blur"",""7"",""69323""
""blur"",""7"",""81357""
""blur"",""13"",""158774""
","""event"",""trial"",""time""
""focus"",""2"",""4678""
""focus"",""2"",""10463""
""focus"",""7"",""42167""
""focus"",""7"",""48436""
""focus"",""7"",""64816""
""focus"",""7"",""70327""
""focus"",""7"",""89403""
""focus"",""13"",""160335""
","""event"",""trial"",""time""
""fullscreenenter"",""1"",""2281""
","
","","","-1","","","15","10159","2488","&#9826;","elianto","#f73b6a7A","-1","-1","1","0","[]","0","0","3","","","","","","","",""
"pit-trial","61","589928","0.0-2.0-14.0-2.0","battery-v0.2","","""event"",""trial"",""time""
""fullscreenenter"",""1"",""2281""
""blur"",""2"",""4008""
""focus"",""2"",""4678""
""blur"",""2"",""6940""
""focus"",""2"",""10463""
""blur"",""7"",""40860""
""focus"",""7"",""42167""
""blur"",""7"",""44308""
""focus"",""7"",""48436""
""blur"",""7"",""50992""
""focus"",""7"",""64816""
""blur"",""7"",""69323""
""focus"",""7"",""70327""
""blur"",""7"",""81357""
""focus"",""7"",""89403""
""blur"",""13"",""158774""
""focus"",""13"",""160335""
","""event"",""trial"",""time""
""blur"",""2"",""4008""
""blur"",""2"",""6940""
""blur"",""7"",""40860""
""blur"",""7"",""44308""
""blur"",""7"",""50992""
""blur"",""7"",""69323""
""blur"",""7"",""81357""
""blur"",""13"",""158774""
","""event"",""trial"",""time""
""focus"",""2"",""4678""
""focus"",""2"",""10463""
""focus"",""7"",""42167""
""focus"",""7"",""48436""
""focus"",""7"",""64816""
""focus"",""7"",""70327""
""focus"",""7"",""89403""
""focus"",""13"",""160335""
","""event"",""trial"",""time""
""fullscreenenter"",""1"",""2281""
","
","","","-1","","","15","10159","2488","&#9826;","elianto","#f73b6a7A","-1","-1","1","0","[]","0","0","3","","","","","","","",""
"pit-trial","62","593156","0.0-2.0-14.0-3.0","battery-v0.2","","""event"",""trial"",""time""
""fullscreenenter"",""1"",""2281""
""blur"",""2"",""4008""
""focus"",""2"",""4678""
""blur"",""2"",""6940""
""focus"",""2"",""10463""
""blur"",""7"",""40860""
""focus"",""7"",""42167""
""blur"",""7"",""44308""
""focus"",""7"",""48436""
""blur"",""7"",""50992""
""focus"",""7"",""64816""
""blur"",""7"",""69323""
""focus"",""7"",""70327""
""blur"",""7"",""81357""
""focus"",""7"",""89403""
""blur"",""13"",""158774""
""focus"",""13"",""160335""
","""event"",""trial"",""time""
""blur"",""2"",""4008""
""blur"",""2"",""6940""
""blur"",""7"",""40860""
""blur"",""7"",""44308""
""blur"",""7"",""50992""
""blur"",""7"",""69323""
""blur"",""7"",""81357""
""blur"",""13"",""158774""
","""event"",""trial"",""time""
""focus"",""2"",""4678""
""focus"",""2"",""10463""
""focus"",""7"",""42167""
""focus"",""7"",""48436""
""focus"",""7"",""64816""
""focus"",""7"",""70327""
""focus"",""7"",""89403""
""focus"",""13"",""160335""
","""event"",""trial"",""time""
""fullscreenenter"",""1"",""2281""
","
","","","363.30000001192093","","","15","10159","2488","&#9826;","elianto","#f73b6a7A","-1"," ","0","0","[1213.4000000357628]","1","0","3","","","","","","","",""
"pit-trial","63","598027","0.0-2.0-14.0-4.0","battery-v0.2","","""event"",""trial"",""time""
""fullscreenenter"",""1"",""2281""
""blur"",""2"",""4008""
""focus"",""2"",""4678""
""blur"",""2"",""6940""
""focus"",""2"",""10463""
""blur"",""7"",""40860""
""focus"",""7"",""42167""
""blur"",""7"",""44308""
""focus"",""7"",""48436""
""blur"",""7"",""50992""
""focus"",""7"",""64816""
""blur"",""7"",""69323""
""focus"",""7"",""70327""
""blur"",""7"",""81357""
""focus"",""7"",""89403""
""blur"",""13"",""158774""
""focus"",""13"",""160335""
","""event"",""trial"",""time""
""blur"",""2"",""4008""
""blur"",""2"",""6940""
""blur"",""7"",""40860""
""blur"",""7"",""44308""
""blur"",""7"",""50992""
""blur"",""7"",""69323""
""blur"",""7"",""81357""
""blur"",""13"",""158774""
","""event"",""trial"",""time""
""focus"",""2"",""4678""
""focus"",""2"",""10463""
""focus"",""7"",""42167""
""focus"",""7"",""48436""
""focus"",""7"",""64816""
""focus"",""7"",""70327""
""focus"",""7"",""89403""
""focus"",""13"",""160335""
","""event"",""trial"",""time""
""fullscreenenter"",""1"",""2281""
","
","","","-1","","","15","10159","2488","&#9826;","elianto","#f73b6a7A","-1","-1","1","0","[]","0","0","3","","","","","","","",""
"pit-trial","64","602895","0.0-2.0-14.1-0.1","battery-v0.2","","""event"",""trial"",""time""
""fullscreenenter"",""1"",""2281""
""blur"",""2"",""4008""
""focus"",""2"",""4678""
""blur"",""2"",""6940""
""focus"",""2"",""10463""
""blur"",""7"",""40860""
""focus"",""7"",""42167""
""blur"",""7"",""44308""
""focus"",""7"",""48436""
""blur"",""7"",""50992""
""focus"",""7"",""64816""
""blur"",""7"",""69323""
""focus"",""7"",""70327""
""blur"",""7"",""81357""
""focus"",""7"",""89403""
""blur"",""13"",""158774""
""focus"",""13"",""160335""
","""event"",""trial"",""time""
""blur"",""2"",""4008""
""blur"",""2"",""6940""
""blur"",""7"",""40860""
""blur"",""7"",""44308""
""blur"",""7"",""50992""
""blur"",""7"",""69323""
""blur"",""7"",""81357""
""blur"",""13"",""158774""
","""event"",""trial"",""time""
""focus"",""2"",""4678""
""focus"",""2"",""10463""
""focus"",""7"",""42167""
""focus"",""7"",""48436""
""focus"",""7"",""64816""
""focus"",""7"",""70327""
""focus"",""7"",""89403""
""focus"",""13"",""160335""
","""event"",""trial"",""time""
""fullscreenenter"",""1"",""2281""
","
","","","-1","","","15","10159","2488","&#9826;","elianto","#f73b6a7A","-1","-1","1","0","[]","0","0","3","","","","","","","",""
"pit-trial","65","607763","0.0-2.0-14.1-1.1","battery-v0.2","","""event"",""trial"",""time""
""fullscreenenter"",""1"",""2281""
""blur"",""2"",""4008""
""focus"",""2"",""4678""
""blur"",""2"",""6940""
""focus"",""2"",""10463""
""blur"",""7"",""40860""
""focus"",""7"",""42167""
""blur"",""7"",""44308""
""focus"",""7"",""48436""
""blur"",""7"",""50992""
""focus"",""7"",""64816""
""blur"",""7"",""69323""
""focus"",""7"",""70327""
""blur"",""7"",""81357""
""focus"",""7"",""89403""
""blur"",""13"",""158774""
""focus"",""13"",""160335""
","""event"",""trial"",""time""
""blur"",""2"",""4008""
""blur"",""2"",""6940""
""blur"",""7"",""40860""
""blur"",""7"",""44308""
""blur"",""7"",""50992""
""blur"",""7"",""69323""
""blur"",""7"",""81357""
""blur"",""13"",""158774""
","""event"",""trial"",""time""
""focus"",""2"",""4678""
""focus"",""2"",""10463""
""focus"",""7"",""42167""
""focus"",""7"",""48436""
""focus"",""7"",""64816""
""focus"",""7"",""70327""
""focus"",""7"",""89403""
""focus"",""13"",""160335""
","""event"",""trial"",""time""
""fullscreenenter"",""1"",""2281""
","
","","","-1","","","15","10159","2488","&#9826;","elianto","#f73b6a7A","-1","-1","1","0","[]","0","0","3","","","","","","","",""
"pit-trial","66","612635","0.0-2.0-14.1-2.1","battery-v0.2","","""event"",""trial"",""time""
""fullscreenenter"",""1"",""2281""
""blur"",""2"",""4008""
""focus"",""2"",""4678""
""blur"",""2"",""6940""
""focus"",""2"",""10463""
""blur"",""7"",""40860""
""focus"",""7"",""42167""
""blur"",""7"",""44308""
""focus"",""7"",""48436""
""blur"",""7"",""50992""
""focus"",""7"",""64816""
""blur"",""7"",""69323""
""focus"",""7"",""70327""
""blur"",""7"",""81357""
""focus"",""7"",""89403""
""blur"",""13"",""158774""
""focus"",""13"",""160335""
","""event"",""trial"",""time""
""blur"",""2"",""4008""
""blur"",""2"",""6940""
""blur"",""7"",""40860""
""blur"",""7"",""44308""
""blur"",""7"",""50992""
""blur"",""7"",""69323""
""blur"",""7"",""81357""
""blur"",""13"",""158774""
","""event"",""trial"",""time""
""focus"",""2"",""4678""
""focus"",""2"",""10463""
""focus"",""7"",""42167""
""focus"",""7"",""48436""
""focus"",""7"",""64816""
""focus"",""7"",""70327""
""focus"",""7"",""89403""
""focus"",""13"",""160335""
","""event"",""trial"",""time""
""fullscreenenter"",""1"",""2281""
","
","","","-1","","","15","10159","2488","&#9826;","elianto","#f73b6a7A","-1","-1","1","0","[]","0","0","3","","","","","","","",""
"pit-trial","67","617507","0.0-2.0-14.1-3.1","battery-v0.2","","""event"",""trial"",""time""
""fullscreenenter"",""1"",""2281""
""blur"",""2"",""4008""
""focus"",""2"",""4678""
""blur"",""2"",""6940""
""focus"",""2"",""10463""
""blur"",""7"",""40860""
""focus"",""7"",""42167""
""blur"",""7"",""44308""
""focus"",""7"",""48436""
""blur"",""7"",""50992""
""focus"",""7"",""64816""
""blur"",""7"",""69323""
""focus"",""7"",""70327""
""blur"",""7"",""81357""
""focus"",""7"",""89403""
""blur"",""13"",""158774""
""focus"",""13"",""160335""
","""event"",""trial"",""time""
""blur"",""2"",""4008""
""blur"",""2"",""6940""
""blur"",""7"",""40860""
""blur"",""7"",""44308""
""blur"",""7"",""50992""
""blur"",""7"",""69323""
""blur"",""7"",""81357""
""blur"",""13"",""158774""
","""event"",""trial"",""time""
""focus"",""2"",""4678""
""focus"",""2"",""10463""
""focus"",""7"",""42167""
""focus"",""7"",""48436""
""focus"",""7"",""64816""
""focus"",""7"",""70327""
""focus"",""7"",""89403""
""focus"",""13"",""160335""
","""event"",""trial"",""time""
""fullscreenenter"",""1"",""2281""
","
","","","-1","","","15","10159","2488","&#9826;","elianto","#f73b6a7A","-1","-1","1","-10","[]","0","0","3","","","","","","","",""
"pit-trial","68","622378","0.0-2.0-14.1-4.1","battery-v0.2","","""event"",""trial"",""time""
""fullscreenenter"",""1"",""2281""
""blur"",""2"",""4008""
""focus"",""2"",""4678""
""blur"",""2"",""6940""
""focus"",""2"",""10463""
""blur"",""7"",""40860""
""focus"",""7"",""42167""
""blur"",""7"",""44308""
""focus"",""7"",""48436""
""blur"",""7"",""50992""
""focus"",""7"",""64816""
""blur"",""7"",""69323""
""focus"",""7"",""70327""
""blur"",""7"",""81357""
""focus"",""7"",""89403""
""blur"",""13"",""158774""
""focus"",""13"",""160335""
","""event"",""trial"",""time""
""blur"",""2"",""4008""
""blur"",""2"",""6940""
""blur"",""7"",""40860""
""blur"",""7"",""44308""
""blur"",""7"",""50992""
""blur"",""7"",""69323""
""blur"",""7"",""81357""
""blur"",""13"",""158774""
","""event"",""trial"",""time""
""focus"",""2"",""4678""
""focus"",""2"",""10463""
""focus"",""7"",""42167""
""focus"",""7"",""48436""
""focus"",""7"",""64816""
""focus"",""7"",""70327""
""focus"",""7"",""89403""
""focus"",""13"",""160335""
","""event"",""trial"",""time""
""fullscreenenter"",""1"",""2281""
","
","","","-1","","","15","10159","2488","&#9826;","elianto","#f73b6a7A","-1","-1","1","0","[]","0","0","3","","","","","","","",""
"pit-trial","69","627246","0.0-2.0-14.2-0.2","battery-v0.2","","""event"",""trial"",""time""
""fullscreenenter"",""1"",""2281""
""blur"",""2"",""4008""
""focus"",""2"",""4678""
""blur"",""2"",""6940""
""focus"",""2"",""10463""
""blur"",""7"",""40860""
""focus"",""7"",""42167""
""blur"",""7"",""44308""
""focus"",""7"",""48436""
""blur"",""7"",""50992""
""focus"",""7"",""64816""
""blur"",""7"",""69323""
""focus"",""7"",""70327""
""blur"",""7"",""81357""
""focus"",""7"",""89403""
""blur"",""13"",""158774""
""focus"",""13"",""160335""
","""event"",""trial"",""time""
""blur"",""2"",""4008""
""blur"",""2"",""6940""
""blur"",""7"",""40860""
""blur"",""7"",""44308""
""blur"",""7"",""50992""
""blur"",""7"",""69323""
""blur"",""7"",""81357""
""blur"",""13"",""158774""
","""event"",""trial"",""time""
""focus"",""2"",""4678""
""focus"",""2"",""10463""
""focus"",""7"",""42167""
""focus"",""7"",""48436""
""focus"",""7"",""64816""
""focus"",""7"",""70327""
""focus"",""7"",""89403""
""focus"",""13"",""160335""
","""event"",""trial"",""time""
""fullscreenenter"",""1"",""2281""
","
","","","-1","","","15","10159","2488","&#9826;","elianto","#f73b6a7A","-1","-1","1","0","[]","0","0","3","","","","","","","",""
"pit-trial","70","632114","0.0-2.0-14.2-1.2","battery-v0.2","","""event"",""trial"",""time""
""fullscreenenter"",""1"",""2281""
""blur"",""2"",""4008""
""focus"",""2"",""4678""
""blur"",""2"",""6940""
""focus"",""2"",""10463""
""blur"",""7"",""40860""
""focus"",""7"",""42167""
""blur"",""7"",""44308""
""focus"",""7"",""48436""
""blur"",""7"",""50992""
""focus"",""7"",""64816""
""blur"",""7"",""69323""
""focus"",""7"",""70327""
""blur"",""7"",""81357""
""focus"",""7"",""89403""
""blur"",""13"",""158774""
""focus"",""13"",""160335""
","""event"",""trial"",""time""
""blur"",""2"",""4008""
""blur"",""2"",""6940""
""blur"",""7"",""40860""
""blur"",""7"",""44308""
""blur"",""7"",""50992""
""blur"",""7"",""69323""
""blur"",""7"",""81357""
""blur"",""13"",""158774""
","""event"",""trial"",""time""
""focus"",""2"",""4678""
""focus"",""2"",""10463""
""focus"",""7"",""42167""
""focus"",""7"",""48436""
""focus"",""7"",""64816""
""focus"",""7"",""70327""
""focus"",""7"",""89403""
""focus"",""13"",""160335""
","""event"",""trial"",""time""
""fullscreenenter"",""1"",""2281""
","
","","","-1","","","15","10159","2488","&#9826;","elianto","#f73b6a7A","-1","-1","1","0","[]","0","0","3","","","","","","","",""
"pit-trial","71","636986","0.0-2.0-14.2-2.2","battery-v0.2","","""event"",""trial"",""time""
""fullscreenenter"",""1"",""2281""
""blur"",""2"",""4008""
""focus"",""2"",""4678""
""blur"",""2"",""6940""
""focus"",""2"",""10463""
""blur"",""7"",""40860""
""focus"",""7"",""42167""
""blur"",""7"",""44308""
""focus"",""7"",""48436""
""blur"",""7"",""50992""
""focus"",""7"",""64816""
""blur"",""7"",""69323""
""focus"",""7"",""70327""
""blur"",""7"",""81357""
""focus"",""7"",""89403""
""blur"",""13"",""158774""
""focus"",""13"",""160335""
","""event"",""trial"",""time""
""blur"",""2"",""4008""
""blur"",""2"",""6940""
""blur"",""7"",""40860""
""blur"",""7"",""44308""
""blur"",""7"",""50992""
""blur"",""7"",""69323""
""blur"",""7"",""81357""
""blur"",""13"",""158774""
","""event"",""trial"",""time""
""focus"",""2"",""4678""
""focus"",""2"",""10463""
""focus"",""7"",""42167""
""focus"",""7"",""48436""
""focus"",""7"",""64816""
""focus"",""7"",""70327""
""focus"",""7"",""89403""
""focus"",""13"",""160335""
","""event"",""trial"",""time""
""fullscreenenter"",""1"",""2281""
","
","","","-1","","","15","10159","2488","&#9826;","elianto","#f73b6a7A","-1","-1","1","0","[]","0","0","3","","","","","","","",""
"pit-trial","72","641856","0.0-2.0-14.2-3.2","battery-v0.2","","""event"",""trial"",""time""
""fullscreenenter"",""1"",""2281""
""blur"",""2"",""4008""
""focus"",""2"",""4678""
""blur"",""2"",""6940""
""focus"",""2"",""10463""
""blur"",""7"",""40860""
""focus"",""7"",""42167""
""blur"",""7"",""44308""
""focus"",""7"",""48436""
""blur"",""7"",""50992""
""focus"",""7"",""64816""
""blur"",""7"",""69323""
""focus"",""7"",""70327""
""blur"",""7"",""81357""
""focus"",""7"",""89403""
""blur"",""13"",""158774""
""focus"",""13"",""160335""
","""event"",""trial"",""time""
""blur"",""2"",""4008""
""blur"",""2"",""6940""
""blur"",""7"",""40860""
""blur"",""7"",""44308""
""blur"",""7"",""50992""
""blur"",""7"",""69323""
""blur"",""7"",""81357""
""blur"",""13"",""158774""
","""event"",""trial"",""time""
""focus"",""2"",""4678""
""focus"",""2"",""10463""
""focus"",""7"",""42167""
""focus"",""7"",""48436""
""focus"",""7"",""64816""
""focus"",""7"",""70327""
""focus"",""7"",""89403""
""focus"",""13"",""160335""
","""event"",""trial"",""time""
""fullscreenenter"",""1"",""2281""
","
","","","-1","","","15","10159","2488","&#9826;","elianto","#f73b6a7A","-1","-1","1","-10","[]","0","0","3","","","","","","","",""
"pit-trial","73","646729","0.0-2.0-14.2-4.2","battery-v0.2","","""event"",""trial"",""time""
""fullscreenenter"",""1"",""2281""
""blur"",""2"",""4008""
""focus"",""2"",""4678""
""blur"",""2"",""6940""
""focus"",""2"",""10463""
""blur"",""7"",""40860""
""focus"",""7"",""42167""
""blur"",""7"",""44308""
""focus"",""7"",""48436""
""blur"",""7"",""50992""
""focus"",""7"",""64816""
""blur"",""7"",""69323""
""focus"",""7"",""70327""
""blur"",""7"",""81357""
""focus"",""7"",""89403""
""blur"",""13"",""158774""
""focus"",""13"",""160335""
","""event"",""trial"",""time""
""blur"",""2"",""4008""
""blur"",""2"",""6940""
""blur"",""7"",""40860""
""blur"",""7"",""44308""
""blur"",""7"",""50992""
""blur"",""7"",""69323""
""blur"",""7"",""81357""
""blur"",""13"",""158774""
","""event"",""trial"",""time""
""focus"",""2"",""4678""
""focus"",""2"",""10463""
""focus"",""7"",""42167""
""focus"",""7"",""48436""
""focus"",""7"",""64816""
""focus"",""7"",""70327""
""focus"",""7"",""89403""
""focus"",""13"",""160335""
","""event"",""trial"",""time""
""fullscreenenter"",""1"",""2281""
","
","","","-1","","","15","10159","2488","&#9826;","elianto","#f73b6a7A","-1","-1","1","0","[]","0","0","3","","","","","","","",""
"pit-trial","74","651601","0.0-2.0-14.3-0.3","battery-v0.2","","""event"",""trial"",""time""
""fullscreenenter"",""1"",""2281""
""blur"",""2"",""4008""
""focus"",""2"",""4678""
""blur"",""2"",""6940""
""focus"",""2"",""10463""
""blur"",""7"",""40860""
""focus"",""7"",""42167""
""blur"",""7"",""44308""
""focus"",""7"",""48436""
""blur"",""7"",""50992""
""focus"",""7"",""64816""
""blur"",""7"",""69323""
""focus"",""7"",""70327""
""blur"",""7"",""81357""
""focus"",""7"",""89403""
""blur"",""13"",""158774""
""focus"",""13"",""160335""
","""event"",""trial"",""time""
""blur"",""2"",""4008""
""blur"",""2"",""6940""
""blur"",""7"",""40860""
""blur"",""7"",""44308""
""blur"",""7"",""50992""
""blur"",""7"",""69323""
""blur"",""7"",""81357""
""blur"",""13"",""158774""
","""event"",""trial"",""time""
""focus"",""2"",""4678""
""focus"",""2"",""10463""
""focus"",""7"",""42167""
""focus"",""7"",""48436""
""focus"",""7"",""64816""
""focus"",""7"",""70327""
""focus"",""7"",""89403""
""focus"",""13"",""160335""
","""event"",""trial"",""time""
""fullscreenenter"",""1"",""2281""
","
","","","-1","","","15","10159","2488","&#9826;","elianto","#f73b6a7A","-1","-1","1","0","[]","0","0","3","","","","","","","",""
"pit-trial","75","656473","0.0-2.0-14.3-1.3","battery-v0.2","","""event"",""trial"",""time""
""fullscreenenter"",""1"",""2281""
""blur"",""2"",""4008""
""focus"",""2"",""4678""
""blur"",""2"",""6940""
""focus"",""2"",""10463""
""blur"",""7"",""40860""
""focus"",""7"",""42167""
""blur"",""7"",""44308""
""focus"",""7"",""48436""
""blur"",""7"",""50992""
""focus"",""7"",""64816""
""blur"",""7"",""69323""
""focus"",""7"",""70327""
""blur"",""7"",""81357""
""focus"",""7"",""89403""
""blur"",""13"",""158774""
""focus"",""13"",""160335""
","""event"",""trial"",""time""
""blur"",""2"",""4008""
""blur"",""2"",""6940""
""blur"",""7"",""40860""
""blur"",""7"",""44308""
""blur"",""7"",""50992""
""blur"",""7"",""69323""
""blur"",""7"",""81357""
""blur"",""13"",""158774""
","""event"",""trial"",""time""
""focus"",""2"",""4678""
""focus"",""2"",""10463""
""focus"",""7"",""42167""
""focus"",""7"",""48436""
""focus"",""7"",""64816""
""focus"",""7"",""70327""
""focus"",""7"",""89403""
""focus"",""13"",""160335""
","""event"",""trial"",""time""
""fullscreenenter"",""1"",""2281""
","
","","","-1","","","15","10159","2488","&#9826;","elianto","#f73b6a7A","-1","-1","1","0","[]","0","0","3","","","","","","","",""
"pit-trial","76","661341","0.0-2.0-14.3-2.3","battery-v0.2","","""event"",""trial"",""time""
""fullscreenenter"",""1"",""2281""
""blur"",""2"",""4008""
""focus"",""2"",""4678""
""blur"",""2"",""6940""
""focus"",""2"",""10463""
""blur"",""7"",""40860""
""focus"",""7"",""42167""
""blur"",""7"",""44308""
""focus"",""7"",""48436""
""blur"",""7"",""50992""
""focus"",""7"",""64816""
""blur"",""7"",""69323""
""focus"",""7"",""70327""
""blur"",""7"",""81357""
""focus"",""7"",""89403""
""blur"",""13"",""158774""
""focus"",""13"",""160335""
","""event"",""trial"",""time""
""blur"",""2"",""4008""
""blur"",""2"",""6940""
""blur"",""7"",""40860""
""blur"",""7"",""44308""
""blur"",""7"",""50992""
""blur"",""7"",""69323""
""blur"",""7"",""81357""
""blur"",""13"",""158774""
","""event"",""trial"",""time""
""focus"",""2"",""4678""
""focus"",""2"",""10463""
""focus"",""7"",""42167""
""focus"",""7"",""48436""
""focus"",""7"",""64816""
""focus"",""7"",""70327""
""focus"",""7"",""89403""
""focus"",""13"",""160335""
","""event"",""trial"",""time""
""fullscreenenter"",""1"",""2281""
","
","","","-1","","","15","10159","2488","&#9826;","elianto","#f73b6a7A","-1","-1","1","0","[]","0","0","3","","","","","","","",""
"pit-trial","77","666207","0.0-2.0-14.3-3.3","battery-v0.2","","""event"",""trial"",""time""
""fullscreenenter"",""1"",""2281""
""blur"",""2"",""4008""
""focus"",""2"",""4678""
""blur"",""2"",""6940""
""focus"",""2"",""10463""
""blur"",""7"",""40860""
""focus"",""7"",""42167""
""blur"",""7"",""44308""
""focus"",""7"",""48436""
""blur"",""7"",""50992""
""focus"",""7"",""64816""
""blur"",""7"",""69323""
""focus"",""7"",""70327""
""blur"",""7"",""81357""
""focus"",""7"",""89403""
""blur"",""13"",""158774""
""focus"",""13"",""160335""
","""event"",""trial"",""time""
""blur"",""2"",""4008""
""blur"",""2"",""6940""
""blur"",""7"",""40860""
""blur"",""7"",""44308""
""blur"",""7"",""50992""
""blur"",""7"",""69323""
""blur"",""7"",""81357""
""blur"",""13"",""158774""
","""event"",""trial"",""time""
""focus"",""2"",""4678""
""focus"",""2"",""10463""
""focus"",""7"",""42167""
""focus"",""7"",""48436""
""focus"",""7"",""64816""
""focus"",""7"",""70327""
""focus"",""7"",""89403""
""focus"",""13"",""160335""
","""event"",""trial"",""time""
""fullscreenenter"",""1"",""2281""
","
","","","-1","","","15","10159","2488","&#9826;","elianto","#f73b6a7A","-1","-1","1","-10","[]","0","0","3","","","","","","","",""
"pit-trial","78","671080","0.0-2.0-14.3-4.3","battery-v0.2","","""event"",""trial"",""time""
""fullscreenenter"",""1"",""2281""
""blur"",""2"",""4008""
""focus"",""2"",""4678""
""blur"",""2"",""6940""
""focus"",""2"",""10463""
""blur"",""7"",""40860""
""focus"",""7"",""42167""
""blur"",""7"",""44308""
""focus"",""7"",""48436""
""blur"",""7"",""50992""
""focus"",""7"",""64816""
""blur"",""7"",""69323""
""focus"",""7"",""70327""
""blur"",""7"",""81357""
""focus"",""7"",""89403""
""blur"",""13"",""158774""
""focus"",""13"",""160335""
","""event"",""trial"",""time""
""blur"",""2"",""4008""
""blur"",""2"",""6940""
""blur"",""7"",""40860""
""blur"",""7"",""44308""
""blur"",""7"",""50992""
""blur"",""7"",""69323""
""blur"",""7"",""81357""
""blur"",""13"",""158774""
","""event"",""trial"",""time""
""focus"",""2"",""4678""
""focus"",""2"",""10463""
""focus"",""7"",""42167""
""focus"",""7"",""48436""
""focus"",""7"",""64816""
""focus"",""7"",""70327""
""focus"",""7"",""89403""
""focus"",""13"",""160335""
","""event"",""trial"",""time""
""fullscreenenter"",""1"",""2281""
","
","","","-1","","","15","10159","2488","&#9826;","elianto","#f73b6a7A","-1","-1","1","0","[]","0","0","3","","","","","","","",""
"call-function","79","671082","0.0-2.0-15.0","battery-v0.2","","""event"",""trial"",""time""
""fullscreenenter"",""1"",""2281""
""blur"",""2"",""4008""
""focus"",""2"",""4678""
""blur"",""2"",""6940""
""focus"",""2"",""10463""
""blur"",""7"",""40860""
""focus"",""7"",""42167""
""blur"",""7"",""44308""
""focus"",""7"",""48436""
""blur"",""7"",""50992""
""focus"",""7"",""64816""
""blur"",""7"",""69323""
""focus"",""7"",""70327""
""blur"",""7"",""81357""
""focus"",""7"",""89403""
""blur"",""13"",""158774""
""focus"",""13"",""160335""
","""event"",""trial"",""time""
""blur"",""2"",""4008""
""blur"",""2"",""6940""
""blur"",""7"",""40860""
""blur"",""7"",""44308""
""blur"",""7"",""50992""
""blur"",""7"",""69323""
""blur"",""7"",""81357""
""blur"",""13"",""158774""
","""event"",""trial"",""time""
""focus"",""2"",""4678""
""focus"",""2"",""10463""
""focus"",""7"",""42167""
""focus"",""7"",""48436""
""focus"",""7"",""64816""
""focus"",""7"",""70327""
""focus"",""7"",""89403""
""focus"",""13"",""160335""
","""event"",""trial"",""time""
""fullscreenenter"",""1"",""2281""
","
","","","","","","","","","","","","","","","","","","","","","","","","","","",""
"pit-instructions","80","696832","0.0-2.0-16.0","battery-v0.2","","""event"",""trial"",""time""
""fullscreenenter"",""1"",""2281""
""blur"",""2"",""4008""
""focus"",""2"",""4678""
""blur"",""2"",""6940""
""focus"",""2"",""10463""
""blur"",""7"",""40860""
""focus"",""7"",""42167""
""blur"",""7"",""44308""
""focus"",""7"",""48436""
""blur"",""7"",""50992""
""focus"",""7"",""64816""
""blur"",""7"",""69323""
""focus"",""7"",""70327""
""blur"",""7"",""81357""
""focus"",""7"",""89403""
""blur"",""13"",""158774""
""focus"",""13"",""160335""
","""event"",""trial"",""time""
""blur"",""2"",""4008""
""blur"",""2"",""6940""
""blur"",""7"",""40860""
""blur"",""7"",""44308""
""blur"",""7"",""50992""
""blur"",""7"",""69323""
""blur"",""7"",""81357""
""blur"",""13"",""158774""
","""event"",""trial"",""time""
""focus"",""2"",""4678""
""focus"",""2"",""10463""
""focus"",""7"",""42167""
""focus"",""7"",""48436""
""focus"",""7"",""64816""
""focus"",""7"",""70327""
""focus"",""7"",""89403""
""focus"",""13"",""160335""
","""event"",""trial"",""time""
""fullscreenenter"",""1"",""2281""
","
","","[{""page_index"":0,""viewing_time"":7799.199999988079},{""page_index"":1,""viewing_time"":9417},{""page_index"":2,""viewing_time"":4100.100000023842},{""page_index"":3,""viewing_time"":4433.599999964237}]","25750.599999964237","","","","","","","","","","","","","","","","","","","","","","","",""
