"trial_type","trial_index","time_elapsed","internal_node_id","task_version","subject_id","interactions","blur_events","focus_events","fullscreenenter_events","fullscreenexit_events","success","view_history","rt","responses","num_errors","age","subject","participantId","rune","rune_set","hex","correct","choice","accuracy","outcome","keys","total_keys","block","practice","value","sub","trial","stimulus","robot","valence","action","sham"
"pavlovia","0","15","0.0-0.0","battery-v0.2","","""event"",""trial"",""time""
""fullscreenenter"",""1"",""3229""
","
","
","""event"",""trial"",""time""
""fullscreenenter"",""1"",""3229""
","
","","","","","","","","","","","","","","","","","","","","","","","","","","",""
"fullscreen","1","4210","0.0-1.0","battery-v0.2","","""event"",""trial"",""time""
""fullscreenenter"",""1"",""3229""
","
","
","""event"",""trial"",""time""
""fullscreenenter"",""1"",""3229""
","
","true","","","","","","","","","","","","","","","","","","","","","","","","","",""
"pit-instructions","2","15703","0.0-2.0-0.0","battery-v0.2","","""event"",""trial"",""time""
""fullscreenenter"",""1"",""3229""
","
","
","""event"",""trial"",""time""
""fullscreenenter"",""1"",""3229""
","
","","[{""page_index"":0,""viewing_time"":11484.900000095367}]","11485.400000095367","","","","","","","","","","","","","","","","","","","","","","","",""
"pit-comprehension","3","20777","0.0-2.0-1.0-0.0","battery-v0.2","","""event"",""trial"",""time""
""fullscreenenter"",""1"",""3229""
","
","
","""event"",""trial"",""time""
""fullscreenenter"",""1"",""3229""
","
","","","5068.400000095367","[""shark""]","0","18","4444","3169","","","","","","","","","","","","","","","","","","",""
"pit-instructions","4","22202","0.0-2.0-1.0-1.0","battery-v0.2","","""event"",""trial"",""time""
""fullscreenenter"",""1"",""3229""
","
","
","""event"",""trial"",""time""
""fullscreenenter"",""1"",""3229""
","
","","[{""page_index"":0,""viewing_time"":1404.9000000953674}]","1405.3000001907349","","","","","","","","","","","","","","","","","","","","","","","",""
"pit-comprehension","5","25873","0.0-2.0-2.0-0.0","battery-v0.2","","""event"",""trial"",""time""
""fullscreenenter"",""1"",""3229""
","
","
","""event"",""trial"",""time""
""fullscreenenter"",""1"",""3229""
","
","","","3666.9000000953674","[""tiger""]","0","18","4444","3169","","","","","","","","","","","","","","","","","","",""
"pit-instructions","6","27387","0.0-2.0-2.0-1.0","battery-v0.2","","""event"",""trial"",""time""
""fullscreenenter"",""1"",""3229""
","
","
","""event"",""trial"",""time""
""fullscreenenter"",""1"",""3229""
","
","","[{""page_index"":0,""viewing_time"":1509}]","1509.4000000953674","","","","","","","","","","","","","","","","","","","","","","","",""
"pit-instructions","7","130971","0.0-2.0-3.0","battery-v0.2","","""event"",""trial"",""time""
""fullscreenenter"",""1"",""3229""
","
","
","""event"",""trial"",""time""
""fullscreenenter"",""1"",""3229""
","
","","[{""page_index"":0,""viewing_time"":9137.299999713898},{""page_index"":1,""viewing_time"":7518.10000038147},{""page_index"":2,""viewing_time"":6339.5},{""page_index"":3,""viewing_time"":6810.699999809265},{""page_index"":4,""viewing_time"":6203.900000095367},{""page_index"":5,""viewing_time"":6140.900000095367},{""page_index"":6,""viewing_time"":7805.89999961853},{""page_index"":7,""viewing_time"":7197.60000038147},{""page_index"":8,""viewing_time"":6414.699999809265},{""page_index"":9,""viewing_time"":8722.800000190735},{""page_index"":10,""viewing_time"":10188.599999904633},{""page_index"":11,""viewing_time"":7830.599999904633},{""page_index"":12,""viewing_time"":7160.599999904633},{""page_index"":13,""viewing_time"":6106.800000190735}]","103578.90000009537","","","","","","","","","","","","","","","","","","","","","","","",""
"pit-trial","8","134851","0.0-2.0-4.0-0.0","battery-v0.2","","""event"",""trial"",""time""
""fullscreenenter"",""1"",""3229""
","
","
","""event"",""trial"",""time""
""fullscreenenter"",""1"",""3229""
","
","","","1016.2999997138977","","","18","4444","3169","&#9784;","elianto","#FFFFF080"," "," ","1","&#10004","[1867.9000000953674]","1","0","0","","","","","","","",""
"pit-trial","9","138402","0.0-2.0-4.1-0.1","battery-v0.2","","""event"",""trial"",""time""
""fullscreenenter"",""1"",""3229""
","
","
","""event"",""trial"",""time""
""fullscreenenter"",""1"",""3229""
","
","","","689.5999999046326","","","18","4444","3169","&#9784;","elianto","#FFFFF080"," "," ","1","&#10004","[1541.5]","1","0","0","","","","","","","",""
"pit-trial","10","141850","0.0-2.0-4.2-0.2","battery-v0.2","","""event"",""trial"",""time""
""fullscreenenter"",""1"",""3229""
","
","
","""event"",""trial"",""time""
""fullscreenenter"",""1"",""3229""
","
","","","584.9000000953674","","","18","4444","3169","&#9784;","elianto","#FFFFF080"," "," ","1","&#10004","[1436]","1","0","0","","","","","","","",""
"pit-trial","11","145227","0.0-2.0-4.3-0.3","battery-v0.2","","""event"",""trial"",""time""
""fullscreenenter"",""1"",""3229""
","
","
","""event"",""trial"",""time""
""fullscreenenter"",""1"",""3229""
","
","","","520","","","18","4444","3169","&#9784;","elianto","#FFFFF080"," "," ","1","&#10004","[1371]","1","0","0","","","","","","","",""
"pit-trial","12","148762","0.0-2.0-4.4-0.4","battery-v0.2","","""event"",""trial"",""time""
""fullscreenenter"",""1"",""3229""
","
","
","""event"",""trial"",""time""
""fullscreenenter"",""1"",""3229""
","
","","","671.8000001907349","","","18","4444","3169","&#9784;","elianto","#FFFFF080"," "," ","1","&#10004","[1524.1000003814697]","1","0","0","","","","","","","",""
"pit-instructions","13","171791","0.0-2.0-5.0","battery-v0.2","","""event"",""trial"",""time""
""fullscreenenter"",""1"",""3229""
","
","
","""event"",""trial"",""time""
""fullscreenenter"",""1"",""3229""
","
","","[{""page_index"":0,""viewing_time"":5457.799999713898},{""page_index"":1,""viewing_time"":6192.900000095367},{""page_index"":2,""viewing_time"":5623.199999809265},{""page_index"":3,""viewing_time"":5746.800000190735}]","23021.299999713898","","","","","","","","","","","","","","","","","","","","","","","",""
"pit-trial","14","176657","0.0-2.0-6.0-0.0","battery-v0.2","","""event"",""trial"",""time""
""fullscreenenter"",""1"",""3229""
","
","
","""event"",""trial"",""time""
""fullscreenenter"",""1"",""3229""
","
","","","-1","","","18","4444","3169","&#9854;","elianto","#FFFFF080","-1","-1","1","&#10004","[]","0","0","1","","","","","","","",""
"pit-trial","15","181522","0.0-2.0-6.1-0.1","battery-v0.2","","""event"",""trial"",""time""
""fullscreenenter"",""1"",""3229""
","
","
","""event"",""trial"",""time""
""fullscreenenter"",""1"",""3229""
","
","","","-1","","","18","4444","3169","&#9854;","elianto","#FFFFF080","-1","-1","1","&#10004","[]","0","0","1","","","","","","","",""
"pit-trial","16","186387","0.0-2.0-6.2-0.2","battery-v0.2","","""event"",""trial"",""time""
""fullscreenenter"",""1"",""3229""
","
","
","""event"",""trial"",""time""
""fullscreenenter"",""1"",""3229""
","
","","","-1","","","18","4444","3169","&#9854;","elianto","#FFFFF080","-1","-1","1","&#10004","[]","0","0","1","","","","","","","",""
"pit-trial","17","191251","0.0-2.0-6.3-0.3","battery-v0.2","","""event"",""trial"",""time""
""fullscreenenter"",""1"",""3229""
","
","
","""event"",""trial"",""time""
""fullscreenenter"",""1"",""3229""
","
","","","-1","","","18","4444","3169","&#9854;","elianto","#FFFFF080","-1","-1","1","&#10004","[]","0","0","1","","","","","","","",""
"pit-trial","18","196114","0.0-2.0-6.4-0.4","battery-v0.2","","""event"",""trial"",""time""
""fullscreenenter"",""1"",""3229""
","
","
","""event"",""trial"",""time""
""fullscreenenter"",""1"",""3229""
","
","","","-1","","","18","4444","3169","&#9854;","elianto","#FFFFF080","-1","-1","1","&#10004","[]","0","0","1","","","","","","","",""
"pit-instructions","19","320695","0.0-2.0-7.0","battery-v0.2","","""event"",""trial"",""time""
""fullscreenenter"",""1"",""3229""
","
","
","""event"",""trial"",""time""
""fullscreenenter"",""1"",""3229""
","
","","[{""page_index"":0,""viewing_time"":5956.5},{""page_index"":1,""viewing_time"":7484.599999904633},{""page_index"":2,""viewing_time"":6926.700000286102},{""page_index"":3,""viewing_time"":6690.299999713898},{""page_index"":4,""viewing_time"":5834.400000095367},{""page_index"":5,""viewing_time"":5635.800000190735},{""page_index"":6,""viewing_time"":4668.199999809265},{""page_index"":7,""viewing_time"":8180.699999809265},{""page_index"":8,""viewing_time"":7784.200000286102},{""page_index"":9,""viewing_time"":7411.900000095367},{""page_index"":10,""viewing_time"":10131},{""page_index"":11,""viewing_time"":4420.799999713898},{""page_index"":12,""viewing_time"":6829.700000286102},{""page_index"":13,""viewing_time"":7524.799999713898},{""page_index"":14,""viewing_time"":7574.5},{""page_index"":15,""viewing_time"":7003.200000286102},{""page_index"":16,""viewing_time"":6580.299999713898},{""page_index"":17,""viewing_time"":7935.700000286102}]","124573.80000019073","","","","","","","","","","","","","","","","","","","","","","","",""
"pit-trial","20","324722","0.0-2.0-8.0-0.0","battery-v0.2","","""event"",""trial"",""time""
""fullscreenenter"",""1"",""3229""
","
","
","""event"",""trial"",""time""
""fullscreenenter"",""1"",""3229""
","
","","","1162.7000002861023","","","18","4444","3169","&#9776;","elianto","#3366ff99"," "," ","1","+10","[2016.0999999046326]","1","0","1","","","","","","","",""
"pit-trial","21","329587","0.0-2.0-8.0-1.0","battery-v0.2","","""event"",""trial"",""time""
""fullscreenenter"",""1"",""3229""
","
","
","""event"",""trial"",""time""
""fullscreenenter"",""1"",""3229""
","
","","","-1","","","18","4444","3169","&#9776;","elianto","#3366ff99"," ","-1","0","0","[]","0","0","1","","","","","","","",""
"pit-trial","22","334451","0.0-2.0-8.0-2.0","battery-v0.2","","""event"",""trial"",""time""
""fullscreenenter"",""1"",""3229""
","
","
","""event"",""trial"",""time""
""fullscreenenter"",""1"",""3229""
","
","","","-1","","","18","4444","3169","&#9776;","elianto","#3366ff99"," ","-1","0","0","[]","0","0","1","","","","","","","",""
"pit-trial","23","337891","0.0-2.0-8.0-3.0","battery-v0.2","","""event"",""trial"",""time""
""fullscreenenter"",""1"",""3229""
","
","
","""event"",""trial"",""time""
""fullscreenenter"",""1"",""3229""
","
","","","579","","","18","4444","3169","&#9776;","elianto","#3366ff99"," "," ","1","0","[1429.6000003814697]","1","0","1","","","","","","","",""
"pit-trial","24","341427","0.0-2.0-8.0-4.0","battery-v0.2","","""event"",""trial"",""time""
""fullscreenenter"",""1"",""3229""
","
","
","""event"",""trial"",""time""
""fullscreenenter"",""1"",""3229""
","
","","","677.2999997138977","","","18","4444","3169","&#9776;","elianto","#3366ff99"," "," ","1","+10","[1529.5]","1","0","1","","","","","","","",""
"pit-trial","25","345017","0.0-2.0-8.1-0.1","battery-v0.2","","""event"",""trial"",""time""
""fullscreenenter"",""1"",""3229""
","
","
","""event"",""trial"",""time""
""fullscreenenter"",""1"",""3229""
","
","","","723.5","","","18","4444","3169","&#9776;","elianto","#3366ff99"," "," ","1","+10","[1579]","1","0","1","","","","","","","",""
"pit-trial","26","348755","0.0-2.0-8.1-1.1","battery-v0.2","","""event"",""trial"",""time""
""fullscreenenter"",""1"",""3229""
","
","
","""event"",""trial"",""time""
""fullscreenenter"",""1"",""3229""
","
","","","875.4000000953674","","","18","4444","3169","&#9776;","elianto","#3366ff99"," "," ","1","+10","[1729.5]","1","0","1","","","","","","","",""
"pit-trial","27","352259","0.0-2.0-8.1-2.1","battery-v0.2","","""event"",""trial"",""time""
""fullscreenenter"",""1"",""3229""
","
","
","""event"",""trial"",""time""
""fullscreenenter"",""1"",""3229""
","
","","","638.8000001907349","","","18","4444","3169","&#9776;","elianto","#3366ff99"," "," ","1","+10","[1492.7000002861023]","1","0","1","","","","","","","",""
"pit-trial","28","355731","0.0-2.0-8.1-3.1","battery-v0.2","","""event"",""trial"",""time""
""fullscreenenter"",""1"",""3229""
","
","
","""event"",""trial"",""time""
""fullscreenenter"",""1"",""3229""
","
","","","612.3000001907349","","","18","4444","3169","&#9776;","elianto","#3366ff99"," "," ","1","0","[1464.4000000953674]","1","0","1","","","","","","","",""
"pit-trial","29","359195","0.0-2.0-8.1-4.1","battery-v0.2","","""event"",""trial"",""time""
""fullscreenenter"",""1"",""3229""
","
","
","""event"",""trial"",""time""
""fullscreenenter"",""1"",""3229""
","
","","","600.7999997138977","","","18","4444","3169","&#9776;","elianto","#3366ff99"," "," ","1","+10","[1453.8000001907349]","1","0","1","","","","","","","",""
"pit-trial","30","362699","0.0-2.0-8.2-0.2","battery-v0.2","","""event"",""trial"",""time""
""fullscreenenter"",""1"",""3229""
","
","
","""event"",""trial"",""time""
""fullscreenenter"",""1"",""3229""
","
","","","645.3999996185303","","","18","4444","3169","&#9776;","elianto","#3366ff99"," "," ","1","+10","[1496.2999997138977]","1","0","1","","","","","","","",""
"pit-trial","31","366234","0.0-2.0-8.2-1.2","battery-v0.2","","""event"",""trial"",""time""
""fullscreenenter"",""1"",""3229""
","
","
","""event"",""trial"",""time""
""fullscreenenter"",""1"",""3229""
","
","","","673.3999996185303","","","18","4444","3169","&#9776;","elianto","#3366ff99"," "," ","1","+10","[1524.8999996185303]","1","0","1","","","","","","","",""
"pit-trial","32","369691","0.0-2.0-8.2-2.2","battery-v0.2","","""event"",""trial"",""time""
""fullscreenenter"",""1"",""3229""
","
","
","""event"",""trial"",""time""
""fullscreenenter"",""1"",""3229""
","
","","","597.3000001907349","","","18","4444","3169","&#9776;","elianto","#3366ff99"," "," ","1","+10","[1450.5]","1","0","1","","","","","","","",""
"pit-trial","33","373075","0.0-2.0-8.2-3.2","battery-v0.2","","""event"",""trial"",""time""
""fullscreenenter"",""1"",""3229""
","
","
","""event"",""trial"",""time""
""fullscreenenter"",""1"",""3229""
","
","","","523","","","18","4444","3169","&#9776;","elianto","#3366ff99"," "," ","1","0","[1374.6999998092651]","1","0","1","","","","","","","",""
"pit-trial","34","376554","0.0-2.0-8.2-4.2","battery-v0.2","","""event"",""trial"",""time""
""fullscreenenter"",""1"",""3229""
","
","
","""event"",""trial"",""time""
""fullscreenenter"",""1"",""3229""
","
","","","622.1999998092651","","","18","4444","3169","&#9776;","elianto","#3366ff99"," "," ","1","+10","[1475.2999997138977]","1","0","1","","","","","","","",""
"call-function","35","376558","0.0-2.0-9.0","battery-v0.2","","""event"",""trial"",""time""
""fullscreenenter"",""1"",""3229""
","
","
","""event"",""trial"",""time""
""fullscreenenter"",""1"",""3229""
","
","","","","","","","","","","","","","","","","","","","","","","","","","","",""
"pit-instructions","36","417656","0.0-2.0-10.0","battery-v0.2","","""event"",""trial"",""time""
""fullscreenenter"",""1"",""3229""
","
","
","""event"",""trial"",""time""
""fullscreenenter"",""1"",""3229""
","
","","[{""page_index"":0,""viewing_time"":7041.099999904633},{""page_index"":1,""viewing_time"":7088.099999904633},{""page_index"":2,""viewing_time"":9522.900000095367},{""page_index"":3,""viewing_time"":9435.599999904633},{""page_index"":4,""viewing_time"":8009.200000286102}]","41097.40000009537","","","","","","","","","","","","","","","","","","","","","","","",""
"pit-trial","37","422522","0.0-2.0-11.0-0.0","battery-v0.2","","""event"",""trial"",""time""
""fullscreenenter"",""1"",""3229""
","
","
","""event"",""trial"",""time""
""fullscreenenter"",""1"",""3229""
","
","","","-1","","","18","4444","3169","&#9761;","elianto","#3366ff99","-1","-1","1","+10","[]","0","0","2","","","","","","","",""
"pit-trial","38","427387","0.0-2.0-11.0-1.0","battery-v0.2","","""event"",""trial"",""time""
""fullscreenenter"",""1"",""3229""
","
","
","""event"",""trial"",""time""
""fullscreenenter"",""1"",""3229""
","
","","","-1","","","18","4444","3169","&#9761;","elianto","#3366ff99","-1","-1","1","+10","[]","0","0","2","","","","","","","",""
"pit-trial","39","432250","0.0-2.0-11.0-2.0","battery-v0.2","","""event"",""trial"",""time""
""fullscreenenter"",""1"",""3229""
","
","
","""event"",""trial"",""time""
""fullscreenenter"",""1"",""3229""
","
","","","-1","","","18","4444","3169","&#9761;","elianto","#3366ff99","-1","-1","1","+10","[]","0","0","2","","","","","","","",""
"pit-trial","40","437114","0.0-2.0-11.0-3.0","battery-v0.2","","""event"",""trial"",""time""
""fullscreenenter"",""1"",""3229""
","
","
","""event"",""trial"",""time""
""fullscreenenter"",""1"",""3229""
","
","","","-1","","","18","4444","3169","&#9761;","elianto","#3366ff99","-1","-1","1","0","[]","0","0","2","","","","","","","",""
"pit-trial","41","441979","0.0-2.0-11.0-4.0","battery-v0.2","","""event"",""trial"",""time""
""fullscreenenter"",""1"",""3229""
","
","
","""event"",""trial"",""time""
""fullscreenenter"",""1"",""3229""
","
","","","-1","","","18","4444","3169","&#9761;","elianto","#3366ff99","-1","-1","1","+10","[]","0","0","2","","","","","","","",""
"pit-trial","42","446850","0.0-2.0-11.1-0.1","battery-v0.2","","""event"",""trial"",""time""
""fullscreenenter"",""1"",""3229""
","
","
","""event"",""trial"",""time""
""fullscreenenter"",""1"",""3229""
","
","","","-1","","","18","4444","3169","&#9761;","elianto","#3366ff99","-1","-1","1","+10","[]","0","0","2","","","","","","","",""
"pit-trial","43","451714","0.0-2.0-11.1-1.1","battery-v0.2","","""event"",""trial"",""time""
""fullscreenenter"",""1"",""3229""
","
","
","""event"",""trial"",""time""
""fullscreenenter"",""1"",""3229""
","
","","","-1","","","18","4444","3169","&#9761;","elianto","#3366ff99","-1","-1","1","+10","[]","0","0","2","","","","","","","",""
"pit-trial","44","456578","0.0-2.0-11.1-2.1","battery-v0.2","","""event"",""trial"",""time""
""fullscreenenter"",""1"",""3229""
","
","
","""event"",""trial"",""time""
""fullscreenenter"",""1"",""3229""
","
","","","-1","","","18","4444","3169","&#9761;","elianto","#3366ff99","-1","-1","1","+10","[]","0","0","2","","","","","","","",""
"pit-trial","45","461442","0.0-2.0-11.1-3.1","battery-v0.2","","""event"",""trial"",""time""
""fullscreenenter"",""1"",""3229""
","
","
","""event"",""trial"",""time""
""fullscreenenter"",""1"",""3229""
","
","","","-1","","","18","4444","3169","&#9761;","elianto","#3366ff99","-1","-1","1","0","[]","0","0","2","","","","","","","",""
"pit-trial","46","466307","0.0-2.0-11.1-4.1","battery-v0.2","","""event"",""trial"",""time""
""fullscreenenter"",""1"",""3229""
","
","
","""event"",""trial"",""time""
""fullscreenenter"",""1"",""3229""
","
","","","-1","","","18","4444","3169","&#9761;","elianto","#3366ff99","-1","-1","1","+10","[]","0","0","2","","","","","","","",""
"pit-trial","47","471171","0.0-2.0-11.2-0.2","battery-v0.2","","""event"",""trial"",""time""
""fullscreenenter"",""1"",""3229""
","
","
","""event"",""trial"",""time""
""fullscreenenter"",""1"",""3229""
","
","","","-1","","","18","4444","3169","&#9761;","elianto","#3366ff99","-1","-1","1","+10","[]","0","0","2","","","","","","","",""
"pit-trial","48","476035","0.0-2.0-11.2-1.2","battery-v0.2","","""event"",""trial"",""time""
""fullscreenenter"",""1"",""3229""
","
","
","""event"",""trial"",""time""
""fullscreenenter"",""1"",""3229""
","
","","","-1","","","18","4444","3169","&#9761;","elianto","#3366ff99","-1","-1","1","+10","[]","0","0","2","","","","","","","",""
"pit-trial","49","480898","0.0-2.0-11.2-2.2","battery-v0.2","","""event"",""trial"",""time""
""fullscreenenter"",""1"",""3229""
","
","
","""event"",""trial"",""time""
""fullscreenenter"",""1"",""3229""
","
","","","-1","","","18","4444","3169","&#9761;","elianto","#3366ff99","-1","-1","1","+10","[]","0","0","2","","","","","","","",""
"pit-trial","50","485763","0.0-2.0-11.2-3.2","battery-v0.2","","""event"",""trial"",""time""
""fullscreenenter"",""1"",""3229""
","
","
","""event"",""trial"",""time""
""fullscreenenter"",""1"",""3229""
","
","","","-1","","","18","4444","3169","&#9761;","elianto","#3366ff99","-1","-1","1","0","[]","0","0","2","","","","","","","",""
"pit-trial","51","490626","0.0-2.0-11.2-4.2","battery-v0.2","","""event"",""trial"",""time""
""fullscreenenter"",""1"",""3229""
","
","
","""event"",""trial"",""time""
""fullscreenenter"",""1"",""3229""
","
","","","-1","","","18","4444","3169","&#9761;","elianto","#3366ff99","-1","-1","1","+10","[]","0","0","2","","","","","","","",""
"pit-trial","52","495490","0.0-2.0-11.3-0.3","battery-v0.2","","""event"",""trial"",""time""
""fullscreenenter"",""1"",""3229""
","
","
","""event"",""trial"",""time""
""fullscreenenter"",""1"",""3229""
","
","","","-1","","","18","4444","3169","&#9761;","elianto","#3366ff99","-1","-1","1","+10","[]","0","0","2","","","","","","","",""
"pit-trial","53","500354","0.0-2.0-11.3-1.3","battery-v0.2","","""event"",""trial"",""time""
""fullscreenenter"",""1"",""3229""
","
","
","""event"",""trial"",""time""
""fullscreenenter"",""1"",""3229""
","
","","","-1","","","18","4444","3169","&#9761;","elianto","#3366ff99","-1","-1","1","+10","[]","0","0","2","","","","","","","",""
"pit-trial","54","505220","0.0-2.0-11.3-2.3","battery-v0.2","","""event"",""trial"",""time""
""fullscreenenter"",""1"",""3229""
","
","
","""event"",""trial"",""time""
""fullscreenenter"",""1"",""3229""
","
","","","-1","","","18","4444","3169","&#9761;","elianto","#3366ff99","-1","-1","1","+10","[]","0","0","2","","","","","","","",""
"pit-trial","55","510083","0.0-2.0-11.3-3.3","battery-v0.2","","""event"",""trial"",""time""
""fullscreenenter"",""1"",""3229""
","
","
","""event"",""trial"",""time""
""fullscreenenter"",""1"",""3229""
","
","","","-1","","","18","4444","3169","&#9761;","elianto","#3366ff99","-1","-1","1","0","[]","0","0","2","","","","","","","",""
"pit-trial","56","514947","0.0-2.0-11.3-4.3","battery-v0.2","","""event"",""trial"",""time""
""fullscreenenter"",""1"",""3229""
","
","
","""event"",""trial"",""time""
""fullscreenenter"",""1"",""3229""
","
","","","-1","","","18","4444","3169","&#9761;","elianto","#3366ff99","-1","-1","1","+10","[]","0","0","2","","","","","","","",""
"call-function","57","514950","0.0-2.0-12.0","battery-v0.2","","""event"",""trial"",""time""
""fullscreenenter"",""1"",""3229""
","
","
","""event"",""trial"",""time""
""fullscreenenter"",""1"",""3229""
","
","","","","","","","","","","","","","","","","","","","","","","","","","","",""
"pit-instructions","58","548721","0.0-2.0-13.0","battery-v0.2","","""event"",""trial"",""time""
""fullscreenenter"",""1"",""3229""
","
","
","""event"",""trial"",""time""
""fullscreenenter"",""1"",""3229""
","
","","[{""page_index"":0,""viewing_time"":5494.39999961853},{""page_index"":1,""viewing_time"":7677.300000190735},{""page_index"":2,""viewing_time"":3465.9000000953674},{""page_index"":3,""viewing_time"":11269.299999713898},{""page_index"":4,""viewing_time"":5863}]","33770.39999961853","","","","","","","","","","","","","","","","","","","","","","","",""
"pit-trial","59","553587","0.0-2.0-14.0-0.0","battery-v0.2","","""event"",""trial"",""time""
""fullscreenenter"",""1"",""3229""
","
","
","""event"",""trial"",""time""
""fullscreenenter"",""1"",""3229""
","
","","","-1","","","18","4444","3169","&#9826;","elianto","#f73b6a7A","-1","-1","1","0","[]","0","0","3","","","","","","","",""
"pit-trial","60","558450","0.0-2.0-14.0-1.0","battery-v0.2","","""event"",""trial"",""time""
""fullscreenenter"",""1"",""3229""
","
","
","""event"",""trial"",""time""
""fullscreenenter"",""1"",""3229""
","
","","","-1","","","18","4444","3169","&#9826;","elianto","#f73b6a7A","-1","-1","1","0","[]","0","0","3","","","","","","","",""
"pit-trial","61","563314","0.0-2.0-14.0-2.0","battery-v0.2","","""event"",""trial"",""time""
""fullscreenenter"",""1"",""3229""
","
","
","""event"",""trial"",""time""
""fullscreenenter"",""1"",""3229""
","
","","","-1","","","18","4444","3169","&#9826;","elianto","#f73b6a7A","-1","-1","1","0","[]","0","0","3","","","","","","","",""
"pit-trial","62","568179","0.0-2.0-14.0-3.0","battery-v0.2","","""event"",""trial"",""time""
""fullscreenenter"",""1"",""3229""
","
","
","""event"",""trial"",""time""
""fullscreenenter"",""1"",""3229""
","
","","","-1","","","18","4444","3169","&#9826;","elianto","#f73b6a7A","-1","-1","1","-10","[]","0","0","3","","","","","","","",""
"pit-trial","63","573042","0.0-2.0-14.0-4.0","battery-v0.2","","""event"",""trial"",""time""
""fullscreenenter"",""1"",""3229""
","
","
","""event"",""trial"",""time""
""fullscreenenter"",""1"",""3229""
","
","","","-1","","","18","4444","3169","&#9826;","elianto","#f73b6a7A","-1","-1","1","0","[]","0","0","3","","","","","","","",""
"pit-trial","64","577906","0.0-2.0-14.1-0.1","battery-v0.2","","""event"",""trial"",""time""
""fullscreenenter"",""1"",""3229""
","
","
","""event"",""trial"",""time""
""fullscreenenter"",""1"",""3229""
","
","","","-1","","","18","4444","3169","&#9826;","elianto","#f73b6a7A","-1","-1","1","0","[]","0","0","3","","","","","","","",""
"pit-trial","65","582770","0.0-2.0-14.1-1.1","battery-v0.2","","""event"",""trial"",""time""
""fullscreenenter"",""1"",""3229""
","
","
","""event"",""trial"",""time""
""fullscreenenter"",""1"",""3229""
","
","","","-1","","","18","4444","3169","&#9826;","elianto","#f73b6a7A","-1","-1","1","0","[]","0","0","3","","","","","","","",""
"pit-trial","66","587634","0.0-2.0-14.1-2.1","battery-v0.2","","""event"",""trial"",""time""
""fullscreenenter"",""1"",""3229""
","
","
","""event"",""trial"",""time""
""fullscreenenter"",""1"",""3229""
","
","","","-1","","","18","4444","3169","&#9826;","elianto","#f73b6a7A","-1","-1","1","0","[]","0","0","3","","","","","","","",""
"pit-trial","67","592500","0.0-2.0-14.1-3.1","battery-v0.2","","""event"",""trial"",""time""
""fullscreenenter"",""1"",""3229""
","
","
","""event"",""trial"",""time""
""fullscreenenter"",""1"",""3229""
","
","","","-1","","","18","4444","3169","&#9826;","elianto","#f73b6a7A","-1","-1","1","-10","[]","0","0","3","","","","","","","",""
"pit-trial","68","597370","0.0-2.0-14.1-4.1","battery-v0.2","","""event"",""trial"",""time""
""fullscreenenter"",""1"",""3229""
","
","
","""event"",""trial"",""time""
""fullscreenenter"",""1"",""3229""
","
","","","-1","","","18","4444","3169","&#9826;","elianto","#f73b6a7A","-1","-1","1","0","[]","0","0","3","","","","","","","",""
"pit-trial","69","602236","0.0-2.0-14.2-0.2","battery-v0.2","","""event"",""trial"",""time""
""fullscreenenter"",""1"",""3229""
","
","
","""event"",""trial"",""time""
""fullscreenenter"",""1"",""3229""
","
","","","-1","","","18","4444","3169","&#9826;","elianto","#f73b6a7A","-1","-1","1","0","[]","0","0","3","","","","","","","",""
"pit-trial","70","607098","0.0-2.0-14.2-1.2","battery-v0.2","","""event"",""trial"",""time""
""fullscreenenter"",""1"",""3229""
","
","
","""event"",""trial"",""time""
""fullscreenenter"",""1"",""3229""
","
","","","-1","","","18","4444","3169","&#9826;","elianto","#f73b6a7A","-1","-1","1","0","[]","0","0","3","","","","","","","",""
"pit-trial","71","611962","0.0-2.0-14.2-2.2","battery-v0.2","","""event"",""trial"",""time""
""fullscreenenter"",""1"",""3229""
","
","
","""event"",""trial"",""time""
""fullscreenenter"",""1"",""3229""
","
","","","-1","","","18","4444","3169","&#9826;","elianto","#f73b6a7A","-1","-1","1","0","[]","0","0","3","","","","","","","",""
"pit-trial","72","616826","0.0-2.0-14.2-3.2","battery-v0.2","","""event"",""trial"",""time""
""fullscreenenter"",""1"",""3229""
","
","
","""event"",""trial"",""time""
""fullscreenenter"",""1"",""3229""
","
","","","-1","","","18","4444","3169","&#9826;","elianto","#f73b6a7A","-1","-1","1","-10","[]","0","0","3","","","","","","","",""
"pit-trial","73","621691","0.0-2.0-14.2-4.2","battery-v0.2","","""event"",""trial"",""time""
""fullscreenenter"",""1"",""3229""
","
","
","""event"",""trial"",""time""
""fullscreenenter"",""1"",""3229""
","
","","","-1","","","18","4444","3169","&#9826;","elianto","#f73b6a7A","-1","-1","1","0","[]","0","0","3","","","","","","","",""
"pit-trial","74","626554","0.0-2.0-14.3-0.3","battery-v0.2","","""event"",""trial"",""time""
""fullscreenenter"",""1"",""3229""
","
","
","""event"",""trial"",""time""
""fullscreenenter"",""1"",""3229""
","
","","","-1","","","18","4444","3169","&#9826;","elianto","#f73b6a7A","-1","-1","1","0","[]","0","0","3","","","","","","","",""
"pit-trial","75","631418","0.0-2.0-14.3-1.3","battery-v0.2","","""event"",""trial"",""time""
""fullscreenenter"",""1"",""3229""
","
","
","""event"",""trial"",""time""
""fullscreenenter"",""1"",""3229""
","
","","","-1","","","18","4444","3169","&#9826;","elianto","#f73b6a7A","-1","-1","1","0","[]","0","0","3","","","","","","","",""
"pit-trial","76","636282","0.0-2.0-14.3-2.3","battery-v0.2","","""event"",""trial"",""time""
""fullscreenenter"",""1"",""3229""
","
","
","""event"",""trial"",""time""
""fullscreenenter"",""1"",""3229""
","
","","","-1","","","18","4444","3169","&#9826;","elianto","#f73b6a7A","-1","-1","1","0","[]","0","0","3","","","","","","","",""
"pit-trial","77","641146","0.0-2.0-14.3-3.3","battery-v0.2","","""event"",""trial"",""time""
""fullscreenenter"",""1"",""3229""
","
","
","""event"",""trial"",""time""
""fullscreenenter"",""1"",""3229""
","
","","","-1","","","18","4444","3169","&#9826;","elianto","#f73b6a7A","-1","-1","1","-10","[]","0","0","3","","","","","","","",""
"pit-trial","78","646012","0.0-2.0-14.3-4.3","battery-v0.2","","""event"",""trial"",""time""
""fullscreenenter"",""1"",""3229""
","
","
","""event"",""trial"",""time""
""fullscreenenter"",""1"",""3229""
","
","","","-1","","","18","4444","3169","&#9826;","elianto","#f73b6a7A","-1","-1","1","0","[]","0","0","3","","","","","","","",""
"call-function","79","646015","0.0-2.0-15.0","battery-v0.2","","""event"",""trial"",""time""
""fullscreenenter"",""1"",""3229""
","
","
","""event"",""trial"",""time""
""fullscreenenter"",""1"",""3229""
","
","","","","","","","","","","","","","","","","","","","","","","","","","","",""
"pit-instructions","80","675125","0.0-2.0-16.0","battery-v0.2","","""event"",""trial"",""time""
""fullscreenenter"",""1"",""3229""
","
","
","""event"",""trial"",""time""
""fullscreenenter"",""1"",""3229""
","
","","[{""page_index"":0,""viewing_time"":8016.599999904633},{""page_index"":1,""viewing_time"":10322.400000095367},{""page_index"":2,""viewing_time"":5303.099999904633},{""page_index"":3,""viewing_time"":5466.199999809265}]","29108.799999713898","","","","","","","","","","","","","","","","","","","","","","","",""
"pit-trial","81","678659","0.0-2.0-17.0-0.0","battery-v0.2","","""event"",""trial"",""time""
""fullscreenenter"",""1"",""3229""
","
","
","""event"",""trial"",""time""
""fullscreenenter"",""1"",""3229""
","
","","","678.6999998092651","","","18","4444","3169","&#9789;","elianto","#f73b6a7A"," "," ","1","0","[1529.9000000953674]","1","0","4","","","","","","","",""
"pit-trial","82","681963","0.0-2.0-17.0-1.0","battery-v0.2","","""event"",""trial"",""time""
""fullscreenenter"",""1"",""3229""
","
","
","""event"",""trial"",""time""
""fullscreenenter"",""1"",""3229""
","
","","","445.40000009536743","","","18","4444","3169","&#9789;","elianto","#f73b6a7A"," "," ","1","0","[1298.2999997138977]","1","0","4","","","","","","","",""
"pit-trial","83","685091","0.0-2.0-17.0-2.0","battery-v0.2","","""event"",""trial"",""time""
""fullscreenenter"",""1"",""3229""
","
","
","""event"",""trial"",""time""
""fullscreenenter"",""1"",""3229""
","
","","","270.5","","","18","4444","3169","&#9789;","elianto","#f73b6a7A"," "," ","1","0","[1121.8000001907349]","1","0","4","","","","","","","",""
"pit-trial","84","688467","0.0-2.0-17.0-3.0","battery-v0.2","","""event"",""trial"",""time""
""fullscreenenter"",""1"",""3229""
","
","
","""event"",""trial"",""time""
""fullscreenenter"",""1"",""3229""
","
","","","517.5999999046326","","","18","4444","3169","&#9789;","elianto","#f73b6a7A"," "," ","1","-10","[1368.6999998092651]","1","0","4","","","","","","","",""
"pit-trial","85","691707","0.0-2.0-17.0-4.0","battery-v0.2","","""event"",""trial"",""time""
""fullscreenenter"",""1"",""3229""
","
","
","""event"",""trial"",""time""
""fullscreenenter"",""1"",""3229""
","
","","","379.30000019073486","","","18","4444","3169","&#9789;","elianto","#f73b6a7A"," "," ","1","0","[1231.5]","1","0","4","","","","","","","",""
"pit-trial","86","694987","0.0-2.0-17.1-0.1","battery-v0.2","","""event"",""trial"",""time""
""fullscreenenter"",""1"",""3229""
","
","
","""event"",""trial"",""time""
""fullscreenenter"",""1"",""3229""
","
","","","417.7000002861023","","","18","4444","3169","&#9789;","elianto","#f73b6a7A"," "," ","1","0","[1269.5]","1","0","4","","","","","","","",""
"pit-trial","87","698099","0.0-2.0-17.1-1.1","battery-v0.2","","""event"",""trial"",""time""
""fullscreenenter"",""1"",""3229""
","
","
","""event"",""trial"",""time""
""fullscreenenter"",""1"",""3229""
","
","","","248.30000019073486","","","18","4444","3169","&#9789;","elianto","#f73b6a7A"," "," ","1","0","[1100.5]","1","0","4","","","","","","","",""
"pit-trial","88","701234","0.0-2.0-17.1-2.1","battery-v0.2","","""event"",""trial"",""time""
""fullscreenenter"",""1"",""3229""
","
","
","""event"",""trial"",""time""
""fullscreenenter"",""1"",""3229""
","
","","","272.90000009536743","","","18","4444","3169","&#9789;","elianto","#f73b6a7A"," "," ","1","0","[1125.4000000953674]","1","0","4","","","","","","","",""
"pit-trial","89","704395","0.0-2.0-17.1-3.1","battery-v0.2","","""event"",""trial"",""time""
""fullscreenenter"",""1"",""3229""
","
","
","""event"",""trial"",""time""
""fullscreenenter"",""1"",""3229""
","
","","","297.09999990463257","","","18","4444","3169","&#9789;","elianto","#f73b6a7A"," "," ","1","-10","[1149.5]","1","0","4","","","","","","","",""
"pit-trial","90","707515","0.0-2.0-17.1-4.1","battery-v0.2","","""event"",""trial"",""time""
""fullscreenenter"",""1"",""3229""
","
","
","""event"",""trial"",""time""
""fullscreenenter"",""1"",""3229""
","
","","","255.7000002861023","","","18","4444","3169","&#9789;","elianto","#f73b6a7A"," "," ","1","0","[1109.2000002861023]","1","0","4","","","","","","","",""
"pit-trial","91","710779","0.0-2.0-17.2-0.2","battery-v0.2","","""event"",""trial"",""time""
""fullscreenenter"",""1"",""3229""
","
","
","""event"",""trial"",""time""
""fullscreenenter"",""1"",""3229""
","
","","","397.69999980926514","","","18","4444","3169","&#9789;","elianto","#f73b6a7A"," "," ","1","0","[1250.9000000953674]","1","0","4","","","","","","","",""
"pit-trial","92","714098","0.0-2.0-17.2-1.2","battery-v0.2","","""event"",""trial"",""time""
""fullscreenenter"",""1"",""3229""
","
","
","""event"",""trial"",""time""
""fullscreenenter"",""1"",""3229""
","
","","","456.09999990463257","","","18","4444","3169","&#9789;","elianto","#f73b6a7A"," "," ","1","0","[1306.7999997138977]","1","0","4","","","","","","","",""
"pit-trial","93","717490","0.0-2.0-17.2-2.2","battery-v0.2","","""event"",""trial"",""time""
""fullscreenenter"",""1"",""3229""
","
","
","""event"",""trial"",""time""
""fullscreenenter"",""1"",""3229""
","
","","","533.5","","","18","4444","3169","&#9789;","elianto","#f73b6a7A"," "," ","1","0","[1385.5999999046326]","1","0","4","","","","","","","",""
"pit-trial","94","720938","0.0-2.0-17.2-3.2","battery-v0.2","","""event"",""trial"",""time""
""fullscreenenter"",""1"",""3229""
","
","
","""event"",""trial"",""time""
""fullscreenenter"",""1"",""3229""
","
","","","586.9000000953674","","","18","4444","3169","&#9789;","elianto","#f73b6a7A"," "," ","1","-10","[1438.8000001907349]","1","0","4","","","","","","","",""
"pit-trial","95","724395","0.0-2.0-17.2-4.2","battery-v0.2","","""event"",""trial"",""time""
""fullscreenenter"",""1"",""3229""
","
","
","""event"",""trial"",""time""
""fullscreenenter"",""1"",""3229""
","
","","","592.8000001907349","","","18","4444","3169","&#9789;","elianto","#f73b6a7A"," "," ","1","0","[1444.4000000953674]","1","0","4","","","","","","","",""
"pit-trial","96","727745","0.0-2.0-17.3-0.3","battery-v0.2","","""event"",""trial"",""time""
""fullscreenenter"",""1"",""3229""
","
","
","""event"",""trial"",""time""
""fullscreenenter"",""1"",""3229""
","
","","","491.8999996185303","","","18","4444","3169","&#9789;","elianto","#f73b6a7A"," "," ","1","0","[1345.5]","1","0","4","","","","","","","",""
"pit-trial","97","731146","0.0-2.0-17.3-1.3","battery-v0.2","","""event"",""trial"",""time""
""fullscreenenter"",""1"",""3229""
","
","
","""event"",""trial"",""time""
""fullscreenenter"",""1"",""3229""
","
","","","539","","","18","4444","3169","&#9789;","elianto","#f73b6a7A"," "," ","1","0","[1393.3000001907349]","1","0","4","","","","","","","",""
"pit-trial","98","734514","0.0-2.0-17.3-2.3","battery-v0.2","","""event"",""trial"",""time""
""fullscreenenter"",""1"",""3229""
","
","
","""event"",""trial"",""time""
""fullscreenenter"",""1"",""3229""
","
","","","508.69999980926514","","","18","4444","3169","&#9789;","elianto","#f73b6a7A"," "," ","1","0","[1359.2999997138977]","1","0","4","","","","","","","",""
"pit-trial","99","738002","0.0-2.0-17.3-3.3","battery-v0.2","","""event"",""trial"",""time""
""fullscreenenter"",""1"",""3229""
","
","
","""event"",""trial"",""time""
""fullscreenenter"",""1"",""3229""
","
","","","623.2999997138977","","","18","4444","3169","&#9789;","elianto","#f73b6a7A"," "," ","1","-10","[1477]","1","0","4","","","","","","","",""
"pit-trial","100","741569","0.0-2.0-17.3-4.3","battery-v0.2","","""event"",""trial"",""time""
""fullscreenenter"",""1"",""3229""
","
","
","""event"",""trial"",""time""
""fullscreenenter"",""1"",""3229""
","
","","","708.2999997138977","","","18","4444","3169","&#9789;","elianto","#f73b6a7A"," "," ","1","0","[1561.2999997138977]","1","0","4","","","","","","","",""
"call-function","101","741573","0.0-2.0-18.0","battery-v0.2","","""event"",""trial"",""time""
""fullscreenenter"",""1"",""3229""
","
","
","""event"",""trial"",""time""
""fullscreenenter"",""1"",""3229""
","
","","","","","","","","","","","","","","","","","","","","","","","","","","",""
"pit-instructions","102","818811","0.0-2.0-19.0","battery-v0.2","","""event"",""trial"",""time""
""fullscreenenter"",""1"",""3229""
","
","
","""event"",""trial"",""time""
""fullscreenenter"",""1"",""3229""
","
","","[{""page_index"":0,""viewing_time"":9426},{""page_index"":1,""viewing_time"":6582.900000095367},{""page_index"":2,""viewing_time"":14027.099999904633},{""page_index"":3,""viewing_time"":7963.400000095367},{""page_index"":4,""viewing_time"":8709.699999809265},{""page_index"":5,""viewing_time"":10150.300000190735},{""page_index"":6,""viewing_time"":9468.5},{""page_index"":7,""viewing_time"":6684.099999904633},{""page_index"":8,""viewing_time"":4224.199999809265}]","77236.59999990463","","","","","","","","","","","","","","","","","","","","","","","",""
"pit-comprehension","103","824564","0.0-2.0-20.0-0.0","battery-v0.2","","""event"",""trial"",""time""
""fullscreenenter"",""1"",""3229""
","
","
","""event"",""trial"",""time""
""fullscreenenter"",""1"",""3229""
","
","","","5748.199999809265","[""SPACE""]","0","18","4444","3169","","","","","","","","","","","","","","","","","","",""
"pit-instructions","104","828861","0.0-2.0-20.0-1.0","battery-v0.2","","""event"",""trial"",""time""
""fullscreenenter"",""1"",""3229""
","
","
","""event"",""trial"",""time""
""fullscreenenter"",""1"",""3229""
","
","","[{""page_index"":0,""viewing_time"":4230.400000095367}]","4230.900000095367","","","","","","","","","","","","","","","","","","","","","","","",""
"pit-comprehension","105","837510","0.0-2.0-21.0-0.0","battery-v0.2","","""event"",""trial"",""time""
""fullscreenenter"",""1"",""3229""
","
","
","""event"",""trial"",""time""
""fullscreenenter"",""1"",""3229""
","
","","","8644.299999713898","[""10""]","0","18","4444","3169","","","","","","","","","","","","","","","","","","",""
"pit-instructions","106","840119","0.0-2.0-21.0-1.0","battery-v0.2","","""event"",""trial"",""time""
""fullscreenenter"",""1"",""3229""
","
","
","""event"",""trial"",""time""
""fullscreenenter"",""1"",""3229""
","
","","[{""page_index"":0,""viewing_time"":2539.6000003814697}]","2540","","","","","","","","","","","","","","","","","","","","","","","",""
"pit-comprehension","107","848555","0.0-2.0-22.0-0.0","battery-v0.2","","""event"",""trial"",""time""
""fullscreenenter"",""1"",""3229""
","
","
","""event"",""trial"",""time""
""fullscreenenter"",""1"",""3229""
","
","","","8432.400000095367","[""0""]","0","18","4444","3169","","","","","","","","","","","","","","","","","","",""
"pit-instructions","108","850878","0.0-2.0-22.0-1.0","battery-v0.2","","""event"",""trial"",""time""
""fullscreenenter"",""1"",""3229""
","
","
","""event"",""trial"",""time""
""fullscreenenter"",""1"",""3229""
","
","","[{""page_index"":0,""viewing_time"":2257.300000190735}]","2257.5999999046326","","","","","","","","","","","","","","","","","","","","","","","",""
"pit-comprehension","109","863170","0.0-2.0-23.0-0.0","battery-v0.2","","""event"",""trial"",""time""
""fullscreenenter"",""1"",""3229""
","
","
","""event"",""trial"",""time""
""fullscreenenter"",""1"",""3229""
","
","","","12288.099999904633","[""True""]","0","18","4444","3169","","","","","","","","","","","","","","","","","","",""
"pit-instructions","110","865206","0.0-2.0-23.0-1.0","battery-v0.2","","""event"",""trial"",""time""
""fullscreenenter"",""1"",""3229""
","
","
","""event"",""trial"",""time""
""fullscreenenter"",""1"",""3229""
","
","","[{""page_index"":0,""viewing_time"":1965.7999997138977}]","1966.1999998092651","","","","","","","","","","","","","","","","","","","","","","","",""
"pit-comprehension","111","874315","0.0-2.0-24.0-0.0","battery-v0.2","","""event"",""trial"",""time""
""fullscreenenter"",""1"",""3229""
","
","
","""event"",""trial"",""time""
""fullscreenenter"",""1"",""3229""
","
","","","9105.300000190735","[""True""]","0","18","4444","3169","","","","","","","","","","","","","","","","","","",""
"pit-instructions","112","876289","0.0-2.0-24.0-1.0","battery-v0.2","","""event"",""trial"",""time""
""fullscreenenter"",""1"",""3229""
","
","
","""event"",""trial"",""time""
""fullscreenenter"",""1"",""3229""
","
","","[{""page_index"":0,""viewing_time"":1904.5999999046326}]","1905","","","","","","","","","","","","","","","","","","","","","","","",""
"pit-comprehension","113","884354","0.0-2.0-25.0-0.0","battery-v0.2","","""event"",""trial"",""time""
""fullscreenenter"",""1"",""3229""
","
","
","""event"",""trial"",""time""
""fullscreenenter"",""1"",""3229""
","
","","","8061","[""True""]","0","18","4444","3169","","","","","","","","","","","","","","","","","","",""
"pit-instructions","114","886342","0.0-2.0-25.0-1.0","battery-v0.2","","""event"",""trial"",""time""
""fullscreenenter"",""1"",""3229""
","
","
","""event"",""trial"",""time""
""fullscreenenter"",""1"",""3229""
","
","","[{""page_index"":0,""viewing_time"":1921.2999997138977}]","1921.6999998092651","","","","","","","","","","","","","","","","","","","","","","","",""
"pit-comprehension","115","892656","0.0-2.0-26.0-0.0","battery-v0.2","","""event"",""trial"",""time""
""fullscreenenter"",""1"",""3229""
","
","
","""event"",""trial"",""time""
""fullscreenenter"",""1"",""3229""
","
","","","6310.599999904633","[""False""]","0","18","4444","3169","","","","","","","","","","","","","","","","","","",""
"pit-instructions","116","894606","0.0-2.0-26.0-1.0","battery-v0.2","","""event"",""trial"",""time""
""fullscreenenter"",""1"",""3229""
","
","
","""event"",""trial"",""time""
""fullscreenenter"",""1"",""3229""
","
","","[{""page_index"":0,""viewing_time"":1886.5999999046326}]","1887","","","","","","","","","","","","","","","","","","","","","","","",""
"pit-instructions","117","911617","0.0-3.0","battery-v0.2","","""event"",""trial"",""time""
""fullscreenenter"",""1"",""3229""
","
","
","""event"",""trial"",""time""
""fullscreenenter"",""1"",""3229""
","
","","[{""page_index"":0,""viewing_time"":4048.2000002861023},{""page_index"":1,""viewing_time"":5293.299999713898},{""page_index"":2,""viewing_time"":7667.200000286102}]","17009.099999904633","","","","","","","","","","","","","","","","","","","","","","","",""
"pit-trial","118","915210","0.0-4.0","battery-v0.2","","""event"",""trial"",""time""
""fullscreenenter"",""1"",""3229""
","
","
","""event"",""trial"",""time""
""fullscreenenter"",""1"",""3229""
","
","","","730.6999998092651","","","18","4444","3169","&#9730;","elianto","#3366ff99"," "," ","1","0","[1582.0999999046326]","1","1","","","4444","1","1","1","win","go","1"
"pit-trial","119","918969","0.0-5.0","battery-v0.2","","""event"",""trial"",""time""
""fullscreenenter"",""1"",""3229""
","
","
","""event"",""trial"",""time""
""fullscreenenter"",""1"",""3229""
","
","","","901.5","","","18","4444","3169","&#9733;","elianto","#3366ff99","-1"," ","0","0","[1754.2000002861023]","1","1","","","4444","2","2","2","win","no-go","0"
"pit-trial","120","923307","0.0-6.0","battery-v0.2","","""event"",""trial"",""time""
""fullscreenenter"",""1"",""3229""
","
","
","""event"",""trial"",""time""
""fullscreenenter"",""1"",""3229""
","
","","","1477.7000002861023","","","18","4444","3169","&#9728;","elianto","#f73b6a7A","-1"," ","0","-10","[2331.199999809265]","1","1","","","4444","3","0","4","lose","no-go","0"
"pit-trial","121","928170","0.0-7.0","battery-v0.2","","""event"",""trial"",""time""
""fullscreenenter"",""1"",""3229""
","
","
","""event"",""trial"",""time""
""fullscreenenter"",""1"",""3229""
","
","","","-1","","","18","4444","3169","&#9752;","elianto","#f73b6a7A"," ","-1","0","-10","[]","0","1","","","4444","4","3","3","lose","go","0"
"pit-trial","122","931970","0.0-8.0","battery-v0.2","","""event"",""trial"",""time""
""fullscreenenter"",""1"",""3229""
","
","
","""event"",""trial"",""time""
""fullscreenenter"",""1"",""3229""
","
","","","937.1999998092651","","","18","4444","3169","&#9733;","elianto","#3366ff99","-1"," ","0","0","[1788.5]","1","1","","","4444","5","2","2","win","no-go","0"
"pit-trial","123","936074","0.0-9.0","battery-v0.2","","""event"",""trial"",""time""
""fullscreenenter"",""1"",""3229""
","
","
","""event"",""trial"",""time""
""fullscreenenter"",""1"",""3229""
","
","","","1242.1999998092651","","","18","4444","3169","&#9728;","elianto","#f73b6a7A","-1"," ","0","-10","[2094.699999809265]","1","1","","","4444","6","0","4","lose","no-go","0"
"pit-trial","124","940938","0.0-10.0","battery-v0.2","","""event"",""trial"",""time""
""fullscreenenter"",""1"",""3229""
","
","
","""event"",""trial"",""time""
""fullscreenenter"",""1"",""3229""
","
","","","-1","","","18","4444","3169","&#9730;","elianto","#3366ff99"," ","-1","0","0","[]","0","1","","","4444","7","1","1","win","go","0"
"pit-trial","125","945034","0.0-11.0","battery-v0.2","","""event"",""trial"",""time""
""fullscreenenter"",""1"",""3229""
","
","
","""event"",""trial"",""time""
""fullscreenenter"",""1"",""3229""
","
","","","1235.7999997138977","","","18","4444","3169","&#9752;","elianto","#f73b6a7A"," "," ","1","0","[2088.199999809265]","1","1","","","4444","8","3","3","lose","go","0"
"pit-trial","126","948938","0.0-12.0","battery-v0.2","","""event"",""trial"",""time""
""fullscreenenter"",""1"",""3229""
","
","
","""event"",""trial"",""time""
""fullscreenenter"",""1"",""3229""
","
","","","1047","","","18","4444","3169","&#9752;","elianto","#f73b6a7A"," "," ","1","0","[1899.5]","1","1","","","4444","9","3","3","lose","go","0"
"pit-trial","127","953226","0.0-13.0","battery-v0.2","","""event"",""trial"",""time""
""fullscreenenter"",""1"",""3229""
","
","
","""event"",""trial"",""time""
""fullscreenenter"",""1"",""3229""
","
","","","1425.8000001907349","","","18","4444","3169","&#9733;","elianto","#3366ff99","-1"," ","0","0","[2276.300000190735]","1","1","","","4444","10","2","2","win","no-go","0"
"pit-trial","128","958090","0.0-14.0","battery-v0.2","","""event"",""trial"",""time""
""fullscreenenter"",""1"",""3229""
","
","
","""event"",""trial"",""time""
""fullscreenenter"",""1"",""3229""
","
","","","-1","","","18","4444","3169","&#9728;","elianto","#f73b6a7A","-1","-1","1","0","[]","0","1","","","4444","11","0","4","lose","no-go","0"
"pit-trial","129","961962","0.0-15.0","battery-v0.2","","""event"",""trial"",""time""
""fullscreenenter"",""1"",""3229""
","
","
","""event"",""trial"",""time""
""fullscreenenter"",""1"",""3229""
","
","","","1012.5","","","18","4444","3169","&#9730;","elianto","#3366ff99"," "," ","1","+10","[1863.5]","1","1","","","4444","12","1","1","win","go","0"
"pit-trial","130","966826","0.0-16.0","battery-v0.2","","""event"",""trial"",""time""
""fullscreenenter"",""1"",""3229""
","
","
","""event"",""trial"",""time""
""fullscreenenter"",""1"",""3229""
","
","","","-1","","","18","4444","3169","&#9728;","elianto","#f73b6a7A","-1","-1","1","0","[]","0","1","","","4444","13","0","4","lose","no-go","0"
"pit-trial","131","970658","0.0-17.0","battery-v0.2","","""event"",""trial"",""time""
""fullscreenenter"",""1"",""3229""
","
","
","""event"",""trial"",""time""
""fullscreenenter"",""1"",""3229""
","
","","","972.4000000953674","","","18","4444","3169","&#9752;","elianto","#f73b6a7A"," "," ","1","0","[1823.4000000953674]","1","1","","","4444","14","3","3","lose","go","0"
"pit-trial","132","975114","0.0-18.0","battery-v0.2","","""event"",""trial"",""time""
""fullscreenenter"",""1"",""3229""
","
","
","""event"",""trial"",""time""
""fullscreenenter"",""1"",""3229""
","
","","","1592.2999997138977","","","18","4444","3169","&#9730;","elianto","#3366ff99"," "," ","1","+10","[2445.2999997138977]","1","1","","","4444","15","1","1","win","go","0"
"pit-trial","133","979058","0.0-19.0","battery-v0.2","","""event"",""trial"",""time""
""fullscreenenter"",""1"",""3229""
","
","
","""event"",""trial"",""time""
""fullscreenenter"",""1"",""3229""
","
","","","1082","","","18","4444","3169","&#9733;","elianto","#3366ff99","-1"," ","0","+10","[1934.8000001907349]","1","1","","","4444","16","2","2","win","no-go","1"
"pit-trial","134","983922","0.0-20.0","battery-v0.2","","""event"",""trial"",""time""
""fullscreenenter"",""1"",""3229""
","
","
","""event"",""trial"",""time""
""fullscreenenter"",""1"",""3229""
","
","","","-1","","","18","4444","3169","&#9728;","elianto","#f73b6a7A","-1","-1","1","0","[]","0","1","","","4444","17","0","4","lose","no-go","0"
"pit-trial","135","988482","0.0-21.0","battery-v0.2","","""event"",""trial"",""time""
""fullscreenenter"",""1"",""3229""
","
","
","""event"",""trial"",""time""
""fullscreenenter"",""1"",""3229""
","
","","","1702.9000000953674","","","18","4444","3169","&#9733;","elianto","#3366ff99","-1"," ","0","+10","[2553.800000190735]","1","1","","","4444","18","2","2","win","no-go","1"
"pit-trial","136","992627","0.0-22.0","battery-v0.2","","""event"",""trial"",""time""
""fullscreenenter"",""1"",""3229""
","
","
","""event"",""trial"",""time""
""fullscreenenter"",""1"",""3229""
","
","","","1286.1000003814697","","","18","4444","3169","&#9730;","elianto","#3366ff99"," "," ","1","+10","[2137.5999999046326]","1","1","","","4444","19","1","1","win","go","0"
"pit-trial","137","997491","0.0-23.0","battery-v0.2","","""event"",""trial"",""time""
""fullscreenenter"",""1"",""3229""
","
","
","""event"",""trial"",""time""
""fullscreenenter"",""1"",""3229""
","
","","","-1","","","18","4444","3169","&#9752;","elianto","#f73b6a7A"," ","-1","0","-10","[]","0","1","","","4444","20","3","3","lose","go","0"
"pit-instructions","138","1010621","0.0-24.0","battery-v0.2","","""event"",""trial"",""time""
""fullscreenenter"",""1"",""3229""
","
","
","""event"",""trial"",""time""
""fullscreenenter"",""1"",""3229""
","
","","[{""page_index"":0,""viewing_time"":6043.199999809265},{""page_index"":1,""viewing_time"":7083.400000095367}]","13127.099999904633","","","","","","","","","","","","","","","","","","","","","","","",""
"pit-trial","139","1014290","0.0-25.0","battery-v0.2","","""event"",""trial"",""time""
""fullscreenenter"",""1"",""3229""
","
","
","""event"",""trial"",""time""
""fullscreenenter"",""1"",""3229""
","
","","","803.4000000953674","","","18","4444","3169","m","elianto","#f73b6a7A","-1"," ","0","-10","[1656.2999997138977]","1","2","","","4444","21","0","4","lose","no-go","0"
"pit-trial","140","1018124","0.0-26.0","battery-v0.2","","""event"",""trial"",""time""
""fullscreenenter"",""1"",""3229""
","
","
","""event"",""trial"",""time""
""fullscreenenter"",""1"",""3229""
","
","","","970","","","18","4444","3169","h","elianto","#f73b6a7A"," "," ","1","0","[1822.1999998092651]","1","2","","","4444","22","3","3","lose","go","0"
"pit-trial","141","1022986","0.0-27.0","battery-v0.2","","""event"",""trial"",""time""
""fullscreenenter"",""1"",""3229""
","
","
","""event"",""trial"",""time""
""fullscreenenter"",""1"",""3229""
","
","","","-1","","","18","4444","3169","y","elianto","#f73b6a7A","-1","-1","1","0","[]","0","2","","","4444","23","2","4","lose","no-go","0"
"pit-trial","142","1026884","0.0-28.0","battery-v0.2","","""event"",""trial"",""time""
""fullscreenenter"",""1"",""3229""
","
","
","""event"",""trial"",""time""
""fullscreenenter"",""1"",""3229""
","
","","","1032","","","18","4444","3169","r","elianto","#3366ff99"," "," ","1","+10","[1884.7999997138977]","1","2","","","4444","24","1","1","win","go","0"
"pit-trial","143","1030635","0.0-29.0","battery-v0.2","","""event"",""trial"",""time""
""fullscreenenter"",""1"",""3229""
","
","
","""event"",""trial"",""time""
""fullscreenenter"",""1"",""3229""
","
","","","890.5999999046326","","","18","4444","3169","r","elianto","#3366ff99"," "," ","1","+10","[1742.5]","1","2","","","4444","25","1","1","win","go","0"
"pit-trial","144","1035371","0.0-30.0","battery-v0.2","","""event"",""trial"",""time""
""fullscreenenter"",""1"",""3229""
","
","
","""event"",""trial"",""time""
""fullscreenenter"",""1"",""3229""
","
","","","1872.7999997138977","","","18","4444","3169","m","elianto","#f73b6a7A","-1"," ","0","0","[2723.699999809265]","1","2","","","4444","26","0","4","lose","no-go","1"
"pit-trial","145","1039235","0.0-31.0","battery-v0.2","","""event"",""trial"",""time""
""fullscreenenter"",""1"",""3229""
","
","
","""event"",""trial"",""time""
""fullscreenenter"",""1"",""3229""
","
","","","1002.1999998092651","","","18","4444","3169","h","elianto","#f73b6a7A"," "," ","1","0","[1854.1999998092651]","1","2","","","4444","27","3","3","lose","go","0"
"pit-trial","146","1044099","0.0-32.0","battery-v0.2","","""event"",""trial"",""time""
""fullscreenenter"",""1"",""3229""
","
","
","""event"",""trial"",""time""
""fullscreenenter"",""1"",""3229""
","
","","","-1","","","18","4444","3169","y","elianto","#f73b6a7A","-1","-1","1","-10","[]","0","2","","","4444","28","2","4","lose","no-go","1"
"pit-trial","147","1047691","0.0-33.0","battery-v0.2","","""event"",""trial"",""time""
""fullscreenenter"",""1"",""3229""
","
","
","""event"",""trial"",""time""
""fullscreenenter"",""1"",""3229""
","
","","","731.4000000953674","","","18","4444","3169","y","elianto","#f73b6a7A","-1"," ","0","0","[1584.5999999046326]","1","2","","","4444","29","2","4","lose","no-go","1"
"pit-trial","148","1051402","0.0-34.0","battery-v0.2","","""event"",""trial"",""time""
""fullscreenenter"",""1"",""3229""
","
","
","""event"",""trial"",""time""
""fullscreenenter"",""1"",""3229""
","
","","","847","","","18","4444","3169","h","elianto","#f73b6a7A"," "," ","1","-10","[1700.0999999046326]","1","2","","","4444","30","3","3","lose","go","1"
"pit-trial","149","1055650","0.0-35.0","battery-v0.2","","""event"",""trial"",""time""
""fullscreenenter"",""1"",""3229""
","
","
","""event"",""trial"",""time""
""fullscreenenter"",""1"",""3229""
","
","","","1385.6999998092651","","","18","4444","3169","m","elianto","#f73b6a7A","-1"," ","0","-10","[2236]","1","2","","","4444","31","0","4","lose","no-go","0"
"pit-trial","150","1059618","0.0-36.0","battery-v0.2","","""event"",""trial"",""time""
""fullscreenenter"",""1"",""3229""
","
","
","""event"",""trial"",""time""
""fullscreenenter"",""1"",""3229""
","
","","","1106.9000000953674","","","18","4444","3169","r","elianto","#3366ff99"," "," ","1","+10","[1958]","1","2","","","4444","32","1","1","win","go","0"
"pit-trial","151","1064483","0.0-37.0","battery-v0.2","","""event"",""trial"",""time""
""fullscreenenter"",""1"",""3229""
","
","
","""event"",""trial"",""time""
""fullscreenenter"",""1"",""3229""
","
","","","-1","","","18","4444","3169","h","elianto","#f73b6a7A"," ","-1","0","-10","[]","0","2","","","4444","33","3","3","lose","go","0"
"pit-trial","152","1068306","0.0-38.0","battery-v0.2","","""event"",""trial"",""time""
""fullscreenenter"",""1"",""3229""
","
","
","""event"",""trial"",""time""
""fullscreenenter"",""1"",""3229""
","
","","","960.5","","","18","4444","3169","m","elianto","#f73b6a7A","-1"," ","0","-10","[1813.1999998092651]","1","2","","","4444","34","0","4","lose","no-go","0"
"pit-trial","153","1072058","0.0-39.0","battery-v0.2","","""event"",""trial"",""time""
""fullscreenenter"",""1"",""3229""
","
","
","""event"",""trial"",""time""
""fullscreenenter"",""1"",""3229""
","
","","","893.2000002861023","","","18","4444","3169","y","elianto","#f73b6a7A","-1"," ","0","-10","[1745.8000001907349]","1","2","","","4444","35","2","4","lose","no-go","0"
"pit-trial","154","1075634","0.0-40.0","battery-v0.2","","""event"",""trial"",""time""
""fullscreenenter"",""1"",""3229""
","
","
","""event"",""trial"",""time""
""fullscreenenter"",""1"",""3229""
","
","","","713.2999997138977","","","18","4444","3169","r","elianto","#3366ff99"," "," ","1","+10","[1566.4000000953674]","1","2","","","4444","36","1","1","win","go","0"
"pit-trial","155","1080497","0.0-41.0","battery-v0.2","","""event"",""trial"",""time""
""fullscreenenter"",""1"",""3229""
","
","
","""event"",""trial"",""time""
""fullscreenenter"",""1"",""3229""
","
","","","-1","","","18","4444","3169","h","elianto","#f73b6a7A"," ","-1","0","-10","[]","0","2","","","4444","37","3","3","lose","go","0"
"pit-trial","156","1085362","0.0-42.0","battery-v0.2","","""event"",""trial"",""time""
""fullscreenenter"",""1"",""3229""
","
","
","""event"",""trial"",""time""
""fullscreenenter"",""1"",""3229""
","
","","","-1","","","18","4444","3169","y","elianto","#f73b6a7A","-1","-1","1","-10","[]","0","2","","","4444","38","2","4","lose","no-go","1"
"pit-trial","157","1089001","0.0-43.0","battery-v0.2","","""event"",""trial"",""time""
""fullscreenenter"",""1"",""3229""
","
","
","""event"",""trial"",""time""
""fullscreenenter"",""1"",""3229""
","
","","","779.3000001907349","","","18","4444","3169","r","elianto","#3366ff99"," "," ","1","+10","[1630.4000000953674]","1","2","","","4444","39","1","1","win","go","0"
"pit-trial","158","1092897","0.0-44.0","battery-v0.2","","""event"",""trial"",""time""
""fullscreenenter"",""1"",""3229""
","
","
","""event"",""trial"",""time""
""fullscreenenter"",""1"",""3229""
","
","","","1038.0999999046326","","","18","4444","3169","m","elianto","#f73b6a7A","-1"," ","0","-10","[1890.9000000953674]","1","2","","","4444","40","0","4","lose","no-go","0"
"pit-trial","159","1096698","0.0-45.0","battery-v0.2","","""event"",""trial"",""time""
""fullscreenenter"",""1"",""3229""
","
","
","""event"",""trial"",""time""
""fullscreenenter"",""1"",""3229""
","
","","","936.9000000953674","","","18","4444","3169","h","elianto","#f73b6a7A"," "," ","1","0","[1790.4000000953674]","1","2","","","4444","41","3","3","lose","go","0"
"pit-trial","160","1100354","0.0-46.0","battery-v0.2","","""event"",""trial"",""time""
""fullscreenenter"",""1"",""3229""
","
","
","""event"",""trial"",""time""
""fullscreenenter"",""1"",""3229""
","
","","","792.8000001907349","","","18","4444","3169","y","elianto","#f73b6a7A","-1"," ","0","-10","[1643.1000003814697]","1","2","","","4444","42","2","4","lose","no-go","0"
"pit-trial","161","1104042","0.0-47.0","battery-v0.2","","""event"",""trial"",""time""
""fullscreenenter"",""1"",""3229""
","
","
","""event"",""trial"",""time""
""fullscreenenter"",""1"",""3229""
","
","","","827.5999999046326","","","18","4444","3169","r","elianto","#3366ff99"," "," ","1","+10","[1679.7999997138977]","1","2","","","4444","43","1","1","win","go","0"
"pit-trial","162","1108179","0.0-48.0","battery-v0.2","","""event"",""trial"",""time""
""fullscreenenter"",""1"",""3229""
","
","
","""event"",""trial"",""time""
""fullscreenenter"",""1"",""3229""
","
","","","1279.0999999046326","","","18","4444","3169","m","elianto","#f73b6a7A","-1"," ","0","-10","[2130]","1","2","","","4444","44","0","4","lose","no-go","0"
"pit-trial","163","1112371","0.0-49.0","battery-v0.2","","""event"",""trial"",""time""
""fullscreenenter"",""1"",""3229""
","
","
","""event"",""trial"",""time""
""fullscreenenter"",""1"",""3229""
","
","","","1326.5999999046326","","","18","4444","3169","h","elianto","#f73b6a7A"," "," ","1","0","[2178.1000003814697]","1","2","","","4444","45","3","3","lose","go","0"
"pit-trial","164","1116698","0.0-50.0","battery-v0.2","","""event"",""trial"",""time""
""fullscreenenter"",""1"",""3229""
","
","
","""event"",""trial"",""time""
""fullscreenenter"",""1"",""3229""
","
","","","1462.5999999046326","","","18","4444","3169","y","elianto","#f73b6a7A","-1"," ","0","-10","[2313.5]","1","2","","","4444","46","2","4","lose","no-go","0"
"pit-trial","165","1121202","0.0-51.0","battery-v0.2","","""event"",""trial"",""time""
""fullscreenenter"",""1"",""3229""
","
","
","""event"",""trial"",""time""
""fullscreenenter"",""1"",""3229""
","
","","","1646.0999999046326","","","18","4444","3169","m","elianto","#f73b6a7A","-1"," ","0","0","[2497.5999999046326]","1","2","","","4444","47","0","4","lose","no-go","1"
"pit-trial","166","1125794","0.0-52.0","battery-v0.2","","""event"",""trial"",""time""
""fullscreenenter"",""1"",""3229""
","
","
","""event"",""trial"",""time""
""fullscreenenter"",""1"",""3229""
","
","","","1724.3999996185303","","","18","4444","3169","z","elianto","#3366ff99","-1"," ","0","+10","[2582.4000000953674]","1","2","","","4444","48","4","2","win","no-go","1"
"pit-trial","167","1130201","0.0-53.0","battery-v0.2","","""event"",""trial"",""time""
""fullscreenenter"",""1"",""3229""
","
","
","""event"",""trial"",""time""
""fullscreenenter"",""1"",""3229""
","
","","","1548.3999996185303","","","18","4444","3169","h","elianto","#f73b6a7A"," "," ","1","0","[2398.5999999046326]","1","2","","","4444","49","3","3","lose","go","0"
"pit-trial","168","1135066","0.0-54.0","battery-v0.2","","""event"",""trial"",""time""
""fullscreenenter"",""1"",""3229""
","
","
","""event"",""trial"",""time""
""fullscreenenter"",""1"",""3229""
","
","","","-1","","","18","4444","3169","m","elianto","#f73b6a7A","-1","-1","1","0","[2954.5999999046326]","1","2","","","4444","50","0","4","lose","no-go","0"
"pit-trial","169","1138690","0.0-55.0","battery-v0.2","","""event"",""trial"",""time""
""fullscreenenter"",""1"",""3229""
","
","
","""event"",""trial"",""time""
""fullscreenenter"",""1"",""3229""
","
","","","764","","","18","4444","3169","r","elianto","#3366ff99"," "," ","1","+10","[1616.3999996185303]","1","2","","","4444","51","1","1","win","go","0"
"pit-trial","170","1142962","0.0-56.0","battery-v0.2","","""event"",""trial"",""time""
""fullscreenenter"",""1"",""3229""
","
","
","""event"",""trial"",""time""
""fullscreenenter"",""1"",""3229""
","
","","","1413.1999998092651","","","18","4444","3169","z","elianto","#3366ff99","-1"," ","0","0","[2265.5]","1","2","","","4444","52","4","2","win","no-go","0"
"pit-trial","171","1147826","0.0-57.0","battery-v0.2","","""event"",""trial"",""time""
""fullscreenenter"",""1"",""3229""
","
","
","""event"",""trial"",""time""
""fullscreenenter"",""1"",""3229""
","
","","","-1","","","18","4444","3169","m","elianto","#f73b6a7A","-1","-1","1","0","[]","0","2","","","4444","53","0","4","lose","no-go","0"
"pit-trial","172","1151489","0.0-58.0","battery-v0.2","","""event"",""trial"",""time""
""fullscreenenter"",""1"",""3229""
","
","
","""event"",""trial"",""time""
""fullscreenenter"",""1"",""3229""
","
","","","803.1999998092651","","","18","4444","3169","z","elianto","#3366ff99","-1"," ","0","0","[1653.3000001907349]","1","2","","","4444","54","4","2","win","no-go","0"
"pit-trial","173","1156139","0.0-59.0","battery-v0.2","","""event"",""trial"",""time""
""fullscreenenter"",""1"",""3229""
","
","
","""event"",""trial"",""time""
""fullscreenenter"",""1"",""3229""
","
","","","1787.6999998092651","","","18","4444","3169","y","elianto","#f73b6a7A","-1"," ","0","0","[2642]","1","2","","","4444","55","2","4","lose","no-go","1"
"pit-trial","174","1159938","0.0-60.0","battery-v0.2","","""event"",""trial"",""time""
""fullscreenenter"",""1"",""3229""
","
","
","""event"",""trial"",""time""
""fullscreenenter"",""1"",""3229""
","
","","","930.6000003814697","","","18","4444","3169","r","elianto","#3366ff99"," "," ","1","+10","[1786.3999996185303]","1","2","","","4444","56","1","1","win","go","0"
"pit-trial","175","1164803","0.0-61.0","battery-v0.2","","""event"",""trial"",""time""
""fullscreenenter"",""1"",""3229""
","
","
","""event"",""trial"",""time""
""fullscreenenter"",""1"",""3229""
","
","","","-1","","","18","4444","3169","m","elianto","#f73b6a7A","-1","-1","1","0","[]","0","2","","","4444","57","0","4","lose","no-go","0"
"pit-trial","176","1169666","0.0-62.0","battery-v0.2","","""event"",""trial"",""time""
""fullscreenenter"",""1"",""3229""
","
","
","""event"",""trial"",""time""
""fullscreenenter"",""1"",""3229""
","
","","","-1","","","18","4444","3169","z","elianto","#3366ff99","-1","-1","1","+10","[]","0","2","","","4444","58","4","2","win","no-go","0"
"pit-trial","177","1173338","0.0-63.0","battery-v0.2","","""event"",""trial"",""time""
""fullscreenenter"",""1"",""3229""
","
","
","""event"",""trial"",""time""
""fullscreenenter"",""1"",""3229""
","
","","","808.7000002861023","","","18","4444","3169","r","elianto","#3366ff99"," "," ","1","+10","[1661.7000002861023]","1","2","","","4444","59","1","1","win","go","0"
"pit-trial","178","1178204","0.0-64.0","battery-v0.2","","""event"",""trial"",""time""
""fullscreenenter"",""1"",""3229""
","
","
","""event"",""trial"",""time""
""fullscreenenter"",""1"",""3229""
","
","","","-1","","","18","4444","3169","h","elianto","#f73b6a7A"," ","-1","0","-10","[]","0","2","","","4444","60","3","3","lose","go","0"
"pit-trial","179","1181786","0.0-65.0","battery-v0.2","","""event"",""trial"",""time""
""fullscreenenter"",""1"",""3229""
","
","
","""event"",""trial"",""time""
""fullscreenenter"",""1"",""3229""
","
","","","724.0999999046326","","","18","4444","3169","h","elianto","#f73b6a7A"," "," ","1","0","[1575.8000001907349]","1","2","","","4444","61","3","3","lose","go","0"
"pit-trial","180","1185571","0.0-66.0","battery-v0.2","","""event"",""trial"",""time""
""fullscreenenter"",""1"",""3229""
","
","
","""event"",""trial"",""time""
""fullscreenenter"",""1"",""3229""
","
","","","921.6999998092651","","","18","4444","3169","r","elianto","#3366ff99"," "," ","1","+10","[1774.0999999046326]","1","2","","","4444","62","1","1","win","go","0"
"pit-trial","181","1189921","0.0-67.0","battery-v0.2","","""event"",""trial"",""time""
""fullscreenenter"",""1"",""3229""
","
","
","""event"",""trial"",""time""
""fullscreenenter"",""1"",""3229""
","
","","","1488.0999999046326","","","18","4444","3169","y","elianto","#f73b6a7A","-1"," ","0","-10","[2340.199999809265]","1","2","","","4444","63","2","4","lose","no-go","0"
"pit-trial","182","1194787","0.0-68.0","battery-v0.2","","""event"",""trial"",""time""
""fullscreenenter"",""1"",""3229""
","
","
","""event"",""trial"",""time""
""fullscreenenter"",""1"",""3229""
","
","","","-1","","","18","4444","3169","z","elianto","#3366ff99","-1","-1","1","+10","[]","0","2","","","4444","64","4","2","win","no-go","0"
"pit-trial","183","1199650","0.0-69.0","battery-v0.2","","""event"",""trial"",""time""
""fullscreenenter"",""1"",""3229""
","
","
","""event"",""trial"",""time""
""fullscreenenter"",""1"",""3229""
","
","","","-1","","","18","4444","3169","y","elianto","#f73b6a7A","-1","-1","1","0","[]","0","2","","","4444","65","2","4","lose","no-go","0"
"pit-trial","184","1203450","0.0-70.0","battery-v0.2","","""event"",""trial"",""time""
""fullscreenenter"",""1"",""3229""
","
","
","""event"",""trial"",""time""
""fullscreenenter"",""1"",""3229""
","
","","","938.6999998092651","","","18","4444","3169","z","elianto","#3366ff99","-1"," ","0","0","[1790.8999996185303]","1","2","","","4444","66","4","2","win","no-go","0"
"pit-trial","185","1207259","0.0-71.0","battery-v0.2","","""event"",""trial"",""time""
""fullscreenenter"",""1"",""3229""
","
","
","""event"",""trial"",""time""
""fullscreenenter"",""1"",""3229""
","
","","","950.2999997138977","","","18","4444","3169","r","elianto","#3366ff99"," "," ","1","+10","[1802.5999999046326]","1","2","","","4444","67","1","1","win","go","0"
"pit-trial","186","1211754","0.0-72.0","battery-v0.2","","""event"",""trial"",""time""
""fullscreenenter"",""1"",""3229""
","
","
","""event"",""trial"",""time""
""fullscreenenter"",""1"",""3229""
","
","","","1639.2000002861023","","","18","4444","3169","h","elianto","#f73b6a7A"," "," ","1","-10","[2489.7000002861023]","1","2","","","4444","68","3","3","lose","go","1"
"pit-trial","187","1215330","0.0-73.0","battery-v0.2","","""event"",""trial"",""time""
""fullscreenenter"",""1"",""3229""
","
","
","""event"",""trial"",""time""
""fullscreenenter"",""1"",""3229""
","
","","","714.9000000953674","","","18","4444","3169","r","elianto","#3366ff99"," "," ","1","+10","[1567.7000002861023]","1","2","","","4444","69","1","1","win","go","0"
"pit-trial","188","1219426","0.0-74.0","battery-v0.2","","""event"",""trial"",""time""
""fullscreenenter"",""1"",""3229""
","
","
","""event"",""trial"",""time""
""fullscreenenter"",""1"",""3229""
","
","","","1236.6999998092651","","","18","4444","3169","h","elianto","#f73b6a7A"," "," ","1","0","[2089.2999997138977]","1","2","","","4444","70","3","3","lose","go","0"
"pit-trial","189","1224289","0.0-75.0","battery-v0.2","","""event"",""trial"",""time""
""fullscreenenter"",""1"",""3229""
","
","
","""event"",""trial"",""time""
""fullscreenenter"",""1"",""3229""
","
","","","-1","","","18","4444","3169","z","elianto","#3366ff99","-1","-1","1","+10","[]","0","2","","","4444","71","4","2","win","no-go","0"
"pit-trial","190","1228497","0.0-76.0","battery-v0.2","","""event"",""trial"",""time""
""fullscreenenter"",""1"",""3229""
","
","
","""event"",""trial"",""time""
""fullscreenenter"",""1"",""3229""
","
","","","1350.5","","","18","4444","3169","c","elianto","#3366ff99"," "," ","1","+10","[2201.5999999046326]","1","2","","","4444","72","5","1","win","go","0"
"pit-trial","191","1233362","0.0-77.0","battery-v0.2","","""event"",""trial"",""time""
""fullscreenenter"",""1"",""3229""
","
","
","""event"",""trial"",""time""
""fullscreenenter"",""1"",""3229""
","
","","","-1","","","18","4444","3169","h","elianto","#f73b6a7A"," ","-1","0","-10","[]","0","2","","","4444","73","3","3","lose","go","0"
"pit-trial","192","1237363","0.0-78.0","battery-v0.2","","""event"",""trial"",""time""
""fullscreenenter"",""1"",""3229""
","
","
","""event"",""trial"",""time""
""fullscreenenter"",""1"",""3229""
","
","","","1140","","","18","4444","3169","c","elianto","#3366ff99"," "," ","1","+10","[1993.0999999046326]","1","2","","","4444","74","5","1","win","go","0"
"pit-trial","193","1242227","0.0-79.0","battery-v0.2","","""event"",""trial"",""time""
""fullscreenenter"",""1"",""3229""
","
","
","""event"",""trial"",""time""
""fullscreenenter"",""1"",""3229""
","
","","","-1","","","18","4444","3169","z","elianto","#3366ff99","-1","-1","1","+10","[]","0","2","","","4444","75","4","2","win","no-go","0"
"pit-trial","194","1245794","0.0-80.0","battery-v0.2","","""event"",""trial"",""time""
""fullscreenenter"",""1"",""3229""
","
","
","""event"",""trial"",""time""
""fullscreenenter"",""1"",""3229""
","
","","","703.8000001907349","","","18","4444","3169","r","elianto","#3366ff99"," "," ","1","+10","[1555]","1","2","","","4444","76","1","1","win","go","0"
"pit-trial","195","1249762","0.0-81.0","battery-v0.2","","""event"",""trial"",""time""
""fullscreenenter"",""1"",""3229""
","
","
","""event"",""trial"",""time""
""fullscreenenter"",""1"",""3229""
","
","","","1106.5","","","18","4444","3169","c","elianto","#3366ff99"," "," ","1","+10","[1958.4000000953674]","1","2","","","4444","77","5","1","win","go","0"
"pit-trial","196","1254626","0.0-82.0","battery-v0.2","","""event"",""trial"",""time""
""fullscreenenter"",""1"",""3229""
","
","
","""event"",""trial"",""time""
""fullscreenenter"",""1"",""3229""
","
","","","-1","","","18","4444","3169","z","elianto","#3366ff99","-1","-1","1","+10","[]","0","2","","","4444","78","4","2","win","no-go","0"
"pit-trial","197","1258714","0.0-83.0","battery-v0.2","","""event"",""trial"",""time""
""fullscreenenter"",""1"",""3229""
","
","
","""event"",""trial"",""time""
""fullscreenenter"",""1"",""3229""
","
","","","1226.1999998092651","","","18","4444","3169","b","elianto","#f73b6a7A","-1"," ","0","-10","[2078.699999809265]","1","2","","","4444","79","6","4","lose","no-go","0"
"pit-trial","198","1263019","0.0-84.0","battery-v0.2","","""event"",""trial"",""time""
""fullscreenenter"",""1"",""3229""
","
","
","""event"",""trial"",""time""
""fullscreenenter"",""1"",""3229""
","
","","","1444.0999999046326","","","18","4444","3169","h","elianto","#f73b6a7A"," "," ","1","0","[2295.699999809265]","1","2","","","4444","80","3","3","lose","go","0"
"pit-trial","199","1267538","0.0-85.0","battery-v0.2","","""event"",""trial"",""time""
""fullscreenenter"",""1"",""3229""
","
","
","""event"",""trial"",""time""
""fullscreenenter"",""1"",""3229""
","
","","","1657","","","18","4444","3169","t","elianto","#f73b6a7A"," "," ","1","0","[2508.9000000953674]","1","2","","","4444","81","7","3","lose","go","0"
"pit-trial","200","1272403","0.0-86.0","battery-v0.2","","""event"",""trial"",""time""
""fullscreenenter"",""1"",""3229""
","
","
","""event"",""trial"",""time""
""fullscreenenter"",""1"",""3229""
","
","","","-1","","","18","4444","3169","c","elianto","#3366ff99"," ","-1","0","0","[]","0","2","","","4444","82","5","1","win","go","0"
"pit-trial","201","1277266","0.0-87.0","battery-v0.2","","""event"",""trial"",""time""
""fullscreenenter"",""1"",""3229""
","
","
","""event"",""trial"",""time""
""fullscreenenter"",""1"",""3229""
","
","","","-1","","","18","4444","3169","z","elianto","#3366ff99","-1","-1","1","+10","[]","0","2","","","4444","83","4","2","win","no-go","0"
"pit-trial","202","1282130","0.0-88.0","battery-v0.2","","""event"",""trial"",""time""
""fullscreenenter"",""1"",""3229""
","
","
","""event"",""trial"",""time""
""fullscreenenter"",""1"",""3229""
","
","","","-1","","","18","4444","3169","b","elianto","#f73b6a7A","-1","-1","1","-10","[]","0","2","","","4444","84","6","4","lose","no-go","1"
"pit-trial","203","1286995","0.0-89.0","battery-v0.2","","""event"",""trial"",""time""
""fullscreenenter"",""1"",""3229""
","
","
","""event"",""trial"",""time""
""fullscreenenter"",""1"",""3229""
","
","","","-1","","","18","4444","3169","z","elianto","#3366ff99","-1","-1","1","+10","[]","0","2","","","4444","85","4","2","win","no-go","0"
"pit-trial","204","1291739","0.0-90.0","battery-v0.2","","""event"",""trial"",""time""
""fullscreenenter"",""1"",""3229""
","
","
","""event"",""trial"",""time""
""fullscreenenter"",""1"",""3229""
","
","","","1886.1999998092651","","","18","4444","3169","c","elianto","#3366ff99"," "," ","1","+10","[2738.0999999046326]","1","2","","","4444","86","5","1","win","go","0"
"pit-trial","205","1295276","0.0-91.0","battery-v0.2","","""event"",""trial"",""time""
""fullscreenenter"",""1"",""3229""
","
","
","""event"",""trial"",""time""
""fullscreenenter"",""1"",""3229""
","
","","","675.1999998092651","","","18","4444","3169","b","elianto","#f73b6a7A","-1"," ","0","-10","[1526.6999998092651]","1","2","","","4444","87","6","4","lose","no-go","0"
"pit-trial","206","1300139","0.0-92.0","battery-v0.2","","""event"",""trial"",""time""
""fullscreenenter"",""1"",""3229""
","
","
","""event"",""trial"",""time""
""fullscreenenter"",""1"",""3229""
","
","","","-1","","","18","4444","3169","t","elianto","#f73b6a7A"," ","-1","0","-10","[]","0","2","","","4444","88","7","3","lose","go","0"
"pit-trial","207","1303795","0.0-93.0","battery-v0.2","","""event"",""trial"",""time""
""fullscreenenter"",""1"",""3229""
","
","
","""event"",""trial"",""time""
""fullscreenenter"",""1"",""3229""
","
","","","798.4000000953674","","","18","4444","3169","c","elianto","#3366ff99"," "," ","1","0","[1648.6999998092651]","1","2","","","4444","89","5","1","win","go","1"
"pit-trial","208","1308659","0.0-94.0","battery-v0.2","","""event"",""trial"",""time""
""fullscreenenter"",""1"",""3229""
","
","
","""event"",""trial"",""time""
""fullscreenenter"",""1"",""3229""
","
","","","-1","","","18","4444","3169","z","elianto","#3366ff99","-1","-1","1","+10","[]","0","2","","","4444","90","4","2","win","no-go","0"
"pit-trial","209","1312906","0.0-95.0","battery-v0.2","","""event"",""trial"",""time""
""fullscreenenter"",""1"",""3229""
","
","
","""event"",""trial"",""time""
""fullscreenenter"",""1"",""3229""
","
","","","1388.0999999046326","","","18","4444","3169","t","elianto","#f73b6a7A"," "," ","1","0","[2238.9000000953674]","1","2","","","4444","91","7","3","lose","go","0"
"pit-trial","210","1316867","0.0-96.0","battery-v0.2","","""event"",""trial"",""time""
""fullscreenenter"",""1"",""3229""
","
","
","""event"",""trial"",""time""
""fullscreenenter"",""1"",""3229""
","
","","","1102.9000000953674","","","18","4444","3169","b","elianto","#f73b6a7A","-1"," ","0","-10","[1953.6000003814697]","1","2","","","4444","92","6","4","lose","no-go","0"
"pit-trial","211","1321194","0.0-97.0","battery-v0.2","","""event"",""trial"",""time""
""fullscreenenter"",""1"",""3229""
","
","
","""event"",""trial"",""time""
""fullscreenenter"",""1"",""3229""
","
","","","1469.8999996185303","","","18","4444","3169","f","elianto","#3366ff99","-1"," ","0","+10","[2321]","1","2","","","4444","93","8","2","win","no-go","1"
"pit-trial","212","1325171","0.0-98.0","battery-v0.2","","""event"",""trial"",""time""
""fullscreenenter"",""1"",""3229""
","
","
","""event"",""trial"",""time""
""fullscreenenter"",""1"",""3229""
","
","","","1112.0999999046326","","","18","4444","3169","c","elianto","#3366ff99"," "," ","1","+10","[1964.5999999046326]","1","2","","","4444","94","5","1","win","go","0"
"pit-trial","213","1329235","0.0-99.0","battery-v0.2","","""event"",""trial"",""time""
""fullscreenenter"",""1"",""3229""
","
","
","""event"",""trial"",""time""
""fullscreenenter"",""1"",""3229""
","
","","","1201.2999997138977","","","18","4444","3169","t","elianto","#f73b6a7A"," "," ","1","-10","[2054.3999996185303]","1","2","","","4444","95","7","3","lose","go","1"
"pit-trial","214","1333106","0.0-100.0","battery-v0.2","","""event"",""trial"",""time""
""fullscreenenter"",""1"",""3229""
","
","
","""event"",""trial"",""time""
""fullscreenenter"",""1"",""3229""
","
","","","1013.7000002861023","","","18","4444","3169","b","elianto","#f73b6a7A","-1"," ","0","-10","[1865]","1","2","","","4444","96","6","4","lose","no-go","0"
"pit-trial","215","1337018","0.0-101.0","battery-v0.2","","""event"",""trial"",""time""
""fullscreenenter"",""1"",""3229""
","
","
","""event"",""trial"",""time""
""fullscreenenter"",""1"",""3229""
","
","","","1047","","","18","4444","3169","c","elianto","#3366ff99"," "," ","1","0","[1900.0999999046326]","1","2","","","4444","97","5","1","win","go","1"
"pit-trial","216","1341018","0.0-102.0","battery-v0.2","","""event"",""trial"",""time""
""fullscreenenter"",""1"",""3229""
","
","
","""event"",""trial"",""time""
""fullscreenenter"",""1"",""3229""
","
","","","1138.8000001907349","","","18","4444","3169","t","elianto","#f73b6a7A"," "," ","1","0","[1990.3000001907349]","1","2","","","4444","98","7","3","lose","go","0"
"pit-trial","217","1344778","0.0-103.0","battery-v0.2","","""event"",""trial"",""time""
""fullscreenenter"",""1"",""3229""
","
","
","""event"",""trial"",""time""
""fullscreenenter"",""1"",""3229""
","
","","","902.2000002861023","","","18","4444","3169","b","elianto","#f73b6a7A","-1"," ","0","-10","[1755.2000002861023]","1","2","","","4444","99","6","4","lose","no-go","0"
"pit-trial","218","1349643","0.0-104.0","battery-v0.2","","""event"",""trial"",""time""
""fullscreenenter"",""1"",""3229""
","
","
","""event"",""trial"",""time""
""fullscreenenter"",""1"",""3229""
","
","","","-1","","","18","4444","3169","f","elianto","#3366ff99","-1","-1","1","0","[]","0","2","","","4444","100","8","2","win","no-go","1"
"pit-trial","219","1353226","0.0-105.0","battery-v0.2","","""event"",""trial"",""time""
""fullscreenenter"",""1"",""3229""
","
","
","""event"",""trial"",""time""
""fullscreenenter"",""1"",""3229""
","
","","","722.5999999046326","","","18","4444","3169","f","elianto","#3366ff99","-1"," ","0","0","[1574.5999999046326]","1","2","","","4444","101","8","2","win","no-go","0"
"pit-trial","220","1357154","0.0-106.0","battery-v0.2","","""event"",""trial"",""time""
""fullscreenenter"",""1"",""3229""
","
","
","""event"",""trial"",""time""
""fullscreenenter"",""1"",""3229""
","
","","","1069.7000002861023","","","18","4444","3169","b","elianto","#f73b6a7A","-1"," ","0","0","[1921.6999998092651]","1","2","","","4444","102","6","4","lose","no-go","1"
"pit-trial","221","1361146","0.0-107.0","battery-v0.2","","""event"",""trial"",""time""
""fullscreenenter"",""1"",""3229""
","
","
","""event"",""trial"",""time""
""fullscreenenter"",""1"",""3229""
","
","","","1127.7999997138977","","","18","4444","3169","n","elianto","#3366ff99","-1"," ","0","0","[1980.2999997138977]","1","2","","","4444","103","9","2","win","no-go","0"
"pit-trial","222","1364874","0.0-108.0","battery-v0.2","","""event"",""trial"",""time""
""fullscreenenter"",""1"",""3229""
","
","
","""event"",""trial"",""time""
""fullscreenenter"",""1"",""3229""
","
","","","869.6999998092651","","","18","4444","3169","c","elianto","#3366ff99"," "," ","1","+10","[1722.4000000953674]","1","2","","","4444","104","5","1","win","go","0"
"pit-trial","223","1368842","0.0-109.0","battery-v0.2","","""event"",""trial"",""time""
""fullscreenenter"",""1"",""3229""
","
","
","""event"",""trial"",""time""
""fullscreenenter"",""1"",""3229""
","
","","","1106.9000000953674","","","18","4444","3169","n","elianto","#3366ff99","-1"," ","0","0","[1957.2999997138977]","1","2","","","4444","105","9","2","win","no-go","0"
"pit-trial","224","1372722","0.0-110.0","battery-v0.2","","""event"",""trial"",""time""
""fullscreenenter"",""1"",""3229""
","
","
","""event"",""trial"",""time""
""fullscreenenter"",""1"",""3229""
","
","","","1020.0999999046326","","","18","4444","3169","b","elianto","#f73b6a7A","-1"," ","0","0","[1872.8000001907349]","1","2","","","4444","106","6","4","lose","no-go","1"
"pit-trial","225","1376571","0.0-111.0","battery-v0.2","","""event"",""trial"",""time""
""fullscreenenter"",""1"",""3229""
","
","
","""event"",""trial"",""time""
""fullscreenenter"",""1"",""3229""
","
","","","985.3999996185303","","","18","4444","3169","c","elianto","#3366ff99"," "," ","1","0","[1836.6999998092651]","1","2","","","4444","107","5","1","win","go","1"
"pit-trial","226","1380299","0.0-112.0","battery-v0.2","","""event"",""trial"",""time""
""fullscreenenter"",""1"",""3229""
","
","
","""event"",""trial"",""time""
""fullscreenenter"",""1"",""3229""
","
","","","861.6999998092651","","","18","4444","3169","f","elianto","#3366ff99","-1"," ","0","+10","[1714.1999998092651]","1","2","","","4444","108","8","2","win","no-go","1"
"pit-trial","227","1384035","0.0-113.0","battery-v0.2","","""event"",""trial"",""time""
""fullscreenenter"",""1"",""3229""
","
","
","""event"",""trial"",""time""
""fullscreenenter"",""1"",""3229""
","
","","","877.4000000953674","","","18","4444","3169","c","elianto","#3366ff99"," "," ","1","+10","[1728.7999997138977]","1","2","","","4444","109","5","1","win","go","0"
"pit-trial","228","1387651","0.0-114.0","battery-v0.2","","""event"",""trial"",""time""
""fullscreenenter"",""1"",""3229""
","
","
","""event"",""trial"",""time""
""fullscreenenter"",""1"",""3229""
","
","","","754.5","","","18","4444","3169","f","elianto","#3366ff99","-1"," ","0","+10","[1606.5999999046326]","1","2","","","4444","110","8","2","win","no-go","1"
"pit-trial","229","1392515","0.0-115.0","battery-v0.2","","""event"",""trial"",""time""
""fullscreenenter"",""1"",""3229""
","
","
","""event"",""trial"",""time""
""fullscreenenter"",""1"",""3229""
","
","","","-1","","","18","4444","3169","n","elianto","#3366ff99","-1","-1","1","+10","[]","0","2","","","4444","111","9","2","win","no-go","0"
"pit-trial","230","1396547","0.0-116.0","battery-v0.2","","""event"",""trial"",""time""
""fullscreenenter"",""1"",""3229""
","
","
","""event"",""trial"",""time""
""fullscreenenter"",""1"",""3229""
","
","","","1173.9000000953674","","","18","4444","3169","b","elianto","#f73b6a7A","-1"," ","0","0","[2024.5999999046326]","1","2","","","4444","112","6","4","lose","no-go","1"
"pit-trial","231","1401411","0.0-117.0","battery-v0.2","","""event"",""trial"",""time""
""fullscreenenter"",""1"",""3229""
","
","
","""event"",""trial"",""time""
""fullscreenenter"",""1"",""3229""
","
","","","-1","","","18","4444","3169","n","elianto","#3366ff99","-1","-1","1","+10","[]","0","2","","","4444","113","9","2","win","no-go","0"
"pit-trial","232","1405507","0.0-118.0","battery-v0.2","","""event"",""trial"",""time""
""fullscreenenter"",""1"",""3229""
","
","
","""event"",""trial"",""time""
""fullscreenenter"",""1"",""3229""
","
","","","1230.8000001907349","","","18","4444","3169","c","elianto","#3366ff99"," "," ","1","+10","[2083.9000000953674]","1","2","","","4444","114","5","1","win","go","0"
"pit-trial","233","1409611","0.0-119.0","battery-v0.2","","""event"",""trial"",""time""
""fullscreenenter"",""1"",""3229""
","
","
","""event"",""trial"",""time""
""fullscreenenter"",""1"",""3229""
","
","","","1242.0999999046326","","","18","4444","3169","t","elianto","#f73b6a7A"," "," ","1","0","[2093.300000190735]","1","2","","","4444","115","7","3","lose","go","0"
"pit-trial","234","1413426","0.0-120.0","battery-v0.2","","""event"",""trial"",""time""
""fullscreenenter"",""1"",""3229""
","
","
","""event"",""trial"",""time""
""fullscreenenter"",""1"",""3229""
","
","","","957.0999999046326","","","18","4444","3169","f","elianto","#3366ff99","-1"," ","0","0","[1809.4000000953674]","1","2","","","4444","116","8","2","win","no-go","0"
"pit-trial","235","1417130","0.0-121.0","battery-v0.2","","""event"",""trial"",""time""
""fullscreenenter"",""1"",""3229""
","
","
","""event"",""trial"",""time""
""fullscreenenter"",""1"",""3229""
","
","","","843.3000001907349","","","18","4444","3169","f","elianto","#3366ff99","-1"," ","0","0","[1696.3000001907349]","1","2","","","4444","117","8","2","win","no-go","0"
"pit-trial","236","1421034","0.0-122.0","battery-v0.2","","""event"",""trial"",""time""
""fullscreenenter"",""1"",""3229""
","
","
","""event"",""trial"",""time""
""fullscreenenter"",""1"",""3229""
","
","","","1046.5999999046326","","","18","4444","3169","b","elianto","#f73b6a7A","-1"," ","0","-10","[1898.6999998092651]","1","2","","","4444","118","6","4","lose","no-go","0"
"pit-trial","237","1425899","0.0-123.0","battery-v0.2","","""event"",""trial"",""time""
""fullscreenenter"",""1"",""3229""
","
","
","""event"",""trial"",""time""
""fullscreenenter"",""1"",""3229""
","
","","","-1","","","18","4444","3169","n","elianto","#3366ff99","-1","-1","1","0","[]","0","2","","","4444","119","9","2","win","no-go","1"
"pit-trial","238","1430235","0.0-124.0","battery-v0.2","","""event"",""trial"",""time""
""fullscreenenter"",""1"",""3229""
","
","
","""event"",""trial"",""time""
""fullscreenenter"",""1"",""3229""
","
","","","1477.3000001907349","","","18","4444","3169","c","elianto","#3366ff99"," "," ","1","+10","[2329]","1","2","","","4444","120","5","1","win","go","0"
"pit-trial","239","1434435","0.0-125.0","battery-v0.2","","""event"",""trial"",""time""
""fullscreenenter"",""1"",""3229""
","
","
","""event"",""trial"",""time""
""fullscreenenter"",""1"",""3229""
","
","","","1341.6999998092651","","","18","4444","3169","f","elianto","#3366ff99","-1"," ","0","0","[2193.5]","1","2","","","4444","121","8","2","win","no-go","0"
"pit-trial","240","1438946","0.0-126.0","battery-v0.2","","""event"",""trial"",""time""
""fullscreenenter"",""1"",""3229""
","
","
","""event"",""trial"",""time""
""fullscreenenter"",""1"",""3229""
","
","","","1653.1999998092651","","","18","4444","3169","t","elianto","#f73b6a7A"," "," ","1","0","[2504.4000000953674]","1","2","","","4444","122","7","3","lose","go","0"
"pit-trial","241","1443811","0.0-127.0","battery-v0.2","","""event"",""trial"",""time""
""fullscreenenter"",""1"",""3229""
","
","
","""event"",""trial"",""time""
""fullscreenenter"",""1"",""3229""
","
","","","-1","","","18","4444","3169","n","elianto","#3366ff99","-1","-1","1","+10","[]","0","2","","","4444","123","9","2","win","no-go","0"
"pit-trial","242","1447890","0.0-128.0","battery-v0.2","","""event"",""trial"",""time""
""fullscreenenter"",""1"",""3229""
","
","
","""event"",""trial"",""time""
""fullscreenenter"",""1"",""3229""
","
","","","1206.4000000953674","","","18","4444","3169","c","elianto","#3366ff99"," "," ","1","0","[2065.300000190735]","1","2","","","4444","124","5","1","win","go","1"
"pit-trial","243","1451883","0.0-129.0","battery-v0.2","","""event"",""trial"",""time""
""fullscreenenter"",""1"",""3229""
","
","
","""event"",""trial"",""time""
""fullscreenenter"",""1"",""3229""
","
","","","1128.4000000953674","","","18","4444","3169","t","elianto","#f73b6a7A"," "," ","1","0","[1982]","1","2","","","4444","125","7","3","lose","go","0"
"pit-trial","244","1455835","0.0-130.0","battery-v0.2","","""event"",""trial"",""time""
""fullscreenenter"",""1"",""3229""
","
","
","""event"",""trial"",""time""
""fullscreenenter"",""1"",""3229""
","
","","","1092.2000002861023","","","18","4444","3169","b","elianto","#f73b6a7A","-1"," ","0","-10","[1945.0999999046326]","1","2","","","4444","126","6","4","lose","no-go","0"
"pit-trial","245","1460698","0.0-131.0","battery-v0.2","","""event"",""trial"",""time""
""fullscreenenter"",""1"",""3229""
","
","
","""event"",""trial"",""time""
""fullscreenenter"",""1"",""3229""
","
","","","-1","","","18","4444","3169","n","elianto","#3366ff99","-1","-1","1","+10","[]","0","2","","","4444","127","9","2","win","no-go","0"
"pit-trial","246","1465562","0.0-132.0","battery-v0.2","","""event"",""trial"",""time""
""fullscreenenter"",""1"",""3229""
","
","
","""event"",""trial"",""time""
""fullscreenenter"",""1"",""3229""
","
","","","-1","","","18","4444","3169","f","elianto","#3366ff99","-1","-1","1","+10","[]","0","2","","","4444","128","8","2","win","no-go","0"
"pit-trial","247","1470426","0.0-133.0","battery-v0.2","","""event"",""trial"",""time""
""fullscreenenter"",""1"",""3229""
","
","
","""event"",""trial"",""time""
""fullscreenenter"",""1"",""3229""
","
","","","-1","","","18","4444","3169","n","elianto","#3366ff99","-1","-1","1","+10","[]","0","2","","","4444","129","9","2","win","no-go","0"
"pit-trial","248","1475290","0.0-134.0","battery-v0.2","","""event"",""trial"",""time""
""fullscreenenter"",""1"",""3229""
","
","
","""event"",""trial"",""time""
""fullscreenenter"",""1"",""3229""
","
","","","-1","","","18","4444","3169","f","elianto","#3366ff99","-1","-1","1","+10","[]","0","2","","","4444","130","8","2","win","no-go","0"
"pit-trial","249","1480154","0.0-135.0","battery-v0.2","","""event"",""trial"",""time""
""fullscreenenter"",""1"",""3229""
","
","
","""event"",""trial"",""time""
""fullscreenenter"",""1"",""3229""
","
","","","-1","","","18","4444","3169","t","elianto","#f73b6a7A"," ","-1","0","-10","[]","0","2","","","4444","131","7","3","lose","go","0"
"pit-trial","250","1483770","0.0-136.0","battery-v0.2","","""event"",""trial"",""time""
""fullscreenenter"",""1"",""3229""
","
","
","""event"",""trial"",""time""
""fullscreenenter"",""1"",""3229""
","
","","","758.0999999046326","","","18","4444","3169","b","elianto","#f73b6a7A","-1"," ","0","0","[1611]","1","2","","","4444","132","6","4","lose","no-go","1"
"pit-trial","251","1488635","0.0-137.0","battery-v0.2","","""event"",""trial"",""time""
""fullscreenenter"",""1"",""3229""
","
","
","""event"",""trial"",""time""
""fullscreenenter"",""1"",""3229""
","
","","","-1","","","18","4444","3169","f","elianto","#3366ff99","-1","-1","1","+10","[]","0","2","","","4444","133","8","2","win","no-go","0"
"pit-trial","252","1493499","0.0-138.0","battery-v0.2","","""event"",""trial"",""time""
""fullscreenenter"",""1"",""3229""
","
","
","""event"",""trial"",""time""
""fullscreenenter"",""1"",""3229""
","
","","","-1","","","18","4444","3169","n","elianto","#3366ff99","-1","-1","1","0","[]","0","2","","","4444","134","9","2","win","no-go","1"
"pit-trial","253","1498363","0.0-139.0","battery-v0.2","","""event"",""trial"",""time""
""fullscreenenter"",""1"",""3229""
","
","
","""event"",""trial"",""time""
""fullscreenenter"",""1"",""3229""
","
","","","-1","","","18","4444","3169","t","elianto","#f73b6a7A"," ","-1","0","-10","[]","0","2","","","4444","135","7","3","lose","go","0"
"pit-trial","254","1502363","0.0-140.0","battery-v0.2","","""event"",""trial"",""time""
""fullscreenenter"",""1"",""3229""
","
","
","""event"",""trial"",""time""
""fullscreenenter"",""1"",""3229""
","
","","","1141.6999998092651","","","18","4444","3169","b","elianto","#f73b6a7A","-1"," ","0","-10","[1993.4000000953674]","1","2","","","4444","136","6","4","lose","no-go","0"
"pit-trial","255","1506099","0.0-141.0","battery-v0.2","","""event"",""trial"",""time""
""fullscreenenter"",""1"",""3229""
","
","
","""event"",""trial"",""time""
""fullscreenenter"",""1"",""3229""
","
","","","875.0999999046326","","","18","4444","3169","t","elianto","#f73b6a7A"," "," ","1","0","[1727.4000000953674]","1","2","","","4444","137","7","3","lose","go","0"
"pit-trial","256","1510962","0.0-142.0","battery-v0.2","","""event"",""trial"",""time""
""fullscreenenter"",""1"",""3229""
","
","
","""event"",""trial"",""time""
""fullscreenenter"",""1"",""3229""
","
","","","-1","","","18","4444","3169","f","elianto","#3366ff99","-1","-1","1","+10","[]","0","2","","","4444","138","8","2","win","no-go","0"
"pit-trial","257","1515483","0.0-143.0","battery-v0.2","","""event"",""trial"",""time""
""fullscreenenter"",""1"",""3229""
","
","
","""event"",""trial"",""time""
""fullscreenenter"",""1"",""3229""
","
","","","1657.9000000953674","","","18","4444","3169","b","elianto","#f73b6a7A","-1"," ","0","-10","[2510.800000190735]","1","2","","","4444","139","6","4","lose","no-go","0"
"pit-trial","258","1520347","0.0-144.0","battery-v0.2","","""event"",""trial"",""time""
""fullscreenenter"",""1"",""3229""
","
","
","""event"",""trial"",""time""
""fullscreenenter"",""1"",""3229""
","
","","","-1","","","18","4444","3169","n","elianto","#3366ff99","-1","-1","1","+10","[]","0","2","","","4444","140","9","2","win","no-go","0"
"pit-instructions","259","1539607","0.0-145.0","battery-v0.2","","""event"",""trial"",""time""
""fullscreenenter"",""1"",""3229""
","
","
","""event"",""trial"",""time""
""fullscreenenter"",""1"",""3229""
","
","","[{""page_index"":0,""viewing_time"":10691.900000095367},{""page_index"":1,""viewing_time"":8565.299999713898}]","19257.699999809265","","","","","","","","","","","","","","","","","","","","","","","",""
"pit-trial","260","1543915","0.0-146.0","battery-v0.2","","""event"",""trial"",""time""
""fullscreenenter"",""1"",""3229""
","
","
","""event"",""trial"",""time""
""fullscreenenter"",""1"",""3229""
","
","","","1446.5","","","18","4444","3169","d","elianto","#3366ff99","-1"," ","0","0","[2300.300000190735]","1","3","","","4444","141","1","2","win","no-go","0"
"pit-trial","261","1548443","0.0-147.0","battery-v0.2","","""event"",""trial"",""time""
""fullscreenenter"",""1"",""3229""
","
","
","""event"",""trial"",""time""
""fullscreenenter"",""1"",""3229""
","
","","","1669.9000000953674","","","18","4444","3169","w","elianto","#f73b6a7A","-1"," ","0","0","[2521.9000000953674]","1","3","","","4444","142","3","4","lose","no-go","1"
"pit-trial","262","1553306","0.0-148.0","battery-v0.2","","""event"",""trial"",""time""
""fullscreenenter"",""1"",""3229""
","
","
","""event"",""trial"",""time""
""fullscreenenter"",""1"",""3229""
","
","","","-1","","","18","4444","3169","j","elianto","#f73b6a7A"," ","-1","0","-10","[]","0","3","","","4444","143","0","3","lose","go","0"
"pit-trial","263","1557138","0.0-149.0","battery-v0.2","","""event"",""trial"",""time""
""fullscreenenter"",""1"",""3229""
","
","
","""event"",""trial"",""time""
""fullscreenenter"",""1"",""3229""
","
","","","969.8999996185303","","","18","4444","3169","e","elianto","#f73b6a7A"," "," ","1","0","[1824.7999997138977]","1","3","","","4444","144","2","3","lose","go","0"
"pit-trial","264","1561083","0.0-150.0","battery-v0.2","","""event"",""trial"",""time""
""fullscreenenter"",""1"",""3229""
","
","
","""event"",""trial"",""time""
""fullscreenenter"",""1"",""3229""
","
","","","1078.5","","","18","4444","3169","j","elianto","#f73b6a7A"," "," ","1","0","[1932.6999998092651]","1","3","","","4444","145","0","3","lose","go","0"
"pit-trial","265","1564852","0.0-151.0","battery-v0.2","","""event"",""trial"",""time""
""fullscreenenter"",""1"",""3229""
","
","
","""event"",""trial"",""time""
""fullscreenenter"",""1"",""3229""
","
","","","907.7999997138977","","","18","4444","3169","w","elianto","#f73b6a7A","-1"," ","0","-10","[1760.6999998092651]","1","3","","","4444","146","3","4","lose","no-go","0"
"pit-trial","266","1569347","0.0-152.0","battery-v0.2","","""event"",""trial"",""time""
""fullscreenenter"",""1"",""3229""
","
","
