"trial_type","trial_index","time_elapsed","internal_node_id","task_version","subject_id","interactions","blur_events","focus_events","fullscreenenter_events","fullscreenexit_events","success","view_history","rt","responses","num_errors","age","subject","participantId","rune","rune_set","hex","correct","choice","accuracy","outcome","keys","total_keys","block","practice","value","sub","trial","stimulus","robot","valence","action","sham"
"pavlovia","0","8","0.0-0.0","battery-v0.2","","""event"",""trial"",""time""
""fullscreenenter"",""1"",""1525""
","
","
","""event"",""trial"",""time""
""fullscreenenter"",""1"",""1525""
","
","","","","","","","","","","","","","","","","","","","","","","","","","","",""
"fullscreen","1","2492","0.0-1.0","battery-v0.2","","""event"",""trial"",""time""
""fullscreenenter"",""1"",""1525""
","
","
","""event"",""trial"",""time""
""fullscreenenter"",""1"",""1525""
","
","true","","","","","","","","","","","","","","","","","","","","","","","","","",""
"pit-instructions","2","10409","0.0-2.0-0.0","battery-v0.2","","""event"",""trial"",""time""
""fullscreenenter"",""1"",""1525""
","
","
","""event"",""trial"",""time""
""fullscreenenter"",""1"",""1525""
","
","","[{""page_index"":0,""viewing_time"":7910}]","7911","","","","","","","","","","","","","","","","","","","","","","","",""
"pit-comprehension","3","13889","0.0-2.0-1.0-0.0","battery-v0.2","","""event"",""trial"",""time""
""fullscreenenter"",""1"",""1525""
","
","
","""event"",""trial"",""time""
""fullscreenenter"",""1"",""1525""
","
","","","3253","[""shark""]","0","19","11043","5128","","","","","","","","","","","","","","","","","","",""
"pit-instructions","4","15272","0.0-2.0-1.0-1.0","battery-v0.2","","""event"",""trial"",""time""
""fullscreenenter"",""1"",""1525""
","
","
","""event"",""trial"",""time""
""fullscreenenter"",""1"",""1525""
","
","","[{""page_index"":0,""viewing_time"":1378}]","1378","","","","","","","","","","","","","","","","","","","","","","","",""
"pit-comprehension","5","18006","0.0-2.0-2.0-0.0","battery-v0.2","","""event"",""trial"",""time""
""fullscreenenter"",""1"",""1525""
","
","
","""event"",""trial"",""time""
""fullscreenenter"",""1"",""1525""
","
","","","2732","[""tiger""]","0","19","11043","5128","","","","","","","","","","","","","","","","","","",""
"pit-instructions","6","19353","0.0-2.0-2.0-1.0","battery-v0.2","","""event"",""trial"",""time""
""fullscreenenter"",""1"",""1525""
","
","
","""event"",""trial"",""time""
""fullscreenenter"",""1"",""1525""
","
","","[{""page_index"":0,""viewing_time"":1343}]","1343","","","","","","","","","","","","","","","","","","","","","","","",""
"pit-instructions","7","118575","0.0-2.0-3.0","battery-v0.2","","""event"",""trial"",""time""
""fullscreenenter"",""1"",""1525""
","
","
","""event"",""trial"",""time""
""fullscreenenter"",""1"",""1525""
","
","","[{""page_index"":0,""viewing_time"":7768.000000000004},{""page_index"":1,""viewing_time"":6297.999999999996},{""page_index"":2,""viewing_time"":7532.000000000007},{""page_index"":3,""viewing_time"":5151.999999999993},{""page_index"":4,""viewing_time"":5304},{""page_index"":5,""viewing_time"":5678.000000000007},{""page_index"":6,""viewing_time"":7519.999999999993},{""page_index"":7,""viewing_time"":7135},{""page_index"":8,""viewing_time"":7166},{""page_index"":9,""viewing_time"":13369},{""page_index"":10,""viewing_time"":8330},{""page_index"":11,""viewing_time"":6884},{""page_index"":12,""viewing_time"":6584},{""page_index"":13,""viewing_time"":4502}]","99222","","","","","","","","","","","","","","","","","","","","","","","",""
"pit-trial","8","121960","0.0-2.0-4.0-0.0","battery-v0.2","","""event"",""trial"",""time""
""fullscreenenter"",""1"",""1525""
","
","
","""event"",""trial"",""time""
""fullscreenenter"",""1"",""1525""
","
","","","531.9999999999854","","","19","11043","5128","&#9784;","elianto","#FFFFF080"," "," ","1","&#10004","[1381.9999999999854]","1","0","0","","","","","","","",""
"pit-trial","9","125283","0.0-2.0-4.1-0.1","battery-v0.2","","""event"",""trial"",""time""
""fullscreenenter"",""1"",""1525""
","
","
","""event"",""trial"",""time""
""fullscreenenter"",""1"",""1525""
","
","","","467","","","19","11043","5128","&#9784;","elianto","#FFFFF080"," "," ","1","&#10004","[1318]","1","0","0","","","","","","","",""
"pit-trial","10","128751","0.0-2.0-4.2-0.2","battery-v0.2","","""event"",""trial"",""time""
""fullscreenenter"",""1"",""1525""
","
","
","""event"",""trial"",""time""
""fullscreenenter"",""1"",""1525""
","
","","","607","","","19","11043","5128","&#9784;","elianto","#FFFFF080"," "," ","1","&#10004","[1458]","1","0","0","","","","","","","",""
"pit-trial","11","132194","0.0-2.0-4.3-0.3","battery-v0.2","","""event"",""trial"",""time""
""fullscreenenter"",""1"",""1525""
","
","
","""event"",""trial"",""time""
""fullscreenenter"",""1"",""1525""
","
","","","585","","","19","11043","5128","&#9784;","elianto","#FFFFF080"," "," ","1","&#10004","[1436]","1","0","0","","","","","","","",""
"pit-trial","12","135532","0.0-2.0-4.4-0.4","battery-v0.2","","""event"",""trial"",""time""
""fullscreenenter"",""1"",""1525""
","
","
","""event"",""trial"",""time""
""fullscreenenter"",""1"",""1525""
","
","","","479","","","19","11043","5128","&#9784;","elianto","#FFFFF080"," "," ","1","&#10004","[1330]","1","0","0","","","","","","","",""
"pit-instructions","13","156041","0.0-2.0-5.0","battery-v0.2","","""event"",""trial"",""time""
""fullscreenenter"",""1"",""1525""
","
","
","""event"",""trial"",""time""
""fullscreenenter"",""1"",""1525""
","
","","[{""page_index"":0,""viewing_time"":4718.999999999971},{""page_index"":1,""viewing_time"":5100},{""page_index"":2,""viewing_time"":4918},{""page_index"":3,""viewing_time"":5765}]","20501.99999999997","","","","","","","","","","","","","","","","","","","","","","","",""
"pit-trial","14","160896","0.0-2.0-6.0-0.0","battery-v0.2","","""event"",""trial"",""time""
""fullscreenenter"",""1"",""1525""
","
","
","""event"",""trial"",""time""
""fullscreenenter"",""1"",""1525""
","
","","","-1","","","19","11043","5128","&#9854;","elianto","#FFFFF080","-1","-1","1","&#10004","[]","0","0","1","","","","","","","",""
"pit-trial","15","165756","0.0-2.0-6.1-0.1","battery-v0.2","","""event"",""trial"",""time""
""fullscreenenter"",""1"",""1525""
","
","
","""event"",""trial"",""time""
""fullscreenenter"",""1"",""1525""
","
","","","-1","","","19","11043","5128","&#9854;","elianto","#FFFFF080","-1","-1","1","&#10004","[]","0","0","1","","","","","","","",""
"pit-trial","16","170615","0.0-2.0-6.2-0.2","battery-v0.2","","""event"",""trial"",""time""
""fullscreenenter"",""1"",""1525""
","
","
","""event"",""trial"",""time""
""fullscreenenter"",""1"",""1525""
","
","","","-1","","","19","11043","5128","&#9854;","elianto","#FFFFF080","-1","-1","1","&#10004","[]","0","0","1","","","","","","","",""
"pit-trial","17","175473","0.0-2.0-6.3-0.3","battery-v0.2","","""event"",""trial"",""time""
""fullscreenenter"",""1"",""1525""
","
","
","""event"",""trial"",""time""
""fullscreenenter"",""1"",""1525""
","
","","","-1","","","19","11043","5128","&#9854;","elianto","#FFFFF080","-1","-1","1","&#10004","[]","0","0","1","","","","","","","",""
"pit-trial","18","180334","0.0-2.0-6.4-0.4","battery-v0.2","","""event"",""trial"",""time""
""fullscreenenter"",""1"",""1525""
","
","
","""event"",""trial"",""time""
""fullscreenenter"",""1"",""1525""
","
","","","-1","","","19","11043","5128","&#9854;","elianto","#FFFFF080","-1","-1","1","&#10004","[]","0","0","1","","","","","","","",""
"pit-instructions","19","328323","0.0-2.0-7.0","battery-v0.2","","""event"",""trial"",""time""
""fullscreenenter"",""1"",""1525""
","
","
","""event"",""trial"",""time""
""fullscreenenter"",""1"",""1525""
","
","","[{""page_index"":0,""viewing_time"":5498},{""page_index"":1,""viewing_time"":8432},{""page_index"":2,""viewing_time"":6268},{""page_index"":3,""viewing_time"":6553},{""page_index"":4,""viewing_time"":5347},{""page_index"":5,""viewing_time"":5668},{""page_index"":6,""viewing_time"":4117},{""page_index"":7,""viewing_time"":7220},{""page_index"":8,""viewing_time"":8266.00000000003},{""page_index"":9,""viewing_time"":7714},{""page_index"":10,""viewing_time"":6866.999999999971},{""page_index"":9,""viewing_time"":5520},{""page_index"":10,""viewing_time"":6015.000000000058},{""page_index"":11,""viewing_time"":6768.999999999942},{""page_index"":12,""viewing_time"":13831},{""page_index"":13,""viewing_time"":9184},{""page_index"":14,""viewing_time"":8533},{""page_index"":15,""viewing_time"":7483},{""page_index"":16,""viewing_time"":7551.000000000058},{""page_index"":17,""viewing_time"":11150.999999999942}]","147987","","","","","","","","","","","","","","","","","","","","","","","",""
"pit-trial","20","332780","0.0-2.0-8.0-0.0","battery-v0.2","","""event"",""trial"",""time""
""fullscreenenter"",""1"",""1525""
","
","
","""event"",""trial"",""time""
""fullscreenenter"",""1"",""1525""
","
","","","1603","","","19","11043","5128","&#9776;","elianto","#3366ff99"," "," ","1","+10","[2453]","1","0","1","","","","","","","",""
"pit-trial","21","336222","0.0-2.0-8.0-1.0","battery-v0.2","","""event"",""trial"",""time""
""fullscreenenter"",""1"",""1525""
","
","
","""event"",""trial"",""time""
""fullscreenenter"",""1"",""1525""
","
","","","588","","","19","11043","5128","&#9776;","elianto","#3366ff99"," "," ","1","+10","[1439]","1","0","1","","","","","","","",""
"pit-trial","22","339646","0.0-2.0-8.0-2.0","battery-v0.2","","""event"",""trial"",""time""
""fullscreenenter"",""1"",""1525""
","
","
","""event"",""trial"",""time""
""fullscreenenter"",""1"",""1525""
","
","","","570","","","19","11043","5128","&#9776;","elianto","#3366ff99"," "," ","1","+10","[1420]","1","0","1","","","","","","","",""
"pit-trial","23","342987","0.0-2.0-8.0-3.0","battery-v0.2","","""event"",""trial"",""time""
""fullscreenenter"",""1"",""1525""
","
","
","""event"",""trial"",""time""
""fullscreenenter"",""1"",""1525""
","
","","","482","","","19","11043","5128","&#9776;","elianto","#3366ff99"," "," ","1","0","[1333]","1","0","1","","","","","","","",""
"pit-trial","24","346374","0.0-2.0-8.0-4.0","battery-v0.2","","""event"",""trial"",""time""
""fullscreenenter"",""1"",""1525""
","
","
","""event"",""trial"",""time""
""fullscreenenter"",""1"",""1525""
","
","","","530","","","19","11043","5128","&#9776;","elianto","#3366ff99"," "," ","1","+10","[1380]","1","0","1","","","","","","","",""
"pit-trial","25","349747","0.0-2.0-8.1-0.1","battery-v0.2","","""event"",""trial"",""time""
""fullscreenenter"",""1"",""1525""
","
","
","""event"",""trial"",""time""
""fullscreenenter"",""1"",""1525""
","
","","","513.9999999999418","","","19","11043","5128","&#9776;","elianto","#3366ff99"," "," ","1","+10","[1364.9999999999418]","1","0","1","","","","","","","",""
"pit-trial","26","353188","0.0-2.0-8.1-1.1","battery-v0.2","","""event"",""trial"",""time""
""fullscreenenter"",""1"",""1525""
","
","
","""event"",""trial"",""time""
""fullscreenenter"",""1"",""1525""
","
","","","581","","","19","11043","5128","&#9776;","elianto","#3366ff99"," "," ","1","+10","[1433]","1","0","1","","","","","","","",""
"pit-trial","27","356520","0.0-2.0-8.1-2.1","battery-v0.2","","""event"",""trial"",""time""
""fullscreenenter"",""1"",""1525""
","
","
","""event"",""trial"",""time""
""fullscreenenter"",""1"",""1525""
","
","","","474","","","19","11043","5128","&#9776;","elianto","#3366ff99"," "," ","1","+10","[1325]","1","0","1","","","","","","","",""
"pit-trial","28","359855","0.0-2.0-8.1-3.1","battery-v0.2","","""event"",""trial"",""time""
""fullscreenenter"",""1"",""1525""
","
","
","""event"",""trial"",""time""
""fullscreenenter"",""1"",""1525""
","
","","","482","","","19","11043","5128","&#9776;","elianto","#3366ff99"," "," ","1","0","[1331.9999999999418]","1","0","1","","","","","","","",""
"pit-trial","29","363166","0.0-2.0-8.1-4.1","battery-v0.2","","""event"",""trial"",""time""
""fullscreenenter"",""1"",""1525""
","
","
","""event"",""trial"",""time""
""fullscreenenter"",""1"",""1525""
","
","","","453","","","19","11043","5128","&#9776;","elianto","#3366ff99"," "," ","1","+10","[1304]","1","0","1","","","","","","","",""
"pit-trial","30","366608","0.0-2.0-8.2-0.2","battery-v0.2","","""event"",""trial"",""time""
""fullscreenenter"",""1"",""1525""
","
","
","""event"",""trial"",""time""
""fullscreenenter"",""1"",""1525""
","
","","","584","","","19","11043","5128","&#9776;","elianto","#3366ff99"," "," ","1","+10","[1434.0000000000582]","1","0","1","","","","","","","",""
"pit-trial","31","369910","0.0-2.0-8.2-1.2","battery-v0.2","","""event"",""trial"",""time""
""fullscreenenter"",""1"",""1525""
","
","
","""event"",""trial"",""time""
""fullscreenenter"",""1"",""1525""
","
","","","443","","","19","11043","5128","&#9776;","elianto","#3366ff99"," "," ","1","+10","[1294]","1","0","1","","","","","","","",""
"pit-trial","32","373188","0.0-2.0-8.2-2.2","battery-v0.2","","""event"",""trial"",""time""
""fullscreenenter"",""1"",""1525""
","
","
","""event"",""trial"",""time""
""fullscreenenter"",""1"",""1525""
","
","","","420","","","19","11043","5128","&#9776;","elianto","#3366ff99"," "," ","1","+10","[1269.9999999999418]","1","0","1","","","","","","","",""
"pit-trial","33","376602","0.0-2.0-8.2-3.2","battery-v0.2","","""event"",""trial"",""time""
""fullscreenenter"",""1"",""1525""
","
","
","""event"",""trial"",""time""
""fullscreenenter"",""1"",""1525""
","
","","","557","","","19","11043","5128","&#9776;","elianto","#3366ff99"," "," ","1","0","[1407]","1","0","1","","","","","","","",""
"pit-trial","34","379901","0.0-2.0-8.2-4.2","battery-v0.2","","""event"",""trial"",""time""
""fullscreenenter"",""1"",""1525""
","
","
","""event"",""trial"",""time""
""fullscreenenter"",""1"",""1525""
","
","","","441","","","19","11043","5128","&#9776;","elianto","#3366ff99"," "," ","1","+10","[1291]","1","0","1","","","","","","","",""
"call-function","35","379906","0.0-2.0-9.0","battery-v0.2","","""event"",""trial"",""time""
""fullscreenenter"",""1"",""1525""
","
","
","""event"",""trial"",""time""
""fullscreenenter"",""1"",""1525""
","
","","","","","","","","","","","","","","","","","","","","","","","","","","",""
"pit-instructions","36","419108","0.0-2.0-10.0","battery-v0.2","","""event"",""trial"",""time""
""fullscreenenter"",""1"",""1525""
","
","
","""event"",""trial"",""time""
""fullscreenenter"",""1"",""1525""
","
","","[{""page_index"":0,""viewing_time"":5568},{""page_index"":1,""viewing_time"":6998},{""page_index"":2,""viewing_time"":10583},{""page_index"":3,""viewing_time"":8720},{""page_index"":4,""viewing_time"":7333}]","39203","","","","","","","","","","","","","","","","","","","","","","","",""
"pit-trial","37","422583","0.0-2.0-11.0-0.0","battery-v0.2","","""event"",""trial"",""time""
""fullscreenenter"",""1"",""1525""
","
","
","""event"",""trial"",""time""
""fullscreenenter"",""1"",""1525""
","
","","","619","","","19","11043","5128","&#9761;","elianto","#3366ff99","-1"," ","0","0","[1470]","1","0","2","","","","","","","",""
"pit-trial","38","426130","0.0-2.0-11.0-1.0","battery-v0.2","","""event"",""trial"",""time""
""fullscreenenter"",""1"",""1525""
","
","
","""event"",""trial"",""time""
""fullscreenenter"",""1"",""1525""
","
","","","689.0000000000582","","","19","11043","5128","&#9761;","elianto","#3366ff99","-1"," ","0","0","[1539.0000000000582]","1","0","2","","","","","","","",""
"pit-trial","39","430989","0.0-2.0-11.0-2.0","battery-v0.2","","""event"",""trial"",""time""
""fullscreenenter"",""1"",""1525""
","
","
","""event"",""trial"",""time""
""fullscreenenter"",""1"",""1525""
","
","","","-1","","","19","11043","5128","&#9761;","elianto","#3366ff99","-1","-1","1","+10","[]","0","0","2","","","","","","","",""
"pit-trial","40","434300","0.0-2.0-11.0-3.0","battery-v0.2","","""event"",""trial"",""time""
""fullscreenenter"",""1"",""1525""
","
","
","""event"",""trial"",""time""
""fullscreenenter"",""1"",""1525""
","
","","","454","","","19","11043","5128","&#9761;","elianto","#3366ff99","-1"," ","0","+10","[129,1305]","2","0","2","","","","","","","",""
"pit-trial","41","437842","0.0-2.0-11.0-4.0","battery-v0.2","","""event"",""trial"",""time""
""fullscreenenter"",""1"",""1525""
","
","
","""event"",""trial"",""time""
""fullscreenenter"",""1"",""1525""
","
","","","683.9999999999418","","","19","11043","5128","&#9761;","elianto","#3366ff99","-1"," ","0","0","[1534.9999999999418]","1","0","2","","","","","","","",""
"pit-trial","42","441090","0.0-2.0-11.1-0.1","battery-v0.2","","""event"",""trial"",""time""
""fullscreenenter"",""1"",""1525""
","
","
","""event"",""trial"",""time""
""fullscreenenter"",""1"",""1525""
","
","","","388","","","19","11043","5128","&#9761;","elianto","#3366ff99","-1"," ","0","0","[1238]","1","0","2","","","","","","","",""
"pit-trial","43","445949","0.0-2.0-11.1-1.1","battery-v0.2","","""event"",""trial"",""time""
""fullscreenenter"",""1"",""1525""
","
","
","""event"",""trial"",""time""
""fullscreenenter"",""1"",""1525""
","
","","","-1","","","19","11043","5128","&#9761;","elianto","#3366ff99","-1","-1","1","+10","[]","0","0","2","","","","","","","",""
"pit-trial","44","450807","0.0-2.0-11.1-2.1","battery-v0.2","","""event"",""trial"",""time""
""fullscreenenter"",""1"",""1525""
","
","
","""event"",""trial"",""time""
""fullscreenenter"",""1"",""1525""
","
","","","-1","","","19","11043","5128","&#9761;","elianto","#3366ff99","-1","-1","1","+10","[]","0","0","2","","","","","","","",""
"pit-trial","45","455665","0.0-2.0-11.1-3.1","battery-v0.2","","""event"",""trial"",""time""
""fullscreenenter"",""1"",""1525""
","
","
","""event"",""trial"",""time""
""fullscreenenter"",""1"",""1525""
","
","","","-1","","","19","11043","5128","&#9761;","elianto","#3366ff99","-1","-1","1","0","[]","0","0","2","","","","","","","",""
"pit-trial","46","460524","0.0-2.0-11.1-4.1","battery-v0.2","","""event"",""trial"",""time""
""fullscreenenter"",""1"",""1525""
","
","
","""event"",""trial"",""time""
""fullscreenenter"",""1"",""1525""
","
","","","-1","","","19","11043","5128","&#9761;","elianto","#3366ff99","-1","-1","1","+10","[]","0","0","2","","","","","","","",""
"pit-trial","47","465383","0.0-2.0-11.2-0.2","battery-v0.2","","""event"",""trial"",""time""
""fullscreenenter"",""1"",""1525""
","
","
","""event"",""trial"",""time""
""fullscreenenter"",""1"",""1525""
","
","","","-1","","","19","11043","5128","&#9761;","elianto","#3366ff99","-1","-1","1","+10","[]","0","0","2","","","","","","","",""
"pit-trial","48","470241","0.0-2.0-11.2-1.2","battery-v0.2","","""event"",""trial"",""time""
""fullscreenenter"",""1"",""1525""
","
","
","""event"",""trial"",""time""
""fullscreenenter"",""1"",""1525""
","
","","","-1","","","19","11043","5128","&#9761;","elianto","#3366ff99","-1","-1","1","+10","[]","0","0","2","","","","","","","",""
"pit-trial","49","475099","0.0-2.0-11.2-2.2","battery-v0.2","","""event"",""trial"",""time""
""fullscreenenter"",""1"",""1525""
","
","
","""event"",""trial"",""time""
""fullscreenenter"",""1"",""1525""
","
","","","-1","","","19","11043","5128","&#9761;","elianto","#3366ff99","-1","-1","1","+10","[]","0","0","2","","","","","","","",""
"pit-trial","50","479959","0.0-2.0-11.2-3.2","battery-v0.2","","""event"",""trial"",""time""
""fullscreenenter"",""1"",""1525""
","
","
","""event"",""trial"",""time""
""fullscreenenter"",""1"",""1525""
","
","","","-1","","","19","11043","5128","&#9761;","elianto","#3366ff99","-1","-1","1","0","[]","0","0","2","","","","","","","",""
"pit-trial","51","484817","0.0-2.0-11.2-4.2","battery-v0.2","","""event"",""trial"",""time""
""fullscreenenter"",""1"",""1525""
","
","
","""event"",""trial"",""time""
""fullscreenenter"",""1"",""1525""
","
","","","-1","","","19","11043","5128","&#9761;","elianto","#3366ff99","-1","-1","1","+10","[]","0","0","2","","","","","","","",""
"pit-trial","52","489678","0.0-2.0-11.3-0.3","battery-v0.2","","""event"",""trial"",""time""
""fullscreenenter"",""1"",""1525""
","
","
","""event"",""trial"",""time""
""fullscreenenter"",""1"",""1525""
","
","","","-1","","","19","11043","5128","&#9761;","elianto","#3366ff99","-1","-1","1","+10","[]","0","0","2","","","","","","","",""
"pit-trial","53","494536","0.0-2.0-11.3-1.3","battery-v0.2","","""event"",""trial"",""time""
""fullscreenenter"",""1"",""1525""
","
","
","""event"",""trial"",""time""
""fullscreenenter"",""1"",""1525""
","
","","","-1","","","19","11043","5128","&#9761;","elianto","#3366ff99","-1","-1","1","+10","[]","0","0","2","","","","","","","",""
"pit-trial","54","499395","0.0-2.0-11.3-2.3","battery-v0.2","","""event"",""trial"",""time""
""fullscreenenter"",""1"",""1525""
","
","
","""event"",""trial"",""time""
""fullscreenenter"",""1"",""1525""
","
","","","-1","","","19","11043","5128","&#9761;","elianto","#3366ff99","-1","-1","1","+10","[]","0","0","2","","","","","","","",""
"pit-trial","55","504252","0.0-2.0-11.3-3.3","battery-v0.2","","""event"",""trial"",""time""
""fullscreenenter"",""1"",""1525""
","
","
","""event"",""trial"",""time""
""fullscreenenter"",""1"",""1525""
","
","","","-1","","","19","11043","5128","&#9761;","elianto","#3366ff99","-1","-1","1","0","[]","0","0","2","","","","","","","",""
"pit-trial","56","509111","0.0-2.0-11.3-4.3","battery-v0.2","","""event"",""trial"",""time""
""fullscreenenter"",""1"",""1525""
","
","
","""event"",""trial"",""time""
""fullscreenenter"",""1"",""1525""
","
","","","-1","","","19","11043","5128","&#9761;","elianto","#3366ff99","-1","-1","1","+10","[]","0","0","2","","","","","","","",""
"call-function","57","509116","0.0-2.0-12.0","battery-v0.2","","""event"",""trial"",""time""
""fullscreenenter"",""1"",""1525""
","
","
","""event"",""trial"",""time""
""fullscreenenter"",""1"",""1525""
","
","","","","","","","","","","","","","","","","","","","","","","","","","","",""
"pit-instructions","58","546693","0.0-2.0-13.0","battery-v0.2","","""event"",""trial"",""time""
""fullscreenenter"",""1"",""1525""
","
","
","""event"",""trial"",""time""
""fullscreenenter"",""1"",""1525""
","
","","[{""page_index"":0,""viewing_time"":6175},{""page_index"":1,""viewing_time"":7680.999999999884},{""page_index"":2,""viewing_time"":4837.000000000058},{""page_index"":3,""viewing_time"":14283},{""page_index"":4,""viewing_time"":4601}]","37576.99999999994","","","","","","","","","","","","","","","","","","","","","","","",""
"pit-trial","59","551550","0.0-2.0-14.0-0.0","battery-v0.2","","""event"",""trial"",""time""
""fullscreenenter"",""1"",""1525""
","
","
","""event"",""trial"",""time""
""fullscreenenter"",""1"",""1525""
","
","","","-1","","","19","11043","5128","&#9826;","elianto","#f73b6a7A","-1","-1","1","0","[]","0","0","3","","","","","","","",""
"pit-trial","60","556409","0.0-2.0-14.0-1.0","battery-v0.2","","""event"",""trial"",""time""
""fullscreenenter"",""1"",""1525""
","
","
","""event"",""trial"",""time""
""fullscreenenter"",""1"",""1525""
","
","","","-1","","","19","11043","5128","&#9826;","elianto","#f73b6a7A","-1","-1","1","0","[]","0","0","3","","","","","","","",""
"pit-trial","61","561267","0.0-2.0-14.0-2.0","battery-v0.2","","""event"",""trial"",""time""
""fullscreenenter"",""1"",""1525""
","
","
","""event"",""trial"",""time""
""fullscreenenter"",""1"",""1525""
","
","","","-1","","","19","11043","5128","&#9826;","elianto","#f73b6a7A","-1","-1","1","0","[]","0","0","3","","","","","","","",""
"pit-trial","62","566126","0.0-2.0-14.0-3.0","battery-v0.2","","""event"",""trial"",""time""
""fullscreenenter"",""1"",""1525""
","
","
","""event"",""trial"",""time""
""fullscreenenter"",""1"",""1525""
","
","","","-1","","","19","11043","5128","&#9826;","elianto","#f73b6a7A","-1","-1","1","-10","[]","0","0","3","","","","","","","",""
"pit-trial","63","569392","0.0-2.0-14.0-4.0","battery-v0.2","","""event"",""trial"",""time""
""fullscreenenter"",""1"",""1525""
","
","
","""event"",""trial"",""time""
""fullscreenenter"",""1"",""1525""
","
","","","406","","","19","11043","5128","&#9826;","elianto","#f73b6a7A","-1"," ","0","-10","[1257]","1","0","3","","","","","","","",""
"pit-trial","64","574251","0.0-2.0-14.1-0.1","battery-v0.2","","""event"",""trial"",""time""
""fullscreenenter"",""1"",""1525""
","
","
","""event"",""trial"",""time""
""fullscreenenter"",""1"",""1525""
","
","","","-1","","","19","11043","5128","&#9826;","elianto","#f73b6a7A","-1","-1","1","0","[]","0","0","3","","","","","","","",""
"pit-trial","65","579109","0.0-2.0-14.1-1.1","battery-v0.2","","""event"",""trial"",""time""
""fullscreenenter"",""1"",""1525""
""fullscreenexit"",""66"",""580698""
","
","
","""event"",""trial"",""time""
""fullscreenenter"",""1"",""1525""
","""event"",""trial"",""time""
""fullscreenexit"",""66"",""580698""
","","","-1","","","19","11043","5128","&#9826;","elianto","#f73b6a7A","-1","-1","1","0","[]","0","0","3","","","","","","","",""
"pit-trial","66","583966","0.0-2.0-14.1-2.1","battery-v0.2","","""event"",""trial"",""time""
""fullscreenenter"",""1"",""1525""
""fullscreenexit"",""66"",""580698""
""blur"",""67"",""585430""
","""event"",""trial"",""time""
""blur"",""67"",""585430""
","
","""event"",""trial"",""time""
""fullscreenenter"",""1"",""1525""
","""event"",""trial"",""time""
""fullscreenexit"",""66"",""580698""
","","","-1","","","19","11043","5128","&#9826;","elianto","#f73b6a7A","-1","-1","1","0","[]","0","0","3","","","","","","","",""
"pit-trial","67","588821","0.0-2.0-14.1-3.1","battery-v0.2","","""event"",""trial"",""time""
""fullscreenenter"",""1"",""1525""
""fullscreenexit"",""66"",""580698""
""blur"",""67"",""585430""
","""event"",""trial"",""time""
""blur"",""67"",""585430""
","
","""event"",""trial"",""time""
""fullscreenenter"",""1"",""1525""
","""event"",""trial"",""time""
""fullscreenexit"",""66"",""580698""
","","","-1","","","19","11043","5128","&#9826;","elianto","#f73b6a7A","-1","-1","1","-10","[]","0","0","3","","","","","","","",""
"pit-trial","68","596834","0.0-2.0-14.1-4.1","battery-v0.2","","""event"",""trial"",""time""
""fullscreenenter"",""1"",""1525""
""fullscreenexit"",""66"",""580698""
""blur"",""67"",""585430""
""focus"",""69"",""599437""
""focus"",""69"",""599437""
","""event"",""trial"",""time""
""blur"",""67"",""585430""
","""event"",""trial"",""time""
""focus"",""69"",""599437""
""focus"",""69"",""599437""
","""event"",""trial"",""time""
""fullscreenenter"",""1"",""1525""
","""event"",""trial"",""time""
""fullscreenexit"",""66"",""580698""
","","","-1","","","19","11043","5128","&#9826;","elianto","#f73b6a7A","-1","-1","1","0","[]","0","0","3","","","","","","","",""
"pit-trial","69","601692","0.0-2.0-14.2-0.2","battery-v0.2","","""event"",""trial"",""time""
""fullscreenenter"",""1"",""1525""
""fullscreenexit"",""66"",""580698""
""blur"",""67"",""585430""
""focus"",""69"",""599437""
""focus"",""69"",""599437""
""blur"",""70"",""602794""
","""event"",""trial"",""time""
""blur"",""67"",""585430""
""blur"",""70"",""602794""
","""event"",""trial"",""time""
""focus"",""69"",""599437""
""focus"",""69"",""599437""
","""event"",""trial"",""time""
""fullscreenenter"",""1"",""1525""
","""event"",""trial"",""time""
""fullscreenexit"",""66"",""580698""
","","","-1","","","19","11043","5128","&#9826;","elianto","#f73b6a7A","-1","-1","1","0","[]","0","0","3","","","","","","","",""
"pit-trial","70","607121","0.0-2.0-14.2-1.2","battery-v0.2","","""event"",""trial"",""time""
""fullscreenenter"",""1"",""1525""
""fullscreenexit"",""66"",""580698""
""blur"",""67"",""585430""
""focus"",""69"",""599437""
""focus"",""69"",""599437""
""blur"",""70"",""602794""
""focus"",""71"",""608646""
""focus"",""71"",""608647""
","""event"",""trial"",""time""
""blur"",""67"",""585430""
""blur"",""70"",""602794""
","""event"",""trial"",""time""
""focus"",""69"",""599437""
""focus"",""69"",""599437""
""focus"",""71"",""608646""
""focus"",""71"",""608647""
","""event"",""trial"",""time""
""fullscreenenter"",""1"",""1525""
","""event"",""trial"",""time""
""fullscreenexit"",""66"",""580698""
","","","-1","","","19","11043","5128","&#9826;","elianto","#f73b6a7A","-1","-1","1","0","[]","0","0","3","","","","","","","",""
"pit-trial","71","611976","0.0-2.0-14.2-2.2","battery-v0.2","","""event"",""trial"",""time""
""fullscreenenter"",""1"",""1525""
""fullscreenexit"",""66"",""580698""
""blur"",""67"",""585430""
""focus"",""69"",""599437""
""focus"",""69"",""599437""
""blur"",""70"",""602794""
""focus"",""71"",""608646""
""focus"",""71"",""608647""
","""event"",""trial"",""time""
""blur"",""67"",""585430""
""blur"",""70"",""602794""
","""event"",""trial"",""time""
""focus"",""69"",""599437""
""focus"",""69"",""599437""
""focus"",""71"",""608646""
""focus"",""71"",""608647""
","""event"",""trial"",""time""
""fullscreenenter"",""1"",""1525""
","""event"",""trial"",""time""
""fullscreenexit"",""66"",""580698""
","","","-1","","","19","11043","5128","&#9826;","elianto","#f73b6a7A","-1","-1","1","0","[]","0","0","3","","","","","","","",""
"pit-trial","72","616834","0.0-2.0-14.2-3.2","battery-v0.2","","""event"",""trial"",""time""
""fullscreenenter"",""1"",""1525""
""fullscreenexit"",""66"",""580698""
""blur"",""67"",""585430""
""focus"",""69"",""599437""
""focus"",""69"",""599437""
""blur"",""70"",""602794""
""focus"",""71"",""608646""
""focus"",""71"",""608647""
","""event"",""trial"",""time""
""blur"",""67"",""585430""
""blur"",""70"",""602794""
","""event"",""trial"",""time""
""focus"",""69"",""599437""
""focus"",""69"",""599437""
""focus"",""71"",""608646""
""focus"",""71"",""608647""
","""event"",""trial"",""time""
""fullscreenenter"",""1"",""1525""
","""event"",""trial"",""time""
""fullscreenexit"",""66"",""580698""
","","","-1","","","19","11043","5128","&#9826;","elianto","#f73b6a7A","-1","-1","1","-10","[]","0","0","3","","","","","","","",""
"pit-trial","73","621693","0.0-2.0-14.2-4.2","battery-v0.2","","""event"",""trial"",""time""
""fullscreenenter"",""1"",""1525""
""fullscreenexit"",""66"",""580698""
""blur"",""67"",""585430""
""focus"",""69"",""599437""
""focus"",""69"",""599437""
""blur"",""70"",""602794""
""focus"",""71"",""608646""
""focus"",""71"",""608647""
","""event"",""trial"",""time""
""blur"",""67"",""585430""
""blur"",""70"",""602794""
","""event"",""trial"",""time""
""focus"",""69"",""599437""
""focus"",""69"",""599437""
""focus"",""71"",""608646""
""focus"",""71"",""608647""
","""event"",""trial"",""time""
""fullscreenenter"",""1"",""1525""
","""event"",""trial"",""time""
""fullscreenexit"",""66"",""580698""
","","","-1","","","19","11043","5128","&#9826;","elianto","#f73b6a7A","-1","-1","1","0","[]","0","0","3","","","","","","","",""
"pit-trial","74","626552","0.0-2.0-14.3-0.3","battery-v0.2","","""event"",""trial"",""time""
""fullscreenenter"",""1"",""1525""
""fullscreenexit"",""66"",""580698""
""blur"",""67"",""585430""
""focus"",""69"",""599437""
""focus"",""69"",""599437""
""blur"",""70"",""602794""
""focus"",""71"",""608646""
""focus"",""71"",""608647""
","""event"",""trial"",""time""
""blur"",""67"",""585430""
""blur"",""70"",""602794""
","""event"",""trial"",""time""
""focus"",""69"",""599437""
""focus"",""69"",""599437""
""focus"",""71"",""608646""
""focus"",""71"",""608647""
","""event"",""trial"",""time""
""fullscreenenter"",""1"",""1525""
","""event"",""trial"",""time""
""fullscreenexit"",""66"",""580698""
","","","-1","","","19","11043","5128","&#9826;","elianto","#f73b6a7A","-1","-1","1","0","[]","0","0","3","","","","","","","",""
"pit-trial","75","631411","0.0-2.0-14.3-1.3","battery-v0.2","","""event"",""trial"",""time""
""fullscreenenter"",""1"",""1525""
""fullscreenexit"",""66"",""580698""
""blur"",""67"",""585430""
""focus"",""69"",""599437""
""focus"",""69"",""599437""
""blur"",""70"",""602794""
""focus"",""71"",""608646""
""focus"",""71"",""608647""
","""event"",""trial"",""time""
""blur"",""67"",""585430""
""blur"",""70"",""602794""
","""event"",""trial"",""time""
""focus"",""69"",""599437""
""focus"",""69"",""599437""
""focus"",""71"",""608646""
""focus"",""71"",""608647""
","""event"",""trial"",""time""
""fullscreenenter"",""1"",""1525""
","""event"",""trial"",""time""
""fullscreenexit"",""66"",""580698""
","","","-1","","","19","11043","5128","&#9826;","elianto","#f73b6a7A","-1","-1","1","0","[]","0","0","3","","","","","","","",""
"pit-trial","76","636271","0.0-2.0-14.3-2.3","battery-v0.2","","""event"",""trial"",""time""
""fullscreenenter"",""1"",""1525""
""fullscreenexit"",""66"",""580698""
""blur"",""67"",""585430""
""focus"",""69"",""599437""
""focus"",""69"",""599437""
""blur"",""70"",""602794""
""focus"",""71"",""608646""
""focus"",""71"",""608647""
","""event"",""trial"",""time""
""blur"",""67"",""585430""
""blur"",""70"",""602794""
","""event"",""trial"",""time""
""focus"",""69"",""599437""
""focus"",""69"",""599437""
""focus"",""71"",""608646""
""focus"",""71"",""608647""
","""event"",""trial"",""time""
""fullscreenenter"",""1"",""1525""
","""event"",""trial"",""time""
""fullscreenexit"",""66"",""580698""
","","","-1","","","19","11043","5128","&#9826;","elianto","#f73b6a7A","-1","-1","1","0","[]","0","0","3","","","","","","","",""
"pit-trial","77","641128","0.0-2.0-14.3-3.3","battery-v0.2","","""event"",""trial"",""time""
""fullscreenenter"",""1"",""1525""
""fullscreenexit"",""66"",""580698""
""blur"",""67"",""585430""
""focus"",""69"",""599437""
""focus"",""69"",""599437""
""blur"",""70"",""602794""
""focus"",""71"",""608646""
""focus"",""71"",""608647""
","""event"",""trial"",""time""
""blur"",""67"",""585430""
""blur"",""70"",""602794""
","""event"",""trial"",""time""
""focus"",""69"",""599437""
""focus"",""69"",""599437""
""focus"",""71"",""608646""
""focus"",""71"",""608647""
","""event"",""trial"",""time""
""fullscreenenter"",""1"",""1525""
","""event"",""trial"",""time""
""fullscreenexit"",""66"",""580698""
","","","-1","","","19","11043","5128","&#9826;","elianto","#f73b6a7A","-1","-1","1","-10","[]","0","0","3","","","","","","","",""
"pit-trial","78","645986","0.0-2.0-14.3-4.3","battery-v0.2","","""event"",""trial"",""time""
""fullscreenenter"",""1"",""1525""
""fullscreenexit"",""66"",""580698""
""blur"",""67"",""585430""
""focus"",""69"",""599437""
""focus"",""69"",""599437""
""blur"",""70"",""602794""
""focus"",""71"",""608646""
""focus"",""71"",""608647""
","""event"",""trial"",""time""
""blur"",""67"",""585430""
""blur"",""70"",""602794""
","""event"",""trial"",""time""
""focus"",""69"",""599437""
""focus"",""69"",""599437""
""focus"",""71"",""608646""
""focus"",""71"",""608647""
","""event"",""trial"",""time""
""fullscreenenter"",""1"",""1525""
","""event"",""trial"",""time""
""fullscreenexit"",""66"",""580698""
","","","-1","","","19","11043","5128","&#9826;","elianto","#f73b6a7A","-1","-1","1","0","[]","0","0","3","","","","","","","",""
"call-function","79","645991","0.0-2.0-15.0","battery-v0.2","","""event"",""trial"",""time""
""fullscreenenter"",""1"",""1525""
""fullscreenexit"",""66"",""580698""
""blur"",""67"",""585430""
""focus"",""69"",""599437""
""focus"",""69"",""599437""
""blur"",""70"",""602794""
""focus"",""71"",""608646""
""focus"",""71"",""608647""
","""event"",""trial"",""time""
""blur"",""67"",""585430""
""blur"",""70"",""602794""
","""event"",""trial"",""time""
""focus"",""69"",""599437""
""focus"",""69"",""599437""
""focus"",""71"",""608646""
""focus"",""71"",""608647""
","""event"",""trial"",""time""
""fullscreenenter"",""1"",""1525""
","""event"",""trial"",""time""
""fullscreenexit"",""66"",""580698""
","","","","","","","","","","","","","","","","","","","","","","","","","","",""
"pit-instructions","80","673023","0.0-2.0-16.0","battery-v0.2","","""event"",""trial"",""time""
""fullscreenenter"",""1"",""1525""
""fullscreenexit"",""66"",""580698""
""blur"",""67"",""585430""
""focus"",""69"",""599437""
""focus"",""69"",""599437""
""blur"",""70"",""602794""
""focus"",""71"",""608646""
""focus"",""71"",""608647""
","""event"",""trial"",""time""
""blur"",""67"",""585430""
""blur"",""70"",""602794""
","""event"",""trial"",""time""
""focus"",""69"",""599437""
""focus"",""69"",""599437""
""focus"",""71"",""608646""
""focus"",""71"",""608647""
","""event"",""trial"",""time""
""fullscreenenter"",""1"",""1525""
","""event"",""trial"",""time""
""fullscreenexit"",""66"",""580698""
","","[{""page_index"":0,""viewing_time"":6636},{""page_index"":1,""viewing_time"":9379.000000000116},{""page_index"":2,""viewing_time"":5636.999999999884},{""page_index"":3,""viewing_time"":5380}]","27032","","","","","","","","","","","","","","","","","","","","","","","",""
"pit-trial","81","677877","0.0-2.0-17.0-0.0","battery-v0.2","","""event"",""trial"",""time""
""fullscreenenter"",""1"",""1525""
""fullscreenexit"",""66"",""580698""
""blur"",""67"",""585430""
""focus"",""69"",""599437""
""focus"",""69"",""599437""
""blur"",""70"",""602794""
""focus"",""71"",""608646""
""focus"",""71"",""608647""
","""event"",""trial"",""time""
""blur"",""67"",""585430""
""blur"",""70"",""602794""
","""event"",""trial"",""time""
""focus"",""69"",""599437""
""focus"",""69"",""599437""
""focus"",""71"",""608646""
""focus"",""71"",""608647""
","""event"",""trial"",""time""
""fullscreenenter"",""1"",""1525""
","""event"",""trial"",""time""
""fullscreenexit"",""66"",""580698""
","","","-1","","","19","11043","5128","&#9789;","elianto","#f73b6a7A"," ","-1","0","-10","[]","0","0","4","","","","","","","",""
"pit-trial","82","681068","0.0-2.0-17.0-1.0","battery-v0.2","","""event"",""trial"",""time""
""fullscreenenter"",""1"",""1525""
""fullscreenexit"",""66"",""580698""
""blur"",""67"",""585430""
""focus"",""69"",""599437""
""focus"",""69"",""599437""
""blur"",""70"",""602794""
""focus"",""71"",""608646""
""focus"",""71"",""608647""
","""event"",""trial"",""time""
""blur"",""67"",""585430""
""blur"",""70"",""602794""
","""event"",""trial"",""time""
""focus"",""69"",""599437""
""focus"",""69"",""599437""
""focus"",""71"",""608646""
""focus"",""71"",""608647""
","""event"",""trial"",""time""
""fullscreenenter"",""1"",""1525""
","""event"",""trial"",""time""
""fullscreenexit"",""66"",""580698""
","","","333","","","19","11043","5128","&#9789;","elianto","#f73b6a7A"," "," ","1","0","[1182]","1","0","4","","","","","","","",""
"pit-trial","83","684263","0.0-2.0-17.0-2.0","battery-v0.2","","""event"",""trial"",""time""
""fullscreenenter"",""1"",""1525""
""fullscreenexit"",""66"",""580698""
""blur"",""67"",""585430""
""focus"",""69"",""599437""
""focus"",""69"",""599437""
""blur"",""70"",""602794""
""focus"",""71"",""608646""
""focus"",""71"",""608647""
","""event"",""trial"",""time""
""blur"",""67"",""585430""
""blur"",""70"",""602794""
","""event"",""trial"",""time""
""focus"",""69"",""599437""
""focus"",""69"",""599437""
""focus"",""71"",""608646""
""focus"",""71"",""608647""
","""event"",""trial"",""time""
""fullscreenenter"",""1"",""1525""
","""event"",""trial"",""time""
""fullscreenexit"",""66"",""580698""
","","","337","","","19","11043","5128","&#9789;","elianto","#f73b6a7A"," "," ","1","0","[1187]","1","0","4","","","","","","","",""
"pit-trial","84","687478","0.0-2.0-17.0-3.0","battery-v0.2","","""event"",""trial"",""time""
""fullscreenenter"",""1"",""1525""
""fullscreenexit"",""66"",""580698""
""blur"",""67"",""585430""
""focus"",""69"",""599437""
""focus"",""69"",""599437""
""blur"",""70"",""602794""
""focus"",""71"",""608646""
""focus"",""71"",""608647""
","""event"",""trial"",""time""
""blur"",""67"",""585430""
""blur"",""70"",""602794""
","""event"",""trial"",""time""
""focus"",""69"",""599437""
""focus"",""69"",""599437""
""focus"",""71"",""608646""
""focus"",""71"",""608647""
","""event"",""trial"",""time""
""fullscreenenter"",""1"",""1525""
","""event"",""trial"",""time""
""fullscreenexit"",""66"",""580698""
","","","353","","","19","11043","5128","&#9789;","elianto","#f73b6a7A"," "," ","1","-10","[1206]","1","0","4","","","","","","","",""
"pit-trial","85","690691","0.0-2.0-17.0-4.0","battery-v0.2","","""event"",""trial"",""time""
""fullscreenenter"",""1"",""1525""
""fullscreenexit"",""66"",""580698""
""blur"",""67"",""585430""
""focus"",""69"",""599437""
""focus"",""69"",""599437""
""blur"",""70"",""602794""
""focus"",""71"",""608646""
""focus"",""71"",""608647""
","""event"",""trial"",""time""
""blur"",""67"",""585430""
""blur"",""70"",""602794""
","""event"",""trial"",""time""
""focus"",""69"",""599437""
""focus"",""69"",""599437""
""focus"",""71"",""608646""
""focus"",""71"",""608647""
","""event"",""trial"",""time""
""fullscreenenter"",""1"",""1525""
","""event"",""trial"",""time""
""fullscreenexit"",""66"",""580698""
","","","355.0000000001164","","","19","11043","5128","&#9789;","elianto","#f73b6a7A"," "," ","1","0","[1206.0000000001164]","1","0","4","","","","","","","",""
"pit-trial","86","693916","0.0-2.0-17.1-0.1","battery-v0.2","","""event"",""trial"",""time""
""fullscreenenter"",""1"",""1525""
""fullscreenexit"",""66"",""580698""
""blur"",""67"",""585430""
""focus"",""69"",""599437""
""focus"",""69"",""599437""
""blur"",""70"",""602794""
""focus"",""71"",""608646""
""focus"",""71"",""608647""
","""event"",""trial"",""time""
""blur"",""67"",""585430""
""blur"",""70"",""602794""
","""event"",""trial"",""time""
""focus"",""69"",""599437""
""focus"",""69"",""599437""
""focus"",""71"",""608646""
""focus"",""71"",""608647""
","""event"",""trial"",""time""
""fullscreenenter"",""1"",""1525""
","""event"",""trial"",""time""
""fullscreenexit"",""66"",""580698""
","","","366","","","19","11043","5128","&#9789;","elianto","#f73b6a7A"," "," ","1","0","[1217]","1","0","4","","","","","","","",""
"pit-trial","87","697170","0.0-2.0-17.1-1.1","battery-v0.2","","""event"",""trial"",""time""
""fullscreenenter"",""1"",""1525""
""fullscreenexit"",""66"",""580698""
""blur"",""67"",""585430""
""focus"",""69"",""599437""
""focus"",""69"",""599437""
""blur"",""70"",""602794""
""focus"",""71"",""608646""
""focus"",""71"",""608647""
","""event"",""trial"",""time""
""blur"",""67"",""585430""
""blur"",""70"",""602794""
","""event"",""trial"",""time""
""focus"",""69"",""599437""
""focus"",""69"",""599437""
""focus"",""71"",""608646""
""focus"",""71"",""608647""
","""event"",""trial"",""time""
""fullscreenenter"",""1"",""1525""
","""event"",""trial"",""time""
""fullscreenexit"",""66"",""580698""
","","","399","","","19","11043","5128","&#9789;","elianto","#f73b6a7A"," "," ","1","0","[1250]","1","0","4","","","","","","","",""
"pit-trial","88","700587","0.0-2.0-17.1-2.1","battery-v0.2","","""event"",""trial"",""time""
""fullscreenenter"",""1"",""1525""
""fullscreenexit"",""66"",""580698""
""blur"",""67"",""585430""
""focus"",""69"",""599437""
""focus"",""69"",""599437""
""blur"",""70"",""602794""
""focus"",""71"",""608646""
""focus"",""71"",""608647""
","""event"",""trial"",""time""
""blur"",""67"",""585430""
""blur"",""70"",""602794""
","""event"",""trial"",""time""
""focus"",""69"",""599437""
""focus"",""69"",""599437""
""focus"",""71"",""608646""
""focus"",""71"",""608647""
","""event"",""trial"",""time""
""fullscreenenter"",""1"",""1525""
","""event"",""trial"",""time""
""fullscreenexit"",""66"",""580698""
","","","560","","","19","11043","5128","&#9789;","elianto","#f73b6a7A"," "," ","1","0","[1410]","1","0","4","","","","","","","",""
"pit-trial","89","703753","0.0-2.0-17.1-3.1","battery-v0.2","","""event"",""trial"",""time""
""fullscreenenter"",""1"",""1525""
""fullscreenexit"",""66"",""580698""
""blur"",""67"",""585430""
""focus"",""69"",""599437""
""focus"",""69"",""599437""
""blur"",""70"",""602794""
""focus"",""71"",""608646""
""focus"",""71"",""608647""
","""event"",""trial"",""time""
""blur"",""67"",""585430""
""blur"",""70"",""602794""
","""event"",""trial"",""time""
""focus"",""69"",""599437""
""focus"",""69"",""599437""
""focus"",""71"",""608646""
""focus"",""71"",""608647""
","""event"",""trial"",""time""
""fullscreenenter"",""1"",""1525""
","""event"",""trial"",""time""
""fullscreenexit"",""66"",""580698""
","","","307","","","19","11043","5128","&#9789;","elianto","#f73b6a7A"," "," ","1","-10","[1158]","1","0","4","","","","","","","",""
"pit-trial","90","706996","0.0-2.0-17.1-4.1","battery-v0.2","","""event"",""trial"",""time""
""fullscreenenter"",""1"",""1525""
""fullscreenexit"",""66"",""580698""
""blur"",""67"",""585430""
""focus"",""69"",""599437""
""focus"",""69"",""599437""
""blur"",""70"",""602794""
""focus"",""71"",""608646""
""focus"",""71"",""608647""
","""event"",""trial"",""time""
""blur"",""67"",""585430""
""blur"",""70"",""602794""
","""event"",""trial"",""time""
""focus"",""69"",""599437""
""focus"",""69"",""599437""
""focus"",""71"",""608646""
""focus"",""71"",""608647""
","""event"",""trial"",""time""
""fullscreenenter"",""1"",""1525""
","""event"",""trial"",""time""
""fullscreenexit"",""66"",""580698""
","","","385","","","19","11043","5128","&#9789;","elianto","#f73b6a7A"," "," ","1","0","[1235]","1","0","4","","","","","","","",""
"pit-trial","91","710030","0.0-2.0-17.2-0.2","battery-v0.2","","""event"",""trial"",""time""
""fullscreenenter"",""1"",""1525""
""fullscreenexit"",""66"",""580698""
""blur"",""67"",""585430""
""focus"",""69"",""599437""
""focus"",""69"",""599437""
""blur"",""70"",""602794""
""focus"",""71"",""608646""
""focus"",""71"",""608647""
","""event"",""trial"",""time""
""blur"",""67"",""585430""
""blur"",""70"",""602794""
","""event"",""trial"",""time""
""focus"",""69"",""599437""
""focus"",""69"",""599437""
""focus"",""71"",""608646""
""focus"",""71"",""608647""
","""event"",""trial"",""time""
""fullscreenenter"",""1"",""1525""
","""event"",""trial"",""time""
""fullscreenexit"",""66"",""580698""
","","","177.00000000011642","","","19","11043","5128","&#9789;","elianto","#f73b6a7A"," "," ","1","0","[1028.0000000001164]","1","0","4","","","","","","","",""
"pit-trial","92","713218","0.0-2.0-17.2-1.2","battery-v0.2","","""event"",""trial"",""time""
""fullscreenenter"",""1"",""1525""
""fullscreenexit"",""66"",""580698""
""blur"",""67"",""585430""
""focus"",""69"",""599437""
""focus"",""69"",""599437""
""blur"",""70"",""602794""
""focus"",""71"",""608646""
""focus"",""71"",""608647""
","""event"",""trial"",""time""
""blur"",""67"",""585430""
""blur"",""70"",""602794""
","""event"",""trial"",""time""
""focus"",""69"",""599437""
""focus"",""69"",""599437""
""focus"",""71"",""608646""
""focus"",""71"",""608647""
","""event"",""trial"",""time""
""fullscreenenter"",""1"",""1525""
","""event"",""trial"",""time""
""fullscreenexit"",""66"",""580698""
","","","329","","","19","11043","5128","&#9789;","elianto","#f73b6a7A"," "," ","1","0","[1180]","1","0","4","","","","","","","",""
"pit-trial","93","716394","0.0-2.0-17.2-2.2","battery-v0.2","","""event"",""trial"",""time""
""fullscreenenter"",""1"",""1525""
""fullscreenexit"",""66"",""580698""
""blur"",""67"",""585430""
""focus"",""69"",""599437""
""focus"",""69"",""599437""
""blur"",""70"",""602794""
""focus"",""71"",""608646""
""focus"",""71"",""608647""
","""event"",""trial"",""time""
""blur"",""67"",""585430""
""blur"",""70"",""602794""
","""event"",""trial"",""time""
""focus"",""69"",""599437""
""focus"",""69"",""599437""
""focus"",""71"",""608646""
""focus"",""71"",""608647""
","""event"",""trial"",""time""
""fullscreenenter"",""1"",""1525""
","""event"",""trial"",""time""
""fullscreenexit"",""66"",""580698""
","","","318","","","19","11043","5128","&#9789;","elianto","#f73b6a7A"," "," ","1","0","[1169]","1","0","4","","","","","","","",""
"pit-trial","94","719431","0.0-2.0-17.2-3.2","battery-v0.2","","""event"",""trial"",""time""
""fullscreenenter"",""1"",""1525""
""fullscreenexit"",""66"",""580698""
""blur"",""67"",""585430""
""focus"",""69"",""599437""
""focus"",""69"",""599437""
""blur"",""70"",""602794""
""focus"",""71"",""608646""
""focus"",""71"",""608647""
","""event"",""trial"",""time""
""blur"",""67"",""585430""
""blur"",""70"",""602794""
","""event"",""trial"",""time""
""focus"",""69"",""599437""
""focus"",""69"",""599437""
""focus"",""71"",""608646""
""focus"",""71"",""608647""
","""event"",""trial"",""time""
""fullscreenenter"",""1"",""1525""
","""event"",""trial"",""time""
""fullscreenexit"",""66"",""580698""
","","","179","","","19","11043","5128","&#9789;","elianto","#f73b6a7A"," "," ","1","-10","[1029]","1","0","4","","","","","","","",""
"pit-trial","95","722436","0.0-2.0-17.2-4.2","battery-v0.2","","""event"",""trial"",""time""
""fullscreenenter"",""1"",""1525""
""fullscreenexit"",""66"",""580698""
""blur"",""67"",""585430""
""focus"",""69"",""599437""
""focus"",""69"",""599437""
""blur"",""70"",""602794""
""focus"",""71"",""608646""
""focus"",""71"",""608647""
","""event"",""trial"",""time""
""blur"",""67"",""585430""
""blur"",""70"",""602794""
","""event"",""trial"",""time""
""focus"",""69"",""599437""
""focus"",""69"",""599437""
""focus"",""71"",""608646""
""focus"",""71"",""608647""
","""event"",""trial"",""time""
""fullscreenenter"",""1"",""1525""
","""event"",""trial"",""time""
""fullscreenexit"",""66"",""580698""
","","","144","","","19","11043","5128","&#9789;","elianto","#f73b6a7A"," "," ","1","0","[997]","1","0","4","","","","","","","",""
"pit-trial","96","725499","0.0-2.0-17.3-0.3","battery-v0.2","","""event"",""trial"",""time""
""fullscreenenter"",""1"",""1525""
""fullscreenexit"",""66"",""580698""
""blur"",""67"",""585430""
""focus"",""69"",""599437""
""focus"",""69"",""599437""
""blur"",""70"",""602794""
""focus"",""71"",""608646""
""focus"",""71"",""608647""
","""event"",""trial"",""time""
""blur"",""67"",""585430""
""blur"",""70"",""602794""
","""event"",""trial"",""time""
""focus"",""69"",""599437""
""focus"",""69"",""599437""
""focus"",""71"",""608646""
""focus"",""71"",""608647""
","""event"",""trial"",""time""
""fullscreenenter"",""1"",""1525""
","""event"",""trial"",""time""
""fullscreenexit"",""66"",""580698""
","","","204","","","19","11043","5128","&#9789;","elianto","#f73b6a7A"," "," ","1","0","[1055]","1","0","4","","","","","","","",""
"pit-trial","97","728591","0.0-2.0-17.3-1.3","battery-v0.2","","""event"",""trial"",""time""
""fullscreenenter"",""1"",""1525""
""fullscreenexit"",""66"",""580698""
""blur"",""67"",""585430""
""focus"",""69"",""599437""
""focus"",""69"",""599437""
""blur"",""70"",""602794""
""focus"",""71"",""608646""
""focus"",""71"",""608647""
","""event"",""trial"",""time""
""blur"",""67"",""585430""
""blur"",""70"",""602794""
","""event"",""trial"",""time""
""focus"",""69"",""599437""
""focus"",""69"",""599437""
""focus"",""71"",""608646""
""focus"",""71"",""608647""
","""event"",""trial"",""time""
""fullscreenenter"",""1"",""1525""
","""event"",""trial"",""time""
""fullscreenexit"",""66"",""580698""
","","","233","","","19","11043","5128","&#9789;","elianto","#f73b6a7A"," "," ","1","0","[1086]","1","0","4","","","","","","","",""
"pit-trial","98","731567","0.0-2.0-17.3-2.3","battery-v0.2","","""event"",""trial"",""time""
""fullscreenenter"",""1"",""1525""
""fullscreenexit"",""66"",""580698""
""blur"",""67"",""585430""
""focus"",""69"",""599437""
""focus"",""69"",""599437""
""blur"",""70"",""602794""
""focus"",""71"",""608646""
""focus"",""71"",""608647""
","""event"",""trial"",""time""
""blur"",""67"",""585430""
""blur"",""70"",""602794""
","""event"",""trial"",""time""
""focus"",""69"",""599437""
""focus"",""69"",""599437""
""focus"",""71"",""608646""
""focus"",""71"",""608647""
","""event"",""trial"",""time""
""fullscreenenter"",""1"",""1525""
","""event"",""trial"",""time""
""fullscreenexit"",""66"",""580698""
","","","118","","","19","11043","5128","&#9789;","elianto","#f73b6a7A"," "," ","1","0","[969]","1","0","4","","","","","","","",""
"pit-trial","99","734828","0.0-2.0-17.3-3.3","battery-v0.2","","""event"",""trial"",""time""
""fullscreenenter"",""1"",""1525""
""fullscreenexit"",""66"",""580698""
""blur"",""67"",""585430""
""focus"",""69"",""599437""
""focus"",""69"",""599437""
""blur"",""70"",""602794""
""focus"",""71"",""608646""
""focus"",""71"",""608647""
","""event"",""trial"",""time""
""blur"",""67"",""585430""
""blur"",""70"",""602794""
","""event"",""trial"",""time""
""focus"",""69"",""599437""
""focus"",""69"",""599437""
""focus"",""71"",""608646""
""focus"",""71"",""608647""
","""event"",""trial"",""time""
""fullscreenenter"",""1"",""1525""
","""event"",""trial"",""time""
""fullscreenexit"",""66"",""580698""
","","","404.0000000001164","","","19","11043","5128","&#9789;","elianto","#f73b6a7A"," "," ","1","-10","[1254.0000000001164]","1","0","4","","","","","","","",""
"pit-trial","100","737942","0.0-2.0-17.3-4.3","battery-v0.2","","""event"",""trial"",""time""
""fullscreenenter"",""1"",""1525""
""fullscreenexit"",""66"",""580698""
""blur"",""67"",""585430""
""focus"",""69"",""599437""
""focus"",""69"",""599437""
""blur"",""70"",""602794""
""focus"",""71"",""608646""
""focus"",""71"",""608647""
","""event"",""trial"",""time""
""blur"",""67"",""585430""
""blur"",""70"",""602794""
","""event"",""trial"",""time""
""focus"",""69"",""599437""
""focus"",""69"",""599437""
""focus"",""71"",""608646""
""focus"",""71"",""608647""
","""event"",""trial"",""time""
""fullscreenenter"",""1"",""1525""
","""event"",""trial"",""time""
""fullscreenexit"",""66"",""580698""
","","","254","","","19","11043","5128","&#9789;","elianto","#f73b6a7A"," "," ","1","0","[1105]","1","0","4","","","","","","","",""
"call-function","101","737947","0.0-2.0-18.0","battery-v0.2","","""event"",""trial"",""time""
""fullscreenenter"",""1"",""1525""
""fullscreenexit"",""66"",""580698""
""blur"",""67"",""585430""
""focus"",""69"",""599437""
""focus"",""69"",""599437""
""blur"",""70"",""602794""
""focus"",""71"",""608646""
""focus"",""71"",""608647""
","""event"",""trial"",""time""
""blur"",""67"",""585430""
""blur"",""70"",""602794""
","""event"",""trial"",""time""
""focus"",""69"",""599437""
""focus"",""69"",""599437""
""focus"",""71"",""608646""
""focus"",""71"",""608647""
","""event"",""trial"",""time""
""fullscreenenter"",""1"",""1525""
","""event"",""trial"",""time""
""fullscreenexit"",""66"",""580698""
","","","","","","","","","","","","","","","","","","","","","","","","","","",""
"pit-instructions","102","807361","0.0-2.0-19.0","battery-v0.2","","""event"",""trial"",""time""
""fullscreenenter"",""1"",""1525""
""fullscreenexit"",""66"",""580698""
""blur"",""67"",""585430""
""focus"",""69"",""599437""
""focus"",""69"",""599437""
""blur"",""70"",""602794""
""focus"",""71"",""608646""
""focus"",""71"",""608647""
","""event"",""trial"",""time""
""blur"",""67"",""585430""
""blur"",""70"",""602794""
","""event"",""trial"",""time""
""focus"",""69"",""599437""
""focus"",""69"",""599437""
""focus"",""71"",""608646""
""focus"",""71"",""608647""
","""event"",""trial"",""time""
""fullscreenenter"",""1"",""1525""
","""event"",""trial"",""time""
""fullscreenexit"",""66"",""580698""
","","[{""page_index"":0,""viewing_time"":6897},{""page_index"":1,""viewing_time"":6317},{""page_index"":2,""viewing_time"":13699},{""page_index"":3,""viewing_time"":8280},{""page_index"":4,""viewing_time"":8138},{""page_index"":5,""viewing_time"":9115},{""page_index"":6,""viewing_time"":7885},{""page_index"":7,""viewing_time"":5565},{""page_index"":8,""viewing_time"":3519}]","69416","","","","","","","","","","","","","","","","","","","","","","","",""
"pit-comprehension","103","812211","0.0-2.0-20.0-0.0","battery-v0.2","","""event"",""trial"",""time""
""fullscreenenter"",""1"",""1525""
""fullscreenexit"",""66"",""580698""
""blur"",""67"",""585430""
""focus"",""69"",""599437""
""focus"",""69"",""599437""
""blur"",""70"",""602794""
""focus"",""71"",""608646""
""focus"",""71"",""608647""
","""event"",""trial"",""time""
""blur"",""67"",""585430""
""blur"",""70"",""602794""
","""event"",""trial"",""time""
""focus"",""69"",""599437""
""focus"",""69"",""599437""
""focus"",""71"",""608646""
""focus"",""71"",""608647""
","""event"",""trial"",""time""
""fullscreenenter"",""1"",""1525""
","""event"",""trial"",""time""
""fullscreenexit"",""66"",""580698""
","","","4848","[""SPACE""]","0","19","11043","5128","","","","","","","","","","","","","","","","","","",""
"pit-instructions","104","815329","0.0-2.0-20.0-1.0","battery-v0.2","","""event"",""trial"",""time""
""fullscreenenter"",""1"",""1525""
""fullscreenexit"",""66"",""580698""
""blur"",""67"",""585430""
""focus"",""69"",""599437""
""focus"",""69"",""599437""
""blur"",""70"",""602794""
""focus"",""71"",""608646""
""focus"",""71"",""608647""
","""event"",""trial"",""time""
""blur"",""67"",""585430""
""blur"",""70"",""602794""
","""event"",""trial"",""time""
""focus"",""69"",""599437""
""focus"",""69"",""599437""
""focus"",""71"",""608646""
""focus"",""71"",""608647""
","""event"",""trial"",""time""
""fullscreenenter"",""1"",""1525""
","""event"",""trial"",""time""
""fullscreenexit"",""66"",""580698""
","","[{""page_index"":0,""viewing_time"":3089}]","3089","","","","","","","","","","","","","","","","","","","","","","","",""
"pit-comprehension","105","821075","0.0-2.0-21.0-0.0","battery-v0.2","","""event"",""trial"",""time""
""fullscreenenter"",""1"",""1525""
""fullscreenexit"",""66"",""580698""
""blur"",""67"",""585430""
""focus"",""69"",""599437""
""focus"",""69"",""599437""
""blur"",""70"",""602794""
""focus"",""71"",""608646""
""focus"",""71"",""608647""
","""event"",""trial"",""time""
""blur"",""67"",""585430""
""blur"",""70"",""602794""
","""event"",""trial"",""time""
""focus"",""69"",""599437""
""focus"",""69"",""599437""
""focus"",""71"",""608646""
""focus"",""71"",""608647""
","""event"",""trial"",""time""
""fullscreenenter"",""1"",""1525""
","""event"",""trial"",""time""
""fullscreenexit"",""66"",""580698""
","","","5744","[""10""]","0","19","11043","5128","","","","","","","","","","","","","","","","","","",""
"pit-instructions","106","822808","0.0-2.0-21.0-1.0","battery-v0.2","","""event"",""trial"",""time""
""fullscreenenter"",""1"",""1525""
""fullscreenexit"",""66"",""580698""
""blur"",""67"",""585430""
""focus"",""69"",""599437""
""focus"",""69"",""599437""
""blur"",""70"",""602794""
""focus"",""71"",""608646""
""focus"",""71"",""608647""
","""event"",""trial"",""time""
""blur"",""67"",""585430""
""blur"",""70"",""602794""
","""event"",""trial"",""time""
""focus"",""69"",""599437""
""focus"",""69"",""599437""
""focus"",""71"",""608646""
""focus"",""71"",""608647""
","""event"",""trial"",""time""
""fullscreenenter"",""1"",""1525""
","""event"",""trial"",""time""
""fullscreenexit"",""66"",""580698""
","","[{""page_index"":0,""viewing_time"":1707}]","1707","","","","","","","","","","","","","","","","","","","","","","","",""
"pit-comprehension","107","832778","0.0-2.0-22.0-0.0","battery-v0.2","","""event"",""trial"",""time""
""fullscreenenter"",""1"",""1525""
""fullscreenexit"",""66"",""580698""
""blur"",""67"",""585430""
""focus"",""69"",""599437""
""focus"",""69"",""599437""
""blur"",""70"",""602794""
""focus"",""71"",""608646""
""focus"",""71"",""608647""
","""event"",""trial"",""time""
""blur"",""67"",""585430""
""blur"",""70"",""602794""
","""event"",""trial"",""time""
""focus"",""69"",""599437""
""focus"",""69"",""599437""
""focus"",""71"",""608646""
""focus"",""71"",""608647""
","""event"",""trial"",""time""
""fullscreenenter"",""1"",""1525""
","""event"",""trial"",""time""
""fullscreenexit"",""66"",""580698""
","","","9967","[""0""]","0","19","11043","5128","","","","","","","","","","","","","","","","","","",""
"pit-instructions","108","834325","0.0-2.0-22.0-1.0","battery-v0.2","","""event"",""trial"",""time""
""fullscreenenter"",""1"",""1525""
""fullscreenexit"",""66"",""580698""
""blur"",""67"",""585430""
""focus"",""69"",""599437""
""focus"",""69"",""599437""
""blur"",""70"",""602794""
""focus"",""71"",""608646""
""focus"",""71"",""608647""
","""event"",""trial"",""time""
""blur"",""67"",""585430""
""blur"",""70"",""602794""
","""event"",""trial"",""time""
""focus"",""69"",""599437""
""focus"",""69"",""599437""
""focus"",""71"",""608646""
""focus"",""71"",""608647""
","""event"",""trial"",""time""
""fullscreenenter"",""1"",""1525""
","""event"",""trial"",""time""
""fullscreenexit"",""66"",""580698""
","","[{""page_index"":0,""viewing_time"":1518}]","1518","","","","","","","","","","","","","","","","","","","","","","","",""
"pit-comprehension","109","848376","0.0-2.0-23.0-0.0","battery-v0.2","","""event"",""trial"",""time""
""fullscreenenter"",""1"",""1525""
""fullscreenexit"",""66"",""580698""
""blur"",""67"",""585430""
""focus"",""69"",""599437""
""focus"",""69"",""599437""
""blur"",""70"",""602794""
""focus"",""71"",""608646""
""focus"",""71"",""608647""
","""event"",""trial"",""time""
""blur"",""67"",""585430""
""blur"",""70"",""602794""
","""event"",""trial"",""time""
""focus"",""69"",""599437""
""focus"",""69"",""599437""
""focus"",""71"",""608646""
""focus"",""71"",""608647""
","""event"",""trial"",""time""
""fullscreenenter"",""1"",""1525""
","""event"",""trial"",""time""
""fullscreenexit"",""66"",""580698""
","","","14048.999999999884","[""True""]","0","19","11043","5128","","","","","","","","","","","","","","","","","","",""
"pit-instructions","110","850076","0.0-2.0-23.0-1.0","battery-v0.2","","""event"",""trial"",""time""
""fullscreenenter"",""1"",""1525""
""fullscreenexit"",""66"",""580698""
""blur"",""67"",""585430""
""focus"",""69"",""599437""
""focus"",""69"",""599437""
""blur"",""70"",""602794""
""focus"",""71"",""608646""
""focus"",""71"",""608647""
","""event"",""trial"",""time""
""blur"",""67"",""585430""
""blur"",""70"",""602794""
","""event"",""trial"",""time""
""focus"",""69"",""599437""
""focus"",""69"",""599437""
""focus"",""71"",""608646""
""focus"",""71"",""608647""
","""event"",""trial"",""time""
""fullscreenenter"",""1"",""1525""
","""event"",""trial"",""time""
""fullscreenexit"",""66"",""580698""
","","[{""page_index"":0,""viewing_time"":1666}]","1666","","","","","","","","","","","","","","","","","","","","","","","",""
"pit-comprehension","111","857929","0.0-2.0-24.0-0.0","battery-v0.2","","""event"",""trial"",""time""
""fullscreenenter"",""1"",""1525""
""fullscreenexit"",""66"",""580698""
""blur"",""67"",""585430""
""focus"",""69"",""599437""
""focus"",""69"",""599437""
""blur"",""70"",""602794""
""focus"",""71"",""608646""
""focus"",""71"",""608647""
","""event"",""trial"",""time""
""blur"",""67"",""585430""
""blur"",""70"",""602794""
","""event"",""trial"",""time""
""focus"",""69"",""599437""
""focus"",""69"",""599437""
""focus"",""71"",""608646""
""focus"",""71"",""608647""
","""event"",""trial"",""time""
""fullscreenenter"",""1"",""1525""
","""event"",""trial"",""time""
""fullscreenexit"",""66"",""580698""
","","","7846","[""True""]","0","19","11043","5128","","","","","","","","","","","","","","","","","","",""
"pit-instructions","112","859996","0.0-2.0-24.0-1.0","battery-v0.2","","""event"",""trial"",""time""
""fullscreenenter"",""1"",""1525""
""fullscreenexit"",""66"",""580698""
""blur"",""67"",""585430""
""focus"",""69"",""599437""
""focus"",""69"",""599437""
""blur"",""70"",""602794""
""focus"",""71"",""608646""
""focus"",""71"",""608647""
","""event"",""trial"",""time""
""blur"",""67"",""585430""
""blur"",""70"",""602794""
","""event"",""trial"",""time""
""focus"",""69"",""599437""
""focus"",""69"",""599437""
""focus"",""71"",""608646""
""focus"",""71"",""608647""
","""event"",""trial"",""time""
""fullscreenenter"",""1"",""1525""
","""event"",""trial"",""time""
""fullscreenexit"",""66"",""580698""
","","[{""page_index"":0,""viewing_time"":2033}]","2034","","","","","","","","","","","","","","","","","","","","","","","",""
"pit-comprehension","113","866235","0.0-2.0-25.0-0.0","battery-v0.2","","""event"",""trial"",""time""
""fullscreenenter"",""1"",""1525""
""fullscreenexit"",""66"",""580698""
""blur"",""67"",""585430""
""focus"",""69"",""599437""
""focus"",""69"",""599437""
""blur"",""70"",""602794""
""focus"",""71"",""608646""
""focus"",""71"",""608647""
","""event"",""trial"",""time""
""blur"",""67"",""585430""
""blur"",""70"",""602794""
","""event"",""trial"",""time""
""focus"",""69"",""599437""
""focus"",""69"",""599437""
""focus"",""71"",""608646""
""focus"",""71"",""608647""
","""event"",""trial"",""time""
""fullscreenenter"",""1"",""1525""
","""event"",""trial"",""time""
""fullscreenexit"",""66"",""580698""
","","","6236","[""True""]","0","19","11043","5128","","","","","","","","","","","","","","","","","","",""
"pit-instructions","114","868683","0.0-2.0-25.0-1.0","battery-v0.2","","""event"",""trial"",""time""
""fullscreenenter"",""1"",""1525""
""fullscreenexit"",""66"",""580698""
""blur"",""67"",""585430""
""focus"",""69"",""599437""
""focus"",""69"",""599437""
""blur"",""70"",""602794""
""focus"",""71"",""608646""
""focus"",""71"",""608647""
","""event"",""trial"",""time""
""blur"",""67"",""585430""
""blur"",""70"",""602794""
","""event"",""trial"",""time""
""focus"",""69"",""599437""
""focus"",""69"",""599437""
""focus"",""71"",""608646""
""focus"",""71"",""608647""
","""event"",""trial"",""time""
""fullscreenenter"",""1"",""1525""
","""event"",""trial"",""time""
""fullscreenexit"",""66"",""580698""
","","[{""page_index"":0,""viewing_time"":2417}]","2417","","","","","","","","","","","","","","","","","","","","","","","",""
"pit-comprehension","115","873319","0.0-2.0-26.0-0.0","battery-v0.2","","""event"",""trial"",""time""
""fullscreenenter"",""1"",""1525""
""fullscreenexit"",""66"",""580698""
""blur"",""67"",""585430""
""focus"",""69"",""599437""
""focus"",""69"",""599437""
""blur"",""70"",""602794""
""focus"",""71"",""608646""
""focus"",""71"",""608647""
","""event"",""trial"",""time""
""blur"",""67"",""585430""
""blur"",""70"",""602794""
","""event"",""trial"",""time""
""focus"",""69"",""599437""
""focus"",""69"",""599437""
""focus"",""71"",""608646""
""focus"",""71"",""608647""
","""event"",""trial"",""time""
""fullscreenenter"",""1"",""1525""
","""event"",""trial"",""time""
""fullscreenexit"",""66"",""580698""
","","","4632","[""False""]","0","19","11043","5128","","","","","","","","","","","","","","","","","","",""
"pit-instructions","116","879831","0.0-2.0-26.0-1.0","battery-v0.2","","""event"",""trial"",""time""
""fullscreenenter"",""1"",""1525""
""fullscreenexit"",""66"",""580698""
""blur"",""67"",""585430""
""focus"",""69"",""599437""
""focus"",""69"",""599437""
""blur"",""70"",""602794""
""focus"",""71"",""608646""
""focus"",""71"",""608647""
""blur"",""117"",""892130""
""focus"",""117"",""907015""
""focus"",""117"",""907016""
","""event"",""trial"",""time""
""blur"",""67"",""585430""
""blur"",""70"",""602794""
""blur"",""117"",""892130""
","""event"",""trial"",""time""
""focus"",""69"",""599437""
""focus"",""69"",""599437""
""focus"",""71"",""608646""
""focus"",""71"",""608647""
""focus"",""117"",""907015""
""focus"",""117"",""907016""
","""event"",""trial"",""time""
""fullscreenenter"",""1"",""1525""
","""event"",""trial"",""time""
""fullscreenexit"",""66"",""580698""
","","[{""page_index"":0,""viewing_time"":6481}]","6481","","","","","","","","","","","","","","","","","","","","","","","",""
"pit-instructions","117","908149","0.0-3.0","battery-v0.2","","""event"",""trial"",""time""
""fullscreenenter"",""1"",""1525""
""fullscreenexit"",""66"",""580698""
""blur"",""67"",""585430""
""focus"",""69"",""599437""
""focus"",""69"",""599437""
""blur"",""70"",""602794""
""focus"",""71"",""608646""
""focus"",""71"",""608647""
""blur"",""117"",""892130""
""focus"",""117"",""907015""
""focus"",""117"",""907016""
","""event"",""trial"",""time""
""blur"",""67"",""585430""
""blur"",""70"",""602794""
""blur"",""117"",""892130""
","""event"",""trial"",""time""
""focus"",""69"",""599437""
""focus"",""69"",""599437""
""focus"",""71"",""608646""
""focus"",""71"",""608647""
""focus"",""117"",""907015""
""focus"",""117"",""907016""
","""event"",""trial"",""time""
""fullscreenenter"",""1"",""1525""
","""event"",""trial"",""time""
""fullscreenexit"",""66"",""580698""
","","[{""page_index"":0,""viewing_time"":3762},{""page_index"":1,""viewing_time"":5786},{""page_index"":2,""viewing_time"":18766.000000000116}]","28314.000000000116","","","","","","","","","","","","","","","","","","","","","","","",""
"pit-trial","118","912412","0.0-4.0","battery-v0.2","","""event"",""trial"",""time""
""fullscreenenter"",""1"",""1525""
""fullscreenexit"",""66"",""580698""
""blur"",""67"",""585430""
""focus"",""69"",""599437""
""focus"",""69"",""599437""
""blur"",""70"",""602794""
""focus"",""71"",""608646""
""focus"",""71"",""608647""
""blur"",""117"",""892130""
""focus"",""117"",""907015""
""focus"",""117"",""907016""
","""event"",""trial"",""time""
""blur"",""67"",""585430""
""blur"",""70"",""602794""
""blur"",""117"",""892130""
","""event"",""trial"",""time""
""focus"",""69"",""599437""
""focus"",""69"",""599437""
""focus"",""71"",""608646""
""focus"",""71"",""608647""
""focus"",""117"",""907015""
""focus"",""117"",""907016""
","""event"",""trial"",""time""
""fullscreenenter"",""1"",""1525""
","""event"",""trial"",""time""
""fullscreenexit"",""66"",""580698""
","","","1405.9999999998836","","","19","11043","5128","&#9752;","elianto","#f73b6a7A"," "," ","1","0","[2256.9999999998836]","1","1","","","11043","1","3","3","lose","go","0"
"pit-trial","119","916160","0.0-5.0","battery-v0.2","","""event"",""trial"",""time""
""fullscreenenter"",""1"",""1525""
""fullscreenexit"",""66"",""580698""
""blur"",""67"",""585430""
""focus"",""69"",""599437""
""focus"",""69"",""599437""
""blur"",""70"",""602794""
""focus"",""71"",""608646""
""focus"",""71"",""608647""
""blur"",""117"",""892130""
""focus"",""117"",""907015""
""focus"",""117"",""907016""
","""event"",""trial"",""time""
""blur"",""67"",""585430""
""blur"",""70"",""602794""
""blur"",""117"",""892130""
","""event"",""trial"",""time""
""focus"",""69"",""599437""
""focus"",""69"",""599437""
""focus"",""71"",""608646""
""focus"",""71"",""608647""
""focus"",""117"",""907015""
""focus"",""117"",""907016""
","""event"",""trial"",""time""
""fullscreenenter"",""1"",""1525""
","""event"",""trial"",""time""
""fullscreenexit"",""66"",""580698""
","","","891","","","19","11043","5128","&#9733;","elianto","#3366ff99","-1"," ","0","0","[1741]","1","1","","","11043","2","2","2","win","no-go","0"
"pit-trial","120","919841","0.0-6.0","battery-v0.2","","""event"",""trial"",""time""
""fullscreenenter"",""1"",""1525""
""fullscreenexit"",""66"",""580698""
""blur"",""67"",""585430""
""focus"",""69"",""599437""
""focus"",""69"",""599437""
""blur"",""70"",""602794""
""focus"",""71"",""608646""
""focus"",""71"",""608647""
""blur"",""117"",""892130""
""focus"",""117"",""907015""
""focus"",""117"",""907016""
","""event"",""trial"",""time""
""blur"",""67"",""585430""
""blur"",""70"",""602794""
""blur"",""117"",""892130""
","""event"",""trial"",""time""
""focus"",""69"",""599437""
""focus"",""69"",""599437""
""focus"",""71"",""608646""
""focus"",""71"",""608647""
""focus"",""117"",""907015""
""focus"",""117"",""907016""
","""event"",""trial"",""time""
""fullscreenenter"",""1"",""1525""
","""event"",""trial"",""time""
""fullscreenexit"",""66"",""580698""
","","","822","","","19","11043","5128","&#9730;","elianto","#3366ff99"," "," ","1","+10","[1673]","1","1","","","11043","3","1","1","win","go","0"
"pit-trial","121","924702","0.0-7.0","battery-v0.2","","""event"",""trial"",""time""
""fullscreenenter"",""1"",""1525""
""fullscreenexit"",""66"",""580698""
""blur"",""67"",""585430""
""focus"",""69"",""599437""
""focus"",""69"",""599437""
""blur"",""70"",""602794""
""focus"",""71"",""608646""
""focus"",""71"",""608647""
""blur"",""117"",""892130""
""focus"",""117"",""907015""
""focus"",""117"",""907016""
","""event"",""trial"",""time""
""blur"",""67"",""585430""
""blur"",""70"",""602794""
""blur"",""117"",""892130""
","""event"",""trial"",""time""
""focus"",""69"",""599437""
""focus"",""69"",""599437""
""focus"",""71"",""608646""
""focus"",""71"",""608647""
""focus"",""117"",""907015""
""focus"",""117"",""907016""
","""event"",""trial"",""time""
""fullscreenenter"",""1"",""1525""
","""event"",""trial"",""time""
""fullscreenexit"",""66"",""580698""
","","","-1","","","19","11043","5128","&#9728;","elianto","#f73b6a7A","-1","-1","1","0","[]","0","1","","","11043","4","0","4","lose","no-go","0"
"pit-trial","122","928792","0.0-8.0","battery-v0.2","","""event"",""trial"",""time""
""fullscreenenter"",""1"",""1525""
""fullscreenexit"",""66"",""580698""
""blur"",""67"",""585430""
""focus"",""69"",""599437""
""focus"",""69"",""599437""
""blur"",""70"",""602794""
""focus"",""71"",""608646""
""focus"",""71"",""608647""
""blur"",""117"",""892130""
""focus"",""117"",""907015""
""focus"",""117"",""907016""
","""event"",""trial"",""time""
""blur"",""67"",""585430""
""blur"",""70"",""602794""
""blur"",""117"",""892130""
","""event"",""trial"",""time""
""focus"",""69"",""599437""
""focus"",""69"",""599437""
""focus"",""71"",""608646""
""focus"",""71"",""608647""
""focus"",""117"",""907015""
""focus"",""117"",""907016""
","""event"",""trial"",""time""
""fullscreenenter"",""1"",""1525""
","""event"",""trial"",""time""
""fullscreenexit"",""66"",""580698""
","","","1232","","","19","11043","5128","&#9752;","elianto","#f73b6a7A"," "," ","1","0","[2082]","1","1","","","11043","5","3","3","lose","go","0"
"pit-trial","123","933414","0.0-9.0","battery-v0.2","","""event"",""trial"",""time""
""fullscreenenter"",""1"",""1525""
""fullscreenexit"",""66"",""580698""
""blur"",""67"",""585430""
""focus"",""69"",""599437""
""focus"",""69"",""599437""
""blur"",""70"",""602794""
""focus"",""71"",""608646""
""focus"",""71"",""608647""
""blur"",""117"",""892130""
""focus"",""117"",""907015""
""focus"",""117"",""907016""
","""event"",""trial"",""time""
""blur"",""67"",""585430""
""blur"",""70"",""602794""
""blur"",""117"",""892130""
","""event"",""trial"",""time""
""focus"",""69"",""599437""
""focus"",""69"",""599437""
""focus"",""71"",""608646""
""focus"",""71"",""608647""
""focus"",""117"",""907015""
""focus"",""117"",""907016""
","""event"",""trial"",""time""
""fullscreenenter"",""1"",""1525""
","""event"",""trial"",""time""
""fullscreenexit"",""66"",""580698""
","","","1764","","","19","11043","5128","&#9728;","elianto","#f73b6a7A","-1"," ","0","-10","[2613.9999999998836]","1","1","","","11043","6","0","4","lose","no-go","0"
"pit-trial","124","937189","0.0-10.0","battery-v0.2","","""event"",""trial"",""time""
""fullscreenenter"",""1"",""1525""
""fullscreenexit"",""66"",""580698""
""blur"",""67"",""585430""
""focus"",""69"",""599437""
""focus"",""69"",""599437""
""blur"",""70"",""602794""
""focus"",""71"",""608646""
""focus"",""71"",""608647""
""blur"",""117"",""892130""
""focus"",""117"",""907015""
""focus"",""117"",""907016""
","""event"",""trial"",""time""
""blur"",""67"",""585430""
""blur"",""70"",""602794""
""blur"",""117"",""892130""
","""event"",""trial"",""time""
""focus"",""69"",""599437""
""focus"",""69"",""599437""
""focus"",""71"",""608646""
""focus"",""71"",""608647""
""focus"",""117"",""907015""
""focus"",""117"",""907016""
","""event"",""trial"",""time""
""fullscreenenter"",""1"",""1525""
","""event"",""trial"",""time""
""fullscreenexit"",""66"",""580698""
","","","916.0000000001164","","","19","11043","5128","&#9730;","elianto","#3366ff99"," "," ","1","+10","[1767.0000000001164]","1","1","","","11043","7","1","1","win","go","0"
"pit-trial","125","940817","0.0-11.0","battery-v0.2","","""event"",""trial"",""time""
""fullscreenenter"",""1"",""1525""
""fullscreenexit"",""66"",""580698""
""blur"",""67"",""585430""
""focus"",""69"",""599437""
""focus"",""69"",""599437""
""blur"",""70"",""602794""
""focus"",""71"",""608646""
""focus"",""71"",""608647""
""blur"",""117"",""892130""
""focus"",""117"",""907015""
""focus"",""117"",""907016""
","""event"",""trial"",""time""
""blur"",""67"",""585430""
""blur"",""70"",""602794""
""blur"",""117"",""892130""
","""event"",""trial"",""time""
""focus"",""69"",""599437""
""focus"",""69"",""599437""
""focus"",""71"",""608646""
""focus"",""71"",""608647""
""focus"",""117"",""907015""
""focus"",""117"",""907016""
","""event"",""trial"",""time""
""fullscreenenter"",""1"",""1525""
","""event"",""trial"",""time""
""fullscreenexit"",""66"",""580698""
","","","767","","","19","11043","5128","&#9733;","elianto","#3366ff99","-1"," ","0","+10","[1618.9999999998836]","1","1","","","11043","8","2","2","win","no-go","1"
"pit-trial","126","944605","0.0-12.0","battery-v0.2","","""event"",""trial"",""time""
""fullscreenenter"",""1"",""1525""
""fullscreenexit"",""66"",""580698""
""blur"",""67"",""585430""
""focus"",""69"",""599437""
""focus"",""69"",""599437""
""blur"",""70"",""602794""
""focus"",""71"",""608646""
""focus"",""71"",""608647""
""blur"",""117"",""892130""
""focus"",""117"",""907015""
""focus"",""117"",""907016""
","""event"",""trial"",""time""
""blur"",""67"",""585430""
""blur"",""70"",""602794""
""blur"",""117"",""892130""
","""event"",""trial"",""time""
""focus"",""69"",""599437""
""focus"",""69"",""599437""
""focus"",""71"",""608646""
""focus"",""71"",""608647""
""focus"",""117"",""907015""
""focus"",""117"",""907016""
","""event"",""trial"",""time""
""fullscreenenter"",""1"",""1525""
","""event"",""trial"",""time""
""fullscreenexit"",""66"",""580698""
","","","928","","","19","11043","5128","&#9752;","elianto","#f73b6a7A"," "," ","1","0","[1780]","1","1","","","11043","9","3","3","lose","go","0"
"pit-trial","127","949467","0.0-13.0","battery-v0.2","","""event"",""trial"",""time""
""fullscreenenter"",""1"",""1525""
""fullscreenexit"",""66"",""580698""
""blur"",""67"",""585430""
""focus"",""69"",""599437""
""focus"",""69"",""599437""
""blur"",""70"",""602794""
""focus"",""71"",""608646""
""focus"",""71"",""608647""
""blur"",""117"",""892130""
""focus"",""117"",""907015""
""focus"",""117"",""907016""
","""event"",""trial"",""time""
""blur"",""67"",""585430""
""blur"",""70"",""602794""
""blur"",""117"",""892130""
","""event"",""trial"",""time""
""focus"",""69"",""599437""
""focus"",""69"",""599437""
""focus"",""71"",""608646""
""focus"",""71"",""608647""
""focus"",""117"",""907015""
""focus"",""117"",""907016""
","""event"",""trial"",""time""
""fullscreenenter"",""1"",""1525""
","""event"",""trial"",""time""
""fullscreenexit"",""66"",""580698""
","","","-1","","","19","11043","5128","&#9728;","elianto","#f73b6a7A","-1","-1","1","0","[]","0","1","","","11043","10","0","4","lose","no-go","0"
"pit-trial","128","953236","0.0-14.0","battery-v0.2","","""event"",""trial"",""time""
""fullscreenenter"",""1"",""1525""
""fullscreenexit"",""66"",""580698""
""blur"",""67"",""585430""
""focus"",""69"",""599437""
""focus"",""69"",""599437""
""blur"",""70"",""602794""
""focus"",""71"",""608646""
""focus"",""71"",""608647""
""blur"",""117"",""892130""
""focus"",""117"",""907015""
""focus"",""117"",""907016""
","""event"",""trial"",""time""
""blur"",""67"",""585430""
""blur"",""70"",""602794""
""blur"",""117"",""892130""
","""event"",""trial"",""time""
""focus"",""69"",""599437""
""focus"",""69"",""599437""
""focus"",""71"",""608646""
""focus"",""71"",""608647""
""focus"",""117"",""907015""
""focus"",""117"",""907016""
","""event"",""trial"",""time""
""fullscreenenter"",""1"",""1525""
","""event"",""trial"",""time""
""fullscreenexit"",""66"",""580698""
","","","910","","","19","11043","5128","&#9733;","elianto","#3366ff99","-1"," ","0","0","[1761]","1","1","","","11043","11","2","2","win","no-go","0"
"pit-trial","129","956678","0.0-15.0","battery-v0.2","","""event"",""trial"",""time""
""fullscreenenter"",""1"",""1525""
""fullscreenexit"",""66"",""580698""
""blur"",""67"",""585430""
""focus"",""69"",""599437""
""focus"",""69"",""599437""
""blur"",""70"",""602794""
""focus"",""71"",""608646""
""focus"",""71"",""608647""
""blur"",""117"",""892130""
""focus"",""117"",""907015""
""focus"",""117"",""907016""
","""event"",""trial"",""time""
""blur"",""67"",""585430""
""blur"",""70"",""602794""
""blur"",""117"",""892130""
","""event"",""trial"",""time""
""focus"",""69"",""599437""
""focus"",""69"",""599437""
""focus"",""71"",""608646""
""focus"",""71"",""608647""
""focus"",""117"",""907015""
""focus"",""117"",""907016""
","""event"",""trial"",""time""
""fullscreenenter"",""1"",""1525""
","""event"",""trial"",""time""
""fullscreenexit"",""66"",""580698""
","","","580.9999999998836","","","19","11043","5128","&#9730;","elianto","#3366ff99"," "," ","1","+10","[1432]","1","1","","","11043","12","1","1","win","go","0"
"pit-trial","130","961539","0.0-16.0","battery-v0.2","","""event"",""trial"",""time""
""fullscreenenter"",""1"",""1525""
""fullscreenexit"",""66"",""580698""
""blur"",""67"",""585430""
""focus"",""69"",""599437""
""focus"",""69"",""599437""
""blur"",""70"",""602794""
""focus"",""71"",""608646""
""focus"",""71"",""608647""
""blur"",""117"",""892130""
""focus"",""117"",""907015""
""focus"",""117"",""907016""
","""event"",""trial"",""time""
""blur"",""67"",""585430""
""blur"",""70"",""602794""
""blur"",""117"",""892130""
","""event"",""trial"",""time""
""focus"",""69"",""599437""
""focus"",""69"",""599437""
""focus"",""71"",""608646""
""focus"",""71"",""608647""
""focus"",""117"",""907015""
""focus"",""117"",""907016""
","""event"",""trial"",""time""
""fullscreenenter"",""1"",""1525""
","""event"",""trial"",""time""
""fullscreenexit"",""66"",""580698""
","","","-1","","","19","11043","5128","&#9728;","elianto","#f73b6a7A","-1","-1","1","0","[]","0","1","","","11043","13","0","4","lose","no-go","0"
"pit-trial","131","964955","0.0-17.0","battery-v0.2","","""event"",""trial"",""time""
""fullscreenenter"",""1"",""1525""
""fullscreenexit"",""66"",""580698""
""blur"",""67"",""585430""
""focus"",""69"",""599437""
""focus"",""69"",""599437""
""blur"",""70"",""602794""
""focus"",""71"",""608646""
""focus"",""71"",""608647""
""blur"",""117"",""892130""
""focus"",""117"",""907015""
""focus"",""117"",""907016""
","""event"",""trial"",""time""
""blur"",""67"",""585430""
""blur"",""70"",""602794""
""blur"",""117"",""892130""
","""event"",""trial"",""time""
""focus"",""69"",""599437""
""focus"",""69"",""599437""
""focus"",""71"",""608646""
""focus"",""71"",""608647""
""focus"",""117"",""907015""
""focus"",""117"",""907016""
","""event"",""trial"",""time""
""fullscreenenter"",""1"",""1525""
","""event"",""trial"",""time""
""fullscreenexit"",""66"",""580698""
","","","555.9999999998836","","","19","11043","5128","&#9752;","elianto","#f73b6a7A"," "," ","1","0","[1406.9999999998836]","1","1","","","11043","14","3","3","lose","go","0"
"pit-trial","132","968599","0.0-18.0","battery-v0.2","","""event"",""trial"",""time""
""fullscreenenter"",""1"",""1525""
""fullscreenexit"",""66"",""580698""
""blur"",""67"",""585430""
""focus"",""69"",""599437""
""focus"",""69"",""599437""
""blur"",""70"",""602794""
""focus"",""71"",""608646""
""focus"",""71"",""608647""
""blur"",""117"",""892130""
""focus"",""117"",""907015""
""focus"",""117"",""907016""
","""event"",""trial"",""time""
""blur"",""67"",""585430""
""blur"",""70"",""602794""
""blur"",""117"",""892130""
","""event"",""trial"",""time""
""focus"",""69"",""599437""
""focus"",""69"",""599437""
""focus"",""71"",""608646""
""focus"",""71"",""608647""
""focus"",""117"",""907015""
""focus"",""117"",""907016""
","""event"",""trial"",""time""
""fullscreenenter"",""1"",""1525""
","""event"",""trial"",""time""
""fullscreenexit"",""66"",""580698""
","","","784","","","19","11043","5128","&#9730;","elianto","#3366ff99"," "," ","1","+10","[1635]","1","1","","","11043","15","1","1","win","go","0"
"pit-trial","133","973459","0.0-19.0","battery-v0.2","","""event"",""trial"",""time""
""fullscreenenter"",""1"",""1525""
""fullscreenexit"",""66"",""580698""
""blur"",""67"",""585430""
""focus"",""69"",""599437""
""focus"",""69"",""599437""
""blur"",""70"",""602794""
""focus"",""71"",""608646""
""focus"",""71"",""608647""
""blur"",""117"",""892130""
""focus"",""117"",""907015""
""focus"",""117"",""907016""
","""event"",""trial"",""time""
""blur"",""67"",""585430""
""blur"",""70"",""602794""
""blur"",""117"",""892130""
","""event"",""trial"",""time""
""focus"",""69"",""599437""
""focus"",""69"",""599437""
""focus"",""71"",""608646""
""focus"",""71"",""608647""
""focus"",""117"",""907015""
""focus"",""117"",""907016""
","""event"",""trial"",""time""
""fullscreenenter"",""1"",""1525""
","""event"",""trial"",""time""
""fullscreenexit"",""66"",""580698""
","","","-1","","","19","11043","5128","&#9733;","elianto","#3366ff99","-1","-1","1","+10","[]","0","1","","","11043","16","2","2","win","no-go","0"
"pit-trial","134","978320","0.0-20.0","battery-v0.2","","""event"",""trial"",""time""
""fullscreenenter"",""1"",""1525""
""fullscreenexit"",""66"",""580698""
""blur"",""67"",""585430""
""focus"",""69"",""599437""
""focus"",""69"",""599437""
""blur"",""70"",""602794""
""focus"",""71"",""608646""
""focus"",""71"",""608647""
""blur"",""117"",""892130""
""focus"",""117"",""907015""
""focus"",""117"",""907016""
","""event"",""trial"",""time""
""blur"",""67"",""585430""
""blur"",""70"",""602794""
""blur"",""117"",""892130""
","""event"",""trial"",""time""
""focus"",""69"",""599437""
""focus"",""69"",""599437""
""focus"",""71"",""608646""
""focus"",""71"",""608647""
""focus"",""117"",""907015""
""focus"",""117"",""907016""
","""event"",""trial"",""time""
""fullscreenenter"",""1"",""1525""
","""event"",""trial"",""time""
""fullscreenexit"",""66"",""580698""
","","","-1","","","19","11043","5128","&#9733;","elianto","#3366ff99","-1","-1","1","0","[]","0","1","","","11043","17","2","2","win","no-go","1"
"pit-trial","135","983179","0.0-21.0","battery-v0.2","","""event"",""trial"",""time""
""fullscreenenter"",""1"",""1525""
""fullscreenexit"",""66"",""580698""
""blur"",""67"",""585430""
""focus"",""69"",""599437""
""focus"",""69"",""599437""
""blur"",""70"",""602794""
""focus"",""71"",""608646""
""focus"",""71"",""608647""
""blur"",""117"",""892130""
""focus"",""117"",""907015""
""focus"",""117"",""907016""
","""event"",""trial"",""time""
""blur"",""67"",""585430""
""blur"",""70"",""602794""
""blur"",""117"",""892130""
","""event"",""trial"",""time""
""focus"",""69"",""599437""
""focus"",""69"",""599437""
""focus"",""71"",""608646""
""focus"",""71"",""608647""
""focus"",""117"",""907015""
""focus"",""117"",""907016""
","""event"",""trial"",""time""
""fullscreenenter"",""1"",""1525""
","""event"",""trial"",""time""
""fullscreenexit"",""66"",""580698""
","","","-1","","","19","11043","5128","&#9728;","elianto","#f73b6a7A","-1","-1","1","0","[]","0","1","","","11043","18","0","4","lose","no-go","0"
"pit-trial","136","987217","0.0-22.0","battery-v0.2","","""event"",""trial"",""time""
""fullscreenenter"",""1"",""1525""
""fullscreenexit"",""66"",""580698""
""blur"",""67"",""585430""
""focus"",""69"",""599437""
""focus"",""69"",""599437""
""blur"",""70"",""602794""
""focus"",""71"",""608646""
""focus"",""71"",""608647""
""blur"",""117"",""892130""
""focus"",""117"",""907015""
""focus"",""117"",""907016""
","""event"",""trial"",""time""
""blur"",""67"",""585430""
""blur"",""70"",""602794""
""blur"",""117"",""892130""
","""event"",""trial"",""time""
""focus"",""69"",""599437""
""focus"",""69"",""599437""
""focus"",""71"",""608646""
""focus"",""71"",""608647""
""focus"",""117"",""907015""
""focus"",""117"",""907016""
","""event"",""trial"",""time""
""fullscreenenter"",""1"",""1525""
","""event"",""trial"",""time""
""fullscreenexit"",""66"",""580698""
","","","1177","","","19","11043","5128","&#9752;","elianto","#f73b6a7A"," "," ","1","-10","[2028]","1","1","","","11043","19","3","3","lose","go","1"
"pit-trial","137","990930","0.0-23.0","battery-v0.2","","""event"",""trial"",""time""
""fullscreenenter"",""1"",""1525""
""fullscreenexit"",""66"",""580698""
""blur"",""67"",""585430""
""focus"",""69"",""599437""
""focus"",""69"",""599437""
""blur"",""70"",""602794""
""focus"",""71"",""608646""
""focus"",""71"",""608647""
""blur"",""117"",""892130""
""focus"",""117"",""907015""
""focus"",""117"",""907016""
""blur"",""138"",""1014647""
""focus"",""138"",""1041609""
","""event"",""trial"",""time""
""blur"",""67"",""585430""
""blur"",""70"",""602794""
""blur"",""117"",""892130""
""blur"",""138"",""1014647""
","""event"",""trial"",""time""
""focus"",""69"",""599437""
""focus"",""69"",""599437""
""focus"",""71"",""608646""
""focus"",""71"",""608647""
""focus"",""117"",""907015""
""focus"",""117"",""907016""
""focus"",""138"",""1041609""
","""event"",""trial"",""time""
""fullscreenenter"",""1"",""1525""
","""event"",""trial"",""time""
""fullscreenexit"",""66"",""580698""
","","","852","","","19","11043","5128","&#9730;","elianto","#3366ff99"," "," ","1","+10","[1703]","1","1","","","11043","20","1","1","win","go","0"
"pit-instructions","138","1042067","0.0-24.0","battery-v0.2","","""event"",""trial"",""time""
""fullscreenenter"",""1"",""1525""
""fullscreenexit"",""66"",""580698""
""blur"",""67"",""585430""
""focus"",""69"",""599437""
""focus"",""69"",""599437""
""blur"",""70"",""602794""
""focus"",""71"",""608646""
""focus"",""71"",""608647""
""blur"",""117"",""892130""
""focus"",""117"",""907015""
""focus"",""117"",""907016""
""blur"",""138"",""1014647""
""focus"",""138"",""1041609""
","""event"",""trial"",""time""
""blur"",""67"",""585430""
""blur"",""70"",""602794""
""blur"",""117"",""892130""
""blur"",""138"",""1014647""
","""event"",""trial"",""time""
""focus"",""69"",""599437""
""focus"",""69"",""599437""
""focus"",""71"",""608646""
""focus"",""71"",""608647""
""focus"",""117"",""907015""
""focus"",""117"",""907016""
""focus"",""138"",""1041609""
","""event"",""trial"",""time""
""fullscreenenter"",""1"",""1525""
","""event"",""trial"",""time""
""fullscreenexit"",""66"",""580698""
","","[{""page_index"":0,""viewing_time"":5547},{""page_index"":1,""viewing_time"":45584}]","51131","","","","","","","","","","","","","","","","","","","","","","","",""
"pit-trial","139","1046485","0.0-25.0","battery-v0.2","","""event"",""trial"",""time""
""fullscreenenter"",""1"",""1525""
""fullscreenexit"",""66"",""580698""
""blur"",""67"",""585430""
""focus"",""69"",""599437""
""focus"",""69"",""599437""
""blur"",""70"",""602794""
""focus"",""71"",""608646""
""focus"",""71"",""608647""
""blur"",""117"",""892130""
""focus"",""117"",""907015""
""focus"",""117"",""907016""
""blur"",""138"",""1014647""
""focus"",""138"",""1041609""
","""event"",""trial"",""time""
""blur"",""67"",""585430""
""blur"",""70"",""602794""
""blur"",""117"",""892130""
""blur"",""138"",""1014647""
","""event"",""trial"",""time""
""focus"",""69"",""599437""
""focus"",""69"",""599437""
""focus"",""71"",""608646""
""focus"",""71"",""608647""
""focus"",""117"",""907015""
""focus"",""117"",""907016""
""focus"",""138"",""1041609""
","""event"",""trial"",""time""
""fullscreenenter"",""1"",""1525""
","""event"",""trial"",""time""
""fullscreenexit"",""66"",""580698""
","","","1559.9999999998836","","","19","11043","5128","b","elianto","#f73b6a7A"," "," ","1","0","[2410.999999999767]","1","2","","","11043","21","3","3","lose","go","0"
"pit-trial","140","1050048","0.0-26.0","battery-v0.2","","""event"",""trial"",""time""
""fullscreenenter"",""1"",""1525""
""fullscreenexit"",""66"",""580698""
""blur"",""67"",""585430""
""focus"",""69"",""599437""
""focus"",""69"",""599437""
""blur"",""70"",""602794""
""focus"",""71"",""608646""
""focus"",""71"",""608647""
""blur"",""117"",""892130""
""focus"",""117"",""907015""
""focus"",""117"",""907016""
""blur"",""138"",""1014647""
""focus"",""138"",""1041609""
","""event"",""trial"",""time""
""blur"",""67"",""585430""
""blur"",""70"",""602794""
""blur"",""117"",""892130""
""blur"",""138"",""1014647""
","""event"",""trial"",""time""
""focus"",""69"",""599437""
""focus"",""69"",""599437""
""focus"",""71"",""608646""
""focus"",""71"",""608647""
""focus"",""117"",""907015""
""focus"",""117"",""907016""
""focus"",""138"",""1041609""
","""event"",""trial"",""time""
""fullscreenenter"",""1"",""1525""
","""event"",""trial"",""time""
""fullscreenexit"",""66"",""580698""
","","","704.9999999998836","","","19","11043","5128","f","elianto","#3366ff99"," "," ","1","+10","[1555]","1","2","","","11043","22","1","1","win","go","0"
"pit-trial","141","1053951","0.0-27.0","battery-v0.2","","""event"",""trial"",""time""
""fullscreenenter"",""1"",""1525""
""fullscreenexit"",""66"",""580698""
""blur"",""67"",""585430""
""focus"",""69"",""599437""
""focus"",""69"",""599437""
""blur"",""70"",""602794""
""focus"",""71"",""608646""
""focus"",""71"",""608647""
""blur"",""117"",""892130""
""focus"",""117"",""907015""
""focus"",""117"",""907016""
""blur"",""138"",""1014647""
""focus"",""138"",""1041609""
","""event"",""trial"",""time""
""blur"",""67"",""585430""
""blur"",""70"",""602794""
""blur"",""117"",""892130""
""blur"",""138"",""1014647""
","""event"",""trial"",""time""
""focus"",""69"",""599437""
""focus"",""69"",""599437""
""focus"",""71"",""608646""
""focus"",""71"",""608647""
""focus"",""117"",""907015""
""focus"",""117"",""907016""
""focus"",""138"",""1041609""
","""event"",""trial"",""time""
""fullscreenenter"",""1"",""1525""
","""event"",""trial"",""time""
""fullscreenexit"",""66"",""580698""
","","","1042","","","19","11043","5128","t","elianto","#f73b6a7A","-1"," ","0","-10","[1893]","1","2","","","11043","23","2","4","lose","no-go","0"
"pit-trial","142","1058125","0.0-28.0","battery-v0.2","","""event"",""trial"",""time""
""fullscreenenter"",""1"",""1525""
""fullscreenexit"",""66"",""580698""
""blur"",""67"",""585430""
""focus"",""69"",""599437""
""focus"",""69"",""599437""
""blur"",""70"",""602794""
""focus"",""71"",""608646""
""focus"",""71"",""608647""
""blur"",""117"",""892130""
""focus"",""117"",""907015""
""focus"",""117"",""907016""
""blur"",""138"",""1014647""
""focus"",""138"",""1041609""
","""event"",""trial"",""time""
""blur"",""67"",""585430""
""blur"",""70"",""602794""
""blur"",""117"",""892130""
""blur"",""138"",""1014647""
","""event"",""trial"",""time""
""focus"",""69"",""599437""
""focus"",""69"",""599437""
""focus"",""71"",""608646""
""focus"",""71"",""608647""
""focus"",""117"",""907015""
""focus"",""117"",""907016""
""focus"",""138"",""1041609""
","""event"",""trial"",""time""
""fullscreenenter"",""1"",""1525""
","""event"",""trial"",""time""
""fullscreenexit"",""66"",""580698""
","","","1315","","","19","11043","5128","n","elianto","#f73b6a7A","-1"," ","0","-10","[2166]","1","2","","","11043","24","0","4","lose","no-go","0"
"pit-trial","143","1062986","0.0-29.0","battery-v0.2","","""event"",""trial"",""time""
""fullscreenenter"",""1"",""1525""
""fullscreenexit"",""66"",""580698""
""blur"",""67"",""585430""
""focus"",""69"",""599437""
""focus"",""69"",""599437""
""blur"",""70"",""602794""
""focus"",""71"",""608646""
""focus"",""71"",""608647""
""blur"",""117"",""892130""
""focus"",""117"",""907015""
""focus"",""117"",""907016""
""blur"",""138"",""1014647""
""focus"",""138"",""1041609""
","""event"",""trial"",""time""
""blur"",""67"",""585430""
""blur"",""70"",""602794""
""blur"",""117"",""892130""
""blur"",""138"",""1014647""
","""event"",""trial"",""time""
""focus"",""69"",""599437""
""focus"",""69"",""599437""
""focus"",""71"",""608646""
""focus"",""71"",""608647""
""focus"",""117"",""907015""
""focus"",""117"",""907016""
""focus"",""138"",""1041609""
","""event"",""trial"",""time""
""fullscreenenter"",""1"",""1525""
","""event"",""trial"",""time""
""fullscreenexit"",""66"",""580698""
","","","-1","","","19","11043","5128","n","elianto","#f73b6a7A","-1","-1","1","0","[]","0","2","","","11043","25","0","4","lose","no-go","0"
"pit-trial","144","1066491","0.0-30.0","battery-v0.2","","""event"",""trial"",""time""
""fullscreenenter"",""1"",""1525""
""fullscreenexit"",""66"",""580698""
""blur"",""67"",""585430""
""focus"",""69"",""599437""
""focus"",""69"",""599437""
""blur"",""70"",""602794""
""focus"",""71"",""608646""
""focus"",""71"",""608647""
""blur"",""117"",""892130""
""focus"",""117"",""907015""
""focus"",""117"",""907016""
""blur"",""138"",""1014647""
""focus"",""138"",""1041609""
","""event"",""trial"",""time""
""blur"",""67"",""585430""
""blur"",""70"",""602794""
""blur"",""117"",""892130""
""blur"",""138"",""1014647""
","""event"",""trial"",""time""
""focus"",""69"",""599437""
""focus"",""69"",""599437""
""focus"",""71"",""608646""
""focus"",""71"",""608647""
""focus"",""117"",""907015""
""focus"",""117"",""907016""
""focus"",""138"",""1041609""
","""event"",""trial"",""time""
""fullscreenenter"",""1"",""1525""
","""event"",""trial"",""time""
""fullscreenexit"",""66"",""580698""
","","","644","","","19","11043","5128","f","elianto","#3366ff99"," "," ","1","+10","[1495]","1","2","","","11043","26","1","1","win","go","0"
"pit-trial","145","1071351","0.0-31.0","battery-v0.2","","""event"",""trial"",""time""
""fullscreenenter"",""1"",""1525""
""fullscreenexit"",""66"",""580698""
""blur"",""67"",""585430""
""focus"",""69"",""599437""
""focus"",""69"",""599437""
""blur"",""70"",""602794""
""focus"",""71"",""608646""
""focus"",""71"",""608647""
""blur"",""117"",""892130""
""focus"",""117"",""907015""
""focus"",""117"",""907016""
""blur"",""138"",""1014647""
""focus"",""138"",""1041609""
","""event"",""trial"",""time""
""blur"",""67"",""585430""
""blur"",""70"",""602794""
""blur"",""117"",""892130""
""blur"",""138"",""1014647""
","""event"",""trial"",""time""
""focus"",""69"",""599437""
""focus"",""69"",""599437""
""focus"",""71"",""608646""
""focus"",""71"",""608647""
""focus"",""117"",""907015""
""focus"",""117"",""907016""
""focus"",""138"",""1041609""
","""event"",""trial"",""time""
""fullscreenenter"",""1"",""1525""
","""event"",""trial"",""time""
""fullscreenexit"",""66"",""580698""
","","","-1","","","19","11043","5128","t","elianto","#f73b6a7A","-1","-1","1","0","[]","0","2","","","11043","27","2","4","lose","no-go","0"
