"trial_type","trial_index","time_elapsed","internal_node_id","task_version","subject_id","interactions","blur_events","focus_events","fullscreenenter_events","fullscreenexit_events","success","view_history","rt","responses","num_errors","age","subject","participantId","rune","rune_set","hex","correct","choice","accuracy","outcome","keys","total_keys","block","practice","value","sub","trial","stimulus","robot","valence","action","sham"
"pavlovia","0","29","0.0-0.0","battery-v0.2","","""event"",""trial"",""time""
""fullscreenenter"",""1"",""5185""
","
","
","""event"",""trial"",""time""
""fullscreenenter"",""1"",""5185""
","
","","","","","","","","","","","","","","","","","","","","","","","","","","",""
"fullscreen","1","6163","0.0-1.0","battery-v0.2","","""event"",""trial"",""time""
""fullscreenenter"",""1"",""5185""
","
","
","""event"",""trial"",""time""
""fullscreenenter"",""1"",""5185""
","
","true","","","","","","","","","","","","","","","","","","","","","","","","","",""
"pit-instructions","2","21945","0.0-2.0-0.0","battery-v0.2","","""event"",""trial"",""time""
""fullscreenenter"",""1"",""5185""
","
","
","""event"",""trial"",""time""
""fullscreenenter"",""1"",""5185""
","
","","[{""page_index"":0,""viewing_time"":15777.5}]","15778.60000000894","","","","","","","","","","","","","","","","","","","","","","","",""
"pit-comprehension","3","46062","0.0-2.0-1.0-0.0","battery-v0.2","","""event"",""trial"",""time""
""fullscreenenter"",""1"",""5185""
""blur"",""4"",""51588""
""focus"",""4"",""81040""
","""event"",""trial"",""time""
""blur"",""4"",""51588""
","""event"",""trial"",""time""
""focus"",""4"",""81040""
","""event"",""trial"",""time""
""fullscreenenter"",""1"",""5185""
","
","","","24111.70000000298","[""shark""]","0","26","3369","487","","","","","","","","","","","","","","","","","","",""
"pit-instructions","4","81760","0.0-2.0-1.0-1.0","battery-v0.2","","""event"",""trial"",""time""
""fullscreenenter"",""1"",""5185""
""blur"",""4"",""51588""
""focus"",""4"",""81040""
","""event"",""trial"",""time""
""blur"",""4"",""51588""
","""event"",""trial"",""time""
""focus"",""4"",""81040""
","""event"",""trial"",""time""
""fullscreenenter"",""1"",""5185""
","
","","[{""page_index"":0,""viewing_time"":35653.09999999404}]","35653.69999998808","","","","","","","","","","","","","","","","","","","","","","","",""
"pit-comprehension","5","84827","0.0-2.0-2.0-0.0","battery-v0.2","","""event"",""trial"",""time""
""fullscreenenter"",""1"",""5185""
""blur"",""4"",""51588""
""focus"",""4"",""81040""
","""event"",""trial"",""time""
""blur"",""4"",""51588""
","""event"",""trial"",""time""
""focus"",""4"",""81040""
","""event"",""trial"",""time""
""fullscreenenter"",""1"",""5185""
","
","","","3064.0999999940395","[""tiger""]","0","26","3369","487","","","","","","","","","","","","","","","","","","",""
"pit-instructions","6","87409","0.0-2.0-2.0-1.0","battery-v0.2","","""event"",""trial"",""time""
""fullscreenenter"",""1"",""5185""
""blur"",""4"",""51588""
""focus"",""4"",""81040""
","""event"",""trial"",""time""
""blur"",""4"",""51588""
","""event"",""trial"",""time""
""focus"",""4"",""81040""
","""event"",""trial"",""time""
""fullscreenenter"",""1"",""5185""
","
","","[{""page_index"":0,""viewing_time"":2578}]","2578.2000000029802","","","","","","","","","","","","","","","","","","","","","","","",""
"pit-instructions","7","213904","0.0-2.0-3.0","battery-v0.2","","""event"",""trial"",""time""
""fullscreenenter"",""1"",""5185""
""blur"",""4"",""51588""
""focus"",""4"",""81040""
","""event"",""trial"",""time""
""blur"",""4"",""51588""
","""event"",""trial"",""time""
""focus"",""4"",""81040""
","""event"",""trial"",""time""
""fullscreenenter"",""1"",""5185""
","
","","[{""page_index"":0,""viewing_time"":15882.60000000894},{""page_index"":1,""viewing_time"":11254.5},{""page_index"":2,""viewing_time"":10794.09999999404},{""page_index"":3,""viewing_time"":10216.90000000596},{""page_index"":4,""viewing_time"":8249.59999999404},{""page_index"":5,""viewing_time"":7768},{""page_index"":6,""viewing_time"":8602.40000000596},{""page_index"":7,""viewing_time"":8967.29999999702},{""page_index"":8,""viewing_time"":6279.0999999940395},{""page_index"":9,""viewing_time"":7933.5},{""page_index"":10,""viewing_time"":9005.60000000894},{""page_index"":11,""viewing_time"":8867.70000000298},{""page_index"":12,""viewing_time"":6140.5999999940395},{""page_index"":13,""viewing_time"":6527.4000000059605}]","126489.80000001192","","","","","","","","","","","","","","","","","","","","","","","",""
"pit-trial","8","217291","0.0-2.0-4.0-0.0","battery-v0.2","","""event"",""trial"",""time""
""fullscreenenter"",""1"",""5185""
""blur"",""4"",""51588""
""focus"",""4"",""81040""
","""event"",""trial"",""time""
""blur"",""4"",""51588""
","""event"",""trial"",""time""
""focus"",""4"",""81040""
","""event"",""trial"",""time""
""fullscreenenter"",""1"",""5185""
","
","","","525","","","26","3369","487","&#9784;","elianto","#FFFFF080"," "," ","1","&#10004","[1375.2000000029802]","1","0","0","","","","","","","",""
"pit-trial","9","221083","0.0-2.0-4.1-0.1","battery-v0.2","","""event"",""trial"",""time""
""fullscreenenter"",""1"",""5185""
""blur"",""4"",""51588""
""focus"",""4"",""81040""
","""event"",""trial"",""time""
""blur"",""4"",""51588""
","""event"",""trial"",""time""
""focus"",""4"",""81040""
","""event"",""trial"",""time""
""fullscreenenter"",""1"",""5185""
","
","","","924.5999999940395","","","26","3369","487","&#9784;","elianto","#FFFFF080"," "," ","1","&#10004","[1783]","1","0","0","","","","","","","",""
"pit-trial","10","224515","0.0-2.0-4.2-0.2","battery-v0.2","","""event"",""trial"",""time""
""fullscreenenter"",""1"",""5185""
""blur"",""4"",""51588""
""focus"",""4"",""81040""
","""event"",""trial"",""time""
""blur"",""4"",""51588""
","""event"",""trial"",""time""
""focus"",""4"",""81040""
","""event"",""trial"",""time""
""fullscreenenter"",""1"",""5185""
","
","","","571.5","","","26","3369","487","&#9784;","elianto","#FFFFF080"," "," ","1","&#10004","[1424.0999999940395]","1","0","0","","","","","","","",""
"pit-trial","11","228108","0.0-2.0-4.3-0.3","battery-v0.2","","""event"",""trial"",""time""
""fullscreenenter"",""1"",""5185""
""blur"",""4"",""51588""
""focus"",""4"",""81040""
","""event"",""trial"",""time""
""blur"",""4"",""51588""
","""event"",""trial"",""time""
""focus"",""4"",""81040""
","""event"",""trial"",""time""
""fullscreenenter"",""1"",""5185""
","
","","","734.5","","","26","3369","487","&#9784;","elianto","#FFFFF080"," "," ","1","&#10004","[1589.1000000089407]","1","0","0","","","","","","","",""
"pit-trial","12","231683","0.0-2.0-4.4-0.4","battery-v0.2","","""event"",""trial"",""time""
""fullscreenenter"",""1"",""5185""
""blur"",""4"",""51588""
""focus"",""4"",""81040""
","""event"",""trial"",""time""
""blur"",""4"",""51588""
","""event"",""trial"",""time""
""focus"",""4"",""81040""
","""event"",""trial"",""time""
""fullscreenenter"",""1"",""5185""
","
","","","718.2000000029802","","","26","3369","487","&#9784;","elianto","#FFFFF080"," "," ","1","&#10004","[1570.2000000029802]","1","0","0","","","","","","","",""
"pit-instructions","13","257164","0.0-2.0-5.0","battery-v0.2","","""event"",""trial"",""time""
""fullscreenenter"",""1"",""5185""
""blur"",""4"",""51588""
""focus"",""4"",""81040""
","""event"",""trial"",""time""
""blur"",""4"",""51588""
","""event"",""trial"",""time""
""focus"",""4"",""81040""
","""event"",""trial"",""time""
""fullscreenenter"",""1"",""5185""
","
","","[{""page_index"":0,""viewing_time"":6815.29999999702},{""page_index"":1,""viewing_time"":5378.29999999702},{""page_index"":2,""viewing_time"":7234.70000000298},{""page_index"":3,""viewing_time"":6048.4000000059605}]","25476.89999999106","","","","","","","","","","","","","","","","","","","","","","","",""
"pit-trial","14","262026","0.0-2.0-6.0-0.0","battery-v0.2","","""event"",""trial"",""time""
""fullscreenenter"",""1"",""5185""
""blur"",""4"",""51588""
""focus"",""4"",""81040""
","""event"",""trial"",""time""
""blur"",""4"",""51588""
","""event"",""trial"",""time""
""focus"",""4"",""81040""
","""event"",""trial"",""time""
""fullscreenenter"",""1"",""5185""
","
","","","-1","","","26","3369","487","&#9854;","elianto","#FFFFF080","-1","-1","1","&#10004","[]","0","0","1","","","","","","","",""
"pit-trial","15","266893","0.0-2.0-6.1-0.1","battery-v0.2","","""event"",""trial"",""time""
""fullscreenenter"",""1"",""5185""
""blur"",""4"",""51588""
""focus"",""4"",""81040""
","""event"",""trial"",""time""
""blur"",""4"",""51588""
","""event"",""trial"",""time""
""focus"",""4"",""81040""
","""event"",""trial"",""time""
""fullscreenenter"",""1"",""5185""
","
","","","-1","","","26","3369","487","&#9854;","elianto","#FFFFF080","-1","-1","1","&#10004","[]","0","0","1","","","","","","","",""
"pit-trial","16","271756","0.0-2.0-6.2-0.2","battery-v0.2","","""event"",""trial"",""time""
""fullscreenenter"",""1"",""5185""
""blur"",""4"",""51588""
""focus"",""4"",""81040""
","""event"",""trial"",""time""
""blur"",""4"",""51588""
","""event"",""trial"",""time""
""focus"",""4"",""81040""
","""event"",""trial"",""time""
""fullscreenenter"",""1"",""5185""
","
","","","-1","","","26","3369","487","&#9854;","elianto","#FFFFF080","-1","-1","1","&#10004","[]","0","0","1","","","","","","","",""
"pit-trial","17","276612","0.0-2.0-6.3-0.3","battery-v0.2","","""event"",""trial"",""time""
""fullscreenenter"",""1"",""5185""
""blur"",""4"",""51588""
""focus"",""4"",""81040""
","""event"",""trial"",""time""
""blur"",""4"",""51588""
","""event"",""trial"",""time""
""focus"",""4"",""81040""
","""event"",""trial"",""time""
""fullscreenenter"",""1"",""5185""
","
","","","-1","","","26","3369","487","&#9854;","elianto","#FFFFF080","-1","-1","1","&#10004","[]","0","0","1","","","","","","","",""
"pit-trial","18","281476","0.0-2.0-6.4-0.4","battery-v0.2","","""event"",""trial"",""time""
""fullscreenenter"",""1"",""5185""
""blur"",""4"",""51588""
""focus"",""4"",""81040""
","""event"",""trial"",""time""
""blur"",""4"",""51588""
","""event"",""trial"",""time""
""focus"",""4"",""81040""
","""event"",""trial"",""time""
""fullscreenenter"",""1"",""5185""
","
","","","-1","","","26","3369","487","&#9854;","elianto","#FFFFF080","-1","-1","1","&#10004","[]","0","0","1","","","","","","","",""
"pit-instructions","19","469527","0.0-2.0-7.0","battery-v0.2","","""event"",""trial"",""time""
""fullscreenenter"",""1"",""5185""
""blur"",""4"",""51588""
""focus"",""4"",""81040""
","""event"",""trial"",""time""
""blur"",""4"",""51588""
","""event"",""trial"",""time""
""focus"",""4"",""81040""
","""event"",""trial"",""time""
""fullscreenenter"",""1"",""5185""
","
","","[{""page_index"":0,""viewing_time"":6603.4000000059605},{""page_index"":1,""viewing_time"":10583.09999999404},{""page_index"":2,""viewing_time"":14921},{""page_index"":3,""viewing_time"":11646.40000000596},{""page_index"":4,""viewing_time"":8338.59999999404},{""page_index"":5,""viewing_time"":6766.70000000298},{""page_index"":6,""viewing_time"":8752.09999999404},{""page_index"":7,""viewing_time"":10377.60000000894},{""page_index"":8,""viewing_time"":18264.39999999106},{""page_index"":9,""viewing_time"":9900.79999999702},{""page_index"":10,""viewing_time"":10750},{""page_index"":11,""viewing_time"":6699.300000011921},{""page_index"":12,""viewing_time"":11102.59999999404},{""page_index"":13,""viewing_time"":11764.20000000298},{""page_index"":14,""viewing_time"":10317.79999999702},{""page_index"":15,""viewing_time"":12188.20000000298},{""page_index"":16,""viewing_time"":10931.29999999702},{""page_index"":17,""viewing_time"":8135.5999999940395}]","188043.5","","","","","","","","","","","","","","","","","","","","","","","",""
"pit-trial","20","473162","0.0-2.0-8.0-0.0","battery-v0.2","","""event"",""trial"",""time""
""fullscreenenter"",""1"",""5185""
""blur"",""4"",""51588""
""focus"",""4"",""81040""
","""event"",""trial"",""time""
""blur"",""4"",""51588""
","""event"",""trial"",""time""
""focus"",""4"",""81040""
","""event"",""trial"",""time""
""fullscreenenter"",""1"",""5185""
","
","","","773.1000000089407","","","26","3369","487","&#9776;","elianto","#3366ff99"," "," ","1","+10","[1627.2999999970198]","1","0","1","","","","","","","",""
"pit-trial","21","476449","0.0-2.0-8.0-1.0","battery-v0.2","","""event"",""trial"",""time""
""fullscreenenter"",""1"",""5185""
""blur"",""4"",""51588""
""focus"",""4"",""81040""
","""event"",""trial"",""time""
""blur"",""4"",""51588""
","""event"",""trial"",""time""
""focus"",""4"",""81040""
","""event"",""trial"",""time""
""fullscreenenter"",""1"",""5185""
","
","","","427.8999999910593","","","26","3369","487","&#9776;","elianto","#3366ff99"," "," ","1","+10","[1279.7000000029802]","1","0","1","","","","","","","",""
"pit-trial","22","479747","0.0-2.0-8.0-2.0","battery-v0.2","","""event"",""trial"",""time""
""fullscreenenter"",""1"",""5185""
""blur"",""4"",""51588""
""focus"",""4"",""81040""
","""event"",""trial"",""time""
""blur"",""4"",""51588""
","""event"",""trial"",""time""
""focus"",""4"",""81040""
","""event"",""trial"",""time""
""fullscreenenter"",""1"",""5185""
","
","","","438.40000000596046","","","26","3369","487","&#9776;","elianto","#3366ff99"," "," ","1","+10","[1288.9000000059605]","1","0","1","","","","","","","",""
"pit-trial","23","483026","0.0-2.0-8.0-3.0","battery-v0.2","","""event"",""trial"",""time""
""fullscreenenter"",""1"",""5185""
""blur"",""4"",""51588""
""focus"",""4"",""81040""
","""event"",""trial"",""time""
""blur"",""4"",""51588""
","""event"",""trial"",""time""
""focus"",""4"",""81040""
","""event"",""trial"",""time""
""fullscreenenter"",""1"",""5185""
","
","","","421.40000000596046","","","26","3369","487","&#9776;","elianto","#3366ff99"," "," ","1","0","[1274.1000000089407]","1","0","1","","","","","","","",""
"pit-trial","24","486137","0.0-2.0-8.0-4.0","battery-v0.2","","""event"",""trial"",""time""
""fullscreenenter"",""1"",""5185""
""blur"",""4"",""51588""
""focus"",""4"",""81040""
","""event"",""trial"",""time""
""blur"",""4"",""51588""
","""event"",""trial"",""time""
""focus"",""4"",""81040""
","""event"",""trial"",""time""
""fullscreenenter"",""1"",""5185""
","
","","","254.1000000089407","","","26","3369","487","&#9776;","elianto","#3366ff99"," "," ","1","+10","[1108.7000000029802]","1","0","1","","","","","","","",""
"pit-trial","25","489373","0.0-2.0-8.1-0.1","battery-v0.2","","""event"",""trial"",""time""
""fullscreenenter"",""1"",""5185""
""blur"",""4"",""51588""
""focus"",""4"",""81040""
","""event"",""trial"",""time""
""blur"",""4"",""51588""
","""event"",""trial"",""time""
""focus"",""4"",""81040""
","""event"",""trial"",""time""
""fullscreenenter"",""1"",""5185""
","
","","","375.5","","","26","3369","487","&#9776;","elianto","#3366ff99"," "," ","1","+10","[1229]","1","0","1","","","","","","","",""
"pit-trial","26","492707","0.0-2.0-8.1-1.1","battery-v0.2","","""event"",""trial"",""time""
""fullscreenenter"",""1"",""5185""
""blur"",""4"",""51588""
""focus"",""4"",""81040""
","""event"",""trial"",""time""
""blur"",""4"",""51588""
","""event"",""trial"",""time""
""focus"",""4"",""81040""
","""event"",""trial"",""time""
""fullscreenenter"",""1"",""5185""
","
","","","476.3999999910593","","","26","3369","487","&#9776;","elianto","#3366ff99"," "," ","1","+10","[1328.199999988079]","1","0","1","","","","","","","",""
"pit-trial","27","495959","0.0-2.0-8.1-2.1","battery-v0.2","","""event"",""trial"",""time""
""fullscreenenter"",""1"",""5185""
""blur"",""4"",""51588""
""focus"",""4"",""81040""
","""event"",""trial"",""time""
""blur"",""4"",""51588""
","""event"",""trial"",""time""
""focus"",""4"",""81040""
","""event"",""trial"",""time""
""fullscreenenter"",""1"",""5185""
","
","","","400.20000000298023","","","26","3369","487","&#9776;","elianto","#3366ff99"," "," ","1","+10","[1251]","1","0","1","","","","","","","",""
"pit-trial","28","499105","0.0-2.0-8.1-3.1","battery-v0.2","","""event"",""trial"",""time""
""fullscreenenter"",""1"",""5185""
""blur"",""4"",""51588""
""focus"",""4"",""81040""
","""event"",""trial"",""time""
""blur"",""4"",""51588""
","""event"",""trial"",""time""
""focus"",""4"",""81040""
","""event"",""trial"",""time""
""fullscreenenter"",""1"",""5185""
","
","","","287.70000000298023","","","26","3369","487","&#9776;","elianto","#3366ff99"," "," ","1","0","[1142.4000000059605]","1","0","1","","","","","","","",""
"pit-trial","29","502370","0.0-2.0-8.1-4.1","battery-v0.2","","""event"",""trial"",""time""
""fullscreenenter"",""1"",""5185""
""blur"",""4"",""51588""
""focus"",""4"",""81040""
","""event"",""trial"",""time""
""blur"",""4"",""51588""
","""event"",""trial"",""time""
""focus"",""4"",""81040""
","""event"",""trial"",""time""
""fullscreenenter"",""1"",""5185""
","
","","","407.79999999701977","","","26","3369","487","&#9776;","elianto","#3366ff99"," "," ","1","+10","[1258.2999999970198]","1","0","1","","","","","","","",""
"pit-trial","30","505795","0.0-2.0-8.2-0.2","battery-v0.2","","""event"",""trial"",""time""
""fullscreenenter"",""1"",""5185""
""blur"",""4"",""51588""
""focus"",""4"",""81040""
","""event"",""trial"",""time""
""blur"",""4"",""51588""
","""event"",""trial"",""time""
""focus"",""4"",""81040""
","""event"",""trial"",""time""
""fullscreenenter"",""1"",""5185""
","
","","","563.0999999940395","","","26","3369","487","&#9776;","elianto","#3366ff99"," "," ","1","+10","[1417.3999999910593]","1","0","1","","","","","","","",""
"pit-trial","31","509050","0.0-2.0-8.2-1.2","battery-v0.2","","""event"",""trial"",""time""
""fullscreenenter"",""1"",""5185""
""blur"",""4"",""51588""
""focus"",""4"",""81040""
","""event"",""trial"",""time""
""blur"",""4"",""51588""
","""event"",""trial"",""time""
""focus"",""4"",""81040""
","""event"",""trial"",""time""
""fullscreenenter"",""1"",""5185""
","
","","","396.20000000298023","","","26","3369","487","&#9776;","elianto","#3366ff99"," "," ","1","+10","[1248.9000000059605]","1","0","1","","","","","","","",""
"pit-trial","32","512289","0.0-2.0-8.2-2.2","battery-v0.2","","""event"",""trial"",""time""
""fullscreenenter"",""1"",""5185""
""blur"",""4"",""51588""
""focus"",""4"",""81040""
","""event"",""trial"",""time""
""blur"",""4"",""51588""
","""event"",""trial"",""time""
""focus"",""4"",""81040""
","""event"",""trial"",""time""
""fullscreenenter"",""1"",""5185""
","
","","","384.70000000298023","","","26","3369","487","&#9776;","elianto","#3366ff99"," "," ","1","+10","[1235.0999999940395]","1","0","1","","","","","","","",""
"pit-trial","33","515545","0.0-2.0-8.2-3.2","battery-v0.2","","""event"",""trial"",""time""
""fullscreenenter"",""1"",""5185""
""blur"",""4"",""51588""
""focus"",""4"",""81040""
","""event"",""trial"",""time""
""blur"",""4"",""51588""
","""event"",""trial"",""time""
""focus"",""4"",""81040""
","""event"",""trial"",""time""
""fullscreenenter"",""1"",""5185""
","
","","","397.30000001192093","","","26","3369","487","&#9776;","elianto","#3366ff99"," "," ","1","0","[1251.4000000059605]","1","0","1","","","","","","","",""
"pit-trial","34","518680","0.0-2.0-8.2-4.2","battery-v0.2","","""event"",""trial"",""time""
""fullscreenenter"",""1"",""5185""
""blur"",""4"",""51588""
""focus"",""4"",""81040""
","""event"",""trial"",""time""
""blur"",""4"",""51588""
","""event"",""trial"",""time""
""focus"",""4"",""81040""
","""event"",""trial"",""time""
""fullscreenenter"",""1"",""5185""
","
","","","274.6000000089407","","","26","3369","487","&#9776;","elianto","#3366ff99"," "," ","1","+10","[1128.800000011921]","1","0","1","","","","","","","",""
"call-function","35","518684","0.0-2.0-9.0","battery-v0.2","","""event"",""trial"",""time""
""fullscreenenter"",""1"",""5185""
""blur"",""4"",""51588""
""focus"",""4"",""81040""
","""event"",""trial"",""time""
""blur"",""4"",""51588""
","""event"",""trial"",""time""
""focus"",""4"",""81040""
","""event"",""trial"",""time""
""fullscreenenter"",""1"",""5185""
","
","","","","","","","","","","","","","","","","","","","","","","","","","","",""
"pit-instructions","36","586086","0.0-2.0-10.0","battery-v0.2","","""event"",""trial"",""time""
""fullscreenenter"",""1"",""5185""
""blur"",""4"",""51588""
""focus"",""4"",""81040""
","""event"",""trial"",""time""
""blur"",""4"",""51588""
","""event"",""trial"",""time""
""focus"",""4"",""81040""
","""event"",""trial"",""time""
""fullscreenenter"",""1"",""5185""
","
","","[{""page_index"":0,""viewing_time"":18168.5},{""page_index"":1,""viewing_time"":11133.89999999106},{""page_index"":2,""viewing_time"":13482},{""page_index"":3,""viewing_time"":14183.40000000596},{""page_index"":4,""viewing_time"":10433.29999999702}]","67401.79999999702","","","","","","","","","","","","","","","","","","","","","","","",""
"pit-trial","37","590748","0.0-2.0-11.0-0.0","battery-v0.2","","""event"",""trial"",""time""
""fullscreenenter"",""1"",""5185""
""blur"",""4"",""51588""
""focus"",""4"",""81040""
","""event"",""trial"",""time""
""blur"",""4"",""51588""
","""event"",""trial"",""time""
""focus"",""4"",""81040""
","""event"",""trial"",""time""
""fullscreenenter"",""1"",""5185""
","
","","","1801.2000000029802","","","26","3369","487","&#9761;","elianto","#3366ff99","-1"," ","0","0","[2658]","1","0","2","","","","","","","",""
"pit-trial","38","595040","0.0-2.0-11.0-1.0","battery-v0.2","","""event"",""trial"",""time""
""fullscreenenter"",""1"",""5185""
""blur"",""4"",""51588""
""focus"",""4"",""81040""
","""event"",""trial"",""time""
""blur"",""4"",""51588""
","""event"",""trial"",""time""
""focus"",""4"",""81040""
","""event"",""trial"",""time""
""fullscreenenter"",""1"",""5185""
","
","","","1425.7999999970198","","","26","3369","487","&#9761;","elianto","#3366ff99","-1"," ","0","0","[2283.4000000059605]","1","0","2","","","","","","","",""
"pit-trial","39","598232","0.0-2.0-11.0-2.0","battery-v0.2","","""event"",""trial"",""time""
""fullscreenenter"",""1"",""5185""
""blur"",""4"",""51588""
""focus"",""4"",""81040""
","""event"",""trial"",""time""
""blur"",""4"",""51588""
","""event"",""trial"",""time""
""focus"",""4"",""81040""
","""event"",""trial"",""time""
""fullscreenenter"",""1"",""5185""
","
","","","329","","","26","3369","487","&#9761;","elianto","#3366ff99","-1"," ","0","0","[1182.2999999970198]","1","0","2","","","","","","","",""
"pit-trial","40","601287","0.0-2.0-11.0-3.0","battery-v0.2","","""event"",""trial"",""time""
""fullscreenenter"",""1"",""5185""
""blur"",""4"",""51588""
""focus"",""4"",""81040""
","""event"",""trial"",""time""
""blur"",""4"",""51588""
","""event"",""trial"",""time""
""focus"",""4"",""81040""
","""event"",""trial"",""time""
""fullscreenenter"",""1"",""5185""
","
","","","198.59999999403954","","","26","3369","487","&#9761;","elianto","#3366ff99","-1"," ","0","+10","[1051.2999999970198]","1","0","2","","","","","","","",""
"pit-trial","41","604391","0.0-2.0-11.0-4.0","battery-v0.2","","""event"",""trial"",""time""
""fullscreenenter"",""1"",""5185""
""blur"",""4"",""51588""
""focus"",""4"",""81040""
","""event"",""trial"",""time""
""blur"",""4"",""51588""
","""event"",""trial"",""time""
""focus"",""4"",""81040""
","""event"",""trial"",""time""
""fullscreenenter"",""1"",""5185""
","
","","","246.1000000089407","","","26","3369","487","&#9761;","elianto","#3366ff99","-1"," ","0","0","[1100.2000000029802]","1","0","2","","","","","","","",""
"pit-trial","42","607415","0.0-2.0-11.1-0.1","battery-v0.2","","""event"",""trial"",""time""
""fullscreenenter"",""1"",""5185""
""blur"",""4"",""51588""
""focus"",""4"",""81040""
","""event"",""trial"",""time""
""blur"",""4"",""51588""
","""event"",""trial"",""time""
""focus"",""4"",""81040""
","""event"",""trial"",""time""
""fullscreenenter"",""1"",""5185""
","
","","","164.09999999403954","","","26","3369","487","&#9761;","elianto","#3366ff99","-1"," ","0","0","[1017.4000000059605]","1","0","2","","","","","","","",""
"pit-trial","43","610279","0.0-2.0-11.1-1.1","battery-v0.2","","""event"",""trial"",""time""
""fullscreenenter"",""1"",""5185""
""blur"",""4"",""51588""
""focus"",""4"",""81040""
","""event"",""trial"",""time""
""blur"",""4"",""51588""
","""event"",""trial"",""time""
""focus"",""4"",""81040""
","""event"",""trial"",""time""
""fullscreenenter"",""1"",""5185""
","
","","","0.3999999910593033","","","26","3369","487","&#9761;","elianto","#3366ff99","-1"," ","0","0","[855.0999999940395]","1","0","2","","","","","","","",""
"pit-trial","44","613552","0.0-2.0-11.1-2.1","battery-v0.2","","""event"",""trial"",""time""
""fullscreenenter"",""1"",""5185""
""blur"",""4"",""51588""
""focus"",""4"",""81040""
","""event"",""trial"",""time""
""blur"",""4"",""51588""
","""event"",""trial"",""time""
""focus"",""4"",""81040""
","""event"",""trial"",""time""
""fullscreenenter"",""1"",""5185""
","
","","","416.29999999701977","","","26","3369","487","&#9761;","elianto","#3366ff99","-1"," ","0","0","[1268.7000000029802]","1","0","2","","","","","","","",""
"pit-trial","45","616792","0.0-2.0-11.1-3.1","battery-v0.2","","""event"",""trial"",""time""
""fullscreenenter"",""1"",""5185""
""blur"",""4"",""51588""
""focus"",""4"",""81040""
","""event"",""trial"",""time""
""blur"",""4"",""51588""
","""event"",""trial"",""time""
""focus"",""4"",""81040""
","""event"",""trial"",""time""
""fullscreenenter"",""1"",""5185""
","
","","","380.5","","","26","3369","487","&#9761;","elianto","#3366ff99","-1"," ","0","+10","[1234.5]","1","0","2","","","","","","","",""
"pit-trial","46","621648","0.0-2.0-11.1-4.1","battery-v0.2","","""event"",""trial"",""time""
""fullscreenenter"",""1"",""5185""
""blur"",""4"",""51588""
""focus"",""4"",""81040""
","""event"",""trial"",""time""
""blur"",""4"",""51588""
","""event"",""trial"",""time""
""focus"",""4"",""81040""
","""event"",""trial"",""time""
""fullscreenenter"",""1"",""5185""
","
","","","-1","","","26","3369","487","&#9761;","elianto","#3366ff99","-1","-1","1","+10","[]","0","0","2","","","","","","","",""
"pit-trial","47","626513","0.0-2.0-11.2-0.2","battery-v0.2","","""event"",""trial"",""time""
""fullscreenenter"",""1"",""5185""
""blur"",""4"",""51588""
""focus"",""4"",""81040""
","""event"",""trial"",""time""
""blur"",""4"",""51588""
","""event"",""trial"",""time""
""focus"",""4"",""81040""
","""event"",""trial"",""time""
""fullscreenenter"",""1"",""5185""
","
","","","-1","","","26","3369","487","&#9761;","elianto","#3366ff99","-1","-1","1","+10","[]","0","0","2","","","","","","","",""
"pit-trial","48","631368","0.0-2.0-11.2-1.2","battery-v0.2","","""event"",""trial"",""time""
""fullscreenenter"",""1"",""5185""
""blur"",""4"",""51588""
""focus"",""4"",""81040""
","""event"",""trial"",""time""
""blur"",""4"",""51588""
","""event"",""trial"",""time""
""focus"",""4"",""81040""
","""event"",""trial"",""time""
""fullscreenenter"",""1"",""5185""
","
","","","-1","","","26","3369","487","&#9761;","elianto","#3366ff99","-1","-1","1","+10","[]","0","0","2","","","","","","","",""
"pit-trial","49","636232","0.0-2.0-11.2-2.2","battery-v0.2","","""event"",""trial"",""time""
""fullscreenenter"",""1"",""5185""
""blur"",""4"",""51588""
""focus"",""4"",""81040""
","""event"",""trial"",""time""
""blur"",""4"",""51588""
","""event"",""trial"",""time""
""focus"",""4"",""81040""
","""event"",""trial"",""time""
""fullscreenenter"",""1"",""5185""
","
","","","-1","","","26","3369","487","&#9761;","elianto","#3366ff99","-1","-1","1","+10","[]","0","0","2","","","","","","","",""
"pit-trial","50","641097","0.0-2.0-11.2-3.2","battery-v0.2","","""event"",""trial"",""time""
""fullscreenenter"",""1"",""5185""
""blur"",""4"",""51588""
""focus"",""4"",""81040""
","""event"",""trial"",""time""
""blur"",""4"",""51588""
","""event"",""trial"",""time""
""focus"",""4"",""81040""
","""event"",""trial"",""time""
""fullscreenenter"",""1"",""5185""
","
","","","-1","","","26","3369","487","&#9761;","elianto","#3366ff99","-1","-1","1","0","[]","0","0","2","","","","","","","",""
"pit-trial","51","645961","0.0-2.0-11.2-4.2","battery-v0.2","","""event"",""trial"",""time""
""fullscreenenter"",""1"",""5185""
""blur"",""4"",""51588""
""focus"",""4"",""81040""
","""event"",""trial"",""time""
""blur"",""4"",""51588""
","""event"",""trial"",""time""
""focus"",""4"",""81040""
","""event"",""trial"",""time""
""fullscreenenter"",""1"",""5185""
","
","","","-1","","","26","3369","487","&#9761;","elianto","#3366ff99","-1","-1","1","+10","[]","0","0","2","","","","","","","",""
"pit-trial","52","650825","0.0-2.0-11.3-0.3","battery-v0.2","","""event"",""trial"",""time""
""fullscreenenter"",""1"",""5185""
""blur"",""4"",""51588""
""focus"",""4"",""81040""
","""event"",""trial"",""time""
""blur"",""4"",""51588""
","""event"",""trial"",""time""
""focus"",""4"",""81040""
","""event"",""trial"",""time""
""fullscreenenter"",""1"",""5185""
","
","","","-1","","","26","3369","487","&#9761;","elianto","#3366ff99","-1","-1","1","+10","[]","0","0","2","","","","","","","",""
"pit-trial","53","655684","0.0-2.0-11.3-1.3","battery-v0.2","","""event"",""trial"",""time""
""fullscreenenter"",""1"",""5185""
""blur"",""4"",""51588""
""focus"",""4"",""81040""
","""event"",""trial"",""time""
""blur"",""4"",""51588""
","""event"",""trial"",""time""
""focus"",""4"",""81040""
","""event"",""trial"",""time""
""fullscreenenter"",""1"",""5185""
","
","","","-1","","","26","3369","487","&#9761;","elianto","#3366ff99","-1","-1","1","+10","[]","0","0","2","","","","","","","",""
"pit-trial","54","660545","0.0-2.0-11.3-2.3","battery-v0.2","","""event"",""trial"",""time""
""fullscreenenter"",""1"",""5185""
""blur"",""4"",""51588""
""focus"",""4"",""81040""
","""event"",""trial"",""time""
""blur"",""4"",""51588""
","""event"",""trial"",""time""
""focus"",""4"",""81040""
","""event"",""trial"",""time""
""fullscreenenter"",""1"",""5185""
","
","","","-1","","","26","3369","487","&#9761;","elianto","#3366ff99","-1","-1","1","+10","[]","0","0","2","","","","","","","",""
"pit-trial","55","665410","0.0-2.0-11.3-3.3","battery-v0.2","","""event"",""trial"",""time""
""fullscreenenter"",""1"",""5185""
""blur"",""4"",""51588""
""focus"",""4"",""81040""
","""event"",""trial"",""time""
""blur"",""4"",""51588""
","""event"",""trial"",""time""
""focus"",""4"",""81040""
","""event"",""trial"",""time""
""fullscreenenter"",""1"",""5185""
","
","","","-1","","","26","3369","487","&#9761;","elianto","#3366ff99","-1","-1","1","0","[]","0","0","2","","","","","","","",""
"pit-trial","56","670273","0.0-2.0-11.3-4.3","battery-v0.2","","""event"",""trial"",""time""
""fullscreenenter"",""1"",""5185""
""blur"",""4"",""51588""
""focus"",""4"",""81040""
","""event"",""trial"",""time""
""blur"",""4"",""51588""
","""event"",""trial"",""time""
""focus"",""4"",""81040""
","""event"",""trial"",""time""
""fullscreenenter"",""1"",""5185""
","
","","","-1","","","26","3369","487","&#9761;","elianto","#3366ff99","-1","-1","1","+10","[]","0","0","2","","","","","","","",""
"call-function","57","670275","0.0-2.0-12.0","battery-v0.2","","""event"",""trial"",""time""
""fullscreenenter"",""1"",""5185""
""blur"",""4"",""51588""
""focus"",""4"",""81040""
","""event"",""trial"",""time""
""blur"",""4"",""51588""
","""event"",""trial"",""time""
""focus"",""4"",""81040""
","""event"",""trial"",""time""
""fullscreenenter"",""1"",""5185""
","
","","","","","","","","","","","","","","","","","","","","","","","","","","",""
"pit-instructions","58","714790","0.0-2.0-13.0","battery-v0.2","","""event"",""trial"",""time""
""fullscreenenter"",""1"",""5185""
""blur"",""4"",""51588""
""focus"",""4"",""81040""
","""event"",""trial"",""time""
""blur"",""4"",""51588""
","""event"",""trial"",""time""
""focus"",""4"",""81040""
","""event"",""trial"",""time""
""fullscreenenter"",""1"",""5185""
","
","","[{""page_index"":0,""viewing_time"":8347.79999999702},{""page_index"":1,""viewing_time"":10216.70000000298},{""page_index"":2,""viewing_time"":6747.399999991059},{""page_index"":3,""viewing_time"":12700},{""page_index"":4,""viewing_time"":6500.600000008941}]","44513.19999998808","","","","","","","","","","","","","","","","","","","","","","","",""
"pit-trial","59","718546","0.0-2.0-14.0-0.0","battery-v0.2","","""event"",""trial"",""time""
""fullscreenenter"",""1"",""5185""
""blur"",""4"",""51588""
""focus"",""4"",""81040""
","""event"",""trial"",""time""
""blur"",""4"",""51588""
","""event"",""trial"",""time""
""focus"",""4"",""81040""
","""event"",""trial"",""time""
""fullscreenenter"",""1"",""5185""
","
","","","892.6000000089407","","","26","3369","487","&#9826;","elianto","#f73b6a7A","-1"," ","0","-10","[1750.4000000059605]","1","0","3","","","","","","","",""
"pit-trial","60","723411","0.0-2.0-14.0-1.0","battery-v0.2","","""event"",""trial"",""time""
""fullscreenenter"",""1"",""5185""
""blur"",""4"",""51588""
""focus"",""4"",""81040""
","""event"",""trial"",""time""
""blur"",""4"",""51588""
","""event"",""trial"",""time""
""focus"",""4"",""81040""
","""event"",""trial"",""time""
""fullscreenenter"",""1"",""5185""
","
","","","-1","","","26","3369","487","&#9826;","elianto","#f73b6a7A","-1","-1","1","0","[]","0","0","3","","","","","","","",""
"pit-trial","61","728274","0.0-2.0-14.0-2.0","battery-v0.2","","""event"",""trial"",""time""
""fullscreenenter"",""1"",""5185""
""blur"",""4"",""51588""
""focus"",""4"",""81040""
","""event"",""trial"",""time""
""blur"",""4"",""51588""
","""event"",""trial"",""time""
""focus"",""4"",""81040""
","""event"",""trial"",""time""
""fullscreenenter"",""1"",""5185""
","
","","","-1","","","26","3369","487","&#9826;","elianto","#f73b6a7A","-1","-1","1","0","[]","0","0","3","","","","","","","",""
"pit-trial","62","733134","0.0-2.0-14.0-3.0","battery-v0.2","","""event"",""trial"",""time""
""fullscreenenter"",""1"",""5185""
""blur"",""4"",""51588""
""focus"",""4"",""81040""
","""event"",""trial"",""time""
""blur"",""4"",""51588""
","""event"",""trial"",""time""
""focus"",""4"",""81040""
","""event"",""trial"",""time""
""fullscreenenter"",""1"",""5185""
","
","","","-1","","","26","3369","487","&#9826;","elianto","#f73b6a7A","-1","-1","1","-10","[]","0","0","3","","","","","","","",""
"pit-trial","63","738000","0.0-2.0-14.0-4.0","battery-v0.2","","""event"",""trial"",""time""
""fullscreenenter"",""1"",""5185""
""blur"",""4"",""51588""
""focus"",""4"",""81040""
","""event"",""trial"",""time""
""blur"",""4"",""51588""
","""event"",""trial"",""time""
""focus"",""4"",""81040""
","""event"",""trial"",""time""
""fullscreenenter"",""1"",""5185""
","
","","","-1","","","26","3369","487","&#9826;","elianto","#f73b6a7A","-1","-1","1","0","[]","0","0","3","","","","","","","",""
"pit-trial","64","742867","0.0-2.0-14.1-0.1","battery-v0.2","","""event"",""trial"",""time""
""fullscreenenter"",""1"",""5185""
""blur"",""4"",""51588""
""focus"",""4"",""81040""
","""event"",""trial"",""time""
""blur"",""4"",""51588""
","""event"",""trial"",""time""
""focus"",""4"",""81040""
","""event"",""trial"",""time""
""fullscreenenter"",""1"",""5185""
","
","","","-1","","","26","3369","487","&#9826;","elianto","#f73b6a7A","-1","-1","1","0","[]","0","0","3","","","","","","","",""
"pit-trial","65","747723","0.0-2.0-14.1-1.1","battery-v0.2","","""event"",""trial"",""time""
""fullscreenenter"",""1"",""5185""
""blur"",""4"",""51588""
""focus"",""4"",""81040""
","""event"",""trial"",""time""
""blur"",""4"",""51588""
","""event"",""trial"",""time""
""focus"",""4"",""81040""
","""event"",""trial"",""time""
""fullscreenenter"",""1"",""5185""
","
","","","-1","","","26","3369","487","&#9826;","elianto","#f73b6a7A","-1","-1","1","0","[]","0","0","3","","","","","","","",""
"pit-trial","66","752585","0.0-2.0-14.1-2.1","battery-v0.2","","""event"",""trial"",""time""
""fullscreenenter"",""1"",""5185""
""blur"",""4"",""51588""
""focus"",""4"",""81040""
","""event"",""trial"",""time""
""blur"",""4"",""51588""
","""event"",""trial"",""time""
""focus"",""4"",""81040""
","""event"",""trial"",""time""
""fullscreenenter"",""1"",""5185""
","
","","","-1","","","26","3369","487","&#9826;","elianto","#f73b6a7A","-1","-1","1","0","[]","0","0","3","","","","","","","",""
"pit-trial","67","757451","0.0-2.0-14.1-3.1","battery-v0.2","","""event"",""trial"",""time""
""fullscreenenter"",""1"",""5185""
""blur"",""4"",""51588""
""focus"",""4"",""81040""
","""event"",""trial"",""time""
""blur"",""4"",""51588""
","""event"",""trial"",""time""
""focus"",""4"",""81040""
","""event"",""trial"",""time""
""fullscreenenter"",""1"",""5185""
","
","","","-1","","","26","3369","487","&#9826;","elianto","#f73b6a7A","-1","-1","1","-10","[]","0","0","3","","","","","","","",""
"pit-trial","68","762316","0.0-2.0-14.1-4.1","battery-v0.2","","""event"",""trial"",""time""
""fullscreenenter"",""1"",""5185""
""blur"",""4"",""51588""
""focus"",""4"",""81040""
","""event"",""trial"",""time""
""blur"",""4"",""51588""
","""event"",""trial"",""time""
""focus"",""4"",""81040""
","""event"",""trial"",""time""
""fullscreenenter"",""1"",""5185""
","
","","","-1","","","26","3369","487","&#9826;","elianto","#f73b6a7A","-1","-1","1","0","[]","0","0","3","","","","","","","",""
"pit-trial","69","767171","0.0-2.0-14.2-0.2","battery-v0.2","","""event"",""trial"",""time""
""fullscreenenter"",""1"",""5185""
""blur"",""4"",""51588""
""focus"",""4"",""81040""
","""event"",""trial"",""time""
""blur"",""4"",""51588""
","""event"",""trial"",""time""
""focus"",""4"",""81040""
","""event"",""trial"",""time""
""fullscreenenter"",""1"",""5185""
","
","","","-1","","","26","3369","487","&#9826;","elianto","#f73b6a7A","-1","-1","1","0","[]","0","0","3","","","","","","","",""
"pit-trial","70","772036","0.0-2.0-14.2-1.2","battery-v0.2","","""event"",""trial"",""time""
""fullscreenenter"",""1"",""5185""
""blur"",""4"",""51588""
""focus"",""4"",""81040""
","""event"",""trial"",""time""
""blur"",""4"",""51588""
","""event"",""trial"",""time""
""focus"",""4"",""81040""
","""event"",""trial"",""time""
""fullscreenenter"",""1"",""5185""
","
","","","-1","","","26","3369","487","&#9826;","elianto","#f73b6a7A","-1","-1","1","0","[]","0","0","3","","","","","","","",""
"pit-trial","71","776900","0.0-2.0-14.2-2.2","battery-v0.2","","""event"",""trial"",""time""
""fullscreenenter"",""1"",""5185""
""blur"",""4"",""51588""
""focus"",""4"",""81040""
","""event"",""trial"",""time""
""blur"",""4"",""51588""
","""event"",""trial"",""time""
""focus"",""4"",""81040""
","""event"",""trial"",""time""
""fullscreenenter"",""1"",""5185""
","
","","","-1","","","26","3369","487","&#9826;","elianto","#f73b6a7A","-1","-1","1","0","[]","0","0","3","","","","","","","",""
"pit-trial","72","781764","0.0-2.0-14.2-3.2","battery-v0.2","","""event"",""trial"",""time""
""fullscreenenter"",""1"",""5185""
""blur"",""4"",""51588""
""focus"",""4"",""81040""
","""event"",""trial"",""time""
""blur"",""4"",""51588""
","""event"",""trial"",""time""
""focus"",""4"",""81040""
","""event"",""trial"",""time""
""fullscreenenter"",""1"",""5185""
","
","","","-1","","","26","3369","487","&#9826;","elianto","#f73b6a7A","-1","-1","1","-10","[]","0","0","3","","","","","","","",""
"pit-trial","73","786620","0.0-2.0-14.2-4.2","battery-v0.2","","""event"",""trial"",""time""
""fullscreenenter"",""1"",""5185""
""blur"",""4"",""51588""
""focus"",""4"",""81040""
","""event"",""trial"",""time""
""blur"",""4"",""51588""
","""event"",""trial"",""time""
""focus"",""4"",""81040""
","""event"",""trial"",""time""
""fullscreenenter"",""1"",""5185""
","
","","","-1","","","26","3369","487","&#9826;","elianto","#f73b6a7A","-1","-1","1","0","[]","0","0","3","","","","","","","",""
"pit-trial","74","791485","0.0-2.0-14.3-0.3","battery-v0.2","","""event"",""trial"",""time""
""fullscreenenter"",""1"",""5185""
""blur"",""4"",""51588""
""focus"",""4"",""81040""
","""event"",""trial"",""time""
""blur"",""4"",""51588""
","""event"",""trial"",""time""
""focus"",""4"",""81040""
","""event"",""trial"",""time""
""fullscreenenter"",""1"",""5185""
","
","","","-1","","","26","3369","487","&#9826;","elianto","#f73b6a7A","-1","-1","1","0","[]","0","0","3","","","","","","","",""
"pit-trial","75","796349","0.0-2.0-14.3-1.3","battery-v0.2","","""event"",""trial"",""time""
""fullscreenenter"",""1"",""5185""
""blur"",""4"",""51588""
""focus"",""4"",""81040""
","""event"",""trial"",""time""
""blur"",""4"",""51588""
","""event"",""trial"",""time""
""focus"",""4"",""81040""
","""event"",""trial"",""time""
""fullscreenenter"",""1"",""5185""
","
","","","-1","","","26","3369","487","&#9826;","elianto","#f73b6a7A","-1","-1","1","0","[]","0","0","3","","","","","","","",""
"pit-trial","76","801204","0.0-2.0-14.3-2.3","battery-v0.2","","""event"",""trial"",""time""
""fullscreenenter"",""1"",""5185""
""blur"",""4"",""51588""
""focus"",""4"",""81040""
","""event"",""trial"",""time""
""blur"",""4"",""51588""
","""event"",""trial"",""time""
""focus"",""4"",""81040""
","""event"",""trial"",""time""
""fullscreenenter"",""1"",""5185""
","
","","","-1","","","26","3369","487","&#9826;","elianto","#f73b6a7A","-1","-1","1","0","[]","0","0","3","","","","","","","",""
"pit-trial","77","806069","0.0-2.0-14.3-3.3","battery-v0.2","","""event"",""trial"",""time""
""fullscreenenter"",""1"",""5185""
""blur"",""4"",""51588""
""focus"",""4"",""81040""
","""event"",""trial"",""time""
""blur"",""4"",""51588""
","""event"",""trial"",""time""
""focus"",""4"",""81040""
","""event"",""trial"",""time""
""fullscreenenter"",""1"",""5185""
","
","","","-1","","","26","3369","487","&#9826;","elianto","#f73b6a7A","-1","-1","1","-10","[]","0","0","3","","","","","","","",""
"pit-trial","78","810933","0.0-2.0-14.3-4.3","battery-v0.2","","""event"",""trial"",""time""
""fullscreenenter"",""1"",""5185""
""blur"",""4"",""51588""
""focus"",""4"",""81040""
","""event"",""trial"",""time""
""blur"",""4"",""51588""
","""event"",""trial"",""time""
""focus"",""4"",""81040""
","""event"",""trial"",""time""
""fullscreenenter"",""1"",""5185""
","
","","","-1","","","26","3369","487","&#9826;","elianto","#f73b6a7A","-1","-1","1","0","[]","0","0","3","","","","","","","",""
"call-function","79","810934","0.0-2.0-15.0","battery-v0.2","","""event"",""trial"",""time""
""fullscreenenter"",""1"",""5185""
""blur"",""4"",""51588""
""focus"",""4"",""81040""
","""event"",""trial"",""time""
""blur"",""4"",""51588""
","""event"",""trial"",""time""
""focus"",""4"",""81040""
","""event"",""trial"",""time""
""fullscreenenter"",""1"",""5185""
","
","","","","","","","","","","","","","","","","","","","","","","","","","","",""
"pit-instructions","80","845659","0.0-2.0-16.0","battery-v0.2","","""event"",""trial"",""time""
""fullscreenenter"",""1"",""5185""
""blur"",""4"",""51588""
""focus"",""4"",""81040""
","""event"",""trial"",""time""
""blur"",""4"",""51588""
","""event"",""trial"",""time""
""focus"",""4"",""81040""
","""event"",""trial"",""time""
""fullscreenenter"",""1"",""5185""
","
","","[{""page_index"":0,""viewing_time"":11422.70000000298},{""page_index"":1,""viewing_time"":12233.29999999702},{""page_index"":2,""viewing_time"":5301.5},{""page_index"":3,""viewing_time"":5765.20000000298}]","34723.09999999404","","","","","","","","","","","","","","","","","","","","","","","",""
"pit-trial","81","850522","0.0-2.0-17.0-0.0","battery-v0.2","","""event"",""trial"",""time""
""fullscreenenter"",""1"",""5185""
""blur"",""4"",""51588""
""focus"",""4"",""81040""
","""event"",""trial"",""time""
""blur"",""4"",""51588""
","""event"",""trial"",""time""
""focus"",""4"",""81040""
","""event"",""trial"",""time""
""fullscreenenter"",""1"",""5185""
","
","","","-1","","","26","3369","487","&#9789;","elianto","#f73b6a7A"," ","-1","0","-10","[]","0","0","4","","","","","","","",""
"pit-trial","82","855389","0.0-2.0-17.0-1.0","battery-v0.2","","""event"",""trial"",""time""
""fullscreenenter"",""1"",""5185""
""blur"",""4"",""51588""
""focus"",""4"",""81040""
","""event"",""trial"",""time""
""blur"",""4"",""51588""
","""event"",""trial"",""time""
""focus"",""4"",""81040""
","""event"",""trial"",""time""
""fullscreenenter"",""1"",""5185""
","
","","","-1","","","26","3369","487","&#9789;","elianto","#f73b6a7A"," ","-1","0","-10","[3475.7000000029802]","1","0","4","","","","","","","",""
"pit-trial","83","858678","0.0-2.0-17.0-2.0","battery-v0.2","","""event"",""trial"",""time""
""fullscreenenter"",""1"",""5185""
""blur"",""4"",""51588""
""focus"",""4"",""81040""
","""event"",""trial"",""time""
""blur"",""4"",""51588""
","""event"",""trial"",""time""
""focus"",""4"",""81040""
","""event"",""trial"",""time""
""fullscreenenter"",""1"",""5185""
","
","","","428.30000001192093","","","26","3369","487","&#9789;","elianto","#f73b6a7A"," "," ","1","0","[1283.5]","1","0","4","","","","","","","",""
"pit-trial","84","861972","0.0-2.0-17.0-3.0","battery-v0.2","","""event"",""trial"",""time""
""fullscreenenter"",""1"",""5185""
""blur"",""4"",""51588""
""focus"",""4"",""81040""
","""event"",""trial"",""time""
""blur"",""4"",""51588""
","""event"",""trial"",""time""
""focus"",""4"",""81040""
","""event"",""trial"",""time""
""fullscreenenter"",""1"",""5185""
","
","","","435.3999999910593","","","26","3369","487","&#9789;","elianto","#f73b6a7A"," "," ","1","-10","[1289.7999999970198]","1","0","4","","","","","","","",""
"pit-trial","85","865095","0.0-2.0-17.0-4.0","battery-v0.2","","""event"",""trial"",""time""
""fullscreenenter"",""1"",""5185""
""blur"",""4"",""51588""
""focus"",""4"",""81040""
","""event"",""trial"",""time""
""blur"",""4"",""51588""
","""event"",""trial"",""time""
""focus"",""4"",""81040""
","""event"",""trial"",""time""
""fullscreenenter"",""1"",""5185""
","
","","","258.70000000298023","","","26","3369","487","&#9789;","elianto","#f73b6a7A"," "," ","1","0","[1115.0999999940395]","1","0","4","","","","","","","",""
"pit-trial","86","868382","0.0-2.0-17.1-0.1","battery-v0.2","","""event"",""trial"",""time""
""fullscreenenter"",""1"",""5185""
""blur"",""4"",""51588""
""focus"",""4"",""81040""
","""event"",""trial"",""time""
""blur"",""4"",""51588""
","""event"",""trial"",""time""
""focus"",""4"",""81040""
","""event"",""trial"",""time""
""fullscreenenter"",""1"",""5185""
","
","","","426.70000000298023","","","26","3369","487","&#9789;","elianto","#f73b6a7A"," "," ","1","0","[1277.8999999910593]","1","0","4","","","","","","","",""
"pit-trial","87","871671","0.0-2.0-17.1-1.1","battery-v0.2","","""event"",""trial"",""time""
""fullscreenenter"",""1"",""5185""
""blur"",""4"",""51588""
""focus"",""4"",""81040""
","""event"",""trial"",""time""
""blur"",""4"",""51588""
","""event"",""trial"",""time""
""focus"",""4"",""81040""
","""event"",""trial"",""time""
""fullscreenenter"",""1"",""5185""
","
","","","425.70000000298023","","","26","3369","487","&#9789;","elianto","#f73b6a7A"," "," ","1","0","[1279.7000000029802]","1","0","4","","","","","","","",""
"pit-trial","88","874989","0.0-2.0-17.1-2.1","battery-v0.2","","""event"",""trial"",""time""
""fullscreenenter"",""1"",""5185""
""blur"",""4"",""51588""
""focus"",""4"",""81040""
","""event"",""trial"",""time""
""blur"",""4"",""51588""
","""event"",""trial"",""time""
""focus"",""4"",""81040""
","""event"",""trial"",""time""
""fullscreenenter"",""1"",""5185""
","
","","","461.40000000596046","","","26","3369","487","&#9789;","elianto","#f73b6a7A"," "," ","1","0","[1313.9000000059605]","1","0","4","","","","","","","",""
"pit-trial","89","878383","0.0-2.0-17.1-3.1","battery-v0.2","","""event"",""trial"",""time""
""fullscreenenter"",""1"",""5185""
""blur"",""4"",""51588""
""focus"",""4"",""81040""
","""event"",""trial"",""time""
""blur"",""4"",""51588""
","""event"",""trial"",""time""
""focus"",""4"",""81040""
","""event"",""trial"",""time""
""fullscreenenter"",""1"",""5185""
","
","","","532.8000000119209","","","26","3369","487","&#9789;","elianto","#f73b6a7A"," "," ","1","-10","[1388.6000000089407]","1","0","4","","","","","","","",""
"pit-trial","90","881631","0.0-2.0-17.1-4.1","battery-v0.2","","""event"",""trial"",""time""
""fullscreenenter"",""1"",""5185""
""blur"",""4"",""51588""
""focus"",""4"",""81040""
","""event"",""trial"",""time""
""blur"",""4"",""51588""
","""event"",""trial"",""time""
""focus"",""4"",""81040""
","""event"",""trial"",""time""
""fullscreenenter"",""1"",""5185""
","
","","","387","","","26","3369","487","&#9789;","elianto","#f73b6a7A"," "," ","1","0","[1239.3999999910593]","1","0","4","","","","","","","",""
"pit-trial","91","885088","0.0-2.0-17.2-0.2","battery-v0.2","","""event"",""trial"",""time""
""fullscreenenter"",""1"",""5185""
""blur"",""4"",""51588""
""focus"",""4"",""81040""
","""event"",""trial"",""time""
""blur"",""4"",""51588""
","""event"",""trial"",""time""
""focus"",""4"",""81040""
","""event"",""trial"",""time""
""fullscreenenter"",""1"",""5185""
","
","","","597.1000000089407","","","26","3369","487","&#9789;","elianto","#f73b6a7A"," "," ","1","0","[1450.7000000029802]","1","0","4","","","","","","","",""
"pit-trial","92","888319","0.0-2.0-17.2-1.2","battery-v0.2","","""event"",""trial"",""time""
""fullscreenenter"",""1"",""5185""
""blur"",""4"",""51588""
""focus"",""4"",""81040""
","""event"",""trial"",""time""
""blur"",""4"",""51588""
","""event"",""trial"",""time""
""focus"",""4"",""81040""
","""event"",""trial"",""time""
""fullscreenenter"",""1"",""5185""
","
","","","368.80000001192093","","","26","3369","487","&#9789;","elianto","#f73b6a7A"," "," ","1","0","[1218.9000000059605]","1","0","4","","","","","","","",""
"pit-trial","93","891598","0.0-2.0-17.2-2.2","battery-v0.2","","""event"",""trial"",""time""
""fullscreenenter"",""1"",""5185""
""blur"",""4"",""51588""
""focus"",""4"",""81040""
","""event"",""trial"",""time""
""blur"",""4"",""51588""
","""event"",""trial"",""time""
""focus"",""4"",""81040""
","""event"",""trial"",""time""
""fullscreenenter"",""1"",""5185""
","
","","","423.29999999701977","","","26","3369","487","&#9789;","elianto","#f73b6a7A"," "," ","1","0","[1274.5999999940395]","1","0","4","","","","","","","",""
"pit-trial","94","894855","0.0-2.0-17.2-3.2","battery-v0.2","","""event"",""trial"",""time""
""fullscreenenter"",""1"",""5185""
""blur"",""4"",""51588""
""focus"",""4"",""81040""
","""event"",""trial"",""time""
""blur"",""4"",""51588""
","""event"",""trial"",""time""
""focus"",""4"",""81040""
","""event"",""trial"",""time""
""fullscreenenter"",""1"",""5185""
","
","","","391","","","26","3369","487","&#9789;","elianto","#f73b6a7A"," "," ","1","-10","[1246.199999988079]","1","0","4","","","","","","","",""
"pit-trial","95","897922","0.0-2.0-17.2-4.2","battery-v0.2","","""event"",""trial"",""time""
""fullscreenenter"",""1"",""5185""
""blur"",""4"",""51588""
""focus"",""4"",""81040""
","""event"",""trial"",""time""
""blur"",""4"",""51588""
","""event"",""trial"",""time""
""focus"",""4"",""81040""
","""event"",""trial"",""time""
""fullscreenenter"",""1"",""5185""
","
","","","207.59999999403954","","","26","3369","487","&#9789;","elianto","#f73b6a7A"," "," ","1","0","[1061.0999999940395]","1","0","4","","","","","","","",""
"pit-trial","96","902350","0.0-2.0-17.3-0.3","battery-v0.2","","""event"",""trial"",""time""
""fullscreenenter"",""1"",""5185""
""blur"",""4"",""51588""
""focus"",""4"",""81040""
","""event"",""trial"",""time""
""blur"",""4"",""51588""
","""event"",""trial"",""time""
""focus"",""4"",""81040""
","""event"",""trial"",""time""
""fullscreenenter"",""1"",""5185""
","
","","","1562.8999999910593","","","26","3369","487","&#9789;","elianto","#f73b6a7A"," "," ","1","0","[2420.699999988079]","1","0","4","","","","","","","",""
"pit-trial","97","905638","0.0-2.0-17.3-1.3","battery-v0.2","","""event"",""trial"",""time""
""fullscreenenter"",""1"",""5185""
""blur"",""4"",""51588""
""focus"",""4"",""81040""
","""event"",""trial"",""time""
""blur"",""4"",""51588""
","""event"",""trial"",""time""
""focus"",""4"",""81040""
","""event"",""trial"",""time""
""fullscreenenter"",""1"",""5185""
","
","","","427.59999999403954","","","26","3369","487","&#9789;","elianto","#f73b6a7A"," "," ","1","0","[1281.8999999910593]","1","0","4","","","","","","","",""
"pit-trial","98","908950","0.0-2.0-17.3-2.3","battery-v0.2","","""event"",""trial"",""time""
""fullscreenenter"",""1"",""5185""
""blur"",""4"",""51588""
""focus"",""4"",""81040""
","""event"",""trial"",""time""
""blur"",""4"",""51588""
","""event"",""trial"",""time""
""focus"",""4"",""81040""
","""event"",""trial"",""time""
""fullscreenenter"",""1"",""5185""
","
","","","449.70000000298023","","","26","3369","487","&#9789;","elianto","#f73b6a7A"," "," ","1","0","[1304.2000000029802]","1","0","4","","","","","","","",""
"pit-trial","99","912254","0.0-2.0-17.3-3.3","battery-v0.2","","""event"",""trial"",""time""
""fullscreenenter"",""1"",""5185""
""blur"",""4"",""51588""
""focus"",""4"",""81040""
","""event"",""trial"",""time""
""blur"",""4"",""51588""
","""event"",""trial"",""time""
""focus"",""4"",""81040""
","""event"",""trial"",""time""
""fullscreenenter"",""1"",""5185""
","
","","","441.70000000298023","","","26","3369","487","&#9789;","elianto","#f73b6a7A"," "," ","1","-10","[1295.4000000059605]","1","0","4","","","","","","","",""
"pit-trial","100","915831","0.0-2.0-17.3-4.3","battery-v0.2","","""event"",""trial"",""time""
""fullscreenenter"",""1"",""5185""
""blur"",""4"",""51588""
""focus"",""4"",""81040""
","""event"",""trial"",""time""
""blur"",""4"",""51588""
","""event"",""trial"",""time""
""focus"",""4"",""81040""
","""event"",""trial"",""time""
""fullscreenenter"",""1"",""5185""
","
","","","723.2000000029802","","","26","3369","487","&#9789;","elianto","#f73b6a7A"," "," ","1","0","[1573.800000011921]","1","0","4","","","","","","","",""
"call-function","101","915833","0.0-2.0-18.0","battery-v0.2","","""event"",""trial"",""time""
""fullscreenenter"",""1"",""5185""
""blur"",""4"",""51588""
""focus"",""4"",""81040""
","""event"",""trial"",""time""
""blur"",""4"",""51588""
","""event"",""trial"",""time""
""focus"",""4"",""81040""
","""event"",""trial"",""time""
""fullscreenenter"",""1"",""5185""
","
","","","","","","","","","","","","","","","","","","","","","","","","","","",""
"pit-instructions","102","995913","0.0-2.0-19.0","battery-v0.2","","""event"",""trial"",""time""
""fullscreenenter"",""1"",""5185""
""blur"",""4"",""51588""
""focus"",""4"",""81040""
","""event"",""trial"",""time""
""blur"",""4"",""51588""
","""event"",""trial"",""time""
""focus"",""4"",""81040""
","""event"",""trial"",""time""
""fullscreenenter"",""1"",""5185""
","
","","[{""page_index"":0,""viewing_time"":10643.29999999702},{""page_index"":1,""viewing_time"":7050.300000011921},{""page_index"":2,""viewing_time"":9501},{""page_index"":3,""viewing_time"":9232},{""page_index"":4,""viewing_time"":8550.09999999404},{""page_index"":5,""viewing_time"":9183.5},{""page_index"":6,""viewing_time"":11000.09999999404},{""page_index"":7,""viewing_time"":8935.70000000298},{""page_index"":8,""viewing_time"":5981.600000008941}]","80077.90000000596","","","","","","","","","","","","","","","","","","","","","","","",""
"pit-comprehension","103","1000827","0.0-2.0-20.0-0.0","battery-v0.2","","""event"",""trial"",""time""
""fullscreenenter"",""1"",""5185""
""blur"",""4"",""51588""
""focus"",""4"",""81040""
","""event"",""trial"",""time""
""blur"",""4"",""51588""
","""event"",""trial"",""time""
""focus"",""4"",""81040""
","""event"",""trial"",""time""
""fullscreenenter"",""1"",""5185""
","
","","","4909.5999999940395","[""SPACE""]","0","26","3369","487","","","","","","","","","","","","","","","","","","",""
"pit-instructions","104","1004220","0.0-2.0-20.0-1.0","battery-v0.2","","""event"",""trial"",""time""
""fullscreenenter"",""1"",""5185""
""blur"",""4"",""51588""
""focus"",""4"",""81040""
","""event"",""trial"",""time""
""blur"",""4"",""51588""
","""event"",""trial"",""time""
""focus"",""4"",""81040""
","""event"",""trial"",""time""
""fullscreenenter"",""1"",""5185""
","
","","[{""page_index"":0,""viewing_time"":3258.4000000059605}]","3258.800000011921","","","","","","","","","","","","","","","","","","","","","","","",""
"pit-comprehension","105","1009731","0.0-2.0-21.0-0.0","battery-v0.2","","""event"",""trial"",""time""
""fullscreenenter"",""1"",""5185""
""blur"",""4"",""51588""
""focus"",""4"",""81040""
","""event"",""trial"",""time""
""blur"",""4"",""51588""
","""event"",""trial"",""time""
""focus"",""4"",""81040""
","""event"",""trial"",""time""
""fullscreenenter"",""1"",""5185""
","
","","","5507.29999999702","[""10""]","0","26","3369","487","","","","","","","","","","","","","","","","","","",""
"pit-instructions","106","1013632","0.0-2.0-21.0-1.0","battery-v0.2","","""event"",""trial"",""time""
""fullscreenenter"",""1"",""5185""
""blur"",""4"",""51588""
""focus"",""4"",""81040""
","""event"",""trial"",""time""
""blur"",""4"",""51588""
","""event"",""trial"",""time""
""focus"",""4"",""81040""
","""event"",""trial"",""time""
""fullscreenenter"",""1"",""5185""
","
","","[{""page_index"":0,""viewing_time"":3855.6000000089407}]","3855.9000000059605","","","","","","","","","","","","","","","","","","","","","","","",""
"pit-comprehension","107","1022501","0.0-2.0-22.0-0.0","battery-v0.2","","""event"",""trial"",""time""
""fullscreenenter"",""1"",""5185""
""blur"",""4"",""51588""
""focus"",""4"",""81040""
","""event"",""trial"",""time""
""blur"",""4"",""51588""
","""event"",""trial"",""time""
""focus"",""4"",""81040""
","""event"",""trial"",""time""
""fullscreenenter"",""1"",""5185""
","
","","","8866.29999999702","[""0""]","0","26","3369","487","","","","","","","","","","","","","","","","","","",""
"pit-instructions","108","1024648","0.0-2.0-22.0-1.0","battery-v0.2","","""event"",""trial"",""time""
""fullscreenenter"",""1"",""5185""
""blur"",""4"",""51588""
""focus"",""4"",""81040""
","""event"",""trial"",""time""
""blur"",""4"",""51588""
","""event"",""trial"",""time""
""focus"",""4"",""81040""
","""event"",""trial"",""time""
""fullscreenenter"",""1"",""5185""
","
","","[{""page_index"":0,""viewing_time"":1908.4000000059605}]","1908.7000000029802","","","","","","","","","","","","","","","","","","","","","","","",""
"pit-comprehension","109","1033532","0.0-2.0-23.0-0.0","battery-v0.2","","""event"",""trial"",""time""
""fullscreenenter"",""1"",""5185""
""blur"",""4"",""51588""
""focus"",""4"",""81040""
","""event"",""trial"",""time""
""blur"",""4"",""51588""
","""event"",""trial"",""time""
""focus"",""4"",""81040""
","""event"",""trial"",""time""
""fullscreenenter"",""1"",""5185""
","
","","","8880.20000000298","[""True""]","0","26","3369","487","","","","","","","","","","","","","","","","","","",""
"pit-instructions","110","1037237","0.0-2.0-23.0-1.0","battery-v0.2","","""event"",""trial"",""time""
""fullscreenenter"",""1"",""5185""
""blur"",""4"",""51588""
""focus"",""4"",""81040""
","""event"",""trial"",""time""
""blur"",""4"",""51588""
","""event"",""trial"",""time""
""focus"",""4"",""81040""
","""event"",""trial"",""time""
""fullscreenenter"",""1"",""5185""
","
","","[{""page_index"":0,""viewing_time"":3659.3999999910593}]","3659.699999988079","","","","","","","","","","","","","","","","","","","","","","","",""
"pit-comprehension","111","1044915","0.0-2.0-24.0-0.0","battery-v0.2","","""event"",""trial"",""time""
""fullscreenenter"",""1"",""5185""
""blur"",""4"",""51588""
""focus"",""4"",""81040""
","""event"",""trial"",""time""
""blur"",""4"",""51588""
","""event"",""trial"",""time""
""focus"",""4"",""81040""
","""event"",""trial"",""time""
""fullscreenenter"",""1"",""5185""
","
","","","7674.79999999702","[""True""]","0","26","3369","487","","","","","","","","","","","","","","","","","","",""
"pit-instructions","112","1050698","0.0-2.0-24.0-1.0","battery-v0.2","","""event"",""trial"",""time""
""fullscreenenter"",""1"",""5185""
""blur"",""4"",""51588""
""focus"",""4"",""81040""
","""event"",""trial"",""time""
""blur"",""4"",""51588""
","""event"",""trial"",""time""
""focus"",""4"",""81040""
","""event"",""trial"",""time""
""fullscreenenter"",""1"",""5185""
","
","","[{""page_index"":0,""viewing_time"":5748.100000008941}]","5748.5","","","","","","","","","","","","","","","","","","","","","","","",""
"pit-comprehension","113","1057265","0.0-2.0-25.0-0.0","battery-v0.2","","""event"",""trial"",""time""
""fullscreenenter"",""1"",""5185""
""blur"",""4"",""51588""
""focus"",""4"",""81040""
","""event"",""trial"",""time""
""blur"",""4"",""51588""
","""event"",""trial"",""time""
""focus"",""4"",""81040""
","""event"",""trial"",""time""
""fullscreenenter"",""1"",""5185""
","
","","","6564.300000011921","[""True""]","0","26","3369","487","","","","","","","","","","","","","","","","","","",""
"pit-instructions","114","1060381","0.0-2.0-25.0-1.0","battery-v0.2","","""event"",""trial"",""time""
""fullscreenenter"",""1"",""5185""
""blur"",""4"",""51588""
""focus"",""4"",""81040""
","""event"",""trial"",""time""
""blur"",""4"",""51588""
","""event"",""trial"",""time""
""focus"",""4"",""81040""
","""event"",""trial"",""time""
""fullscreenenter"",""1"",""5185""
","
","","[{""page_index"":0,""viewing_time"":3081.800000011921}]","3082","","","","","","","","","","","","","","","","","","","","","","","",""
"pit-comprehension","115","1065318","0.0-2.0-26.0-0.0","battery-v0.2","","""event"",""trial"",""time""
""fullscreenenter"",""1"",""5185""
""blur"",""4"",""51588""
""focus"",""4"",""81040""
","""event"",""trial"",""time""
""blur"",""4"",""51588""
","""event"",""trial"",""time""
""focus"",""4"",""81040""
","""event"",""trial"",""time""
""fullscreenenter"",""1"",""5185""
","
","","","4934.79999999702","[""False""]","0","26","3369","487","","","","","","","","","","","","","","","","","","",""
"pit-instructions","116","1068265","0.0-2.0-26.0-1.0","battery-v0.2","","""event"",""trial"",""time""
""fullscreenenter"",""1"",""5185""
""blur"",""4"",""51588""
""focus"",""4"",""81040""
","""event"",""trial"",""time""
""blur"",""4"",""51588""
","""event"",""trial"",""time""
""focus"",""4"",""81040""
","""event"",""trial"",""time""
""fullscreenenter"",""1"",""5185""
","
","","[{""page_index"":0,""viewing_time"":2851.2999999970198}]","2851.5","","","","","","","","","","","","","","","","","","","","","","","",""
"pit-instructions","117","1091951","0.0-3.0","battery-v0.2","","""event"",""trial"",""time""
""fullscreenenter"",""1"",""5185""
""blur"",""4"",""51588""
""focus"",""4"",""81040""
","""event"",""trial"",""time""
""blur"",""4"",""51588""
","""event"",""trial"",""time""
""focus"",""4"",""81040""
","""event"",""trial"",""time""
""fullscreenenter"",""1"",""5185""
","
","","[{""page_index"":0,""viewing_time"":6468},{""page_index"":1,""viewing_time"":9045.70000000298},{""page_index"":2,""viewing_time"":8168.5}]","23682.70000000298","","","","","","","","","","","","","","","","","","","","","","","",""
"pit-trial","118","1095601","0.0-4.0","battery-v0.2","","""event"",""trial"",""time""
""fullscreenenter"",""1"",""5185""
""blur"",""4"",""51588""
""focus"",""4"",""81040""
","""event"",""trial"",""time""
""blur"",""4"",""51588""
","""event"",""trial"",""time""
""focus"",""4"",""81040""
","""event"",""trial"",""time""
""fullscreenenter"",""1"",""5185""
","
","","","787.7000000029802","","","26","3369","487","&#9733;","elianto","#3366ff99","-1"," ","0","0","[1642.1000000089407]","1","1","","","3369","1","2","2","win","no-go","0"
"pit-trial","119","1099644","0.0-5.0","battery-v0.2","","""event"",""trial"",""time""
""fullscreenenter"",""1"",""5185""
""blur"",""4"",""51588""
""focus"",""4"",""81040""
","""event"",""trial"",""time""
""blur"",""4"",""51588""
","""event"",""trial"",""time""
""focus"",""4"",""81040""
","""event"",""trial"",""time""
""fullscreenenter"",""1"",""5185""
","
","","","1176.1000000089407","","","26","3369","487","&#9752;","elianto","#f73b6a7A"," "," ","1","0","[2033.7999999970198]","1","1","","","3369","2","3","3","lose","go","0"
"pit-trial","120","1103643","0.0-6.0","battery-v0.2","","""event"",""trial"",""time""
""fullscreenenter"",""1"",""5185""
""blur"",""4"",""51588""
""focus"",""4"",""81040""
","""event"",""trial"",""time""
""blur"",""4"",""51588""
","""event"",""trial"",""time""
""focus"",""4"",""81040""
","""event"",""trial"",""time""
""fullscreenenter"",""1"",""5185""
","
","","","1140.2000000029802","","","26","3369","487","&#9728;","elianto","#f73b6a7A","-1"," ","0","0","[1993.4000000059605]","1","1","","","3369","3","0","4","lose","no-go","1"
"pit-trial","121","1108067","0.0-7.0","battery-v0.2","","""event"",""trial"",""time""
""fullscreenenter"",""1"",""5185""
""blur"",""4"",""51588""
""focus"",""4"",""81040""
","""event"",""trial"",""time""
""blur"",""4"",""51588""
","""event"",""trial"",""time""
""focus"",""4"",""81040""
","""event"",""trial"",""time""
""fullscreenenter"",""1"",""5185""
","
","","","1570.1000000089407","","","26","3369","487","&#9730;","elianto","#3366ff99"," "," ","1","+10","[2420.5]","1","1","","","3369","4","1","1","win","go","0"
"pit-trial","122","1111715","0.0-8.0","battery-v0.2","","""event"",""trial"",""time""
""fullscreenenter"",""1"",""5185""
""blur"",""4"",""51588""
""focus"",""4"",""81040""
","""event"",""trial"",""time""
""blur"",""4"",""51588""
","""event"",""trial"",""time""
""focus"",""4"",""81040""
","""event"",""trial"",""time""
""fullscreenenter"",""1"",""5185""
","
","","","788.8999999910593","","","26","3369","487","&#9752;","elianto","#f73b6a7A"," "," ","1","0","[1643.7000000029802]","1","1","","","3369","5","3","3","lose","go","0"
"pit-trial","123","1115836","0.0-9.0","battery-v0.2","","""event"",""trial"",""time""
""fullscreenenter"",""1"",""5185""
""blur"",""4"",""51588""
""focus"",""4"",""81040""
","""event"",""trial"",""time""
""blur"",""4"",""51588""
","""event"",""trial"",""time""
""focus"",""4"",""81040""
","""event"",""trial"",""time""
""fullscreenenter"",""1"",""5185""
","
","","","1261.9000000059605","","","26","3369","487","&#9733;","elianto","#3366ff99","-1"," ","0","0","[2117]","1","1","","","3369","6","2","2","win","no-go","0"
"pit-trial","124","1120695","0.0-10.0","battery-v0.2","","""event"",""trial"",""time""
""fullscreenenter"",""1"",""5185""
""blur"",""4"",""51588""
""focus"",""4"",""81040""
","""event"",""trial"",""time""
""blur"",""4"",""51588""
","""event"",""trial"",""time""
""focus"",""4"",""81040""
","""event"",""trial"",""time""
""fullscreenenter"",""1"",""5185""
","
","","","-1","","","26","3369","487","&#9728;","elianto","#f73b6a7A","-1","-1","1","0","[2942.4000000059605]","1","1","","","3369","7","0","4","lose","no-go","0"
"pit-trial","125","1124629","0.0-11.0","battery-v0.2","","""event"",""trial"",""time""
""fullscreenenter"",""1"",""5185""
""blur"",""4"",""51588""
""focus"",""4"",""81040""
","""event"",""trial"",""time""
""blur"",""4"",""51588""
","""event"",""trial"",""time""
""focus"",""4"",""81040""
","""event"",""trial"",""time""
""fullscreenenter"",""1"",""5185""
","
","","","1081","","","26","3369","487","&#9730;","elianto","#3366ff99"," "," ","1","+10","[1932.0999999940395]","1","1","","","3369","8","1","1","win","go","0"
"pit-trial","126","1128348","0.0-12.0","battery-v0.2","","""event"",""trial"",""time""
""fullscreenenter"",""1"",""5185""
""blur"",""4"",""51588""
""focus"",""4"",""81040""
","""event"",""trial"",""time""
""blur"",""4"",""51588""
","""event"",""trial"",""time""
""focus"",""4"",""81040""
","""event"",""trial"",""time""
""fullscreenenter"",""1"",""5185""
","
","","","861.9000000059605","","","26","3369","487","&#9728;","elianto","#f73b6a7A","-1"," ","0","-10","[1714.4000000059605]","1","1","","","3369","9","0","4","lose","no-go","0"
"pit-trial","127","1131796","0.0-13.0","battery-v0.2","","""event"",""trial"",""time""
""fullscreenenter"",""1"",""5185""
""blur"",""4"",""51588""
""focus"",""4"",""81040""
","""event"",""trial"",""time""
""blur"",""4"",""51588""
","""event"",""trial"",""time""
""focus"",""4"",""81040""
","""event"",""trial"",""time""
""fullscreenenter"",""1"",""5185""
","
","","","587.7000000029802","","","26","3369","487","&#9752;","elianto","#f73b6a7A"," "," ","1","0","[1442.2000000029802]","1","1","","","3369","10","3","3","lose","go","0"
"pit-trial","128","1135309","0.0-14.0","battery-v0.2","","""event"",""trial"",""time""
""fullscreenenter"",""1"",""5185""
""blur"",""4"",""51588""
""focus"",""4"",""81040""
","""event"",""trial"",""time""
""blur"",""4"",""51588""
","""event"",""trial"",""time""
""focus"",""4"",""81040""
","""event"",""trial"",""time""
""fullscreenenter"",""1"",""5185""
","
","","","653.7000000029802","","","26","3369","487","&#9733;","elianto","#3366ff99","-1"," ","0","0","[1507.7000000029802]","1","1","","","3369","11","2","2","win","no-go","0"
"pit-trial","129","1139357","0.0-15.0","battery-v0.2","","""event"",""trial"",""time""
""fullscreenenter"",""1"",""5185""
""blur"",""4"",""51588""
""focus"",""4"",""81040""
","""event"",""trial"",""time""
""blur"",""4"",""51588""
","""event"",""trial"",""time""
""focus"",""4"",""81040""
","""event"",""trial"",""time""
""fullscreenenter"",""1"",""5185""
","
","","","1192.7999999970198","","","26","3369","487","&#9730;","elianto","#3366ff99"," "," ","1","+10","[2043.5999999940395]","1","1","","","3369","12","1","1","win","go","0"
"pit-trial","130","1143101","0.0-16.0","battery-v0.2","","""event"",""trial"",""time""
""fullscreenenter"",""1"",""5185""
""blur"",""4"",""51588""
""focus"",""4"",""81040""
","""event"",""trial"",""time""
""blur"",""4"",""51588""
","""event"",""trial"",""time""
""focus"",""4"",""81040""
","""event"",""trial"",""time""
""fullscreenenter"",""1"",""5185""
","
","","","885.2999999970198","","","26","3369","487","&#9730;","elianto","#3366ff99"," "," ","1","+10","[1738.2999999970198]","1","1","","","3369","13","1","1","win","go","0"
"pit-trial","131","1147279","0.0-17.0","battery-v0.2","","""event"",""trial"",""time""
""fullscreenenter"",""1"",""5185""
""blur"",""4"",""51588""
""focus"",""4"",""81040""
","""event"",""trial"",""time""
""blur"",""4"",""51588""
","""event"",""trial"",""time""
""focus"",""4"",""81040""
","""event"",""trial"",""time""
""fullscreenenter"",""1"",""5185""
","
","","","1320.7000000029802","","","26","3369","487","&#9733;","elianto","#3366ff99","-1"," ","0","+10","[2174.9000000059605]","1","1","","","3369","14","2","2","win","no-go","1"
"pit-trial","132","1152142","0.0-18.0","battery-v0.2","","""event"",""trial"",""time""
""fullscreenenter"",""1"",""5185""
""blur"",""4"",""51588""
""focus"",""4"",""81040""
","""event"",""trial"",""time""
""blur"",""4"",""51588""
","""event"",""trial"",""time""
""focus"",""4"",""81040""
","""event"",""trial"",""time""
""fullscreenenter"",""1"",""5185""
","
","","","-1","","","26","3369","487","&#9728;","elianto","#f73b6a7A","-1","-1","1","0","[]","0","1","","","3369","15","0","4","lose","no-go","0"
"pit-trial","133","1156595","0.0-19.0","battery-v0.2","","""event"",""trial"",""time""
""fullscreenenter"",""1"",""5185""
""blur"",""4"",""51588""
""focus"",""4"",""81040""
","""event"",""trial"",""time""
""blur"",""4"",""51588""
","""event"",""trial"",""time""
""focus"",""4"",""81040""
","""event"",""trial"",""time""
""fullscreenenter"",""1"",""5185""
","
","","","1597.5","","","26","3369","487","&#9752;","elianto","#f73b6a7A"," "," ","1","0","[2448.5999999940395]","1","1","","","3369","16","3","3","lose","go","0"
"pit-trial","134","1160846","0.0-20.0","battery-v0.2","","""event"",""trial"",""time""
""fullscreenenter"",""1"",""5185""
""blur"",""4"",""51588""
""focus"",""4"",""81040""
","""event"",""trial"",""time""
""blur"",""4"",""51588""
","""event"",""trial"",""time""
""focus"",""4"",""81040""
","""event"",""trial"",""time""
""fullscreenenter"",""1"",""5185""
","
","","","1386.3999999910593","","","26","3369","487","&#9752;","elianto","#f73b6a7A"," "," ","1","-10","[2241.0999999940395]","1","1","","","3369","17","3","3","lose","go","1"
"pit-trial","135","1164741","0.0-21.0","battery-v0.2","","""event"",""trial"",""time""
""fullscreenenter"",""1"",""5185""
""blur"",""4"",""51588""
""focus"",""4"",""81040""
","""event"",""trial"",""time""
""blur"",""4"",""51588""
","""event"",""trial"",""time""
""focus"",""4"",""81040""
","""event"",""trial"",""time""
""fullscreenenter"",""1"",""5185""
","
","","","1034.7999999970198","","","26","3369","487","&#9730;","elianto","#3366ff99"," "," ","1","+10","[1887.5999999940395]","1","1","","","3369","18","1","1","win","go","0"
"pit-trial","136","1168329","0.0-22.0","battery-v0.2","","""event"",""trial"",""time""
""fullscreenenter"",""1"",""5185""
""blur"",""4"",""51588""
""focus"",""4"",""81040""
","""event"",""trial"",""time""
""blur"",""4"",""51588""
","""event"",""trial"",""time""
""focus"",""4"",""81040""
","""event"",""trial"",""time""
""fullscreenenter"",""1"",""5185""
","
","","","730.3999999910593","","","26","3369","487","&#9728;","elianto","#f73b6a7A","-1"," ","0","-10","[1581.9000000059605]","1","1","","","3369","19","0","4","lose","no-go","0"
"pit-trial","137","1172414","0.0-23.0","battery-v0.2","","""event"",""trial"",""time""
""fullscreenenter"",""1"",""5185""
""blur"",""4"",""51588""
""focus"",""4"",""81040""
","""event"",""trial"",""time""
""blur"",""4"",""51588""
","""event"",""trial"",""time""
""focus"",""4"",""81040""
","""event"",""trial"",""time""
""fullscreenenter"",""1"",""5185""
","
","","","1222.3999999910593","","","26","3369","487","&#9733;","elianto","#3366ff99","-1"," ","0","0","[2079.7999999970198]","1","1","","","3369","20","2","2","win","no-go","0"
"pit-instructions","138","1193785","0.0-24.0","battery-v0.2","","""event"",""trial"",""time""
""fullscreenenter"",""1"",""5185""
""blur"",""4"",""51588""
""focus"",""4"",""81040""
","""event"",""trial"",""time""
""blur"",""4"",""51588""
","""event"",""trial"",""time""
""focus"",""4"",""81040""
","""event"",""trial"",""time""
""fullscreenenter"",""1"",""5185""
","
","","[{""page_index"":0,""viewing_time"":13152.09999999404},{""page_index"":1,""viewing_time"":8216.90000000596}]","21369.29999999702","","","","","","","","","","","","","","","","","","","","","","","",""
"pit-trial","139","1198007","0.0-25.0","battery-v0.2","","""event"",""trial"",""time""
""fullscreenenter"",""1"",""5185""
""blur"",""4"",""51588""
""focus"",""4"",""81040""
","""event"",""trial"",""time""
""blur"",""4"",""51588""
","""event"",""trial"",""time""
""focus"",""4"",""81040""
","""event"",""trial"",""time""
""fullscreenenter"",""1"",""5185""
","
","","","1355.3999999910593","","","26","3369","487","d","elianto","#3366ff99"," "," ","1","+10","[2214.199999988079]","1","2","","","3369","21","1","1","win","go","0"
"pit-trial","140","1201630","0.0-26.0","battery-v0.2","","""event"",""trial"",""time""
""fullscreenenter"",""1"",""5185""
""blur"",""4"",""51588""
""focus"",""4"",""81040""
","""event"",""trial"",""time""
""blur"",""4"",""51588""
","""event"",""trial"",""time""
""focus"",""4"",""81040""
","""event"",""trial"",""time""
""fullscreenenter"",""1"",""5185""
","
","","","763.2000000029802","","","26","3369","487","w","elianto","#f73b6a7A"," "," ","1","0","[1617.300000011921]","1","2","","","3369","22","3","3","lose","go","0"
"pit-trial","141","1205963","0.0-27.0","battery-v0.2","","""event"",""trial"",""time""
""fullscreenenter"",""1"",""5185""
""blur"",""4"",""51588""
""focus"",""4"",""81040""
","""event"",""trial"",""time""
""blur"",""4"",""51588""
","""event"",""trial"",""time""
""focus"",""4"",""81040""
","""event"",""trial"",""time""
""fullscreenenter"",""1"",""5185""
","
","","","1477.1000000089407","","","26","3369","487","j","elianto","#f73b6a7A","-1"," ","0","0","[2330.5]","1","2","","","3369","23","0","4","lose","no-go","1"
"pit-trial","142","1209495","0.0-28.0","battery-v0.2","","""event"",""trial"",""time""
""fullscreenenter"",""1"",""5185""
""blur"",""4"",""51588""
""focus"",""4"",""81040""
","""event"",""trial"",""time""
""blur"",""4"",""51588""
","""event"",""trial"",""time""
""focus"",""4"",""81040""
","""event"",""trial"",""time""
""fullscreenenter"",""1"",""5185""
","
","","","672.8999999910593","","","26","3369","487","e","elianto","#f73b6a7A","-1"," ","0","0","[1523.2999999970198]","1","2","","","3369","24","2","4","lose","no-go","1"
"pit-trial","143","1213294","0.0-29.0","battery-v0.2","","""event"",""trial"",""time""
""fullscreenenter"",""1"",""5185""
""blur"",""4"",""51588""
""focus"",""4"",""81040""
","""event"",""trial"",""time""
""blur"",""4"",""51588""
","""event"",""trial"",""time""
""focus"",""4"",""81040""
","""event"",""trial"",""time""
""fullscreenenter"",""1"",""5185""
","
","","","945","","","26","3369","487","w","elianto","#f73b6a7A"," "," ","1","0","[1796.199999988079]","1","2","","","3369","25","3","3","lose","go","0"
"pit-trial","144","1216438","0.0-30.0","battery-v0.2","","""event"",""trial"",""time""
""fullscreenenter"",""1"",""5185""
""blur"",""4"",""51588""
""focus"",""4"",""81040""
","""event"",""trial"",""time""
""blur"",""4"",""51588""
","""event"",""trial"",""time""
""focus"",""4"",""81040""
","""event"",""trial"",""time""
""fullscreenenter"",""1"",""5185""
","
","","","289.3999999910593","","","26","3369","487","d","elianto","#3366ff99"," "," ","1","+10","[1140.1000000089407]","1","2","","","3369","26","1","1","win","go","0"
"pit-trial","145","1219732","0.0-31.0","battery-v0.2","","""event"",""trial"",""time""
""fullscreenenter"",""1"",""5185""
""blur"",""4"",""51588""
""focus"",""4"",""81040""
","""event"",""trial"",""time""
""blur"",""4"",""51588""
","""event"",""trial"",""time""
""focus"",""4"",""81040""
","""event"",""trial"",""time""
""fullscreenenter"",""1"",""5185""
","
","","","433.69999998807907","","","26","3369","487","e","elianto","#f73b6a7A","-1"," ","0","0","[1288.699999988079]","1","2","","","3369","27","2","4","lose","no-go","1"
"pit-trial","146","1223278","0.0-32.0","battery-v0.2","","""event"",""trial"",""time""
""fullscreenenter"",""1"",""5185""
""blur"",""4"",""51588""
""focus"",""4"",""81040""
","""event"",""trial"",""time""
""blur"",""4"",""51588""
","""event"",""trial"",""time""
""focus"",""4"",""81040""
","""event"",""trial"",""time""
""fullscreenenter"",""1"",""5185""
","
","","","684.5999999940395","","","26","3369","487","j","elianto","#f73b6a7A","-1"," ","0","0","[1540.2999999970198]","1","2","","","3369","28","0","4","lose","no-go","1"
"pit-trial","147","1226747","0.0-33.0","battery-v0.2","","""event"",""trial"",""time""
""fullscreenenter"",""1"",""5185""
""blur"",""4"",""51588""
""focus"",""4"",""81040""
","""event"",""trial"",""time""
""blur"",""4"",""51588""
","""event"",""trial"",""time""
""focus"",""4"",""81040""
","""event"",""trial"",""time""
""fullscreenenter"",""1"",""5185""
","
","","","611.2999999970198","","","26","3369","487","w","elianto","#f73b6a7A"," "," ","1","0","[634.4000000059605,1462.7999999970198]","2","2","","","3369","29","3","3","lose","go","0"
"pit-trial","148","1230407","0.0-34.0","battery-v0.2","","""event"",""trial"",""time""
""fullscreenenter"",""1"",""5185""
""blur"",""4"",""51588""
""focus"",""4"",""81040""
","""event"",""trial"",""time""
""blur"",""4"",""51588""
","""event"",""trial"",""time""
""focus"",""4"",""81040""
","""event"",""trial"",""time""
""fullscreenenter"",""1"",""5185""
","
","","","803.9000000059605","","","26","3369","487","j","elianto","#f73b6a7A","-1"," ","0","-10","[1654.2000000029802]","1","2","","","3369","30","0","4","lose","no-go","0"
"pit-trial","149","1234397","0.0-35.0","battery-v0.2","","""event"",""trial"",""time""
""fullscreenenter"",""1"",""5185""
""blur"",""4"",""51588""
""focus"",""4"",""81040""
","""event"",""trial"",""time""
""blur"",""4"",""51588""
","""event"",""trial"",""time""
""focus"",""4"",""81040""
","""event"",""trial"",""time""
""fullscreenenter"",""1"",""5185""
","
","","","1132.5999999940395","","","26","3369","487","d","elianto","#3366ff99"," "," ","1","+10","[1986.8999999910593]","1","2","","","3369","31","1","1","win","go","0"
"pit-trial","150","1238127","0.0-36.0","battery-v0.2","","""event"",""trial"",""time""
""fullscreenenter"",""1"",""5185""
""blur"",""4"",""51588""
""focus"",""4"",""81040""
","""event"",""trial"",""time""
""blur"",""4"",""51588""
","""event"",""trial"",""time""
""focus"",""4"",""81040""
","""event"",""trial"",""time""
""fullscreenenter"",""1"",""5185""
","
","","","866.5999999940395","","","26","3369","487","e","elianto","#f73b6a7A","-1"," ","0","-10","[1721.7000000029802]","1","2","","","3369","32","2","4","lose","no-go","0"
"pit-trial","151","1242655","0.0-37.0","battery-v0.2","","""event"",""trial"",""time""
""fullscreenenter"",""1"",""5185""
""blur"",""4"",""51588""
""focus"",""4"",""81040""
","""event"",""trial"",""time""
""blur"",""4"",""51588""
","""event"",""trial"",""time""
""focus"",""4"",""81040""
","""event"",""trial"",""time""
""fullscreenenter"",""1"",""5185""
","
","","","1671.2999999970198","","","26","3369","487","e","elianto","#f73b6a7A","-1"," ","0","-10","[2522.7999999970198]","1","2","","","3369","33","2","4","lose","no-go","0"
"pit-trial","152","1246965","0.0-38.0","battery-v0.2","","""event"",""trial"",""time""
""fullscreenenter"",""1"",""5185""
""blur"",""4"",""51588""
""focus"",""4"",""81040""
","""event"",""trial"",""time""
""blur"",""4"",""51588""
","""event"",""trial"",""time""
""focus"",""4"",""81040""
","""event"",""trial"",""time""
""fullscreenenter"",""1"",""5185""
","
","","","1453.4000000059605","","","26","3369","487","j","elianto","#f73b6a7A","-1"," ","0","-10","[2307.4000000059605]","1","2","","","3369","34","0","4","lose","no-go","0"
"pit-trial","153","1250615","0.0-39.0","battery-v0.2","","""event"",""trial"",""time""
""fullscreenenter"",""1"",""5185""
""blur"",""4"",""51588""
""focus"",""4"",""81040""
","""event"",""trial"",""time""
""blur"",""4"",""51588""
","""event"",""trial"",""time""
""focus"",""4"",""81040""
","""event"",""trial"",""time""
""fullscreenenter"",""1"",""5185""
","
","","","791.0999999940395","","","26","3369","487","d","elianto","#3366ff99"," "," ","1","+10","[1647.2000000029802]","1","2","","","3369","35","1","1","win","go","0"
"pit-trial","154","1254343","0.0-40.0","battery-v0.2","","""event"",""trial"",""time""
""fullscreenenter"",""1"",""5185""
""blur"",""4"",""51588""
""focus"",""4"",""81040""
","""event"",""trial"",""time""
""blur"",""4"",""51588""
","""event"",""trial"",""time""
""focus"",""4"",""81040""
","""event"",""trial"",""time""
""fullscreenenter"",""1"",""5185""
","
","","","865.1000000089407","","","26","3369","487","w","elianto","#f73b6a7A"," "," ","1","0","[1720.2999999970198]","1","2","","","3369","36","3","3","lose","go","0"
"pit-trial","155","1258008","0.0-41.0","battery-v0.2","","""event"",""trial"",""time""
""fullscreenenter"",""1"",""5185""
""blur"",""4"",""51588""
""focus"",""4"",""81040""
","""event"",""trial"",""time""
""blur"",""4"",""51588""
","""event"",""trial"",""time""
""focus"",""4"",""81040""
","""event"",""trial"",""time""
""fullscreenenter"",""1"",""5185""
","
","","","803.2000000029802","","","26","3369","487","w","elianto","#f73b6a7A"," "," ","1","0","[1655.5]","1","2","","","3369","37","3","3","lose","go","0"
"pit-trial","156","1262872","0.0-42.0","battery-v0.2","","""event"",""trial"",""time""
""fullscreenenter"",""1"",""5185""
""blur"",""4"",""51588""
""focus"",""4"",""81040""
","""event"",""trial"",""time""
""blur"",""4"",""51588""
","""event"",""trial"",""time""
""focus"",""4"",""81040""
","""event"",""trial"",""time""
""fullscreenenter"",""1"",""5185""
","
","","","-1","","","26","3369","487","e","elianto","#f73b6a7A","-1","-1","1","0","[]","0","2","","","3369","38","2","4","lose","no-go","0"
"pit-trial","157","1266497","0.0-43.0","battery-v0.2","","""event"",""trial"",""time""
""fullscreenenter"",""1"",""5185""
""blur"",""4"",""51588""
""focus"",""4"",""81040""
","""event"",""trial"",""time""
""blur"",""4"",""51588""
","""event"",""trial"",""time""
""focus"",""4"",""81040""
","""event"",""trial"",""time""
""fullscreenenter"",""1"",""5185""
","
","","","765.7999999970198","","","26","3369","487","d","elianto","#3366ff99"," "," ","1","+10","[1618.5999999940395]","1","2","","","3369","39","1","1","win","go","0"
"pit-trial","158","1271361","0.0-44.0","battery-v0.2","","""event"",""trial"",""time""
""fullscreenenter"",""1"",""5185""
""blur"",""4"",""51588""
""focus"",""4"",""81040""
","""event"",""trial"",""time""
""blur"",""4"",""51588""
","""event"",""trial"",""time""
""focus"",""4"",""81040""
","""event"",""trial"",""time""
""fullscreenenter"",""1"",""5185""
","
","","","-1","","","26","3369","487","j","elianto","#f73b6a7A","-1","-1","1","-10","[]","0","2","","","3369","40","0","4","lose","no-go","1"
"pit-trial","159","1275383","0.0-45.0","battery-v0.2","","""event"",""trial"",""time""
""fullscreenenter"",""1"",""5185""
""blur"",""4"",""51588""
""focus"",""4"",""81040""
","""event"",""trial"",""time""
""blur"",""4"",""51588""
","""event"",""trial"",""time""
""focus"",""4"",""81040""
","""event"",""trial"",""time""
""fullscreenenter"",""1"",""5185""
","
","","","1159.7000000029802","","","26","3369","487","w","elianto","#f73b6a7A"," "," ","1","0","[2011.7999999970198]","1","2","","","3369","41","3","3","lose","go","0"
"pit-trial","160","1278949","0.0-46.0","battery-v0.2","","""event"",""trial"",""time""
""fullscreenenter"",""1"",""5185""
""blur"",""4"",""51588""
""focus"",""4"",""81040""
","""event"",""trial"",""time""
""blur"",""4"",""51588""
","""event"",""trial"",""time""
""focus"",""4"",""81040""
","""event"",""trial"",""time""
""fullscreenenter"",""1"",""5185""
","
","","","708.2000000029802","","","26","3369","487","d","elianto","#3366ff99"," "," ","1","+10","[1563.9000000059605]","1","2","","","3369","42","1","1","win","go","0"
"pit-trial","161","1283816","0.0-47.0","battery-v0.2","","""event"",""trial"",""time""
""fullscreenenter"",""1"",""5185""
""blur"",""4"",""51588""
""focus"",""4"",""81040""
","""event"",""trial"",""time""
""blur"",""4"",""51588""
","""event"",""trial"",""time""
""focus"",""4"",""81040""
","""event"",""trial"",""time""
""fullscreenenter"",""1"",""5185""
","
","","","-1","","","26","3369","487","e","elianto","#f73b6a7A","-1","-1","1","0","[]","0","2","","","3369","43","2","4","lose","no-go","0"
"pit-trial","162","1288681","0.0-48.0","battery-v0.2","","""event"",""trial"",""time""
""fullscreenenter"",""1"",""5185""
""blur"",""4"",""51588""
""focus"",""4"",""81040""
","""event"",""trial"",""time""
""blur"",""4"",""51588""
","""event"",""trial"",""time""
""focus"",""4"",""81040""
","""event"",""trial"",""time""
""fullscreenenter"",""1"",""5185""
","
","","","-1","","","26","3369","487","j","elianto","#f73b6a7A","-1","-1","1","0","[]","0","2","","","3369","44","0","4","lose","no-go","0"
"pit-trial","163","1293545","0.0-49.0","battery-v0.2","","""event"",""trial"",""time""
""fullscreenenter"",""1"",""5185""
""blur"",""4"",""51588""
""focus"",""4"",""81040""
","""event"",""trial"",""time""
""blur"",""4"",""51588""
","""event"",""trial"",""time""
""focus"",""4"",""81040""
","""event"",""trial"",""time""
""fullscreenenter"",""1"",""5185""
","
","","","-1","","","26","3369","487","e","elianto","#f73b6a7A","-1","-1","1","0","[]","0","2","","","3369","45","2","4","lose","no-go","0"
"pit-trial","164","1298409","0.0-50.0","battery-v0.2","","""event"",""trial"",""time""
""fullscreenenter"",""1"",""5185""
""blur"",""4"",""51588""
""focus"",""4"",""81040""
","""event"",""trial"",""time""
""blur"",""4"",""51588""
","""event"",""trial"",""time""
""focus"",""4"",""81040""
","""event"",""trial"",""time""
""fullscreenenter"",""1"",""5185""
","
","","","-1","","","26","3369","487","j","elianto","#f73b6a7A","-1","-1","1","0","[]","0","2","","","3369","46","0","4","lose","no-go","0"
"pit-trial","165","1302272","0.0-51.0","battery-v0.2","","""event"",""trial"",""time""
""fullscreenenter"",""1"",""5185""
""blur"",""4"",""51588""
""focus"",""4"",""81040""
","""event"",""trial"",""time""
""blur"",""4"",""51588""
","""event"",""trial"",""time""
""focus"",""4"",""81040""
","""event"",""trial"",""time""
""fullscreenenter"",""1"",""5185""
","
","","","1005.0999999940395","","","26","3369","487","w","elianto","#f73b6a7A"," "," ","1","0","[1859.7999999970198]","1","2","","","3369","47","3","3","lose","go","0"
"pit-trial","166","1306265","0.0-52.0","battery-v0.2","","""event"",""trial"",""time""
""fullscreenenter"",""1"",""5185""
""blur"",""4"",""51588""
""focus"",""4"",""81040""
","""event"",""trial"",""time""
""blur"",""4"",""51588""
","""event"",""trial"",""time""
""focus"",""4"",""81040""
","""event"",""trial"",""time""
""fullscreenenter"",""1"",""5185""
","
","","","1127.5999999940395","","","26","3369","487","s","elianto","#3366ff99","-1"," ","0","0","[1983.0999999940395]","1","2","","","3369","48","4","2","win","no-go","0"
"pit-trial","167","1311129","0.0-53.0","battery-v0.2","","""event"",""trial"",""time""
""fullscreenenter"",""1"",""5185""
""blur"",""4"",""51588""
""focus"",""4"",""81040""
","""event"",""trial"",""time""
""blur"",""4"",""51588""
","""event"",""trial"",""time""
""focus"",""4"",""81040""
","""event"",""trial"",""time""
""fullscreenenter"",""1"",""5185""
","
","","","-1","","","26","3369","487","s","elianto","#3366ff99","-1","-1","1","0","[]","0","2","","","3369","49","4","2","win","no-go","1"
"pit-trial","168","1314737","0.0-54.0","battery-v0.2","","""event"",""trial"",""time""
""fullscreenenter"",""1"",""5185""
""blur"",""4"",""51588""
""focus"",""4"",""81040""
","""event"",""trial"",""time""
""blur"",""4"",""51588""
","""event"",""trial"",""time""
""focus"",""4"",""81040""
","""event"",""trial"",""time""
""fullscreenenter"",""1"",""5185""
","
","","","749.9000000059605","","","26","3369","487","w","elianto","#f73b6a7A"," "," ","1","0","[1603.6000000089407]","1","2","","","3369","50","3","3","lose","go","0"
"pit-trial","169","1318282","0.0-55.0","battery-v0.2","","""event"",""trial"",""time""
""fullscreenenter"",""1"",""5185""
""blur"",""4"",""51588""
""focus"",""4"",""81040""
","""event"",""trial"",""time""
""blur"",""4"",""51588""
","""event"",""trial"",""time""
""focus"",""4"",""81040""
","""event"",""trial"",""time""
""fullscreenenter"",""1"",""5185""
","
","","","683.2000000029802","","","26","3369","487","d","elianto","#3366ff99"," "," ","1","+10","[1537.300000011921]","1","2","","","3369","51","1","1","win","go","0"
"pit-trial","170","1323146","0.0-56.0","battery-v0.2","","""event"",""trial"",""time""
""fullscreenenter"",""1"",""5185""
""blur"",""4"",""51588""
""focus"",""4"",""81040""
","""event"",""trial"",""time""
""blur"",""4"",""51588""
","""event"",""trial"",""time""
""focus"",""4"",""81040""
","""event"",""trial"",""time""
""fullscreenenter"",""1"",""5185""
","
","","","-1","","","26","3369","487","j","elianto","#f73b6a7A","-1","-1","1","0","[]","0","2","","","3369","52","0","4","lose","no-go","0"
"pit-trial","171","1328000","0.0-57.0","battery-v0.2","","""event"",""trial"",""time""
""fullscreenenter"",""1"",""5185""
""blur"",""4"",""51588""
""focus"",""4"",""81040""
","""event"",""trial"",""time""
""blur"",""4"",""51588""
","""event"",""trial"",""time""
""focus"",""4"",""81040""
","""event"",""trial"",""time""
""fullscreenenter"",""1"",""5185""
","
","","","-1","","","26","3369","487","j","elianto","#f73b6a7A","-1","-1","1","-10","[]","0","2","","","3369","53","0","4","lose","no-go","1"
"pit-trial","172","1331849","0.0-58.0","battery-v0.2","","""event"",""trial"",""time""
""fullscreenenter"",""1"",""5185""
""blur"",""4"",""51588""
""focus"",""4"",""81040""
","""event"",""trial"",""time""
""blur"",""4"",""51588""
","""event"",""trial"",""time""
""focus"",""4"",""81040""
","""event"",""trial"",""time""
""fullscreenenter"",""1"",""5185""
","
","","","991.2000000029802","","","26","3369","487","s","elianto","#3366ff99","-1"," ","0","0","[1845.6000000089407]","1","2","","","3369","54","4","2","win","no-go","0"
"pit-trial","173","1335485","0.0-59.0","battery-v0.2","","""event"",""trial"",""time""
""fullscreenenter"",""1"",""5185""
""blur"",""4"",""51588""
""focus"",""4"",""81040""
","""event"",""trial"",""time""
""blur"",""4"",""51588""
","""event"",""trial"",""time""
""focus"",""4"",""81040""
","""event"",""trial"",""time""
""fullscreenenter"",""1"",""5185""
","
","","","779.5","","","26","3369","487","d","elianto","#3366ff99"," "," ","1","+10","[1629.6000000089407]","1","2","","","3369","55","1","1","win","go","0"
"pit-trial","174","1340347","0.0-60.0","battery-v0.2","","""event"",""trial"",""time""
""fullscreenenter"",""1"",""5185""
""blur"",""4"",""51588""
""focus"",""4"",""81040""
","""event"",""trial"",""time""
""blur"",""4"",""51588""
","""event"",""trial"",""time""
""focus"",""4"",""81040""
","""event"",""trial"",""time""
""fullscreenenter"",""1"",""5185""
","
","","","-1","","","26","3369","487","e","elianto","#f73b6a7A","-1","-1","1","0","[]","0","2","","","3369","56","2","4","lose","no-go","0"
"pit-trial","175","1345201","0.0-61.0","battery-v0.2","","""event"",""trial"",""time""
""fullscreenenter"",""1"",""5185""
""blur"",""4"",""51588""
""focus"",""4"",""81040""
","""event"",""trial"",""time""
""blur"",""4"",""51588""
","""event"",""trial"",""time""
""focus"",""4"",""81040""
","""event"",""trial"",""time""
""fullscreenenter"",""1"",""5185""
","
","","","-1","","","26","3369","487","s","elianto","#3366ff99","-1","-1","1","+10","[]","0","2","","","3369","57","4","2","win","no-go","0"
"pit-trial","176","1349042","0.0-62.0","battery-v0.2","","""event"",""trial"",""time""
""fullscreenenter"",""1"",""5185""
""blur"",""4"",""51588""
""focus"",""4"",""81040""
","""event"",""trial"",""time""
""blur"",""4"",""51588""
","""event"",""trial"",""time""
""focus"",""4"",""81040""
","""event"",""trial"",""time""
""fullscreenenter"",""1"",""5185""
","
","","","979.9000000059605","","","26","3369","487","j","elianto","#f73b6a7A","-1"," ","0","-10","[1834.4000000059605]","1","2","","","3369","58","0","4","lose","no-go","0"
"pit-trial","177","1352851","0.0-63.0","battery-v0.2","","""event"",""trial"",""time""
""fullscreenenter"",""1"",""5185""
""blur"",""4"",""51588""
""focus"",""4"",""81040""
","""event"",""trial"",""time""
""blur"",""4"",""51588""
","""event"",""trial"",""time""
""focus"",""4"",""81040""
","""event"",""trial"",""time""
""fullscreenenter"",""1"",""5185""
","
","","","951.6000000089407","","","26","3369","487","d","elianto","#3366ff99"," "," ","1","+10","[1805.3999999910593]","1","2","","","3369","59","1","1","win","go","0"
"pit-trial","178","1356914","0.0-64.0","battery-v0.2","","""event"",""trial"",""time""
""fullscreenenter"",""1"",""5185""
""blur"",""4"",""51588""
""focus"",""4"",""81040""
","""event"",""trial"",""time""
""blur"",""4"",""51588""
","""event"",""trial"",""time""
""focus"",""4"",""81040""
","""event"",""trial"",""time""
""fullscreenenter"",""1"",""5185""
","
","","","1201.6000000089407","","","26","3369","487","w","elianto","#f73b6a7A"," "," ","1","0","[2053.4000000059605]","1","2","","","3369","60","3","3","lose","go","0"
"pit-trial","179","1361518","0.0-65.0","battery-v0.2","","""event"",""trial"",""time""
""fullscreenenter"",""1"",""5185""
""blur"",""4"",""51588""
""focus"",""4"",""81040""
","""event"",""trial"",""time""
""blur"",""4"",""51588""
","""event"",""trial"",""time""
""focus"",""4"",""81040""
","""event"",""trial"",""time""
""fullscreenenter"",""1"",""5185""
","
","","","1749.5","","","26","3369","487","d","elianto","#3366ff99"," "," ","1","+10","[2600.2000000029802]","1","2","","","3369","61","1","1","win","go","0"
"pit-trial","180","1365626","0.0-66.0","battery-v0.2","","""event"",""trial"",""time""
""fullscreenenter"",""1"",""5185""
""blur"",""4"",""51588""
""focus"",""4"",""81040""
","""event"",""trial"",""time""
""blur"",""4"",""51588""
","""event"",""trial"",""time""
""focus"",""4"",""81040""
","""event"",""trial"",""time""
""fullscreenenter"",""1"",""5185""
","
","","","1245","","","26","3369","487","w","elianto","#f73b6a7A"," "," ","1","-10","[2104.1000000089407]","1","2","","","3369","62","3","3","lose","go","1"
"pit-trial","181","1370485","0.0-67.0","battery-v0.2","","""event"",""trial"",""time""
""fullscreenenter"",""1"",""5185""
""blur"",""4"",""51588""
""focus"",""4"",""81040""
","""event"",""trial"",""time""
""blur"",""4"",""51588""
","""event"",""trial"",""time""
""focus"",""4"",""81040""
","""event"",""trial"",""time""
""fullscreenenter"",""1"",""5185""
","
","","","-1","","","26","3369","487","s","elianto","#3366ff99","-1","-1","1","+10","[]","0","2","","","3369","63","4","2","win","no-go","0"
"pit-trial","182","1375346","0.0-68.0","battery-v0.2","","""event"",""trial"",""time""
""fullscreenenter"",""1"",""5185""
""blur"",""4"",""51588""
""focus"",""4"",""81040""
","""event"",""trial"",""time""
""blur"",""4"",""51588""
","""event"",""trial"",""time""
""focus"",""4"",""81040""
","""event"",""trial"",""time""
""fullscreenenter"",""1"",""5185""
","
","","","-1","","","26","3369","487","e","elianto","#f73b6a7A","-1","-1","1","-10","[]","0","2","","","3369","64","2","4","lose","no-go","1"
"pit-trial","183","1380202","0.0-69.0","battery-v0.2","","""event"",""trial"",""time""
""fullscreenenter"",""1"",""5185""
""blur"",""4"",""51588""
""focus"",""4"",""81040""
","""event"",""trial"",""time""
""blur"",""4"",""51588""
","""event"",""trial"",""time""
""focus"",""4"",""81040""
","""event"",""trial"",""time""
""fullscreenenter"",""1"",""5185""
","
","","","-1","","","26","3369","487","e","elianto","#f73b6a7A","-1","-1","1","0","[]","0","2","","","3369","65","2","4","lose","no-go","0"
"pit-trial","184","1383947","0.0-70.0","battery-v0.2","","""event"",""trial"",""time""
""fullscreenenter"",""1"",""5185""
""blur"",""4"",""51588""
""focus"",""4"",""81040""
","""event"",""trial"",""time""
""blur"",""4"",""51588""
","""event"",""trial"",""time""
""focus"",""4"",""81040""
","""event"",""trial"",""time""
""fullscreenenter"",""1"",""5185""
","
","","","881.7999999970198","","","26","3369","487","d","elianto","#3366ff99"," "," ","1","+10","[1736.5]","1","2","","","3369","66","1","1","win","go","0"
"pit-trial","185","1388802","0.0-71.0","battery-v0.2","","""event"",""trial"",""time""
""fullscreenenter"",""1"",""5185""
""blur"",""4"",""51588""
""focus"",""4"",""81040""
","""event"",""trial"",""time""
""blur"",""4"",""51588""
