"trial_type","trial_index","time_elapsed","internal_node_id","task_version","subject_id","interactions","blur_events","focus_events","fullscreenenter_events","fullscreenexit_events","success","view_history","rt","responses","num_errors","age","subject","participantId","rune","rune_set","hex","correct","choice","accuracy","outcome","keys","total_keys","block","practice","value","sub","trial","stimulus","robot","valence","action","sham"
"pavlovia","0","19","0.0-0.0","battery-v0.2","","""event"",""trial"",""time""
""fullscreenenter"",""1"",""3541""
","
","
","""event"",""trial"",""time""
""fullscreenenter"",""1"",""3541""
","
","","","","","","","","","","","","","","","","","","","","","","","","","","",""
"fullscreen","1","4525","0.0-1.0","battery-v0.2","","""event"",""trial"",""time""
""fullscreenenter"",""1"",""3541""
","
","
","""event"",""trial"",""time""
""fullscreenenter"",""1"",""3541""
","
","true","","","","","","","","","","","","","","","","","","","","","","","","","",""
"pit-instructions","2","9620","0.0-2.0-0.0","battery-v0.2","","""event"",""trial"",""time""
""fullscreenenter"",""1"",""3541""
","
","
","""event"",""trial"",""time""
""fullscreenenter"",""1"",""3541""
","
","","[{""page_index"":0,""viewing_time"":5089.5}]","5089.800000000745","","","","","","","","","","","","","","","","","","","","","","","",""
"pit-comprehension","3","12322","0.0-2.0-1.0-0.0","battery-v0.2","","""event"",""trial"",""time""
""fullscreenenter"",""1"",""3541""
","
","
","""event"",""trial"",""time""
""fullscreenenter"",""1"",""3541""
","
","","","2698.4000000003725","[""shark""]","0","25","13749","5970","","","","","","","","","","","","","","","","","","",""
"pit-instructions","4","15088","0.0-2.0-1.0-1.0","battery-v0.2","","""event"",""trial"",""time""
""fullscreenenter"",""1"",""3541""
","
","
","""event"",""trial"",""time""
""fullscreenenter"",""1"",""3541""
","
","","[{""page_index"":0,""viewing_time"":2753.39999999851}]","2754","","","","","","","","","","","","","","","","","","","","","","","",""
"pit-comprehension","5","17423","0.0-2.0-2.0-0.0","battery-v0.2","","""event"",""trial"",""time""
""fullscreenenter"",""1"",""3541""
","
","
","""event"",""trial"",""time""
""fullscreenenter"",""1"",""3541""
","
","","","2330.300000000745","[""tiger""]","0","25","13749","5970","","","","","","","","","","","","","","","","","","",""
"pit-instructions","6","20272","0.0-2.0-2.0-1.0","battery-v0.2","","""event"",""trial"",""time""
""fullscreenenter"",""1"",""3541""
","
","
","""event"",""trial"",""time""
""fullscreenenter"",""1"",""3541""
","
","","[{""page_index"":0,""viewing_time"":2844.9000000003725}]","2845.5","","","","","","","","","","","","","","","","","","","","","","","",""
"pit-instructions","7","122536","0.0-2.0-3.0","battery-v0.2","","""event"",""trial"",""time""
""fullscreenenter"",""1"",""3541""
","
","
","""event"",""trial"",""time""
""fullscreenenter"",""1"",""3541""
","
","","[{""page_index"":0,""viewing_time"":12461.60000000149},{""page_index"":1,""viewing_time"":5900.5},{""page_index"":2,""viewing_time"":7099.799999998882},{""page_index"":3,""viewing_time"":5033.0999999996275},{""page_index"":4,""viewing_time"":6667},{""page_index"":5,""viewing_time"":5550.200000001118},{""page_index"":6,""viewing_time"":7966.9000000003725},{""page_index"":7,""viewing_time"":6849.0999999996275},{""page_index"":8,""viewing_time"":6569.0999999996275},{""page_index"":9,""viewing_time"":8881},{""page_index"":10,""viewing_time"":8132.5999999996275},{""page_index"":11,""viewing_time"":7184},{""page_index"":12,""viewing_time"":8722.400000000373},{""page_index"":13,""viewing_time"":5243.699999999255}]","102261.20000000112","","","","","","","","","","","","","","","","","","","","","","","",""
"pit-trial","8","125934","0.0-2.0-4.0-0.0","battery-v0.2","","""event"",""trial"",""time""
""fullscreenenter"",""1"",""3541""
","
","
","""event"",""trial"",""time""
""fullscreenenter"",""1"",""3541""
","
","","","541.1999999992549","","","25","13749","5970","&#9784;","elianto","#FFFFF080"," "," ","1","&#10004","[1392.4000000003725]","1","0","0","","","","","","","",""
"pit-trial","9","129958","0.0-2.0-4.1-0.1","battery-v0.2","","""event"",""trial"",""time""
""fullscreenenter"",""1"",""3541""
","
","
","""event"",""trial"",""time""
""fullscreenenter"",""1"",""3541""
","
","","","1167.0999999996275","","","25","13749","5970","&#9784;","elianto","#FFFFF080"," "," ","1","&#10004","[2018.4000000003725]","1","0","0","","","","","","","",""
"pit-trial","10","133684","0.0-2.0-4.2-0.2","battery-v0.2","","""event"",""trial"",""time""
""fullscreenenter"",""1"",""3541""
","
","
","""event"",""trial"",""time""
""fullscreenenter"",""1"",""3541""
","
","","","869.0999999996275","","","25","13749","5970","&#9784;","elianto","#FFFFF080"," "," ","1","&#10004","[1719.7000000011176]","1","0","0","","","","","","","",""
"pit-trial","11","137357","0.0-2.0-4.3-0.3","battery-v0.2","","""event"",""trial"",""time""
""fullscreenenter"",""1"",""3541""
","
","
","""event"",""trial"",""time""
""fullscreenenter"",""1"",""3541""
","
","","","816.5","","","25","13749","5970","&#9784;","elianto","#FFFFF080"," "," ","1","&#10004","[1668.0999999996275]","1","0","0","","","","","","","",""
"pit-trial","12","141006","0.0-2.0-4.4-0.4","battery-v0.2","","""event"",""trial"",""time""
""fullscreenenter"",""1"",""3541""
","
","
","""event"",""trial"",""time""
""fullscreenenter"",""1"",""3541""
","
","","","794.2999999988824","","","25","13749","5970","&#9784;","elianto","#FFFFF080"," "," ","1","&#10004","[1644.5]","1","0","0","","","","","","","",""
"pit-instructions","13","161553","0.0-2.0-5.0","battery-v0.2","","""event"",""trial"",""time""
""fullscreenenter"",""1"",""3541""
","
","
","""event"",""trial"",""time""
""fullscreenenter"",""1"",""3541""
","
","","[{""page_index"":0,""viewing_time"":4994.10000000149},{""page_index"":1,""viewing_time"":5181.89999999851},{""page_index"":2,""viewing_time"":5333.9000000003725},{""page_index"":3,""viewing_time"":5032.700000001118}]","20542.900000000373","","","","","","","","","","","","","","","","","","","","","","","",""
"pit-trial","14","166408","0.0-2.0-6.0-0.0","battery-v0.2","","""event"",""trial"",""time""
""fullscreenenter"",""1"",""3541""
","
","
","""event"",""trial"",""time""
""fullscreenenter"",""1"",""3541""
","
","","","-1","","","25","13749","5970","&#9854;","elianto","#FFFFF080","-1","-1","1","&#10004","[]","0","0","1","","","","","","","",""
"pit-trial","15","171264","0.0-2.0-6.1-0.1","battery-v0.2","","""event"",""trial"",""time""
""fullscreenenter"",""1"",""3541""
","
","
","""event"",""trial"",""time""
""fullscreenenter"",""1"",""3541""
","
","","","-1","","","25","13749","5970","&#9854;","elianto","#FFFFF080","-1","-1","1","&#10004","[]","0","0","1","","","","","","","",""
"pit-trial","16","176120","0.0-2.0-6.2-0.2","battery-v0.2","","""event"",""trial"",""time""
""fullscreenenter"",""1"",""3541""
","
","
","""event"",""trial"",""time""
""fullscreenenter"",""1"",""3541""
","
","","","-1","","","25","13749","5970","&#9854;","elianto","#FFFFF080","-1","-1","1","&#10004","[]","0","0","1","","","","","","","",""
"pit-trial","17","180977","0.0-2.0-6.3-0.3","battery-v0.2","","""event"",""trial"",""time""
""fullscreenenter"",""1"",""3541""
","
","
","""event"",""trial"",""time""
""fullscreenenter"",""1"",""3541""
","
","","","-1","","","25","13749","5970","&#9854;","elianto","#FFFFF080","-1","-1","1","&#10004","[]","0","0","1","","","","","","","",""
"pit-trial","18","185833","0.0-2.0-6.4-0.4","battery-v0.2","","""event"",""trial"",""time""
""fullscreenenter"",""1"",""3541""
","
","
","""event"",""trial"",""time""
""fullscreenenter"",""1"",""3541""
","
","","","-1","","","25","13749","5970","&#9854;","elianto","#FFFFF080","-1","-1","1","&#10004","[]","0","0","1","","","","","","","",""
"pit-instructions","19","336641","0.0-2.0-7.0","battery-v0.2","","""event"",""trial"",""time""
""fullscreenenter"",""1"",""3541""
","
","
","""event"",""trial"",""time""
""fullscreenenter"",""1"",""3541""
","
","","[{""page_index"":0,""viewing_time"":7516.5},{""page_index"":1,""viewing_time"":11015.900000000373},{""page_index"":2,""viewing_time"":12232.699999999255},{""page_index"":3,""viewing_time"":6767.4000000003725},{""page_index"":4,""viewing_time"":9200.099999999627},{""page_index"":5,""viewing_time"":7033.5999999996275},{""page_index"":6,""viewing_time"":8753.300000000745},{""page_index"":7,""viewing_time"":7746.5},{""page_index"":8,""viewing_time"":6654.0999999996275},{""page_index"":9,""viewing_time"":6062.4000000003725},{""page_index"":10,""viewing_time"":6337.699999999255},{""page_index"":11,""viewing_time"":7279.4000000003725},{""page_index"":12,""viewing_time"":7683.200000001118},{""page_index"":13,""viewing_time"":7483.699999999255},{""page_index"":14,""viewing_time"":14216.5},{""page_index"":15,""viewing_time"":10267.099999999627},{""page_index"":16,""viewing_time"":7002},{""page_index"":17,""viewing_time"":7552}]","150804.59999999963","","","","","","","","","","","","","","","","","","","","","","","",""
"pit-trial","20","340209","0.0-2.0-8.0-0.0","battery-v0.2","","""event"",""trial"",""time""
""fullscreenenter"",""1"",""3541""
","
","
","""event"",""trial"",""time""
""fullscreenenter"",""1"",""3541""
","
","","","712.2000000011176","","","25","13749","5970","&#9776;","elianto","#3366ff99"," "," ","1","+10","[1562.9000000003725]","1","0","1","","","","","","","",""
"pit-trial","21","343634","0.0-2.0-8.0-1.0","battery-v0.2","","""event"",""trial"",""time""
""fullscreenenter"",""1"",""3541""
","
","
","""event"",""trial"",""time""
""fullscreenenter"",""1"",""3541""
","
","","","569","","","25","13749","5970","&#9776;","elianto","#3366ff99"," "," ","1","+10","[1420.4000000003725]","1","0","1","","","","","","","",""
"pit-trial","22","347312","0.0-2.0-8.0-2.0","battery-v0.2","","""event"",""trial"",""time""
""fullscreenenter"",""1"",""3541""
","
","
","""event"",""trial"",""time""
""fullscreenenter"",""1"",""3541""
","
","","","821.3000000007451","","","25","13749","5970","&#9776;","elianto","#3366ff99"," "," ","1","+10","[1673.2000000011176]","1","0","1","","","","","","","",""
"pit-trial","23","350795","0.0-2.0-8.0-3.0","battery-v0.2","","""event"",""trial"",""time""
""fullscreenenter"",""1"",""3541""
","
","
","""event"",""trial"",""time""
""fullscreenenter"",""1"",""3541""
","
","","","628.9000000003725","","","25","13749","5970","&#9776;","elianto","#3366ff99"," "," ","1","0","[1480.2999999988824]","1","0","1","","","","","","","",""
"pit-trial","24","354380","0.0-2.0-8.0-4.0","battery-v0.2","","""event"",""trial"",""time""
""fullscreenenter"",""1"",""3541""
","
","
","""event"",""trial"",""time""
""fullscreenenter"",""1"",""3541""
","
","","","729","","","25","13749","5970","&#9776;","elianto","#3366ff99"," "," ","1","+10","[1580.2000000011176]","1","0","1","","","","","","","",""
"pit-trial","25","357867","0.0-2.0-8.1-0.1","battery-v0.2","","""event"",""trial"",""time""
""fullscreenenter"",""1"",""3541""
","
","
","""event"",""trial"",""time""
""fullscreenenter"",""1"",""3541""
","
","","","630","","","25","13749","5970","&#9776;","elianto","#3366ff99"," "," ","1","+10","[1481.0999999996275]","1","0","1","","","","","","","",""
"pit-trial","26","361494","0.0-2.0-8.1-1.1","battery-v0.2","","""event"",""trial"",""time""
""fullscreenenter"",""1"",""3541""
","
","
","""event"",""trial"",""time""
""fullscreenenter"",""1"",""3541""
","
","","","771.6000000014901","","","25","13749","5970","&#9776;","elianto","#3366ff99"," "," ","1","+10","[1623.1000000014901]","1","0","1","","","","","","","",""
"pit-trial","27","365123","0.0-2.0-8.1-2.1","battery-v0.2","","""event"",""trial"",""time""
""fullscreenenter"",""1"",""3541""
","
","
","""event"",""trial"",""time""
""fullscreenenter"",""1"",""3541""
","
","","","772.9000000003725","","","25","13749","5970","&#9776;","elianto","#3366ff99"," "," ","1","+10","[1624.5]","1","0","1","","","","","","","",""
"pit-trial","28","368737","0.0-2.0-8.1-3.1","battery-v0.2","","""event"",""trial"",""time""
""fullscreenenter"",""1"",""3541""
","
","
","""event"",""trial"",""time""
""fullscreenenter"",""1"",""3541""
","
","","","758.6999999992549","","","25","13749","5970","&#9776;","elianto","#3366ff99"," "," ","1","0","[1608.8999999985099]","1","0","1","","","","","","","",""
"pit-trial","29","372332","0.0-2.0-8.1-4.1","battery-v0.2","","""event"",""trial"",""time""
""fullscreenenter"",""1"",""3541""
","
","
","""event"",""trial"",""time""
""fullscreenenter"",""1"",""3541""
","
","","","738.3000000007451","","","25","13749","5970","&#9776;","elianto","#3366ff99"," "," ","1","+10","[1589.9000000003725]","1","0","1","","","","","","","",""
"pit-trial","30","375926","0.0-2.0-8.2-0.2","battery-v0.2","","""event"",""trial"",""time""
""fullscreenenter"",""1"",""3541""
","
","
","""event"",""trial"",""time""
""fullscreenenter"",""1"",""3541""
","
","","","737.8000000007451","","","25","13749","5970","&#9776;","elianto","#3366ff99"," "," ","1","+10","[1589.4000000003725]","1","0","1","","","","","","","",""
"pit-trial","31","379464","0.0-2.0-8.2-1.2","battery-v0.2","","""event"",""trial"",""time""
""fullscreenenter"",""1"",""3541""
","
","
","""event"",""trial"",""time""
""fullscreenenter"",""1"",""3541""
","
","","","682.2999999988824","","","25","13749","5970","&#9776;","elianto","#3366ff99"," "," ","1","+10","[1532.7999999988824]","1","0","1","","","","","","","",""
"pit-trial","32","383169","0.0-2.0-8.2-2.2","battery-v0.2","","""event"",""trial"",""time""
""fullscreenenter"",""1"",""3541""
","
","
","""event"",""trial"",""time""
""fullscreenenter"",""1"",""3541""
","
","","","849.6999999992549","","","25","13749","5970","&#9776;","elianto","#3366ff99"," "," ","1","+10","[1700.5999999996275]","1","0","1","","","","","","","",""
"pit-trial","33","386834","0.0-2.0-8.2-3.2","battery-v0.2","","""event"",""trial"",""time""
""fullscreenenter"",""1"",""3541""
","
","
","""event"",""trial"",""time""
""fullscreenenter"",""1"",""3541""
","
","","","809","","","25","13749","5970","&#9776;","elianto","#3366ff99"," "," ","1","0","[1659.9000000003725]","1","0","1","","","","","","","",""
"pit-trial","34","390495","0.0-2.0-8.2-4.2","battery-v0.2","","""event"",""trial"",""time""
""fullscreenenter"",""1"",""3541""
","
","
","""event"",""trial"",""time""
""fullscreenenter"",""1"",""3541""
","
","","","805.8000000007451","","","25","13749","5970","&#9776;","elianto","#3366ff99"," "," ","1","+10","[1657.1000000014901]","1","0","1","","","","","","","",""
"call-function","35","390495","0.0-2.0-9.0","battery-v0.2","","""event"",""trial"",""time""
""fullscreenenter"",""1"",""3541""
","
","
","""event"",""trial"",""time""
""fullscreenenter"",""1"",""3541""
","
","","","","","","","","","","","","","","","","","","","","","","","","","","",""
"pit-instructions","36","450604","0.0-2.0-10.0","battery-v0.2","","""event"",""trial"",""time""
""fullscreenenter"",""1"",""3541""
","
","
","""event"",""trial"",""time""
""fullscreenenter"",""1"",""3541""
","
","","[{""page_index"":0,""viewing_time"":14973.599999999627},{""page_index"":1,""viewing_time"":10095.299999998882},{""page_index"":2,""viewing_time"":13187.5},{""page_index"":3,""viewing_time"":13504.400000000373},{""page_index"":4,""viewing_time"":8347}]","60108.39999999851","","","","","","","","","","","","","","","","","","","","","","","",""
"pit-trial","37","454011","0.0-2.0-11.0-0.0","battery-v0.2","","""event"",""trial"",""time""
""fullscreenenter"",""1"",""3541""
","
","
","""event"",""trial"",""time""
""fullscreenenter"",""1"",""3541""
","
","","","552.5","","","25","13749","5970","&#9761;","elianto","#3366ff99","-1"," ","0","0","[1403.199999999255]","1","0","2","","","","","","","",""
"pit-trial","38","458867","0.0-2.0-11.0-1.0","battery-v0.2","","""event"",""trial"",""time""
""fullscreenenter"",""1"",""3541""
","
","
","""event"",""trial"",""time""
""fullscreenenter"",""1"",""3541""
","
","","","-1","","","25","13749","5970","&#9761;","elianto","#3366ff99","-1","-1","1","+10","[]","0","0","2","","","","","","","",""
"pit-trial","39","463724","0.0-2.0-11.0-2.0","battery-v0.2","","""event"",""trial"",""time""
""fullscreenenter"",""1"",""3541""
","
","
","""event"",""trial"",""time""
""fullscreenenter"",""1"",""3541""
","
","","","-1","","","25","13749","5970","&#9761;","elianto","#3366ff99","-1","-1","1","+10","[]","0","0","2","","","","","","","",""
"pit-trial","40","468580","0.0-2.0-11.0-3.0","battery-v0.2","","""event"",""trial"",""time""
""fullscreenenter"",""1"",""3541""
","
","
","""event"",""trial"",""time""
""fullscreenenter"",""1"",""3541""
","
","","","-1","","","25","13749","5970","&#9761;","elianto","#3366ff99","-1","-1","1","0","[]","0","0","2","","","","","","","",""
"pit-trial","41","473436","0.0-2.0-11.0-4.0","battery-v0.2","","""event"",""trial"",""time""
""fullscreenenter"",""1"",""3541""
","
","
","""event"",""trial"",""time""
""fullscreenenter"",""1"",""3541""
","
","","","-1","","","25","13749","5970","&#9761;","elianto","#3366ff99","-1","-1","1","+10","[]","0","0","2","","","","","","","",""
"pit-trial","42","478293","0.0-2.0-11.1-0.1","battery-v0.2","","""event"",""trial"",""time""
""fullscreenenter"",""1"",""3541""
","
","
","""event"",""trial"",""time""
""fullscreenenter"",""1"",""3541""
","
","","","-1","","","25","13749","5970","&#9761;","elianto","#3366ff99","-1","-1","1","+10","[]","0","0","2","","","","","","","",""
"pit-trial","43","483149","0.0-2.0-11.1-1.1","battery-v0.2","","""event"",""trial"",""time""
""fullscreenenter"",""1"",""3541""
","
","
","""event"",""trial"",""time""
""fullscreenenter"",""1"",""3541""
","
","","","-1","","","25","13749","5970","&#9761;","elianto","#3366ff99","-1","-1","1","+10","[]","0","0","2","","","","","","","",""
"pit-trial","44","488005","0.0-2.0-11.1-2.1","battery-v0.2","","""event"",""trial"",""time""
""fullscreenenter"",""1"",""3541""
","
","
","""event"",""trial"",""time""
""fullscreenenter"",""1"",""3541""
","
","","","-1","","","25","13749","5970","&#9761;","elianto","#3366ff99","-1","-1","1","+10","[]","0","0","2","","","","","","","",""
"pit-trial","45","492859","0.0-2.0-11.1-3.1","battery-v0.2","","""event"",""trial"",""time""
""fullscreenenter"",""1"",""3541""
","
","
","""event"",""trial"",""time""
""fullscreenenter"",""1"",""3541""
","
","","","-1","","","25","13749","5970","&#9761;","elianto","#3366ff99","-1","-1","1","0","[]","0","0","2","","","","","","","",""
"pit-trial","46","497716","0.0-2.0-11.1-4.1","battery-v0.2","","""event"",""trial"",""time""
""fullscreenenter"",""1"",""3541""
","
","
","""event"",""trial"",""time""
""fullscreenenter"",""1"",""3541""
","
","","","-1","","","25","13749","5970","&#9761;","elianto","#3366ff99","-1","-1","1","+10","[]","0","0","2","","","","","","","",""
"pit-trial","47","502573","0.0-2.0-11.2-0.2","battery-v0.2","","""event"",""trial"",""time""
""fullscreenenter"",""1"",""3541""
","
","
","""event"",""trial"",""time""
""fullscreenenter"",""1"",""3541""
","
","","","-1","","","25","13749","5970","&#9761;","elianto","#3366ff99","-1","-1","1","+10","[]","0","0","2","","","","","","","",""
"pit-trial","48","507429","0.0-2.0-11.2-1.2","battery-v0.2","","""event"",""trial"",""time""
""fullscreenenter"",""1"",""3541""
","
","
","""event"",""trial"",""time""
""fullscreenenter"",""1"",""3541""
","
","","","-1","","","25","13749","5970","&#9761;","elianto","#3366ff99","-1","-1","1","+10","[]","0","0","2","","","","","","","",""
"pit-trial","49","512285","0.0-2.0-11.2-2.2","battery-v0.2","","""event"",""trial"",""time""
""fullscreenenter"",""1"",""3541""
","
","
","""event"",""trial"",""time""
""fullscreenenter"",""1"",""3541""
","
","","","-1","","","25","13749","5970","&#9761;","elianto","#3366ff99","-1","-1","1","+10","[]","0","0","2","","","","","","","",""
"pit-trial","50","517142","0.0-2.0-11.2-3.2","battery-v0.2","","""event"",""trial"",""time""
""fullscreenenter"",""1"",""3541""
","
","
","""event"",""trial"",""time""
""fullscreenenter"",""1"",""3541""
","
","","","-1","","","25","13749","5970","&#9761;","elianto","#3366ff99","-1","-1","1","0","[]","0","0","2","","","","","","","",""
"pit-trial","51","521998","0.0-2.0-11.2-4.2","battery-v0.2","","""event"",""trial"",""time""
""fullscreenenter"",""1"",""3541""
","
","
","""event"",""trial"",""time""
""fullscreenenter"",""1"",""3541""
","
","","","-1","","","25","13749","5970","&#9761;","elianto","#3366ff99","-1","-1","1","+10","[]","0","0","2","","","","","","","",""
"pit-trial","52","526855","0.0-2.0-11.3-0.3","battery-v0.2","","""event"",""trial"",""time""
""fullscreenenter"",""1"",""3541""
","
","
","""event"",""trial"",""time""
""fullscreenenter"",""1"",""3541""
","
","","","-1","","","25","13749","5970","&#9761;","elianto","#3366ff99","-1","-1","1","+10","[]","0","0","2","","","","","","","",""
"pit-trial","53","531711","0.0-2.0-11.3-1.3","battery-v0.2","","""event"",""trial"",""time""
""fullscreenenter"",""1"",""3541""
","
","
","""event"",""trial"",""time""
""fullscreenenter"",""1"",""3541""
","
","","","-1","","","25","13749","5970","&#9761;","elianto","#3366ff99","-1","-1","1","+10","[]","0","0","2","","","","","","","",""
"pit-trial","54","536568","0.0-2.0-11.3-2.3","battery-v0.2","","""event"",""trial"",""time""
""fullscreenenter"",""1"",""3541""
","
","
","""event"",""trial"",""time""
""fullscreenenter"",""1"",""3541""
","
","","","-1","","","25","13749","5970","&#9761;","elianto","#3366ff99","-1","-1","1","+10","[]","0","0","2","","","","","","","",""
"pit-trial","55","541424","0.0-2.0-11.3-3.3","battery-v0.2","","""event"",""trial"",""time""
""fullscreenenter"",""1"",""3541""
","
","
","""event"",""trial"",""time""
""fullscreenenter"",""1"",""3541""
","
","","","-1","","","25","13749","5970","&#9761;","elianto","#3366ff99","-1","-1","1","0","[]","0","0","2","","","","","","","",""
"pit-trial","56","546280","0.0-2.0-11.3-4.3","battery-v0.2","","""event"",""trial"",""time""
""fullscreenenter"",""1"",""3541""
","
","
","""event"",""trial"",""time""
""fullscreenenter"",""1"",""3541""
","
","","","-1","","","25","13749","5970","&#9761;","elianto","#3366ff99","-1","-1","1","+10","[]","0","0","2","","","","","","","",""
"call-function","57","546282","0.0-2.0-12.0","battery-v0.2","","""event"",""trial"",""time""
""fullscreenenter"",""1"",""3541""
","
","
","""event"",""trial"",""time""
""fullscreenenter"",""1"",""3541""
","
","","","","","","","","","","","","","","","","","","","","","","","","","","",""
"pit-instructions","58","594128","0.0-2.0-13.0","battery-v0.2","","""event"",""trial"",""time""
""fullscreenenter"",""1"",""3541""
","
","
","""event"",""trial"",""time""
""fullscreenenter"",""1"",""3541""
","
","","[{""page_index"":0,""viewing_time"":4835.0999999996275},{""page_index"":1,""viewing_time"":7580},{""page_index"":2,""viewing_time"":18513.099999999627},{""page_index"":3,""viewing_time"":11159.900000000373},{""page_index"":4,""viewing_time"":5756.300000000745}]","47845.09999999963","","","","","","","","","","","","","","","","","","","","","","","",""
"pit-trial","59","597683","0.0-2.0-14.0-0.0","battery-v0.2","","""event"",""trial"",""time""
""fullscreenenter"",""1"",""3541""
","
","
","""event"",""trial"",""time""
""fullscreenenter"",""1"",""3541""
","
","","","700","","","25","13749","5970","&#9826;","elianto","#f73b6a7A","-1"," ","0","-10","[1551]","1","0","3","","","","","","","",""
"pit-trial","60","602538","0.0-2.0-14.0-1.0","battery-v0.2","","""event"",""trial"",""time""
""fullscreenenter"",""1"",""3541""
","
","
","""event"",""trial"",""time""
""fullscreenenter"",""1"",""3541""
","
","","","-1","","","25","13749","5970","&#9826;","elianto","#f73b6a7A","-1","-1","1","0","[]","0","0","3","","","","","","","",""
"pit-trial","61","607394","0.0-2.0-14.0-2.0","battery-v0.2","","""event"",""trial"",""time""
""fullscreenenter"",""1"",""3541""
","
","
","""event"",""trial"",""time""
""fullscreenenter"",""1"",""3541""
","
","","","-1","","","25","13749","5970","&#9826;","elianto","#f73b6a7A","-1","-1","1","0","[]","0","0","3","","","","","","","",""
"pit-trial","62","612249","0.0-2.0-14.0-3.0","battery-v0.2","","""event"",""trial"",""time""
""fullscreenenter"",""1"",""3541""
","
","
","""event"",""trial"",""time""
""fullscreenenter"",""1"",""3541""
","
","","","-1","","","25","13749","5970","&#9826;","elianto","#f73b6a7A","-1","-1","1","-10","[]","0","0","3","","","","","","","",""
"pit-trial","63","617106","0.0-2.0-14.0-4.0","battery-v0.2","","""event"",""trial"",""time""
""fullscreenenter"",""1"",""3541""
","
","
","""event"",""trial"",""time""
""fullscreenenter"",""1"",""3541""
","
","","","-1","","","25","13749","5970","&#9826;","elianto","#f73b6a7A","-1","-1","1","0","[]","0","0","3","","","","","","","",""
"pit-trial","64","621963","0.0-2.0-14.1-0.1","battery-v0.2","","""event"",""trial"",""time""
""fullscreenenter"",""1"",""3541""
","
","
","""event"",""trial"",""time""
""fullscreenenter"",""1"",""3541""
","
","","","-1","","","25","13749","5970","&#9826;","elianto","#f73b6a7A","-1","-1","1","0","[]","0","0","3","","","","","","","",""
"pit-trial","65","626820","0.0-2.0-14.1-1.1","battery-v0.2","","""event"",""trial"",""time""
""fullscreenenter"",""1"",""3541""
","
","
","""event"",""trial"",""time""
""fullscreenenter"",""1"",""3541""
","
","","","-1","","","25","13749","5970","&#9826;","elianto","#f73b6a7A","-1","-1","1","0","[]","0","0","3","","","","","","","",""
"pit-trial","66","631677","0.0-2.0-14.1-2.1","battery-v0.2","","""event"",""trial"",""time""
""fullscreenenter"",""1"",""3541""
","
","
","""event"",""trial"",""time""
""fullscreenenter"",""1"",""3541""
","
","","","-1","","","25","13749","5970","&#9826;","elianto","#f73b6a7A","-1","-1","1","0","[]","0","0","3","","","","","","","",""
"pit-trial","67","636533","0.0-2.0-14.1-3.1","battery-v0.2","","""event"",""trial"",""time""
""fullscreenenter"",""1"",""3541""
","
","
","""event"",""trial"",""time""
""fullscreenenter"",""1"",""3541""
","
","","","-1","","","25","13749","5970","&#9826;","elianto","#f73b6a7A","-1","-1","1","-10","[]","0","0","3","","","","","","","",""
"pit-trial","68","641388","0.0-2.0-14.1-4.1","battery-v0.2","","""event"",""trial"",""time""
""fullscreenenter"",""1"",""3541""
","
","
","""event"",""trial"",""time""
""fullscreenenter"",""1"",""3541""
","
","","","-1","","","25","13749","5970","&#9826;","elianto","#f73b6a7A","-1","-1","1","0","[]","0","0","3","","","","","","","",""
"pit-trial","69","646244","0.0-2.0-14.2-0.2","battery-v0.2","","""event"",""trial"",""time""
""fullscreenenter"",""1"",""3541""
","
","
","""event"",""trial"",""time""
""fullscreenenter"",""1"",""3541""
","
","","","-1","","","25","13749","5970","&#9826;","elianto","#f73b6a7A","-1","-1","1","0","[]","0","0","3","","","","","","","",""
"pit-trial","70","651100","0.0-2.0-14.2-1.2","battery-v0.2","","""event"",""trial"",""time""
""fullscreenenter"",""1"",""3541""
","
","
","""event"",""trial"",""time""
""fullscreenenter"",""1"",""3541""
","
","","","-1","","","25","13749","5970","&#9826;","elianto","#f73b6a7A","-1","-1","1","0","[]","0","0","3","","","","","","","",""
"pit-trial","71","655954","0.0-2.0-14.2-2.2","battery-v0.2","","""event"",""trial"",""time""
""fullscreenenter"",""1"",""3541""
","
","
","""event"",""trial"",""time""
""fullscreenenter"",""1"",""3541""
","
","","","-1","","","25","13749","5970","&#9826;","elianto","#f73b6a7A","-1","-1","1","0","[]","0","0","3","","","","","","","",""
"pit-trial","72","660810","0.0-2.0-14.2-3.2","battery-v0.2","","""event"",""trial"",""time""
""fullscreenenter"",""1"",""3541""
","
","
","""event"",""trial"",""time""
""fullscreenenter"",""1"",""3541""
","
","","","-1","","","25","13749","5970","&#9826;","elianto","#f73b6a7A","-1","-1","1","-10","[]","0","0","3","","","","","","","",""
"pit-trial","73","665666","0.0-2.0-14.2-4.2","battery-v0.2","","""event"",""trial"",""time""
""fullscreenenter"",""1"",""3541""
","
","
","""event"",""trial"",""time""
""fullscreenenter"",""1"",""3541""
","
","","","-1","","","25","13749","5970","&#9826;","elianto","#f73b6a7A","-1","-1","1","0","[]","0","0","3","","","","","","","",""
"pit-trial","74","670523","0.0-2.0-14.3-0.3","battery-v0.2","","""event"",""trial"",""time""
""fullscreenenter"",""1"",""3541""
","
","
","""event"",""trial"",""time""
""fullscreenenter"",""1"",""3541""
","
","","","-1","","","25","13749","5970","&#9826;","elianto","#f73b6a7A","-1","-1","1","0","[]","0","0","3","","","","","","","",""
"pit-trial","75","675380","0.0-2.0-14.3-1.3","battery-v0.2","","""event"",""trial"",""time""
""fullscreenenter"",""1"",""3541""
","
","
","""event"",""trial"",""time""
""fullscreenenter"",""1"",""3541""
","
","","","-1","","","25","13749","5970","&#9826;","elianto","#f73b6a7A","-1","-1","1","0","[]","0","0","3","","","","","","","",""
"pit-trial","76","680236","0.0-2.0-14.3-2.3","battery-v0.2","","""event"",""trial"",""time""
""fullscreenenter"",""1"",""3541""
","
","
","""event"",""trial"",""time""
""fullscreenenter"",""1"",""3541""
","
","","","-1","","","25","13749","5970","&#9826;","elianto","#f73b6a7A","-1","-1","1","0","[]","0","0","3","","","","","","","",""
"pit-trial","77","685093","0.0-2.0-14.3-3.3","battery-v0.2","","""event"",""trial"",""time""
""fullscreenenter"",""1"",""3541""
","
","
","""event"",""trial"",""time""
""fullscreenenter"",""1"",""3541""
","
","","","-1","","","25","13749","5970","&#9826;","elianto","#f73b6a7A","-1","-1","1","-10","[]","0","0","3","","","","","","","",""
"pit-trial","78","689949","0.0-2.0-14.3-4.3","battery-v0.2","","""event"",""trial"",""time""
""fullscreenenter"",""1"",""3541""
","
","
","""event"",""trial"",""time""
""fullscreenenter"",""1"",""3541""
","
","","","-1","","","25","13749","5970","&#9826;","elianto","#f73b6a7A","-1","-1","1","0","[]","0","0","3","","","","","","","",""
"call-function","79","689952","0.0-2.0-15.0","battery-v0.2","","""event"",""trial"",""time""
""fullscreenenter"",""1"",""3541""
","
","
","""event"",""trial"",""time""
""fullscreenenter"",""1"",""3541""
","
","","","","","","","","","","","","","","","","","","","","","","","","","","",""
"pit-instructions","80","728353","0.0-2.0-16.0","battery-v0.2","","""event"",""trial"",""time""
""fullscreenenter"",""1"",""3541""
","
","
","""event"",""trial"",""time""
""fullscreenenter"",""1"",""3541""
","
","","[{""page_index"":0,""viewing_time"":10232},{""page_index"":1,""viewing_time"":11049.400000000373},{""page_index"":2,""viewing_time"":11283.199999999255},{""page_index"":3,""viewing_time"":5834.700000001118}]","38400.20000000112","","","","","","","","","","","","","","","","","","","","","","","",""
"pit-trial","81","731748","0.0-2.0-17.0-0.0","battery-v0.2","","""event"",""trial"",""time""
""fullscreenenter"",""1"",""3541""
","
","
","""event"",""trial"",""time""
""fullscreenenter"",""1"",""3541""
","
","","","538","","","25","13749","5970","&#9789;","elianto","#f73b6a7A"," "," ","1","0","[1390]","1","0","4","","","","","","","",""
"pit-trial","82","735081","0.0-2.0-17.0-1.0","battery-v0.2","","""event"",""trial"",""time""
""fullscreenenter"",""1"",""3541""
","
","
","""event"",""trial"",""time""
""fullscreenenter"",""1"",""3541""
","
","","","477.5","","","25","13749","5970","&#9789;","elianto","#f73b6a7A"," "," ","1","0","[1328.5]","1","0","4","","","","","","","",""
"pit-trial","83","738382","0.0-2.0-17.0-2.0","battery-v0.2","","""event"",""trial"",""time""
""fullscreenenter"",""1"",""3541""
","
","
","""event"",""trial"",""time""
""fullscreenenter"",""1"",""3541""
","
","","","445.5","","","25","13749","5970","&#9789;","elianto","#f73b6a7A"," "," ","1","0","[1295.699999999255]","1","0","4","","","","","","","",""
"pit-trial","84","741766","0.0-2.0-17.0-3.0","battery-v0.2","","""event"",""trial"",""time""
""fullscreenenter"",""1"",""3541""
","
","
","""event"",""trial"",""time""
""fullscreenenter"",""1"",""3541""
","
","","","528.5999999996275","","","25","13749","5970","&#9789;","elianto","#f73b6a7A"," "," ","1","-10","[1379.5]","1","0","4","","","","","","","",""
"pit-trial","85","745355","0.0-2.0-17.0-4.0","battery-v0.2","","""event"",""trial"",""time""
""fullscreenenter"",""1"",""3541""
","
","
","""event"",""trial"",""time""
""fullscreenenter"",""1"",""3541""
","
","","","732.1999999992549","","","25","13749","5970","&#9789;","elianto","#f73b6a7A"," "," ","1","0","[1583.7000000011176]","1","0","4","","","","","","","",""
"pit-trial","86","748651","0.0-2.0-17.1-0.1","battery-v0.2","","""event"",""trial"",""time""
""fullscreenenter"",""1"",""3541""
","
","
","""event"",""trial"",""time""
""fullscreenenter"",""1"",""3541""
","
","","","440","","","25","13749","5970","&#9789;","elianto","#f73b6a7A"," "," ","1","0","[1290.3999999985099]","1","0","4","","","","","","","",""
"pit-trial","87","752188","0.0-2.0-17.1-1.1","battery-v0.2","","""event"",""trial"",""time""
""fullscreenenter"",""1"",""3541""
","
","
","""event"",""trial"",""time""
""fullscreenenter"",""1"",""3541""
","
","","","680.9000000003725","","","25","13749","5970","&#9789;","elianto","#f73b6a7A"," "," ","1","0","[1532.0999999996275]","1","0","4","","","","","","","",""
"pit-trial","88","755606","0.0-2.0-17.1-2.1","battery-v0.2","","""event"",""trial"",""time""
""fullscreenenter"",""1"",""3541""
","
","
","""event"",""trial"",""time""
""fullscreenenter"",""1"",""3541""
","
","","","563.0999999996275","","","25","13749","5970","&#9789;","elianto","#f73b6a7A"," "," ","1","0","[1413.0999999996275]","1","0","4","","","","","","","",""
"pit-trial","89","758946","0.0-2.0-17.1-3.1","battery-v0.2","","""event"",""trial"",""time""
""fullscreenenter"",""1"",""3541""
","
","
","""event"",""trial"",""time""
""fullscreenenter"",""1"",""3541""
","
","","","484.6000000014901","","","25","13749","5970","&#9789;","elianto","#f73b6a7A"," "," ","1","-10","[1335.7000000011176]","1","0","4","","","","","","","",""
"pit-trial","90","762104","0.0-2.0-17.1-4.1","battery-v0.2","","""event"",""trial"",""time""
""fullscreenenter"",""1"",""3541""
","
","
","""event"",""trial"",""time""
""fullscreenenter"",""1"",""3541""
","
","","","302.2999999988824","","","25","13749","5970","&#9789;","elianto","#f73b6a7A"," "," ","1","0","[1153.5]","1","0","4","","","","","","","",""
"pit-trial","91","765558","0.0-2.0-17.2-0.2","battery-v0.2","","""event"",""trial"",""time""
""fullscreenenter"",""1"",""3541""
","
","
","""event"",""trial"",""time""
""fullscreenenter"",""1"",""3541""
","
","","","598","","","25","13749","5970","&#9789;","elianto","#f73b6a7A"," "," ","1","0","[1448.4000000003725]","1","0","4","","","","","","","",""
"pit-trial","92","768998","0.0-2.0-17.2-1.2","battery-v0.2","","""event"",""trial"",""time""
""fullscreenenter"",""1"",""3541""
","
","
","""event"",""trial"",""time""
""fullscreenenter"",""1"",""3541""
","
","","","583.5","","","25","13749","5970","&#9789;","elianto","#f73b6a7A"," "," ","1","0","[1434.800000000745]","1","0","4","","","","","","","",""
"pit-trial","93","772286","0.0-2.0-17.2-2.2","battery-v0.2","","""event"",""trial"",""time""
""fullscreenenter"",""1"",""3541""
","
","
","""event"",""trial"",""time""
""fullscreenenter"",""1"",""3541""
","
","","","432.90000000037253","","","25","13749","5970","&#9789;","elianto","#f73b6a7A"," "," ","1","0","[1283.7999999988824]","1","0","4","","","","","","","",""
"pit-trial","94","775549","0.0-2.0-17.2-3.2","battery-v0.2","","""event"",""trial"",""time""
""fullscreenenter"",""1"",""3541""
","
","
","""event"",""trial"",""time""
""fullscreenenter"",""1"",""3541""
","
","","","408","","","25","13749","5970","&#9789;","elianto","#f73b6a7A"," "," ","1","-10","[1258.0999999996275]","1","0","4","","","","","","","",""
"pit-trial","95","780404","0.0-2.0-17.2-4.2","battery-v0.2","","""event"",""trial"",""time""
""fullscreenenter"",""1"",""3541""
","
","
","""event"",""trial"",""time""
""fullscreenenter"",""1"",""3541""
","
","","","-1","","","25","13749","5970","&#9789;","elianto","#f73b6a7A"," ","-1","0","-10","[3701.5999999996275]","1","0","4","","","","","","","",""
"pit-trial","96","783598","0.0-2.0-17.3-0.3","battery-v0.2","","""event"",""trial"",""time""
""fullscreenenter"",""1"",""3541""
","
","
","""event"",""trial"",""time""
""fullscreenenter"",""1"",""3541""
","
","","","337.90000000037253","","","25","13749","5970","&#9789;","elianto","#f73b6a7A"," "," ","1","0","[1188.3999999985099]","1","0","4","","","","","","","",""
"pit-trial","97","787118","0.0-2.0-17.3-1.3","battery-v0.2","","""event"",""trial"",""time""
""fullscreenenter"",""1"",""3541""
","
","
","""event"",""trial"",""time""
""fullscreenenter"",""1"",""3541""
","
","","","664.9000000003725","","","25","13749","5970","&#9789;","elianto","#f73b6a7A"," "," ","1","0","[1516]","1","0","4","","","","","","","",""
"pit-trial","98","790469","0.0-2.0-17.3-2.3","battery-v0.2","","""event"",""trial"",""time""
""fullscreenenter"",""1"",""3541""
","
","
","""event"",""trial"",""time""
""fullscreenenter"",""1"",""3541""
","
","","","495.5","","","25","13749","5970","&#9789;","elianto","#f73b6a7A"," "," ","1","0","[1346.2999999988824]","1","0","4","","","","","","","",""
"pit-trial","99","794056","0.0-2.0-17.3-3.3","battery-v0.2","","""event"",""trial"",""time""
""fullscreenenter"",""1"",""3541""
","
","
","""event"",""trial"",""time""
""fullscreenenter"",""1"",""3541""
","
","","","732.3000000007451","","","25","13749","5970","&#9789;","elianto","#f73b6a7A"," "," ","1","-10","[1582.800000000745]","1","0","4","","","","","","","",""
"pit-trial","100","797513","0.0-2.0-17.3-4.3","battery-v0.2","","""event"",""trial"",""time""
""fullscreenenter"",""1"",""3541""
","
","
","""event"",""trial"",""time""
""fullscreenenter"",""1"",""3541""
","
","","","602","","","25","13749","5970","&#9789;","elianto","#f73b6a7A"," "," ","1","0","[1452.5]","1","0","4","","","","","","","",""
"call-function","101","797515","0.0-2.0-18.0","battery-v0.2","","""event"",""trial"",""time""
""fullscreenenter"",""1"",""3541""
","
","
","""event"",""trial"",""time""
""fullscreenenter"",""1"",""3541""
","
","","","","","","","","","","","","","","","","","","","","","","","","","","",""
"pit-instructions","102","870286","0.0-2.0-19.0","battery-v0.2","","""event"",""trial"",""time""
""fullscreenenter"",""1"",""3541""
","
","
","""event"",""trial"",""time""
""fullscreenenter"",""1"",""3541""
","
","","[{""page_index"":0,""viewing_time"":6955.300000000745},{""page_index"":1,""viewing_time"":7013.0999999996275},{""page_index"":2,""viewing_time"":16222.300000000745},{""page_index"":3,""viewing_time"":7605.799999998882},{""page_index"":4,""viewing_time"":8571.900000000373},{""page_index"":5,""viewing_time"":8317.5},{""page_index"":6,""viewing_time"":8266},{""page_index"":7,""viewing_time"":5884},{""page_index"":8,""viewing_time"":3933.5999999996275}]","72770.20000000112","","","","","","","","","","","","","","","","","","","","","","","",""
"pit-comprehension","103","876387","0.0-2.0-20.0-0.0","battery-v0.2","","""event"",""trial"",""time""
""fullscreenenter"",""1"",""3541""
","
","
","""event"",""trial"",""time""
""fullscreenenter"",""1"",""3541""
","
","","","6095.0999999996275","[""SPACE""]","0","25","13749","5970","","","","","","","","","","","","","","","","","","",""
"pit-instructions","104","880918","0.0-2.0-20.0-1.0","battery-v0.2","","""event"",""trial"",""time""
""fullscreenenter"",""1"",""3541""
","
","
","""event"",""trial"",""time""
""fullscreenenter"",""1"",""3541""
","
","","[{""page_index"":0,""viewing_time"":4507.10000000149}]","4507.60000000149","","","","","","","","","","","","","","","","","","","","","","","",""
"pit-comprehension","105","887152","0.0-2.0-21.0-0.0","battery-v0.2","","""event"",""trial"",""time""
""fullscreenenter"",""1"",""3541""
","
","
","""event"",""trial"",""time""
""fullscreenenter"",""1"",""3541""
","
","","","6229.299999998882","[""10""]","0","25","13749","5970","","","","","","","","","","","","","","","","","","",""
"pit-instructions","106","893435","0.0-2.0-21.0-1.0","battery-v0.2","","""event"",""trial"",""time""
""fullscreenenter"",""1"",""3541""
","
","
","""event"",""trial"",""time""
""fullscreenenter"",""1"",""3541""
","
","","[{""page_index"":0,""viewing_time"":6257.5}]","6258.0999999996275","","","","","","","","","","","","","","","","","","","","","","","",""
"pit-comprehension","107","902034","0.0-2.0-22.0-0.0","battery-v0.2","","""event"",""trial"",""time""
""fullscreenenter"",""1"",""3541""
","
","
","""event"",""trial"",""time""
""fullscreenenter"",""1"",""3541""
","
","","","8594.800000000745","[""0""]","0","25","13749","5970","","","","","","","","","","","","","","","","","","",""
"pit-instructions","108","904802","0.0-2.0-22.0-1.0","battery-v0.2","","""event"",""trial"",""time""
""fullscreenenter"",""1"",""3541""
","
","
","""event"",""trial"",""time""
""fullscreenenter"",""1"",""3541""
","
","","[{""page_index"":0,""viewing_time"":2748.7999999988824}]","2749.199999999255","","","","","","","","","","","","","","","","","","","","","","","",""
"pit-comprehension","109","920186","0.0-2.0-23.0-0.0","battery-v0.2","","""event"",""trial"",""time""
""fullscreenenter"",""1"",""3541""
","
","
","""event"",""trial"",""time""
""fullscreenenter"",""1"",""3541""
","
","","","15379.800000000745","[""True""]","0","25","13749","5970","","","","","","","","","","","","","","","","","","",""
"pit-instructions","110","922401","0.0-2.0-23.0-1.0","battery-v0.2","","""event"",""trial"",""time""
""fullscreenenter"",""1"",""3541""
","
","
","""event"",""trial"",""time""
""fullscreenenter"",""1"",""3541""
","
","","[{""page_index"":0,""viewing_time"":2188.800000000745}]","2189.300000000745","","","","","","","","","","","","","","","","","","","","","","","",""
"pit-comprehension","111","930003","0.0-2.0-24.0-0.0","battery-v0.2","","""event"",""trial"",""time""
""fullscreenenter"",""1"",""3541""
","
","
","""event"",""trial"",""time""
""fullscreenenter"",""1"",""3541""
","
","","","7598.0999999996275","[""True""]","0","25","13749","5970","","","","","","","","","","","","","","","","","","",""
"pit-instructions","112","932700","0.0-2.0-24.0-1.0","battery-v0.2","","""event"",""trial"",""time""
""fullscreenenter"",""1"",""3541""
","
","
","""event"",""trial"",""time""
""fullscreenenter"",""1"",""3541""
","
","","[{""page_index"":0,""viewing_time"":2672.39999999851}]","2672.5999999996275","","","","","","","","","","","","","","","","","","","","","","","",""
"pit-comprehension","113","939101","0.0-2.0-25.0-0.0","battery-v0.2","","""event"",""trial"",""time""
""fullscreenenter"",""1"",""3541""
","
","
","""event"",""trial"",""time""
""fullscreenenter"",""1"",""3541""
","
","","","6398.300000000745","[""True""]","0","25","13749","5970","","","","","","","","","","","","","","","","","","",""
"pit-instructions","114","940505","0.0-2.0-25.0-1.0","battery-v0.2","","""event"",""trial"",""time""
""fullscreenenter"",""1"",""3541""
","
","
","""event"",""trial"",""time""
""fullscreenenter"",""1"",""3541""
","
","","[{""page_index"":0,""viewing_time"":1379}]","1379.300000000745","","","","","","","","","","","","","","","","","","","","","","","",""
"pit-comprehension","115","948135","0.0-2.0-26.0-0.0","battery-v0.2","","""event"",""trial"",""time""
""fullscreenenter"",""1"",""3541""
","
","
","""event"",""trial"",""time""
""fullscreenenter"",""1"",""3541""
","
","","","7626","[""False""]","0","25","13749","5970","","","","","","","","","","","","","","","","","","",""
"pit-instructions","116","949801","0.0-2.0-26.0-1.0","battery-v0.2","","""event"",""trial"",""time""
""fullscreenenter"",""1"",""3541""
","
","
","""event"",""trial"",""time""
""fullscreenenter"",""1"",""3541""
","
","","[{""page_index"":0,""viewing_time"":1642.4000000003725}]","1642.800000000745","","","","","","","","","","","","","","","","","","","","","","","",""
"pit-instructions","117","967551","0.0-3.0","battery-v0.2","","""event"",""trial"",""time""
""fullscreenenter"",""1"",""3541""
","
","
","""event"",""trial"",""time""
""fullscreenenter"",""1"",""3541""
","
","","[{""page_index"":0,""viewing_time"":4568.300000000745},{""page_index"":1,""viewing_time"":6413.799999998882},{""page_index"":2,""viewing_time"":6764.200000001118}]","17746.800000000745","","","","","","","","","","","","","","","","","","","","","","","",""
"pit-trial","118","971168","0.0-4.0","battery-v0.2","","""event"",""trial"",""time""
""fullscreenenter"",""1"",""3541""
","
","
","""event"",""trial"",""time""
""fullscreenenter"",""1"",""3541""
","
","","","759.0999999996275","","","25","13749","5970","&#9728;","elianto","#f73b6a7A","-1"," ","0","-10","[1610]","1","1","","","13749","1","0","4","lose","no-go","0"
"pit-trial","119","974853","0.0-5.0","battery-v0.2","","""event"",""trial"",""time""
""fullscreenenter"",""1"",""3541""
","
","
","""event"",""trial"",""time""
""fullscreenenter"",""1"",""3541""
","
","","","828.6999999992549","","","25","13749","5970","&#9733;","elianto","#3366ff99","-1"," ","0","0","[1680.5]","1","1","","","13749","2","2","2","win","no-go","0"
"pit-trial","120","978933","0.0-6.0","battery-v0.2","","""event"",""trial"",""time""
""fullscreenenter"",""1"",""3541""
","
","
","""event"",""trial"",""time""
""fullscreenenter"",""1"",""3541""
","
","","","1225.0999999996275","","","25","13749","5970","&#9752;","elianto","#f73b6a7A"," "," ","1","0","[2075.5]","1","1","","","13749","3","3","3","lose","go","0"
"pit-trial","121","982913","0.0-7.0","battery-v0.2","","""event"",""trial"",""time""
""fullscreenenter"",""1"",""3541""
","
","
","""event"",""trial"",""time""
""fullscreenenter"",""1"",""3541""
","
","","","1124.199999999255","","","25","13749","5970","&#9730;","elianto","#3366ff99"," "," ","1","+10","[1974.5999999996275]","1","1","","","13749","4","1","1","win","go","0"
"pit-trial","122","987769","0.0-8.0","battery-v0.2","","""event"",""trial"",""time""
""fullscreenenter"",""1"",""3541""
","
","
","""event"",""trial"",""time""
""fullscreenenter"",""1"",""3541""
","
","","","-1","","","25","13749","5970","&#9728;","elianto","#f73b6a7A","-1","-1","1","0","[]","0","1","","","13749","5","0","4","lose","no-go","0"
"pit-trial","123","991455","0.0-9.0","battery-v0.2","","""event"",""trial"",""time""
""fullscreenenter"",""1"",""3541""
","
","
","""event"",""trial"",""time""
""fullscreenenter"",""1"",""3541""
","
","","","830.0999999996275","","","25","13749","5970","&#9752;","elianto","#f73b6a7A"," "," ","1","0","[1681.699999999255]","1","1","","","13749","6","3","3","lose","go","0"
"pit-trial","124","995378","0.0-10.0","battery-v0.2","","""event"",""trial"",""time""
""fullscreenenter"",""1"",""3541""
","
","
","""event"",""trial"",""time""
""fullscreenenter"",""1"",""3541""
","
","","","1067.4000000003725","","","25","13749","5970","&#9733;","elianto","#3366ff99","-1"," ","0","0","[1917.7000000011176]","1","1","","","13749","7","2","2","win","no-go","0"
"pit-trial","125","998896","0.0-11.0","battery-v0.2","","""event"",""trial"",""time""
""fullscreenenter"",""1"",""3541""
","
","
","""event"",""trial"",""time""
""fullscreenenter"",""1"",""3541""
","
","","","662","","","25","13749","5970","&#9730;","elianto","#3366ff99"," "," ","1","+10","[1513.800000000745]","1","1","","","13749","8","1","1","win","go","0"
"pit-trial","126","1003751","0.0-12.0","battery-v0.2","","""event"",""trial"",""time""
""fullscreenenter"",""1"",""3541""
","
","
","""event"",""trial"",""time""
""fullscreenenter"",""1"",""3541""
","
","","","-1","","","25","13749","5970","&#9728;","elianto","#f73b6a7A","-1","-1","1","0","[]","0","1","","","13749","9","0","4","lose","no-go","0"
"pit-trial","127","1007492","0.0-13.0","battery-v0.2","","""event"",""trial"",""time""
""fullscreenenter"",""1"",""3541""
","
","
","""event"",""trial"",""time""
""fullscreenenter"",""1"",""3541""
","
","","","886.5999999996275","","","25","13749","5970","&#9752;","elianto","#f73b6a7A"," "," ","1","0","[1737.0999999996275]","1","1","","","13749","10","3","3","lose","go","0"
"pit-trial","128","1012349","0.0-14.0","battery-v0.2","","""event"",""trial"",""time""
""fullscreenenter"",""1"",""3541""
","
","
","""event"",""trial"",""time""
""fullscreenenter"",""1"",""3541""
","
","","","-1","","","25","13749","5970","&#9733;","elianto","#3366ff99","-1","-1","1","+10","[]","0","1","","","13749","11","2","2","win","no-go","0"
"pit-trial","129","1015817","0.0-15.0","battery-v0.2","","""event"",""trial"",""time""
""fullscreenenter"",""1"",""3541""
","
","
","""event"",""trial"",""time""
""fullscreenenter"",""1"",""3541""
","
","","","612.2999999988824","","","25","13749","5970","&#9730;","elianto","#3366ff99"," "," ","1","+10","[1463.4000000003725]","1","1","","","13749","12","1","1","win","go","0"
"pit-trial","130","1019503","0.0-16.0","battery-v0.2","","""event"",""trial"",""time""
""fullscreenenter"",""1"",""3541""
","
","
","""event"",""trial"",""time""
""fullscreenenter"",""1"",""3541""
","
","","","831.3999999985099","","","25","13749","5970","&#9752;","elianto","#f73b6a7A"," "," ","1","-10","[1682.2999999988824]","1","1","","","13749","13","3","3","lose","go","1"
"pit-trial","131","1024359","0.0-17.0","battery-v0.2","","""event"",""trial"",""time""
""fullscreenenter"",""1"",""3541""
","
","
","""event"",""trial"",""time""
""fullscreenenter"",""1"",""3541""
","
","","","-1","","","25","13749","5970","&#9728;","elianto","#f73b6a7A","-1","-1","1","0","[]","0","1","","","13749","14","0","4","lose","no-go","0"
"pit-trial","132","1029217","0.0-18.0","battery-v0.2","","""event"",""trial"",""time""
""fullscreenenter"",""1"",""3541""
","
","
","""event"",""trial"",""time""
""fullscreenenter"",""1"",""3541""
","
","","","-1","","","25","13749","5970","&#9733;","elianto","#3366ff99","-1","-1","1","+10","[]","0","1","","","13749","15","2","2","win","no-go","0"
"pit-trial","133","1032753","0.0-19.0","battery-v0.2","","""event"",""trial"",""time""
""fullscreenenter"",""1"",""3541""
","
","
","""event"",""trial"",""time""
""fullscreenenter"",""1"",""3541""
","
","","","680.1999999992549","","","25","13749","5970","&#9730;","elianto","#3366ff99"," "," ","1","+10","[1531.4000000003725]","1","1","","","13749","16","1","1","win","go","0"
"pit-trial","134","1037610","0.0-20.0","battery-v0.2","","""event"",""trial"",""time""
""fullscreenenter"",""1"",""3541""
","
","
","""event"",""trial"",""time""
""fullscreenenter"",""1"",""3541""
","
","","","-1","","","25","13749","5970","&#9733;","elianto","#3366ff99","-1","-1","1","+10","[]","0","1","","","13749","17","2","2","win","no-go","0"
"pit-trial","135","1042465","0.0-21.0","battery-v0.2","","""event"",""trial"",""time""
""fullscreenenter"",""1"",""3541""
","
","
","""event"",""trial"",""time""
""fullscreenenter"",""1"",""3541""
","
","","","-1","","","25","13749","5970","&#9728;","elianto","#f73b6a7A","-1","-1","1","0","[]","0","1","","","13749","18","0","4","lose","no-go","0"
"pit-trial","136","1046152","0.0-22.0","battery-v0.2","","""event"",""trial"",""time""
""fullscreenenter"",""1"",""3541""
","
","
","""event"",""trial"",""time""
""fullscreenenter"",""1"",""3541""
","
","","","829.9000000003725","","","25","13749","5970","&#9752;","elianto","#f73b6a7A"," "," ","1","0","[1681.699999999255]","1","1","","","13749","19","3","3","lose","go","0"
"pit-trial","137","1049579","0.0-23.0","battery-v0.2","","""event"",""trial"",""time""
""fullscreenenter"",""1"",""3541""
","
","
","""event"",""trial"",""time""
""fullscreenenter"",""1"",""3541""
","
","","","570.6000000014901","","","25","13749","5970","&#9730;","elianto","#3366ff99"," "," ","1","+10","[1421.9000000003725]","1","1","","","13749","20","1","1","win","go","0"
"pit-instructions","138","1062901","0.0-24.0","battery-v0.2","","""event"",""trial"",""time""
""fullscreenenter"",""1"",""3541""
","
","
","""event"",""trial"",""time""
""fullscreenenter"",""1"",""3541""
","
","","[{""page_index"":0,""viewing_time"":6735.799999998882},{""page_index"":1,""viewing_time"":6583.4000000003725}]","13319.699999999255","","","","","","","","","","","","","","","","","","","","","","","",""
"pit-trial","139","1066484","0.0-25.0","battery-v0.2","","""event"",""trial"",""time""
""fullscreenenter"",""1"",""3541""
","
","
","""event"",""trial"",""time""
""fullscreenenter"",""1"",""3541""
","
","","","726.7000000011176","","","25","13749","5970","l","elianto","#3366ff99","-1"," ","0","0","[1576.800000000745]","1","2","","","13749","21","1","2","win","no-go","0"
"pit-trial","140","1070102","0.0-26.0","battery-v0.2","","""event"",""trial"",""time""
""fullscreenenter"",""1"",""3541""
","
","
","""event"",""trial"",""time""
""fullscreenenter"",""1"",""3541""
","
","","","762.5","","","25","13749","5970","a","elianto","#f73b6a7A"," "," ","1","0","[1613]","1","2","","","13749","22","2","3","lose","go","0"
"pit-trial","141","1073835","0.0-27.0","battery-v0.2","","""event"",""trial"",""time""
""fullscreenenter"",""1"",""3541""
","
","
","""event"",""trial"",""time""
""fullscreenenter"",""1"",""3541""
","
","","","876.3000000007451","","","25","13749","5970","u","elianto","#f73b6a7A"," "," ","1","0","[1727.800000000745]","1","2","","","13749","23","0","3","lose","go","0"
"pit-trial","142","1077505","0.0-28.0","battery-v0.2","","""event"",""trial"",""time""
""fullscreenenter"",""1"",""3541""
","
","
","""event"",""trial"",""time""
""fullscreenenter"",""1"",""3541""
","
","","","813.7000000011176","","","25","13749","5970","g","elianto","#f73b6a7A","-1"," ","0","-10","[1665.5999999996275]","1","2","","","13749","24","3","4","lose","no-go","0"
"pit-trial","143","1081212","0.0-29.0","battery-v0.2","","""event"",""trial"",""time""
""fullscreenenter"",""1"",""3541""
","
","
","""event"",""trial"",""time""
""fullscreenenter"",""1"",""3541""
","
","","","851.2999999988824","","","25","13749","5970","g","elianto","#f73b6a7A","-1"," ","0","-10","[1701.8999999985099]","1","2","","","13749","25","3","4","lose","no-go","0"
"pit-trial","144","1084687","0.0-30.0","battery-v0.2","","""event"",""trial"",""time""
""fullscreenenter"",""1"",""3541""
","
","
","""event"",""trial"",""time""
""fullscreenenter"",""1"",""3541""
","
","","","618.8000000007451","","","25","13749","5970","a","elianto","#f73b6a7A"," "," ","1","0","[1470.300000000745]","1","2","","","13749","26","2","3","lose","go","0"
"pit-trial","145","1088884","0.0-31.0","battery-v0.2","","""event"",""trial"",""time""
""fullscreenenter"",""1"",""3541""
","
","
","""event"",""trial"",""time""
""fullscreenenter"",""1"",""3541""
","
","","","1340.5","","","25","13749","5970","l","elianto","#3366ff99","-1"," ","0","0","[2191.5]","1","2","","","13749","27","1","2","win","no-go","0"
"pit-trial","146","1092495","0.0-32.0","battery-v0.2","","""event"",""trial"",""time""
""fullscreenenter"",""1"",""3541""
","
","
","""event"",""trial"",""time""
""fullscreenenter"",""1"",""3541""
","
","","","755.9000000003725","","","25","13749","5970","u","elianto","#f73b6a7A"," "," ","1","0","[1607.4000000003725]","1","2","","","13749","28","0","3","lose","go","0"
"pit-trial","147","1096072","0.0-33.0","battery-v0.2","","""event"",""trial"",""time""
""fullscreenenter"",""1"",""3541""
","
","
","""event"",""trial"",""time""
""fullscreenenter"",""1"",""3541""
","
","","","720.7000000011176","","","25","13749","5970","u","elianto","#f73b6a7A"," "," ","1","0","[1571.699999999255]","1","2","","","13749","29","0","3","lose","go","0"
"pit-trial","148","1100927","0.0-34.0","battery-v0.2","","""event"",""trial"",""time""
""fullscreenenter"",""1"",""3541""
","
","
","""event"",""trial"",""time""
""fullscreenenter"",""1"",""3541""
","
","","","-1","","","25","13749","5970","g","elianto","#f73b6a7A","-1","-1","1","0","[]","0","2","","","13749","30","3","4","lose","no-go","0"
"pit-trial","149","1104407","0.0-35.0","battery-v0.2","","""event"",""trial"",""time""
""fullscreenenter"",""1"",""3541""
","
","
","""event"",""trial"",""time""
""fullscreenenter"",""1"",""3541""
","
","","","622","","","25","13749","5970","a","elianto","#f73b6a7A"," "," ","1","0","[1473.9000000003725]","1","2","","","13749","31","2","3","lose","go","0"
"pit-trial","150","1109262","0.0-36.0","battery-v0.2","","""event"",""trial"",""time""
""fullscreenenter"",""1"",""3541""
","
","
","""event"",""trial"",""time""
""fullscreenenter"",""1"",""3541""
","
","","","-1","","","25","13749","5970","l","elianto","#3366ff99","-1","-1","1","+10","[]","0","2","","","13749","32","1","2","win","no-go","0"
"pit-trial","151","1112775","0.0-37.0","battery-v0.2","","""event"",""trial"",""time""
""fullscreenenter"",""1"",""3541""
","
","
","""event"",""trial"",""time""
""fullscreenenter"",""1"",""3541""
","
","","","655.5999999996275","","","25","13749","5970","u","elianto","#f73b6a7A"," "," ","1","0","[1506.9000000003725]","1","2","","","13749","33","0","3","lose","go","0"
"pit-trial","152","1116298","0.0-38.0","battery-v0.2","","""event"",""trial"",""time""
""fullscreenenter"",""1"",""3541""
","
","
","""event"",""trial"",""time""
""fullscreenenter"",""1"",""3541""
","
","","","666.8000000007451","","","25","13749","5970","a","elianto","#f73b6a7A"," "," ","1","0","[1518.1000000014901]","1","2","","","13749","34","2","3","lose","go","0"
"pit-trial","153","1121154","0.0-39.0","battery-v0.2","","""event"",""trial"",""time""
""fullscreenenter"",""1"",""3541""
","
","
","""event"",""trial"",""time""
""fullscreenenter"",""1"",""3541""
","
","","","-1","","","25","13749","5970","l","elianto","#3366ff99","-1","-1","1","+10","[]","0","2","","","13749","35","1","2","win","no-go","0"
"pit-trial","154","1126011","0.0-40.0","battery-v0.2","","""event"",""trial"",""time""
""fullscreenenter"",""1"",""3541""
","
","
","""event"",""trial"",""time""
""fullscreenenter"",""1"",""3541""
","
","","","-1","","","25","13749","5970","g","elianto","#f73b6a7A","-1","-1","1","0","[]","0","2","","","13749","36","3","4","lose","no-go","0"
"pit-trial","155","1130868","0.0-41.0","battery-v0.2","","""event"",""trial"",""time""
""fullscreenenter"",""1"",""3541""
","
","
","""event"",""trial"",""time""
""fullscreenenter"",""1"",""3541""
","
","","","-1","","","25","13749","5970","g","elianto","#f73b6a7A","-1","-1","1","0","[]","0","2","","","13749","37","3","4","lose","no-go","0"
"pit-trial","156","1135724","0.0-42.0","battery-v0.2","","""event"",""trial"",""time""
""fullscreenenter"",""1"",""3541""
","
","
","""event"",""trial"",""time""
""fullscreenenter"",""1"",""3541""
","
","","","-1","","","25","13749","5970","l","elianto","#3366ff99","-1","-1","1","+10","[]","0","2","","","13749","38","1","2","win","no-go","0"
"pit-trial","157","1139241","0.0-43.0","battery-v0.2","","""event"",""trial"",""time""
""fullscreenenter"",""1"",""3541""
","
","
","""event"",""trial"",""time""
""fullscreenenter"",""1"",""3541""
","
","","","661.3000000007451","","","25","13749","5970","u","elianto","#f73b6a7A"," "," ","1","0","[1512.300000000745]","1","2","","","13749","39","0","3","lose","go","0"
"pit-trial","158","1142677","0.0-44.0","battery-v0.2","","""event"",""trial"",""time""
""fullscreenenter"",""1"",""3541""
","
","
","""event"",""trial"",""time""
""fullscreenenter"",""1"",""3541""
","
","","","580.9000000003725","","","25","13749","5970","a","elianto","#f73b6a7A"," "," ","1","0","[1432.2999999988824]","1","2","","","13749","40","2","3","lose","go","0"
"pit-trial","159","1146308","0.0-45.0","battery-v0.2","","""event"",""trial"",""time""
""fullscreenenter"",""1"",""3541""
","
","
","""event"",""trial"",""time""
""fullscreenenter"",""1"",""3541""
","
","","","775.5","","","25","13749","5970","u","elianto","#f73b6a7A"," "," ","1","0","[1626.699999999255]","1","2","","","13749","41","0","3","lose","go","0"
"pit-trial","160","1151165","0.0-46.0","battery-v0.2","","""event"",""trial"",""time""
""fullscreenenter"",""1"",""3541""
","
","
","""event"",""trial"",""time""
""fullscreenenter"",""1"",""3541""
","
","","","-1","","","25","13749","5970","l","elianto","#3366ff99","-1","-1","1","+10","[]","0","2","","","13749","42","1","2","win","no-go","0"
"pit-trial","161","1154761","0.0-47.0","battery-v0.2","","""event"",""trial"",""time""
""fullscreenenter"",""1"",""3541""
","
","
","""event"",""trial"",""time""
""fullscreenenter"",""1"",""3541""
","
","","","740.1999999992549","","","25","13749","5970","a","elianto","#f73b6a7A"," "," ","1","0","[1591.300000000745]","1","2","","","13749","43","2","3","lose","go","0"
"pit-trial","162","1159618","0.0-48.0","battery-v0.2","","""event"",""trial"",""time""
""fullscreenenter"",""1"",""3541""
","
","
","""event"",""trial"",""time""
""fullscreenenter"",""1"",""3541""
","
","","","-1","","","25","13749","5970","g","elianto","#f73b6a7A","-1","-1","1","-10","[]","0","2","","","13749","44","3","4","lose","no-go","1"
"pit-trial","163","1164475","0.0-49.0","battery-v0.2","","""event"",""trial"",""time""
""fullscreenenter"",""1"",""3541""
","
","
","""event"",""trial"",""time""
""fullscreenenter"",""1"",""3541""
","
","","","-1","","","25","13749","5970","g","elianto","#f73b6a7A","-1","-1","1","0","[]","0","2","","","13749","45","3","4","lose","no-go","0"
"pit-trial","164","1169331","0.0-50.0","battery-v0.2","","""event"",""trial"",""time""
""fullscreenenter"",""1"",""3541""
","
","
","""event"",""trial"",""time""
""fullscreenenter"",""1"",""3541""
","
","","","-1","","","25","13749","5970","l","elianto","#3366ff99","-1","-1","1","+10","[]","0","2","","","13749","46","1","2","win","no-go","0"
"pit-trial","165","1172921","0.0-51.0","battery-v0.2","","""event"",""trial"",""time""
""fullscreenenter"",""1"",""3541""
","
","
","""event"",""trial"",""time""
""fullscreenenter"",""1"",""3541""
","
","","","733.4000000003725","","","25","13749","5970","u","elianto","#f73b6a7A"," "," ","1","0","[1584.5]","1","2","","","13749","47","0","3","lose","go","0"
"pit-trial","166","1176319","0.0-52.0","battery-v0.2","","""event"",""trial"",""time""
""fullscreenenter"",""1"",""3541""
","
","
","""event"",""trial"",""time""
""fullscreenenter"",""1"",""3541""
","
","","","542.8999999985099","","","25","13749","5970","a","elianto","#f73b6a7A"," "," ","1","0","[1393.2999999988824]","1","2","","","13749","48","2","3","lose","go","0"
"pit-trial","167","1179786","0.0-53.0","battery-v0.2","","""event"",""trial"",""time""
""fullscreenenter"",""1"",""3541""
","
","
","""event"",""trial"",""time""
""fullscreenenter"",""1"",""3541""
","
","","","611.2000000011176","","","25","13749","5970","u","elianto","#f73b6a7A"," "," ","1","0","[1461.699999999255]","1","2","","","13749","49","0","3","lose","go","0"
"pit-trial","168","1183281","0.0-54.0","battery-v0.2","","""event"",""trial"",""time""
""fullscreenenter"",""1"",""3541""
","
","
","""event"",""trial"",""time""
""fullscreenenter"",""1"",""3541""
","
","","","640.5","","","25","13749","5970","a","elianto","#f73b6a7A"," "," ","1","0","[1490.5]","1","2","","","13749","50","2","3","lose","go","0"
"pit-trial","169","1188137","0.0-55.0","battery-v0.2","","""event"",""trial"",""time""
""fullscreenenter"",""1"",""3541""
","
","
","""event"",""trial"",""time""
""fullscreenenter"",""1"",""3541""
","
","","","-1","","","25","13749","5970","l","elianto","#3366ff99","-1","-1","1","+10","[]","0","2","","","13749","51","1","2","win","no-go","0"
"pit-trial","170","1192994","0.0-56.0","battery-v0.2","","""event"",""trial"",""time""
""fullscreenenter"",""1"",""3541""
","
","
","""event"",""trial"",""time""
""fullscreenenter"",""1"",""3541""
","
","","","-1","","","25","13749","5970","g","elianto","#f73b6a7A","-1","-1","1","-10","[]","0","2","","","13749","52","3","4","lose","no-go","1"
"pit-trial","171","1197851","0.0-57.0","battery-v0.2","","""event"",""trial"",""time""
""fullscreenenter"",""1"",""3541""
","
","
","""event"",""trial"",""time""
""fullscreenenter"",""1"",""3541""
","
","","","-1","","","25","13749","5970","l","elianto","#3366ff99","-1","-1","1","0","[]","0","2","","","13749","53","1","2","win","no-go","1"
"pit-trial","172","1201445","0.0-58.0","battery-v0.2","","""event"",""trial"",""time""
""fullscreenenter"",""1"",""3541""
","
","
","""event"",""trial"",""time""
""fullscreenenter"",""1"",""3541""
","
","","","739","","","25","13749","5970","a","elianto","#f73b6a7A"," "," ","1","0","[1590.1000000014901]","1","2","","","13749","54","2","3","lose","go","0"
"pit-trial","173","1206302","0.0-59.0","battery-v0.2","","""event"",""trial"",""time""
""fullscreenenter"",""1"",""3541""
","
","
","""event"",""trial"",""time""
""fullscreenenter"",""1"",""3541""
","
","","","-1","","","25","13749","5970","g","elianto","#f73b6a7A","-1","-1","1","0","[]","0","2","","","13749","55","3","4","lose","no-go","0"
"pit-trial","174","1209772","0.0-60.0","battery-v0.2","","""event"",""trial"",""time""
""fullscreenenter"",""1"",""3541""
","
","
","""event"",""trial"",""time""
""fullscreenenter"",""1"",""3541""
","
","","","613.7000000011176","","","25","13749","5970","u","elianto","#f73b6a7A"," "," ","1","0","[1464.2000000011176]","1","2","","","13749","56","0","3","lose","go","0"
"pit-trial","175","1213142","0.0-61.0","battery-v0.2","","""event"",""trial"",""time""
""fullscreenenter"",""1"",""3541""
","
","
","""event"",""trial"",""time""
""fullscreenenter"",""1"",""3541""
","
","","","513.7999999988824","","","25","13749","5970","a","elianto","#f73b6a7A"," "," ","1","0","[1364.7999999988824]","1","2","","","13749","57","2","3","lose","go","0"
"pit-trial","176","1217180","0.0-62.0","battery-v0.2","","""event"",""trial"",""time""
""fullscreenenter"",""1"",""3541""
","
","
","""event"",""trial"",""time""
""fullscreenenter"",""1"",""3541""
","
","","","1180.7000000011176","","","25","13749","5970","p","elianto","#3366ff99"," "," ","1","+10","[2032]","1","2","","","13749","58","4","1","win","go","0"
"pit-trial","177","1222037","0.0-63.0","battery-v0.2","","""event"",""trial"",""time""
""fullscreenenter"",""1"",""3541""
","
","
","""event"",""trial"",""time""
""fullscreenenter"",""1"",""3541""
","
","","","-1","","","25","13749","5970","g","elianto","#f73b6a7A","-1","-1","1","0","[]","0","2","","","13749","59","3","4","lose","no-go","0"
"pit-trial","178","1225614","0.0-64.0","battery-v0.2","","""event"",""trial"",""time""
""fullscreenenter"",""1"",""3541""
","
","
","""event"",""trial"",""time""
""fullscreenenter"",""1"",""3541""
","
","","","720.4000000003725","","","25","13749","5970","u","elianto","#f73b6a7A"," "," ","1","-10","[1570.9000000003725]","1","2","","","13749","60","0","3","lose","go","1"
"pit-trial","179","1230469","0.0-65.0","battery-v0.2","","""event"",""trial"",""time""
""fullscreenenter"",""1"",""3541""
","
","
","""event"",""trial"",""time""
""fullscreenenter"",""1"",""3541""
","
","","","-1","","","25","13749","5970","g","elianto","#f73b6a7A","-1","-1","1","0","[]","0","2","","","13749","61","3","4","lose","no-go","0"
"pit-trial","180","1233937","0.0-66.0","battery-v0.2","","""event"",""trial"",""time""
""fullscreenenter"",""1"",""3541""
","
","
","""event"",""trial"",""time""
""fullscreenenter"",""1"",""3541""
","
","","","614.5999999996275","","","25","13749","5970","p","elianto","#3366ff99"," "," ","1","+10","[1465.4000000003725]","1","2","","","13749","62","4","1","win","go","0"
"pit-trial","181","1238792","0.0-67.0","battery-v0.2","","""event"",""trial"",""time""
""fullscreenenter"",""1"",""3541""
","
","
","""event"",""trial"",""time""
""fullscreenenter"",""1"",""3541""
","
","","","-1","","","25","13749","5970","l","elianto","#3366ff99","-1","-1","1","+10","[]","0","2","","","13749","63","1","2","win","no-go","0"
"pit-trial","182","1242266","0.0-68.0","battery-v0.2","","""event"",""trial"",""time""
""fullscreenenter"",""1"",""3541""
","
","
","""event"",""trial"",""time""
""fullscreenenter"",""1"",""3541""
","
","","","617.8000000007451","","","25","13749","5970","a","elianto","#f73b6a7A"," "," ","1","0","[1469.800000000745]","1","2","","","13749","64","2","3","lose","go","0"
"pit-trial","183","1245737","0.0-69.0","battery-v0.2","","""event"",""trial"",""time""
""fullscreenenter"",""1"",""3541""
","
","
","""event"",""trial"",""time""
""fullscreenenter"",""1"",""3541""
","
","","","614.5","","","25","13749","5970","p","elianto","#3366ff99"," "," ","1","0","[1465.7000000011176]","1","2","","","13749","65","4","1","win","go","1"
"pit-trial","184","1249560","0.0-70.0","battery-v0.2","","""event"",""trial"",""time""
""fullscreenenter"",""1"",""3541""
","
","
","""event"",""trial"",""time""
""fullscreenenter"",""1"",""3541""
","
","","","967.1999999992549","","","25","13749","5970","s","elianto","#3366ff99","-1"," ","0","0","[1817.9000000003725]","1","2","","","13749","66","5","2","win","no-go","0"
"pit-trial","185","1254417","0.0-71.0","battery-v0.2","","""event"",""trial"",""time""
""fullscreenenter"",""1"",""3541""
","
","
","""event"",""trial"",""time""
""fullscreenenter"",""1"",""3541""
","
","","","-1","","","25","13749","5970","l","elianto","#3366ff99","-1","-1","1","+10","[]","0","2","","","13749","67","1","2","win","no-go","0"
"pit-trial","186","1259273","0.0-72.0","battery-v0.2","","""event"",""trial"",""time""
""fullscreenenter"",""1"",""3541""
","
","
","""event"",""trial"",""time""
""fullscreenenter"",""1"",""3541""
","
","","","-1","","","25","13749","5970","g","elianto","#f73b6a7A","-1","-1","1","0","[]","0","2","","","13749","68","3","4","lose","no-go","0"
"pit-trial","187","1264130","0.0-73.0","battery-v0.2","","""event"",""trial"",""time""
""fullscreenenter"",""1"",""3541""
","
","
","""event"",""trial"",""time""
""fullscreenenter"",""1"",""3541""
","
","","","-1","","","25","13749","5970","l","elianto","#3366ff99","-1","-1","1","+10","[]","0","2","","","13749","69","1","2","win","no-go","0"
"pit-trial","188","1267615","0.0-74.0","battery-v0.2","","""event"",""trial"",""time""
""fullscreenenter"",""1"",""3541""
","
","
","""event"",""trial"",""time""
""fullscreenenter"",""1"",""3541""
","
","","","628.8000000007451","","","25","13749","5970","p","elianto","#3366ff99"," "," ","1","+10","[1480.5]","1","2","","","13749","70","4","1","win","go","0"
"pit-trial","189","1271320","0.0-75.0","battery-v0.2","","""event"",""trial"",""time""
""fullscreenenter"",""1"",""3541""
","
","
","""event"",""trial"",""time""
""fullscreenenter"",""1"",""3541""
","
","","","850.3999999985099","","","25","13749","5970","s","elianto","#3366ff99","-1"," ","0","+10","[1701.5]","1","2","","","13749","71","5","2","win","no-go","1"
"pit-trial","190","1274885","0.0-76.0","battery-v0.2","","""event"",""trial"",""time""
""fullscreenenter"",""1"",""3541""
","
","
","""event"",""trial"",""time""
""fullscreenenter"",""1"",""3541""
","
","","","708.8000000007451","","","25","13749","5970","a","elianto","#f73b6a7A"," "," ","1","0","[1559.5999999996275]","1","2","","","13749","72","2","3","lose","go","0"
"pit-trial","191","1278506","0.0-77.0","battery-v0.2","","""event"",""trial"",""time""
""fullscreenenter"",""1"",""3541""
","
","
","""event"",""trial"",""time""
""fullscreenenter"",""1"",""3541""
","
","","","765.7000000011176","","","25","13749","5970","s","elianto","#3366ff99","-1"," ","0","0","[1615.9000000003725]","1","2","","","13749","73","5","2","win","no-go","0"
"pit-trial","192","1283361","0.0-78.0","battery-v0.2","","""event"",""trial"",""time""
""fullscreenenter"",""1"",""3541""
","
","
","""event"",""trial"",""time""
""fullscreenenter"",""1"",""3541""
","
","","","-1","","","25","13749","5970","l","elianto","#3366ff99","-1","-1","1","+10","[]","0","2","","","13749","74","1","2","win","no-go","0"
"pit-trial","193","1287031","0.0-79.0","battery-v0.2","","""event"",""trial"",""time""
""fullscreenenter"",""1"",""3541""
","
","
","""event"",""trial"",""time""
""fullscreenenter"",""1"",""3541""
","
","","","812.5","","","25","13749","5970","p","elianto","#3366ff99"," "," ","1","+10","[1664.2999999988824]","1","2","","","13749","75","4","1","win","go","0"
"pit-trial","194","1291887","0.0-80.0","battery-v0.2","","""event"",""trial"",""time""
""fullscreenenter"",""1"",""3541""
","
","
","""event"",""trial"",""time""
""fullscreenenter"",""1"",""3541""
","
","","","-1","","","25","13749","5970","g","elianto","#f73b6a7A","-1","-1","1","0","[]","0","2","","","13749","76","3","4","lose","no-go","0"
"pit-trial","195","1295480","0.0-81.0","battery-v0.2","","""event"",""trial"",""time""
""fullscreenenter"",""1"",""3541""
","
","
","""event"",""trial"",""time""
""fullscreenenter"",""1"",""3541""
","
","","","736.5","","","25","13749","5970","p","elianto","#3366ff99"," "," ","1","+10","[1587.5]","1","2","","","13749","77","4","1","win","go","0"
"pit-trial","196","1299002","0.0-82.0","battery-v0.2","","""event"",""trial"",""time""
""fullscreenenter"",""1"",""3541""
","
","
","""event"",""trial"",""time""
""fullscreenenter"",""1"",""3541""
","
","","","665.9000000003725","","","25","13749","5970","p","elianto","#3366ff99"," "," ","1","+10","[1516.9000000003725]","1","2","","","13749","78","4","1","win","go","0"
"pit-trial","197","1303858","0.0-83.0","battery-v0.2","","""event"",""trial"",""time""
""fullscreenenter"",""1"",""3541""
","
","
","""event"",""trial"",""time""
""fullscreenenter"",""1"",""3541""
","
","","","-1","","","25","13749","5970","s","elianto","#3366ff99","-1","-1","1","+10","[]","0","2","","","13749","79","5","2","win","no-go","0"
"pit-trial","198","1308715","0.0-84.0","battery-v0.2","","""event"",""trial"",""time""
""fullscreenenter"",""1"",""3541""
","
","
","""event"",""trial"",""time""
""fullscreenenter"",""1"",""3541""
","
","","","-1","","","25","13749","5970","g","elianto","#f73b6a7A","-1","-1","1","0","[]","0","2","","","13749","80","3","4","lose","no-go","0"
"pit-trial","199","1312733","0.0-85.0","battery-v0.2","","""event"",""trial"",""time""
""fullscreenenter"",""1"",""3541""
","
","
","""event"",""trial"",""time""
""fullscreenenter"",""1"",""3541""
","
","","","1163.199999999255","","","25","13749","5970","e","elianto","#f73b6a7A","-1"," ","0","-10","[2014.2999999988824]","1","2","","","13749","81","7","4","lose","no-go","0"
"pit-trial","200","1317589","0.0-86.0","battery-v0.2","","""event"",""trial"",""time""
""fullscreenenter"",""1"",""3541""
","
","
","""event"",""trial"",""time""
""fullscreenenter"",""1"",""3541""
","
","","","-1","","","25","13749","5970","s","elianto","#3366ff99","-1","-1","1","0","[]","0","2","","","13749","82","5","2","win","no-go","1"
"pit-trial","201","1322445","0.0-87.0","battery-v0.2","","""event"",""trial"",""time""
""fullscreenenter"",""1"",""3541""
","
","
","""event"",""trial"",""time""
""fullscreenenter"",""1"",""3541""
","
","","","-1","","","25","13749","5970","g","elianto","#f73b6a7A","-1","-1","1","0","[]","0","2","","","13749","83","3","4","lose","no-go","0"
"pit-trial","202","1325929","0.0-88.0","battery-v0.2","","""event"",""trial"",""time""
""fullscreenenter"",""1"",""3541""
","
","
","""event"",""trial"",""time""
""fullscreenenter"",""1"",""3541""
","
","","","630.1999999992549","","","25","13749","5970","p","elianto","#3366ff99"," "," ","1","+10","[1481.300000000745]","1","2","","","13749","84","4","1","win","go","0"
"pit-trial","203","1329705","0.0-89.0","battery-v0.2","","""event"",""trial"",""time""
""fullscreenenter"",""1"",""3541""
","
","
","""event"",""trial"",""time""
""fullscreenenter"",""1"",""3541""
","
","","","918.7999999988824","","","25","13749","5970","w","elianto","#f73b6a7A"," "," ","1","0","[1770.2999999988824]","1","2","","","13749","85","6","3","lose","go","0"
"pit-trial","204","1333591","0.0-90.0","battery-v0.2","","""event"",""trial"",""time""
""fullscreenenter"",""1"",""3541""
","
","
","""event"",""trial"",""time""
""fullscreenenter"",""1"",""3541""
","
","","","1031.0999999996275","","","25","13749","5970","p","elianto","#3366ff99"," "," ","1","+10","[1881.800000000745]","1","2","","","13749","86","4","1","win","go","0"
"pit-trial","205","1338448","0.0-91.0","battery-v0.2","","""event"",""trial"",""time""
""fullscreenenter"",""1"",""3541""
","
","
","""event"",""trial"",""time""
""fullscreenenter"",""1"",""3541""
","
","","","-1","","","25","13749","5970","e","elianto","#f73b6a7A","-1","-1","1","0","[]","0","2","","","13749","87","7","4","lose","no-go","0"
"pit-trial","206","1343305","0.0-92.0","battery-v0.2","","""event"",""trial"",""time""
""fullscreenenter"",""1"",""3541""
","
","
","""event"",""trial"",""time""
""fullscreenenter"",""1"",""3541""
","
","","","-1","","","25","13749","5970","s","elianto","#3366ff99","-1","-1","1","+10","[]","0","2","","","13749","88","5","2","win","no-go","0"
"pit-trial","207","1348161","0.0-93.0","battery-v0.2","","""event"",""trial"",""time""
""fullscreenenter"",""1"",""3541""
","
","
","""event"",""trial"",""time""
""fullscreenenter"",""1"",""3541""
","
","","","-1","","","25","13749","5970","e","elianto","#f73b6a7A","-1","-1","1","0","[]","0","2","","","13749","89","7","4","lose","no-go","0"
"pit-trial","208","1351876","0.0-94.0","battery-v0.2","","""event"",""trial"",""time""
""fullscreenenter"",""1"",""3541""
","
","
","""event"",""trial"",""time""
""fullscreenenter"",""1"",""3541""
","
","","","858.9000000003725","","","25","13749","5970","w","elianto","#f73b6a7A"," "," ","1","-10","[1710.2000000011176]","1","2","","","13749","90","6","3","lose","go","1"
"pit-trial","209","1356733","0.0-95.0","battery-v0.2","","""event"",""trial"",""time""
""fullscreenenter"",""1"",""3541""
","
","
","""event"",""trial"",""time""
""fullscreenenter"",""1"",""3541""
","
","","","-1","","","25","13749","5970","s","elianto","#3366ff99","-1","-1","1","+10","[]","0","2","","","13749","91","5","2","win","no-go","0"
"pit-trial","210","1360192","0.0-96.0","battery-v0.2","","""event"",""trial"",""time""
""fullscreenenter"",""1"",""3541""
","
","
","""event"",""trial"",""time""
""fullscreenenter"",""1"",""3541""
","
","","","601.0999999996275","","","25","13749","5970","p","elianto","#3366ff99"," "," ","1","+10","[1452.5999999996275]","1","2","","","13749","92","4","1","win","go","0"
"pit-trial","211","1365048","0.0-97.0","battery-v0.2","","""event"",""trial"",""time""
""fullscreenenter"",""1"",""3541""
","
","
","""event"",""trial"",""time""
""fullscreenenter"",""1"",""3541""
","
","","","-1","","","25","13749","5970","e","elianto","#f73b6a7A","-1","-1","1","0","[]","0","2","","","13749","93","7","4","lose","no-go","0"
"pit-trial","212","1368702","0.0-98.0","battery-v0.2","","""event"",""trial"",""time""
""fullscreenenter"",""1"",""3541""
","
","
","""event"",""trial"",""time""
""fullscreenenter"",""1"",""3541""
","
","","","798.6999999992549","","","25","13749","5970","w","elianto","#f73b6a7A"," "," ","1","0","[1649.300000000745]","1","2","","","13749","94","6","3","lose","go","0"
"pit-trial","213","1372532","0.0-99.0","battery-v0.2","","""event"",""trial"",""time""
""fullscreenenter"",""1"",""3541""
","
","
","""event"",""trial"",""time""
""fullscreenenter"",""1"",""3541""
","
","","","974.2999999988824","","","25","13749","5970","d","elianto","#3366ff99"," "," ","1","+10","[1824.699999999255]","1","2","","","13749","95","8","1","win","go","0"
"pit-trial","214","1377389","0.0-100.0","battery-v0.2","","""event"",""trial"",""time""
""fullscreenenter"",""1"",""3541""
","
","
","""event"",""trial"",""time""
""fullscreenenter"",""1"",""3541""
","
","","","-1","","","25","13749","5970","s","elianto","#3366ff99","-1","-1","1","0","[]","0","2","","","13749","96","5","2","win","no-go","1"
"pit-trial","215","1380924","0.0-101.0","battery-v0.2","","""event"",""trial"",""time""
""fullscreenenter"",""1"",""3541""
","
","
","""event"",""trial"",""time""
""fullscreenenter"",""1"",""3541""
","
","","","678.6999999992549","","","25","13749","5970","w","elianto","#f73b6a7A"," "," ","1","0","[1530.2999999988824]","1","2","","","13749","97","6","3","lose","go","0"
"pit-trial","216","1385781","0.0-102.0","battery-v0.2","","""event"",""trial"",""time""
""fullscreenenter"",""1"",""3541""
","
","
","""event"",""trial"",""time""
""fullscreenenter"",""1"",""3541""
","
","","","-1","","","25","13749","5970","e","elianto","#f73b6a7A","-1","-1","1","-10","[]","0","2","","","13749","98","7","4","lose","no-go","1"
"pit-trial","217","1389324","0.0-103.0","battery-v0.2","","""event"",""trial"",""time""
""fullscreenenter"",""1"",""3541""
","
","
","""event"",""trial"",""time""
""fullscreenenter"",""1"",""3541""
","
","","","687.5","","","25","13749","5970","d","elianto","#3366ff99"," "," ","1","+10","[1538.5]","1","2","","","13749","99","8","1","win","go","0"
"pit-trial","218","1394180","0.0-104.0","battery-v0.2","","""event"",""trial"",""time""
""fullscreenenter"",""1"",""3541""
","
","
","""event"",""trial"",""time""
""fullscreenenter"",""1"",""3541""
","
","","","-1","","","25","13749","5970","s","elianto","#3366ff99","-1","-1","1","+10","[]","0","2","","","13749","100","5","2","win","no-go","0"
"pit-trial","219","1399036","0.0-105.0","battery-v0.2","","""event"",""trial"",""time""
""fullscreenenter"",""1"",""3541""
","
","
","""event"",""trial"",""time""
""fullscreenenter"",""1"",""3541""
","
","","","-1","","","25","13749","5970","e","elianto","#f73b6a7A","-1","-1","1","0","[]","0","2","","","13749","101","7","4","lose","no-go","0"
"pit-trial","220","1403893","0.0-106.0","battery-v0.2","","""event"",""trial"",""time""
""fullscreenenter"",""1"",""3541""
","
","
","""event"",""trial"",""time""
""fullscreenenter"",""1"",""3541""
","
","","","-1","","","25","13749","5970","s","elianto","#3366ff99","-1","-1","1","0","[]","0","2","","","13749","102","5","2","win","no-go","1"
"pit-trial","221","1407570","0.0-107.0","battery-v0.2","","""event"",""trial"",""time""
""fullscreenenter"",""1"",""3541""
","
","
","""event"",""trial"",""time""
""fullscreenenter"",""1"",""3541""
","
","","","820.6000000014901","","","25","13749","5970","j","elianto","#3366ff99"," "," ","1","+10","[1672.1000000014901]","1","2","","","13749","103","9","1","win","go","0"
"pit-trial","222","1411100","0.0-108.0","battery-v0.2","","""event"",""trial"",""time""
""fullscreenenter"",""1"",""3541""
","
","
","""event"",""trial"",""time""
""fullscreenenter"",""1"",""3541""
","
","","","674","","","25","13749","5970","d","elianto","#3366ff99"," "," ","1","+10","[1525.199999999255]","1","2","","","13749","104","8","1","win","go","0"
"pit-trial","223","1414582","0.0-109.0","battery-v0.2","","""event"",""trial"",""time""
""fullscreenenter"",""1"",""3541""
","
","
","""event"",""trial"",""time""
""fullscreenenter"",""1"",""3541""
","
","","","625.6000000014901","","","25","13749","5970","d","elianto","#3366ff99"," "," ","1","+10","[1477]","1","2","","","13749","105","8","1","win","go","0"
"pit-trial","224","1418252","0.0-110.0","battery-v0.2","","""event"",""trial"",""time""
""fullscreenenter"",""1"",""3541""
","
","
","""event"",""trial"",""time""
""fullscreenenter"",""1"",""3541""
","
","","","814.0999999996275","","","25","13749","5970","j","elianto","#3366ff99"," "," ","1","0","[1664.800000000745]","1","2","","","13749","106","9","1","win","go","1"
"pit-trial","225","1421938","0.0-111.0","battery-v0.2","","""event"",""trial"",""time""
""fullscreenenter"",""1"",""3541""
","
","
","""event"",""trial"",""time""
""fullscreenenter"",""1"",""3541""
","
","","","829.5","","","25","13749","5970","w","elianto","#f73b6a7A"," "," ","1","0","[1680.300000000745]","1","2","","","13749","107","6","3","lose","go","0"
"pit-trial","226","1425483","0.0-112.0","battery-v0.2","","""event"",""trial"",""time""
""fullscreenenter"",""1"",""3541""
","
","
","""event"",""trial"",""time""
""fullscreenenter"",""1"",""3541""
","
","","","689.5","","","25","13749","5970","p","elianto","#3366ff99"," "," ","1","0","[1541.1000000014901]","1","2","","","13749","108","4","1","win","go","1"
"pit-trial","227","1429004","0.0-113.0","battery-v0.2","","""event"",""trial"",""time""
""fullscreenenter"",""1"",""3541""
","
","
","""event"",""trial"",""time""
""fullscreenenter"",""1"",""3541""
","
","","","666.4000000003725","","","25","13749","5970","d","elianto","#3366ff99"," "," ","1","+10","[1516.3999999985099]","1","2","","","13749","109","8","1","win","go","0"
"pit-trial","228","1433859","0.0-114.0","battery-v0.2","","""event"",""trial"",""time""
""fullscreenenter"",""1"",""3541""
","
","
","""event"",""trial"",""time""
""fullscreenenter"",""1"",""3541""
","
","","","-1","","","25","13749","5970","s","elianto","#3366ff99","-1","-1","1","+10","[]","0","2","","","13749","110","5","2","win","no-go","0"
"pit-trial","229","1437447","0.0-115.0","battery-v0.2","","""event"",""trial"",""time""
""fullscreenenter"",""1"",""3541""
","
","
","""event"",""trial"",""time""
""fullscreenenter"",""1"",""3541""
","
","","","731","","","25","13749","5970","w","elianto","#f73b6a7A"," "," ","1","0","[1583]","1","2","","","13749","111","6","3","lose","go","0"
"pit-trial","230","1441061","0.0-116.0","battery-v0.2","","""event"",""trial"",""time""
""fullscreenenter"",""1"",""3541""
","
","
","""event"",""trial"",""time""
""fullscreenenter"",""1"",""3541""
","
","","","757.5999999996275","","","25","13749","5970","j","elianto","#3366ff99"," "," ","1","0","[1608.699999999255]","1","2","","","13749","112","9","1","win","go","1"
"pit-trial","231","1444865","0.0-117.0","battery-v0.2","","""event"",""trial"",""time""
""fullscreenenter"",""1"",""3541""
","
","
","""event"",""trial"",""time""
""fullscreenenter"",""1"",""3541""
","
","","","947","","","25","13749","5970","w","elianto","#f73b6a7A"," "," ","1","0","[1798.9000000003725]","1","2","","","13749","113","6","3","lose","go","0"
"pit-trial","232","1449722","0.0-118.0","battery-v0.2","","""event"",""trial"",""time""
""fullscreenenter"",""1"",""3541""
","
","
","""event"",""trial"",""time""
""fullscreenenter"",""1"",""3541""
","
","","","-1","","","25","13749","5970","s","elianto","#3366ff99","-1","-1","1","+10","[]","0","2","","","13749","114","5","2","win","no-go","0"
"pit-trial","233","1453363","0.0-119.0","battery-v0.2","","""event"",""trial"",""time""
""fullscreenenter"",""1"",""3541""
","
","
","""event"",""trial"",""time""
""fullscreenenter"",""1"",""3541""
","
","","","784.6999999992549","","","25","13749","5970","j","elianto","#3366ff99"," "," ","1","+10","[1635.5]","1","2","","","13749","115","9","1","win","go","0"
"pit-trial","234","1456915","0.0-120.0","battery-v0.2","","""event"",""trial"",""time""
""fullscreenenter"",""1"",""3541""
","
","
","""event"",""trial"",""time""
""fullscreenenter"",""1"",""3541""
","
","","","695.8000000007451","","","25","13749","5970","d","elianto","#3366ff99"," "," ","1","+10","[1547]","1","2","","","13749","116","8","1","win","go","0"
"pit-trial","235","1460576","0.0-121.0","battery-v0.2","","""event"",""trial"",""time""
""fullscreenenter"",""1"",""3541""
","
","
","""event"",""trial"",""time""
""fullscreenenter"",""1"",""3541""
","
","","","805.1999999992549","","","25","13749","5970","w","elianto","#f73b6a7A"," "," ","1","0","[1655.800000000745]","1","2","","","13749","117","6","3","lose","go","0"
"pit-trial","236","1464069","0.0-122.0","battery-v0.2","","""event"",""trial"",""time""
""fullscreenenter"",""1"",""3541""
","
","
","""event"",""trial"",""time""
""fullscreenenter"",""1"",""3541""
","
","","","636.4000000003725","","","25","13749","5970","j","elianto","#3366ff99"," "," ","1","+10","[1487.800000000745]","1","2","","","13749","118","9","1","win","go","0"
"pit-trial","237","1468926","0.0-123.0","battery-v0.2","","""event"",""trial"",""time""
""fullscreenenter"",""1"",""3541""
","
","
","""event"",""trial"",""time""
""fullscreenenter"",""1"",""3541""
","
","","","-1","","","25","13749","5970","s","elianto","#3366ff99","-1","-1","1","0","[]","0","2","","","13749","119","5","2","win","no-go","1"
"pit-trial","238","1472436","0.0-124.0","battery-v0.2","","""event"",""trial"",""time""
""fullscreenenter"",""1"",""3541""
","
","
","""event"",""trial"",""time""
""fullscreenenter"",""1"",""3541""
","
","","","653.2000000011176","","","25","13749","5970","d","elianto","#3366ff99"," "," ","1","+10","[1504.4000000003725]","1","2","","","13749","120","8","1","win","go","0"
"pit-trial","239","1476221","0.0-125.0","battery-v0.2","","""event"",""trial"",""time""
""fullscreenenter"",""1"",""3541""
","
","
","""event"",""trial"",""time""
""fullscreenenter"",""1"",""3541""
","
","","","929.4000000003725","","","25","13749","5970","w","elianto","#f73b6a7A"," "," ","1","0","[1780.2000000011176]","1","2","","","13749","121","6","3","lose","go","0"
"pit-trial","240","1481078","0.0-126.0","battery-v0.2","","""event"",""trial"",""time""
""fullscreenenter"",""1"",""3541""
","
","
","""event"",""trial"",""time""
""fullscreenenter"",""1"",""3541""
","
","","","-1","","","25","13749","5970","e","elianto","#f73b6a7A","-1","-1","1","-10","[]","0","2","","","13749","122","7","4","lose","no-go","1"
"pit-trial","241","1484643","0.0-127.0","battery-v0.2","","""event"",""trial"",""time""
""fullscreenenter"",""1"",""3541""
","
","
","""event"",""trial"",""time""
""fullscreenenter"",""1"",""3541""
","
","","","709.7999999988824","","","25","13749","5970","d","elianto","#3366ff99"," "," ","1","+10","[1561.699999999255]","1","2","","","13749","123","8","1","win","go","0"
"pit-trial","242","1488173","0.0-128.0","battery-v0.2","","""event"",""trial"",""time""
""fullscreenenter"",""1"",""3541""
","
","
","""event"",""trial"",""time""
""fullscreenenter"",""1"",""3541""
","
","","","672.4000000003725","","","25","13749","5970","j","elianto","#3366ff99"," "," ","1","+10","[1524.4000000003725]","1","2","","","13749","124","9","1","win","go","0"
"pit-trial","243","1491632","0.0-129.0","battery-v0.2","","""event"",""trial"",""time""
""fullscreenenter"",""1"",""3541""
","
","
","""event"",""trial"",""time""
""fullscreenenter"",""1"",""3541""
","
","","","603.0999999996275","","","25","13749","5970","j","elianto","#3366ff99"," "," ","1","+10","[1454.4000000003725]","1","2","","","13749","125","9","1","win","go","0"
"pit-trial","244","1495411","0.0-130.0","battery-v0.2","","""event"",""trial"",""time""
""fullscreenenter"",""1"",""3541""
","
","
","""event"",""trial"",""time""
""fullscreenenter"",""1"",""3541""
","
","","","923.8000000007451","","","25","13749","5970","w","elianto","#f73b6a7A"," "," ","1","-10","[1774.2999999988824]","1","2","","","13749","126","6","3","lose","go","1"
"pit-trial","245","1500268","0.0-131.0","battery-v0.2","","""event"",""trial"",""time""
""fullscreenenter"",""1"",""3541""
","
","
","""event"",""trial"",""time""
""fullscreenenter"",""1"",""3541""
","
","","","-1","","","25","13749","5970","e","elianto","#f73b6a7A","-1","-1","1","0","[]","0","2","","","13749","127","7","4","lose","no-go","0"
"pit-trial","246","1503924","0.0-132.0","battery-v0.2","","""event"",""trial"",""time""
""fullscreenenter"",""1"",""3541""
","
","
","""event"",""trial"",""time""
""fullscreenenter"",""1"",""3541""
","
","","","799.9000000003725","","","25","13749","5970","d","elianto","#3366ff99"," "," ","1","+10","[1650.5]","1","2","","","13749","128","8","1","win","go","0"
"pit-trial","247","1508780","0.0-133.0","battery-v0.2","","""event"",""trial"",""time""
""fullscreenenter"",""1"",""3541""
","
","
","""event"",""trial"",""time""
""fullscreenenter"",""1"",""3541""
","
","","","-1","","","25","13749","5970","e","elianto","#f73b6a7A","-1","-1","1","0","[]","0","2","","","13749","129","7","4","lose","no-go","0"
"pit-trial","248","1512283","0.0-134.0","battery-v0.2","","""event"",""trial"",""time""
""fullscreenenter"",""1"",""3541""
","
","
","""event"",""trial"",""time""
""fullscreenenter"",""1"",""3541""
","
","","","647.3999999985099","","","25","13749","5970","j","elianto","#3366ff99"," "," ","1","+10","[1498.4000000003725]","1","2","","","13749","130","9","1","win","go","0"
"pit-trial","249","1515800","0.0-135.0","battery-v0.2","","""event"",""trial"",""time""
""fullscreenenter"",""1"",""3541""
","
","
","""event"",""trial"",""time""
""fullscreenenter"",""1"",""3541""
","
","","","660.5","","","25","13749","5970","d","elianto","#3366ff99"," "," ","1","+10","[1512.199999999255]","1","2","","","13749","131","8","1","win","go","0"
"pit-trial","250","1519640","0.0-136.0","battery-v0.2","","""event"",""trial"",""time""
""fullscreenenter"",""1"",""3541""
","
","
","""event"",""trial"",""time""
""fullscreenenter"",""1"",""3541""
","
","","","985.7999999988824","","","25","13749","5970","w","elianto","#f73b6a7A"," "," ","1","0","[1836.199999999255]","1","2","","","13749","132","6","3","lose","go","0"
"pit-trial","251","1524497","0.0-137.0","battery-v0.2","","""event"",""trial"",""time""
""fullscreenenter"",""1"",""3541""
","
","
","""event"",""trial"",""time""
""fullscreenenter"",""1"",""3541""
","
","","","-1","","","25","13749","5970","e","elianto","#f73b6a7A","-1","-1","1","0","[]","0","2","","","13749","133","7","4","lose","no-go","0"
"pit-trial","252","1528045","0.0-138.0","battery-v0.2","","""event"",""trial"",""time""
""fullscreenenter"",""1"",""3541""
","
","
","""event"",""trial"",""time""
""fullscreenenter"",""1"",""3541""
","
","","","692.5","","","25","13749","5970","j","elianto","#3366ff99"," "," ","1","+10","[1543.800000000745]","1","2","","","13749","134","9","1","win","go","0"
"pit-trial","253","1531827","0.0-139.0","battery-v0.2","","""event"",""trial"",""time""
""fullscreenenter"",""1"",""3541""
","
","
","""event"",""trial"",""time""
""fullscreenenter"",""1"",""3541""
","
","","","925.8000000007451","","","25","13749","5970","w","elianto","#f73b6a7A"," "," ","1","-10","[1776.7000000011176]","1","2","","","13749","135","6","3","lose","go","1"
"pit-trial","254","1535411","0.0-140.0","battery-v0.2","","""event"",""trial"",""time""
""fullscreenenter"",""1"",""3541""
","
","
","""event"",""trial"",""time""
""fullscreenenter"",""1"",""3541""
","
","","","727.2000000011176","","","25","13749","5970","d","elianto","#3366ff99"," "," ","1","0","[1578.5999999996275]","1","2","","","13749","136","8","1","win","go","1"
"pit-trial","255","1540267","0.0-141.0","battery-v0.2","","""event"",""trial"",""time""
""fullscreenenter"",""1"",""3541""
","
","
","""event"",""trial"",""time""
""fullscreenenter"",""1"",""3541""
","
","","","-1","","","25","13749","5970","e","elianto","#f73b6a7A","-1","-1","1","0","[]","0","2","","","13749","137","7","4","lose","no-go","0"
"pit-trial","256","1543871","0.0-142.0","battery-v0.2","","""event"",""trial"",""time""
""fullscreenenter"",""1"",""3541""
","
","
","""event"",""trial"",""time""
""fullscreenenter"",""1"",""3541""
","
","","","748.4000000003725","","","25","13749","5970","d","elianto","#3366ff99"," "," ","1","+10","[1600]","1","2","","","13749","138","8","1","win","go","0"
"pit-trial","257","1547432","0.0-143.0","battery-v0.2","","""event"",""trial"",""time""
""fullscreenenter"",""1"",""3541""
","
","
","""event"",""trial"",""time""
""fullscreenenter"",""1"",""3541""
","
","","","704.8999999985099","","","25","13749","5970","w","elianto","#f73b6a7A"," "," ","1","0","[1556.199999999255]","1","2","","","13749","139","6","3","lose","go","0"
"pit-trial","258","1550971","0.0-144.0","battery-v0.2","","""event"",""trial"",""time""
""fullscreenenter"",""1"",""3541""
","
","
","""event"",""trial"",""time""
""fullscreenenter"",""1"",""3541""
","
","","","683.6999999992549","","","25","13749","5970","j","elianto","#3366ff99"," "," ","1","+10","[1534.0999999996275]","1","2","","","13749","140","9","1","win","go","0"
"pit-instructions","259","1592048","0.0-145.0","battery-v0.2","","""event"",""trial"",""time""
""fullscreenenter"",""1"",""3541""
","
","
","""event"",""trial"",""time""
""fullscreenenter"",""1"",""3541""
","
","","[{""page_index"":0,""viewing_time"":32025},{""page_index"":1,""viewing_time"":9049.700000001118}]","41075.09999999963","","","","","","","","","","","","","","","","","","","","","","","",""
"pit-trial","260","1595810","0.0-146.0","battery-v0.2","","""event"",""trial"",""time""
""fullscreenenter"",""1"",""3541""
","
","
","""event"",""trial"",""time""
""fullscreenenter"",""1"",""3541""
","
","","","903.3999999985099","","","25","13749","5970","h","elianto","#f73b6a7A"," "," ","1","0","[1754.9000000003725]","1","3","","","13749","141","3","3","lose","go","0"
"pit-trial","261","1599292","0.0-147.0","battery-v0.2","","""event"",""trial"",""time""
""fullscreenenter"",""1"",""3541""
","
","
","""event"",""trial"",""time""
""fullscreenenter"",""1"",""3541""
","
","","","626.5","","","25","13749","5970","y","elianto","#f73b6a7A","-1"," ","0","-10","[1478]","1","3","","","13749","142","2","4","lose","no-go","0"
"pit-trial","262","1602886","0.0-148.0","battery-v0.2","","""event"",""trial"",""time""
""fullscreenenter"",""1"",""3541""
","
","
","""event"",""trial"",""time""
""fullscreenenter"",""1"",""3541""
","
","","","736.2999999988824","","","25","13749","5970","m","elianto","#f73b6a7A","-1"," ","0","-10","[1587.9000000003725]","1","3","","","13749","143","0","4","lose","no-go","0"
"pit-trial","263","1606413","0.0-149.0","battery-v0.2","","""event"",""trial"",""time""
""fullscreenenter"",""1"",""3541""
","
","
","""event"",""trial"",""time""
""fullscreenenter"",""1"",""3541""
","
","","","671.8000000007451","","","25","13749","5970","r","elianto","#3366ff99"," "," ","1","+10","[1522.2999999988824]","1","3","","","13749","144","1","1","win","go","0"
"pit-trial","264","1611268","0.0-150.0","battery-v0.2","","""event"",""trial"",""time""
""fullscreenenter"",""1"",""3541""
","
","
","""event"",""trial"",""time""
""fullscreenenter"",""1"",""3541""
","
","","","-1","","","25","13749","5970","y","elianto","#f73b6a7A","-1","-1","1","0","[]","0","3","","","13749","145","2","4","lose","no-go","0"
"pit-trial","265","1614710","0.0-151.0","battery-v0.2","","""event"",""trial"",""time""
""fullscreenenter"",""1"",""3541""
","
","
","""event"",""trial"",""time""
""fullscreenenter"",""1"",""3541""
","
","","","586.1999999992549","","","25","13749","5970","r","elianto","#3366ff99"," "," ","1","0","[1436.4000000003725]","1","3","","","13749","146","1","1","win","go","1"
"pit-trial","266","1619566","0.0-152.0","battery-v0.2","","""event"",""trial"",""time""
""fullscreenenter"",""1"",""3541""
","
","
","""event"",""trial"",""time""
""fullscreenenter"",""1"",""3541""
","
