"trial_type","trial_index","time_elapsed","internal_node_id","task_version","subject_id","interactions","blur_events","focus_events","fullscreenenter_events","fullscreenexit_events","success","view_history","rt","responses","num_errors","age","subject","participantId","rune","rune_set","hex","correct","choice","accuracy","outcome","keys","total_keys","block","practice","value","sub","trial","stimulus","robot","valence","action","sham"
"pavlovia","0","14","0.0-0.0","battery-v0.2","","""event"",""trial"",""time""
""fullscreenenter"",""1"",""3363""
","
","
","""event"",""trial"",""time""
""fullscreenenter"",""1"",""3363""
","
","","","","","","","","","","","","","","","","","","","","","","","","","","",""
"fullscreen","1","4347","0.0-1.0","battery-v0.2","","""event"",""trial"",""time""
""fullscreenenter"",""1"",""3363""
""fullscreenexit"",""2"",""25176""
""blur"",""2"",""27142""
""focus"",""2"",""34705""
","""event"",""trial"",""time""
""blur"",""2"",""27142""
","""event"",""trial"",""time""
""focus"",""2"",""34705""
","""event"",""trial"",""time""
""fullscreenenter"",""1"",""3363""
","""event"",""trial"",""time""
""fullscreenexit"",""2"",""25176""
","true","","","","","","","","","","","","","","","","","","","","","","","","","",""
"pit-instructions","2","36795","0.0-2.0-0.0","battery-v0.2","","""event"",""trial"",""time""
""fullscreenenter"",""1"",""3363""
""fullscreenexit"",""2"",""25176""
""blur"",""2"",""27142""
""focus"",""2"",""34705""
","""event"",""trial"",""time""
""blur"",""2"",""27142""
","""event"",""trial"",""time""
""focus"",""2"",""34705""
","""event"",""trial"",""time""
""fullscreenenter"",""1"",""3363""
","""event"",""trial"",""time""
""fullscreenexit"",""2"",""25176""
","","[{""page_index"":0,""viewing_time"":32443.5}]","32444.30000000447","","","","","","","","","","","","","","","","","","","","","","","",""
"pit-comprehension","3","52744","0.0-2.0-1.0-0.0","battery-v0.2","","""event"",""trial"",""time""
""fullscreenenter"",""1"",""3363""
""fullscreenexit"",""2"",""25176""
""blur"",""2"",""27142""
""focus"",""2"",""34705""
","""event"",""trial"",""time""
""blur"",""2"",""27142""
","""event"",""trial"",""time""
""focus"",""2"",""34705""
","""event"",""trial"",""time""
""fullscreenenter"",""1"",""3363""
","""event"",""trial"",""time""
""fullscreenexit"",""2"",""25176""
","","","15943.29999999702","[""shark""]","0","10","13393","3669","","","","","","","","","","","","","","","","","","",""
"pit-instructions","4","60874","0.0-2.0-1.0-1.0","battery-v0.2","","""event"",""trial"",""time""
""fullscreenenter"",""1"",""3363""
""fullscreenexit"",""2"",""25176""
""blur"",""2"",""27142""
""focus"",""2"",""34705""
","""event"",""trial"",""time""
""blur"",""2"",""27142""
","""event"",""trial"",""time""
""focus"",""2"",""34705""
","""event"",""trial"",""time""
""fullscreenenter"",""1"",""3363""
","""event"",""trial"",""time""
""fullscreenexit"",""2"",""25176""
","","[{""page_index"":0,""viewing_time"":8120.80000000447}]","8121.4000000059605","","","","","","","","","","","","","","","","","","","","","","","",""
"pit-comprehension","5","69863","0.0-2.0-2.0-0.0","battery-v0.2","","""event"",""trial"",""time""
""fullscreenenter"",""1"",""3363""
""fullscreenexit"",""2"",""25176""
""blur"",""2"",""27142""
""focus"",""2"",""34705""
","""event"",""trial"",""time""
""blur"",""2"",""27142""
","""event"",""trial"",""time""
""focus"",""2"",""34705""
","""event"",""trial"",""time""
""fullscreenenter"",""1"",""3363""
","""event"",""trial"",""time""
""fullscreenexit"",""2"",""25176""
","","","8984.39999999851","[""tiger""]","0","10","13393","3669","","","","","","","","","","","","","","","","","","",""
"pit-instructions","6","74237","0.0-2.0-2.0-1.0","battery-v0.2","","""event"",""trial"",""time""
""fullscreenenter"",""1"",""3363""
""fullscreenexit"",""2"",""25176""
""blur"",""2"",""27142""
""focus"",""2"",""34705""
","""event"",""trial"",""time""
""blur"",""2"",""27142""
","""event"",""trial"",""time""
""focus"",""2"",""34705""
","""event"",""trial"",""time""
""fullscreenenter"",""1"",""3363""
","""event"",""trial"",""time""
""fullscreenexit"",""2"",""25176""
","","[{""page_index"":0,""viewing_time"":4368.29999999702}]","4368.69999999553","","","","","","","","","","","","","","","","","","","","","","","",""
"pit-instructions","7","187294","0.0-2.0-3.0","battery-v0.2","","""event"",""trial"",""time""
""fullscreenenter"",""1"",""3363""
""fullscreenexit"",""2"",""25176""
""blur"",""2"",""27142""
""focus"",""2"",""34705""
","""event"",""trial"",""time""
""blur"",""2"",""27142""
","""event"",""trial"",""time""
""focus"",""2"",""34705""
","""event"",""trial"",""time""
""fullscreenenter"",""1"",""3363""
","""event"",""trial"",""time""
""fullscreenexit"",""2"",""25176""
","","[{""page_index"":0,""viewing_time"":8825.39999999851},{""page_index"":1,""viewing_time"":7107.30000000447},{""page_index"":2,""viewing_time"":6490},{""page_index"":3,""viewing_time"":6121.19999999553},{""page_index"":4,""viewing_time"":7996.80000000447},{""page_index"":5,""viewing_time"":5672.5999999940395},{""page_index"":6,""viewing_time"":11204.70000000298},{""page_index"":7,""viewing_time"":8309.39999999851},{""page_index"":8,""viewing_time"":6446.80000000447},{""page_index"":9,""viewing_time"":9229.59999999404},{""page_index"":10,""viewing_time"":8044},{""page_index"":11,""viewing_time"":9689.10000000149},{""page_index"":12,""viewing_time"":8639.20000000298},{""page_index"":13,""viewing_time"":9277.79999999702}]","113054.60000000149","","","","","","","","","","","","","","","","","","","","","","","",""
"pit-trial","8","191301","0.0-2.0-4.0-0.0","battery-v0.2","","""event"",""trial"",""time""
""fullscreenenter"",""1"",""3363""
""fullscreenexit"",""2"",""25176""
""blur"",""2"",""27142""
""focus"",""2"",""34705""
","""event"",""trial"",""time""
""blur"",""2"",""27142""
","""event"",""trial"",""time""
""focus"",""2"",""34705""
","""event"",""trial"",""time""
""fullscreenenter"",""1"",""3363""
","""event"",""trial"",""time""
""fullscreenexit"",""2"",""25176""
","","","1144.8999999985099","","","10","13393","3669","&#9784;","elianto","#FFFFF080"," "," ","1","&#10004","[1997.2000000029802]","1","0","0","","","","","","","",""
"pit-trial","9","195577","0.0-2.0-4.1-0.1","battery-v0.2","","""event"",""trial"",""time""
""fullscreenenter"",""1"",""3363""
""fullscreenexit"",""2"",""25176""
""blur"",""2"",""27142""
""focus"",""2"",""34705""
","""event"",""trial"",""time""
""blur"",""2"",""27142""
","""event"",""trial"",""time""
""focus"",""2"",""34705""
","""event"",""trial"",""time""
""fullscreenenter"",""1"",""3363""
","""event"",""trial"",""time""
""fullscreenexit"",""2"",""25176""
","","","1413.2000000029802","","","10","13393","3669","&#9784;","elianto","#FFFFF080"," "," ","1","&#10004","[2265.2999999970198]","1","0","0","","","","","","","",""
"pit-trial","10","199626","0.0-2.0-4.2-0.2","battery-v0.2","","""event"",""trial"",""time""
""fullscreenenter"",""1"",""3363""
""fullscreenexit"",""2"",""25176""
""blur"",""2"",""27142""
""focus"",""2"",""34705""
","""event"",""trial"",""time""
""blur"",""2"",""27142""
","""event"",""trial"",""time""
""focus"",""2"",""34705""
","""event"",""trial"",""time""
""fullscreenenter"",""1"",""3363""
","""event"",""trial"",""time""
""fullscreenexit"",""2"",""25176""
","","","1191.0999999940395","","","10","13393","3669","&#9784;","elianto","#FFFFF080"," "," ","1","&#10004","[2043.5]","1","0","0","","","","","","","",""
"pit-trial","11","204020","0.0-2.0-4.3-0.3","battery-v0.2","","""event"",""trial"",""time""
""fullscreenenter"",""1"",""3363""
""fullscreenexit"",""2"",""25176""
""blur"",""2"",""27142""
""focus"",""2"",""34705""
","""event"",""trial"",""time""
""blur"",""2"",""27142""
","""event"",""trial"",""time""
""focus"",""2"",""34705""
","""event"",""trial"",""time""
""fullscreenenter"",""1"",""3363""
","""event"",""trial"",""time""
""fullscreenexit"",""2"",""25176""
","","","1533.6000000014901","","","10","13393","3669","&#9784;","elianto","#FFFFF080"," "," ","1","&#10004","[2386.10000000149]","1","0","0","","","","","","","",""
"pit-trial","12","207371","0.0-2.0-4.4-0.4","battery-v0.2","","""event"",""trial"",""time""
""fullscreenenter"",""1"",""3363""
""fullscreenexit"",""2"",""25176""
""blur"",""2"",""27142""
""focus"",""2"",""34705""
","""event"",""trial"",""time""
""blur"",""2"",""27142""
","""event"",""trial"",""time""
""focus"",""2"",""34705""
","""event"",""trial"",""time""
""fullscreenenter"",""1"",""3363""
","""event"",""trial"",""time""
""fullscreenexit"",""2"",""25176""
","","","493.70000000298023","","","10","13393","3669","&#9784;","elianto","#FFFFF080"," "," ","1","&#10004","[1344.6000000014901]","1","0","0","","","","","","","",""
"pit-instructions","13","239604","0.0-2.0-5.0","battery-v0.2","","""event"",""trial"",""time""
""fullscreenenter"",""1"",""3363""
""fullscreenexit"",""2"",""25176""
""blur"",""2"",""27142""
""focus"",""2"",""34705""
","""event"",""trial"",""time""
""blur"",""2"",""27142""
","""event"",""trial"",""time""
""focus"",""2"",""34705""
","""event"",""trial"",""time""
""fullscreenenter"",""1"",""3363""
","""event"",""trial"",""time""
""fullscreenexit"",""2"",""25176""
","","[{""page_index"":0,""viewing_time"":12104},{""page_index"":1,""viewing_time"":5628.89999999851},{""page_index"":2,""viewing_time"":7322.20000000298},{""page_index"":3,""viewing_time"":7173.19999999553}]","32228.79999999702","","","","","","","","","","","","","","","","","","","","","","","",""
"pit-trial","14","244467","0.0-2.0-6.0-0.0","battery-v0.2","","""event"",""trial"",""time""
""fullscreenenter"",""1"",""3363""
""fullscreenexit"",""2"",""25176""
""blur"",""2"",""27142""
""focus"",""2"",""34705""
","""event"",""trial"",""time""
""blur"",""2"",""27142""
","""event"",""trial"",""time""
""focus"",""2"",""34705""
","""event"",""trial"",""time""
""fullscreenenter"",""1"",""3363""
","""event"",""trial"",""time""
""fullscreenexit"",""2"",""25176""
","","","-1","","","10","13393","3669","&#9854;","elianto","#FFFFF080","-1","-1","1","&#10004","[]","0","0","1","","","","","","","",""
"pit-trial","15","249332","0.0-2.0-6.1-0.1","battery-v0.2","","""event"",""trial"",""time""
""fullscreenenter"",""1"",""3363""
""fullscreenexit"",""2"",""25176""
""blur"",""2"",""27142""
""focus"",""2"",""34705""
","""event"",""trial"",""time""
""blur"",""2"",""27142""
","""event"",""trial"",""time""
""focus"",""2"",""34705""
","""event"",""trial"",""time""
""fullscreenenter"",""1"",""3363""
","""event"",""trial"",""time""
""fullscreenexit"",""2"",""25176""
","","","-1","","","10","13393","3669","&#9854;","elianto","#FFFFF080","-1","-1","1","&#10004","[]","0","0","1","","","","","","","",""
"pit-trial","16","254193","0.0-2.0-6.2-0.2","battery-v0.2","","""event"",""trial"",""time""
""fullscreenenter"",""1"",""3363""
""fullscreenexit"",""2"",""25176""
""blur"",""2"",""27142""
""focus"",""2"",""34705""
","""event"",""trial"",""time""
""blur"",""2"",""27142""
","""event"",""trial"",""time""
""focus"",""2"",""34705""
","""event"",""trial"",""time""
""fullscreenenter"",""1"",""3363""
","""event"",""trial"",""time""
""fullscreenexit"",""2"",""25176""
","","","-1","","","10","13393","3669","&#9854;","elianto","#FFFFF080","-1","-1","1","&#10004","[]","0","0","1","","","","","","","",""
"pit-trial","17","258571","0.0-2.0-6.3-0.3","battery-v0.2","","""event"",""trial"",""time""
""fullscreenenter"",""1"",""3363""
""fullscreenexit"",""2"",""25176""
""blur"",""2"",""27142""
""focus"",""2"",""34705""
","""event"",""trial"",""time""
""blur"",""2"",""27142""
","""event"",""trial"",""time""
""focus"",""2"",""34705""
","""event"",""trial"",""time""
""fullscreenenter"",""1"",""3363""
","""event"",""trial"",""time""
""fullscreenexit"",""2"",""25176""
","","","1518.8000000044703","","","10","13393","3669","&#9854;","elianto","#FFFFF080","-1"," ","0","&#10060","[2369]","1","0","1","","","","","","","",""
"pit-trial","18","263432","0.0-2.0-6.4-0.4","battery-v0.2","","""event"",""trial"",""time""
""fullscreenenter"",""1"",""3363""
""fullscreenexit"",""2"",""25176""
""blur"",""2"",""27142""
""focus"",""2"",""34705""
","""event"",""trial"",""time""
""blur"",""2"",""27142""
","""event"",""trial"",""time""
""focus"",""2"",""34705""
","""event"",""trial"",""time""
""fullscreenenter"",""1"",""3363""
","""event"",""trial"",""time""
""fullscreenexit"",""2"",""25176""
","","","-1","","","10","13393","3669","&#9854;","elianto","#FFFFF080","-1","-1","1","&#10004","[]","0","0","1","","","","","","","",""
"pit-trial","19","268297","0.0-2.0-6.5-0.5","battery-v0.2","","""event"",""trial"",""time""
""fullscreenenter"",""1"",""3363""
""fullscreenexit"",""2"",""25176""
""blur"",""2"",""27142""
""focus"",""2"",""34705""
","""event"",""trial"",""time""
""blur"",""2"",""27142""
","""event"",""trial"",""time""
""focus"",""2"",""34705""
","""event"",""trial"",""time""
""fullscreenenter"",""1"",""3363""
","""event"",""trial"",""time""
""fullscreenexit"",""2"",""25176""
","","","-1","","","10","13393","3669","&#9854;","elianto","#FFFFF080","-1","-1","1","&#10004","[]","0","0","1","","","","","","","",""
"pit-trial","20","273160","0.0-2.0-6.6-0.6","battery-v0.2","","""event"",""trial"",""time""
""fullscreenenter"",""1"",""3363""
""fullscreenexit"",""2"",""25176""
""blur"",""2"",""27142""
""focus"",""2"",""34705""
","""event"",""trial"",""time""
""blur"",""2"",""27142""
","""event"",""trial"",""time""
""focus"",""2"",""34705""
","""event"",""trial"",""time""
""fullscreenenter"",""1"",""3363""
","""event"",""trial"",""time""
""fullscreenexit"",""2"",""25176""
","","","-1","","","10","13393","3669","&#9854;","elianto","#FFFFF080","-1","-1","1","&#10004","[]","0","0","1","","","","","","","",""
"pit-instructions","21","307916","0.0-2.0-6.6-1.6-0.6","battery-v0.2","","""event"",""trial"",""time""
""fullscreenenter"",""1"",""3363""
""fullscreenexit"",""2"",""25176""
""blur"",""2"",""27142""
""focus"",""2"",""34705""
","""event"",""trial"",""time""
""blur"",""2"",""27142""
","""event"",""trial"",""time""
""focus"",""2"",""34705""
","""event"",""trial"",""time""
""fullscreenenter"",""1"",""3363""
","""event"",""trial"",""time""
""fullscreenexit"",""2"",""25176""
","","[{""page_index"":0,""viewing_time"":24179.59999999404},{""page_index"":1,""viewing_time"":10573.30000000447}]","34753.5","","","","","","","","","","","","","","","","","","","","","","","",""
"pit-instructions","22","462146","0.0-2.0-7.0","battery-v0.2","","""event"",""trial"",""time""
""fullscreenenter"",""1"",""3363""
""fullscreenexit"",""2"",""25176""
""blur"",""2"",""27142""
""focus"",""2"",""34705""
","""event"",""trial"",""time""
""blur"",""2"",""27142""
","""event"",""trial"",""time""
""focus"",""2"",""34705""
","""event"",""trial"",""time""
""fullscreenenter"",""1"",""3363""
","""event"",""trial"",""time""
""fullscreenexit"",""2"",""25176""
","","[{""page_index"":0,""viewing_time"":11753},{""page_index"":1,""viewing_time"":16331.79999999702},{""page_index"":2,""viewing_time"":7970.10000000149},{""page_index"":3,""viewing_time"":10903.30000000447},{""page_index"":4,""viewing_time"":7770.0999999940395},{""page_index"":5,""viewing_time"":6843.20000000298},{""page_index"":6,""viewing_time"":6628.20000000298},{""page_index"":7,""viewing_time"":8163.39999999851},{""page_index"":8,""viewing_time"":6703},{""page_index"":9,""viewing_time"":5971.39999999851},{""page_index"":10,""viewing_time"":7156.10000000149},{""page_index"":11,""viewing_time"":5943.69999999553},{""page_index"":12,""viewing_time"":10510.90000000596},{""page_index"":13,""viewing_time"":9185.79999999702},{""page_index"":14,""viewing_time"":9955.10000000149},{""page_index"":15,""viewing_time"":6537.39999999851},{""page_index"":16,""viewing_time"":8264.70000000298},{""page_index"":17,""viewing_time"":7636.29999999702}]","154228.20000000298","","","","","","","","","","","","","","","","","","","","","","","",""
"pit-trial","23","465761","0.0-2.0-8.0-0.0","battery-v0.2","","""event"",""trial"",""time""
""fullscreenenter"",""1"",""3363""
""fullscreenexit"",""2"",""25176""
""blur"",""2"",""27142""
""focus"",""2"",""34705""
","""event"",""trial"",""time""
""blur"",""2"",""27142""
","""event"",""trial"",""time""
""focus"",""2"",""34705""
","""event"",""trial"",""time""
""fullscreenenter"",""1"",""3363""
","""event"",""trial"",""time""
""fullscreenexit"",""2"",""25176""
","","","752.8999999985099","","","10","13393","3669","&#9776;","elianto","#3366ff99"," "," ","1","+10","[1606.1000000014901]","1","0","1","","","","","","","",""
"pit-trial","24","469591","0.0-2.0-8.0-1.0","battery-v0.2","","""event"",""trial"",""time""
""fullscreenenter"",""1"",""3363""
""fullscreenexit"",""2"",""25176""
""blur"",""2"",""27142""
""focus"",""2"",""34705""
","""event"",""trial"",""time""
""blur"",""2"",""27142""
","""event"",""trial"",""time""
""focus"",""2"",""34705""
","""event"",""trial"",""time""
""fullscreenenter"",""1"",""3363""
","""event"",""trial"",""time""
""fullscreenexit"",""2"",""25176""
","","","972.1999999955297","","","10","13393","3669","&#9776;","elianto","#3366ff99"," "," ","1","+10","[1824.8000000044703]","1","0","1","","","","","","","",""
"pit-trial","25","473343","0.0-2.0-8.0-2.0","battery-v0.2","","""event"",""trial"",""time""
""fullscreenenter"",""1"",""3363""
""fullscreenexit"",""2"",""25176""
""blur"",""2"",""27142""
""focus"",""2"",""34705""
","""event"",""trial"",""time""
""blur"",""2"",""27142""
","""event"",""trial"",""time""
""focus"",""2"",""34705""
","""event"",""trial"",""time""
""fullscreenenter"",""1"",""3363""
","""event"",""trial"",""time""
""fullscreenexit"",""2"",""25176""
","","","891.2000000029802","","","10","13393","3669","&#9776;","elianto","#3366ff99"," "," ","1","+10","[1742.8999999985099]","1","0","1","","","","","","","",""
"pit-trial","26","476660","0.0-2.0-8.0-3.0","battery-v0.2","","""event"",""trial"",""time""
""fullscreenenter"",""1"",""3363""
""fullscreenexit"",""2"",""25176""
""blur"",""2"",""27142""
""focus"",""2"",""34705""
","""event"",""trial"",""time""
""blur"",""2"",""27142""
","""event"",""trial"",""time""
""focus"",""2"",""34705""
","""event"",""trial"",""time""
""fullscreenenter"",""1"",""3363""
","""event"",""trial"",""time""
""fullscreenexit"",""2"",""25176""
","","","455.69999999552965","","","10","13393","3669","&#9776;","elianto","#3366ff99"," "," ","1","0","[1308.4000000059605]","1","0","1","","","","","","","",""
"pit-trial","27","479932","0.0-2.0-8.0-4.0","battery-v0.2","","""event"",""trial"",""time""
""fullscreenenter"",""1"",""3363""
""fullscreenexit"",""2"",""25176""
""blur"",""2"",""27142""
""focus"",""2"",""34705""
","""event"",""trial"",""time""
""blur"",""2"",""27142""
","""event"",""trial"",""time""
""focus"",""2"",""34705""
","""event"",""trial"",""time""
""fullscreenenter"",""1"",""3363""
","""event"",""trial"",""time""
""fullscreenexit"",""2"",""25176""
","","","410.8999999985099","","","10","13393","3669","&#9776;","elianto","#3366ff99"," "," ","1","+10","[1264.3999999985099]","1","0","1","","","","","","","",""
"pit-trial","28","483368","0.0-2.0-8.1-0.1","battery-v0.2","","""event"",""trial"",""time""
""fullscreenenter"",""1"",""3363""
""fullscreenexit"",""2"",""25176""
""blur"",""2"",""27142""
""focus"",""2"",""34705""
","""event"",""trial"",""time""
""blur"",""2"",""27142""
","""event"",""trial"",""time""
""focus"",""2"",""34705""
","""event"",""trial"",""time""
""fullscreenenter"",""1"",""3363""
","""event"",""trial"",""time""
""fullscreenexit"",""2"",""25176""
","","","576.0999999940395","","","10","13393","3669","&#9776;","elianto","#3366ff99"," "," ","1","+10","[1426.8999999985099]","1","0","1","","","","","","","",""
"pit-trial","29","486859","0.0-2.0-8.1-1.1","battery-v0.2","","""event"",""trial"",""time""
""fullscreenenter"",""1"",""3363""
""fullscreenexit"",""2"",""25176""
""blur"",""2"",""27142""
""focus"",""2"",""34705""
","""event"",""trial"",""time""
""blur"",""2"",""27142""
","""event"",""trial"",""time""
""focus"",""2"",""34705""
","""event"",""trial"",""time""
""fullscreenenter"",""1"",""3363""
","""event"",""trial"",""time""
""fullscreenexit"",""2"",""25176""
","","","631.8999999985099","","","10","13393","3669","&#9776;","elianto","#3366ff99"," "," ","1","+10","[1482.5]","1","0","1","","","","","","","",""
"pit-trial","30","490448","0.0-2.0-8.1-2.1","battery-v0.2","","""event"",""trial"",""time""
""fullscreenenter"",""1"",""3363""
""fullscreenexit"",""2"",""25176""
""blur"",""2"",""27142""
""focus"",""2"",""34705""
","""event"",""trial"",""time""
""blur"",""2"",""27142""
","""event"",""trial"",""time""
""focus"",""2"",""34705""
","""event"",""trial"",""time""
""fullscreenenter"",""1"",""3363""
","""event"",""trial"",""time""
""fullscreenexit"",""2"",""25176""
","","","730.5","","","10","13393","3669","&#9776;","elianto","#3366ff99"," "," ","1","+10","[1582.5,3306.2999999970198]","2","0","1","","","","","","","",""
"pit-trial","31","493982","0.0-2.0-8.1-3.1","battery-v0.2","","""event"",""trial"",""time""
""fullscreenenter"",""1"",""3363""
""fullscreenexit"",""2"",""25176""
""blur"",""2"",""27142""
""focus"",""2"",""34705""
","""event"",""trial"",""time""
""blur"",""2"",""27142""
","""event"",""trial"",""time""
""focus"",""2"",""34705""
","""event"",""trial"",""time""
""fullscreenenter"",""1"",""3363""
","""event"",""trial"",""time""
""fullscreenexit"",""2"",""25176""
","","","675.1999999955297","","","10","13393","3669","&#9776;","elianto","#3366ff99"," "," ","1","0","[1527.1999999955297]","1","0","1","","","","","","","",""
"pit-trial","32","497577","0.0-2.0-8.1-4.1","battery-v0.2","","""event"",""trial"",""time""
""fullscreenenter"",""1"",""3363""
""fullscreenexit"",""2"",""25176""
""blur"",""2"",""27142""
""focus"",""2"",""34705""
","""event"",""trial"",""time""
""blur"",""2"",""27142""
","""event"",""trial"",""time""
""focus"",""2"",""34705""
","""event"",""trial"",""time""
""fullscreenenter"",""1"",""3363""
","""event"",""trial"",""time""
""fullscreenexit"",""2"",""25176""
","","","736.5","","","10","13393","3669","&#9776;","elianto","#3366ff99"," "," ","1","+10","[1587.7999999970198,2841.7999999970198]","2","0","1","","","","","","","",""
"pit-trial","33","501711","0.0-2.0-8.2-0.2","battery-v0.2","","""event"",""trial"",""time""
""fullscreenenter"",""1"",""3363""
""fullscreenexit"",""2"",""25176""
""blur"",""2"",""27142""
""focus"",""2"",""34705""
","""event"",""trial"",""time""
""blur"",""2"",""27142""
","""event"",""trial"",""time""
""focus"",""2"",""34705""
","""event"",""trial"",""time""
""fullscreenenter"",""1"",""3363""
","""event"",""trial"",""time""
""fullscreenexit"",""2"",""25176""
","","","1272","","","10","13393","3669","&#9776;","elianto","#3366ff99"," "," ","1","+10","[2124.5]","1","0","1","","","","","","","",""
"pit-trial","34","505176","0.0-2.0-8.2-1.2","battery-v0.2","","""event"",""trial"",""time""
""fullscreenenter"",""1"",""3363""
""fullscreenexit"",""2"",""25176""
""blur"",""2"",""27142""
""focus"",""2"",""34705""
","""event"",""trial"",""time""
""blur"",""2"",""27142""
","""event"",""trial"",""time""
""focus"",""2"",""34705""
","""event"",""trial"",""time""
""fullscreenenter"",""1"",""3363""
","""event"",""trial"",""time""
""fullscreenexit"",""2"",""25176""
","","","605.1999999955297","","","10","13393","3669","&#9776;","elianto","#3366ff99"," "," ","1","+10","[1456.2999999970198]","1","0","1","","","","","","","",""
"pit-trial","35","508586","0.0-2.0-8.2-2.2","battery-v0.2","","""event"",""trial"",""time""
""fullscreenenter"",""1"",""3363""
""fullscreenexit"",""2"",""25176""
""blur"",""2"",""27142""
""focus"",""2"",""34705""
","""event"",""trial"",""time""
""blur"",""2"",""27142""
","""event"",""trial"",""time""
""focus"",""2"",""34705""
","""event"",""trial"",""time""
""fullscreenenter"",""1"",""3363""
","""event"",""trial"",""time""
""fullscreenexit"",""2"",""25176""
","","","549.7999999970198","","","10","13393","3669","&#9776;","elianto","#3366ff99"," "," ","1","+10","[1400.1000000014901]","1","0","1","","","","","","","",""
"pit-trial","36","512160","0.0-2.0-8.2-3.2","battery-v0.2","","""event"",""trial"",""time""
""fullscreenenter"",""1"",""3363""
""fullscreenexit"",""2"",""25176""
""blur"",""2"",""27142""
""focus"",""2"",""34705""
","""event"",""trial"",""time""
""blur"",""2"",""27142""
","""event"",""trial"",""time""
""focus"",""2"",""34705""
","""event"",""trial"",""time""
""fullscreenenter"",""1"",""3363""
","""event"",""trial"",""time""
""fullscreenexit"",""2"",""25176""
","","","714.3999999985099","","","10","13393","3669","&#9776;","elianto","#3366ff99"," "," ","1","0","[1567.1000000014901]","1","0","1","","","","","","","",""
"pit-trial","37","515550","0.0-2.0-8.2-4.2","battery-v0.2","","""event"",""trial"",""time""
""fullscreenenter"",""1"",""3363""
""fullscreenexit"",""2"",""25176""
""blur"",""2"",""27142""
""focus"",""2"",""34705""
","""event"",""trial"",""time""
""blur"",""2"",""27142""
","""event"",""trial"",""time""
""focus"",""2"",""34705""
","""event"",""trial"",""time""
""fullscreenenter"",""1"",""3363""
","""event"",""trial"",""time""
""fullscreenexit"",""2"",""25176""
","","","530.0999999940395","","","10","13393","3669","&#9776;","elianto","#3366ff99"," "," ","1","+10","[1381.0999999940395]","1","0","1","","","","","","","",""
"call-function","38","515553","0.0-2.0-9.0","battery-v0.2","","""event"",""trial"",""time""
""fullscreenenter"",""1"",""3363""
""fullscreenexit"",""2"",""25176""
""blur"",""2"",""27142""
""focus"",""2"",""34705""
","""event"",""trial"",""time""
""blur"",""2"",""27142""
","""event"",""trial"",""time""
""focus"",""2"",""34705""
","""event"",""trial"",""time""
""fullscreenenter"",""1"",""3363""
","""event"",""trial"",""time""
""fullscreenexit"",""2"",""25176""
","","","","","","","","","","","","","","","","","","","","","","","","","","",""
"pit-instructions","39","562114","0.0-2.0-10.0","battery-v0.2","","""event"",""trial"",""time""
""fullscreenenter"",""1"",""3363""
""fullscreenexit"",""2"",""25176""
""blur"",""2"",""27142""
""focus"",""2"",""34705""
","""event"",""trial"",""time""
""blur"",""2"",""27142""
","""event"",""trial"",""time""
""focus"",""2"",""34705""
","""event"",""trial"",""time""
""fullscreenenter"",""1"",""3363""
","""event"",""trial"",""time""
""fullscreenexit"",""2"",""25176""
","","[{""page_index"":0,""viewing_time"":7723.4000000059605},{""page_index"":1,""viewing_time"":7802.19999999553},{""page_index"":2,""viewing_time"":10626.30000000447},{""page_index"":3,""viewing_time"":11538.09999999404},{""page_index"":4,""viewing_time"":8870.30000000447}]","46560.90000000596","","","","","","","","","","","","","","","","","","","","","","","",""
"pit-trial","40","566975","0.0-2.0-11.0-0.0","battery-v0.2","","""event"",""trial"",""time""
""fullscreenenter"",""1"",""3363""
""fullscreenexit"",""2"",""25176""
""blur"",""2"",""27142""
""focus"",""2"",""34705""
","""event"",""trial"",""time""
""blur"",""2"",""27142""
","""event"",""trial"",""time""
""focus"",""2"",""34705""
","""event"",""trial"",""time""
""fullscreenenter"",""1"",""3363""
","""event"",""trial"",""time""
""fullscreenexit"",""2"",""25176""
","","","-1","","","10","13393","3669","&#9761;","elianto","#3366ff99","-1","-1","1","+10","[]","0","0","2","","","","","","","",""
"pit-trial","41","571833","0.0-2.0-11.0-1.0","battery-v0.2","","""event"",""trial"",""time""
""fullscreenenter"",""1"",""3363""
""fullscreenexit"",""2"",""25176""
""blur"",""2"",""27142""
""focus"",""2"",""34705""
","""event"",""trial"",""time""
""blur"",""2"",""27142""
","""event"",""trial"",""time""
""focus"",""2"",""34705""
","""event"",""trial"",""time""
""fullscreenenter"",""1"",""3363""
","""event"",""trial"",""time""
""fullscreenexit"",""2"",""25176""
","","","-1","","","10","13393","3669","&#9761;","elianto","#3366ff99","-1","-1","1","+10","[]","0","0","2","","","","","","","",""
"pit-trial","42","576698","0.0-2.0-11.0-2.0","battery-v0.2","","""event"",""trial"",""time""
""fullscreenenter"",""1"",""3363""
""fullscreenexit"",""2"",""25176""
""blur"",""2"",""27142""
""focus"",""2"",""34705""
","""event"",""trial"",""time""
""blur"",""2"",""27142""
","""event"",""trial"",""time""
""focus"",""2"",""34705""
","""event"",""trial"",""time""
""fullscreenenter"",""1"",""3363""
","""event"",""trial"",""time""
""fullscreenexit"",""2"",""25176""
","","","-1","","","10","13393","3669","&#9761;","elianto","#3366ff99","-1","-1","1","+10","[]","0","0","2","","","","","","","",""
"pit-trial","43","581562","0.0-2.0-11.0-3.0","battery-v0.2","","""event"",""trial"",""time""
""fullscreenenter"",""1"",""3363""
""fullscreenexit"",""2"",""25176""
""blur"",""2"",""27142""
""focus"",""2"",""34705""
","""event"",""trial"",""time""
""blur"",""2"",""27142""
","""event"",""trial"",""time""
""focus"",""2"",""34705""
","""event"",""trial"",""time""
""fullscreenenter"",""1"",""3363""
","""event"",""trial"",""time""
""fullscreenexit"",""2"",""25176""
","","","-1","","","10","13393","3669","&#9761;","elianto","#3366ff99","-1","-1","1","0","[]","0","0","2","","","","","","","",""
"pit-trial","44","586427","0.0-2.0-11.0-4.0","battery-v0.2","","""event"",""trial"",""time""
""fullscreenenter"",""1"",""3363""
""fullscreenexit"",""2"",""25176""
""blur"",""2"",""27142""
""focus"",""2"",""34705""
","""event"",""trial"",""time""
""blur"",""2"",""27142""
","""event"",""trial"",""time""
""focus"",""2"",""34705""
","""event"",""trial"",""time""
""fullscreenenter"",""1"",""3363""
","""event"",""trial"",""time""
""fullscreenexit"",""2"",""25176""
","","","-1","","","10","13393","3669","&#9761;","elianto","#3366ff99","-1","-1","1","+10","[]","0","0","2","","","","","","","",""
"pit-trial","45","591287","0.0-2.0-11.1-0.1","battery-v0.2","","""event"",""trial"",""time""
""fullscreenenter"",""1"",""3363""
""fullscreenexit"",""2"",""25176""
""blur"",""2"",""27142""
""focus"",""2"",""34705""
","""event"",""trial"",""time""
""blur"",""2"",""27142""
","""event"",""trial"",""time""
""focus"",""2"",""34705""
","""event"",""trial"",""time""
""fullscreenenter"",""1"",""3363""
","""event"",""trial"",""time""
""fullscreenexit"",""2"",""25176""
","","","-1","","","10","13393","3669","&#9761;","elianto","#3366ff99","-1","-1","1","+10","[]","0","0","2","","","","","","","",""
"pit-trial","46","596151","0.0-2.0-11.1-1.1","battery-v0.2","","""event"",""trial"",""time""
""fullscreenenter"",""1"",""3363""
""fullscreenexit"",""2"",""25176""
""blur"",""2"",""27142""
""focus"",""2"",""34705""
","""event"",""trial"",""time""
""blur"",""2"",""27142""
","""event"",""trial"",""time""
""focus"",""2"",""34705""
","""event"",""trial"",""time""
""fullscreenenter"",""1"",""3363""
","""event"",""trial"",""time""
""fullscreenexit"",""2"",""25176""
","","","-1","","","10","13393","3669","&#9761;","elianto","#3366ff99","-1","-1","1","+10","[]","0","0","2","","","","","","","",""
"pit-trial","47","601010","0.0-2.0-11.1-2.1","battery-v0.2","","""event"",""trial"",""time""
""fullscreenenter"",""1"",""3363""
""fullscreenexit"",""2"",""25176""
""blur"",""2"",""27142""
""focus"",""2"",""34705""
","""event"",""trial"",""time""
""blur"",""2"",""27142""
","""event"",""trial"",""time""
""focus"",""2"",""34705""
","""event"",""trial"",""time""
""fullscreenenter"",""1"",""3363""
","""event"",""trial"",""time""
""fullscreenexit"",""2"",""25176""
","","","-1","","","10","13393","3669","&#9761;","elianto","#3366ff99","-1","-1","1","+10","[]","0","0","2","","","","","","","",""
"pit-trial","48","605871","0.0-2.0-11.1-3.1","battery-v0.2","","""event"",""trial"",""time""
""fullscreenenter"",""1"",""3363""
""fullscreenexit"",""2"",""25176""
""blur"",""2"",""27142""
""focus"",""2"",""34705""
","""event"",""trial"",""time""
""blur"",""2"",""27142""
","""event"",""trial"",""time""
""focus"",""2"",""34705""
","""event"",""trial"",""time""
""fullscreenenter"",""1"",""3363""
","""event"",""trial"",""time""
""fullscreenexit"",""2"",""25176""
","","","-1","","","10","13393","3669","&#9761;","elianto","#3366ff99","-1","-1","1","0","[]","0","0","2","","","","","","","",""
"pit-trial","49","610734","0.0-2.0-11.1-4.1","battery-v0.2","","""event"",""trial"",""time""
""fullscreenenter"",""1"",""3363""
""fullscreenexit"",""2"",""25176""
""blur"",""2"",""27142""
""focus"",""2"",""34705""
","""event"",""trial"",""time""
""blur"",""2"",""27142""
","""event"",""trial"",""time""
""focus"",""2"",""34705""
","""event"",""trial"",""time""
""fullscreenenter"",""1"",""3363""
","""event"",""trial"",""time""
""fullscreenexit"",""2"",""25176""
","","","-1","","","10","13393","3669","&#9761;","elianto","#3366ff99","-1","-1","1","+10","[]","0","0","2","","","","","","","",""
"pit-trial","50","615598","0.0-2.0-11.2-0.2","battery-v0.2","","""event"",""trial"",""time""
""fullscreenenter"",""1"",""3363""
""fullscreenexit"",""2"",""25176""
""blur"",""2"",""27142""
""focus"",""2"",""34705""
","""event"",""trial"",""time""
""blur"",""2"",""27142""
","""event"",""trial"",""time""
""focus"",""2"",""34705""
","""event"",""trial"",""time""
""fullscreenenter"",""1"",""3363""
","""event"",""trial"",""time""
""fullscreenexit"",""2"",""25176""
","","","-1","","","10","13393","3669","&#9761;","elianto","#3366ff99","-1","-1","1","+10","[]","0","0","2","","","","","","","",""
"pit-trial","51","620462","0.0-2.0-11.2-1.2","battery-v0.2","","""event"",""trial"",""time""
""fullscreenenter"",""1"",""3363""
""fullscreenexit"",""2"",""25176""
""blur"",""2"",""27142""
""focus"",""2"",""34705""
","""event"",""trial"",""time""
""blur"",""2"",""27142""
","""event"",""trial"",""time""
""focus"",""2"",""34705""
","""event"",""trial"",""time""
""fullscreenenter"",""1"",""3363""
","""event"",""trial"",""time""
""fullscreenexit"",""2"",""25176""
","","","-1","","","10","13393","3669","&#9761;","elianto","#3366ff99","-1","-1","1","+10","[]","0","0","2","","","","","","","",""
"pit-trial","52","625325","0.0-2.0-11.2-2.2","battery-v0.2","","""event"",""trial"",""time""
""fullscreenenter"",""1"",""3363""
""fullscreenexit"",""2"",""25176""
""blur"",""2"",""27142""
""focus"",""2"",""34705""
","""event"",""trial"",""time""
""blur"",""2"",""27142""
","""event"",""trial"",""time""
""focus"",""2"",""34705""
","""event"",""trial"",""time""
""fullscreenenter"",""1"",""3363""
","""event"",""trial"",""time""
""fullscreenexit"",""2"",""25176""
","","","-1","","","10","13393","3669","&#9761;","elianto","#3366ff99","-1","-1","1","+10","[]","0","0","2","","","","","","","",""
"pit-trial","53","630187","0.0-2.0-11.2-3.2","battery-v0.2","","""event"",""trial"",""time""
""fullscreenenter"",""1"",""3363""
""fullscreenexit"",""2"",""25176""
""blur"",""2"",""27142""
""focus"",""2"",""34705""
","""event"",""trial"",""time""
""blur"",""2"",""27142""
","""event"",""trial"",""time""
""focus"",""2"",""34705""
","""event"",""trial"",""time""
""fullscreenenter"",""1"",""3363""
","""event"",""trial"",""time""
""fullscreenexit"",""2"",""25176""
","","","-1","","","10","13393","3669","&#9761;","elianto","#3366ff99","-1","-1","1","0","[]","0","0","2","","","","","","","",""
"pit-trial","54","635050","0.0-2.0-11.2-4.2","battery-v0.2","","""event"",""trial"",""time""
""fullscreenenter"",""1"",""3363""
""fullscreenexit"",""2"",""25176""
""blur"",""2"",""27142""
""focus"",""2"",""34705""
","""event"",""trial"",""time""
""blur"",""2"",""27142""
","""event"",""trial"",""time""
""focus"",""2"",""34705""
","""event"",""trial"",""time""
""fullscreenenter"",""1"",""3363""
","""event"",""trial"",""time""
""fullscreenexit"",""2"",""25176""
","","","-1","","","10","13393","3669","&#9761;","elianto","#3366ff99","-1","-1","1","+10","[]","0","0","2","","","","","","","",""
"pit-trial","55","639915","0.0-2.0-11.3-0.3","battery-v0.2","","""event"",""trial"",""time""
""fullscreenenter"",""1"",""3363""
""fullscreenexit"",""2"",""25176""
""blur"",""2"",""27142""
""focus"",""2"",""34705""
","""event"",""trial"",""time""
""blur"",""2"",""27142""
","""event"",""trial"",""time""
""focus"",""2"",""34705""
","""event"",""trial"",""time""
""fullscreenenter"",""1"",""3363""
","""event"",""trial"",""time""
""fullscreenexit"",""2"",""25176""
","","","-1","","","10","13393","3669","&#9761;","elianto","#3366ff99","-1","-1","1","+10","[]","0","0","2","","","","","","","",""
"pit-trial","56","644779","0.0-2.0-11.3-1.3","battery-v0.2","","""event"",""trial"",""time""
""fullscreenenter"",""1"",""3363""
""fullscreenexit"",""2"",""25176""
""blur"",""2"",""27142""
""focus"",""2"",""34705""
","""event"",""trial"",""time""
""blur"",""2"",""27142""
","""event"",""trial"",""time""
""focus"",""2"",""34705""
","""event"",""trial"",""time""
""fullscreenenter"",""1"",""3363""
","""event"",""trial"",""time""
""fullscreenexit"",""2"",""25176""
","","","-1","","","10","13393","3669","&#9761;","elianto","#3366ff99","-1","-1","1","+10","[]","0","0","2","","","","","","","",""
"pit-trial","57","649642","0.0-2.0-11.3-2.3","battery-v0.2","","""event"",""trial"",""time""
""fullscreenenter"",""1"",""3363""
""fullscreenexit"",""2"",""25176""
""blur"",""2"",""27142""
""focus"",""2"",""34705""
","""event"",""trial"",""time""
""blur"",""2"",""27142""
","""event"",""trial"",""time""
""focus"",""2"",""34705""
","""event"",""trial"",""time""
""fullscreenenter"",""1"",""3363""
","""event"",""trial"",""time""
""fullscreenexit"",""2"",""25176""
","","","-1","","","10","13393","3669","&#9761;","elianto","#3366ff99","-1","-1","1","+10","[]","0","0","2","","","","","","","",""
"pit-trial","58","654506","0.0-2.0-11.3-3.3","battery-v0.2","","""event"",""trial"",""time""
""fullscreenenter"",""1"",""3363""
""fullscreenexit"",""2"",""25176""
""blur"",""2"",""27142""
""focus"",""2"",""34705""
","""event"",""trial"",""time""
""blur"",""2"",""27142""
","""event"",""trial"",""time""
""focus"",""2"",""34705""
","""event"",""trial"",""time""
""fullscreenenter"",""1"",""3363""
","""event"",""trial"",""time""
""fullscreenexit"",""2"",""25176""
","","","-1","","","10","13393","3669","&#9761;","elianto","#3366ff99","-1","-1","1","0","[]","0","0","2","","","","","","","",""
"pit-trial","59","659371","0.0-2.0-11.3-4.3","battery-v0.2","","""event"",""trial"",""time""
""fullscreenenter"",""1"",""3363""
""fullscreenexit"",""2"",""25176""
""blur"",""2"",""27142""
""focus"",""2"",""34705""
","""event"",""trial"",""time""
""blur"",""2"",""27142""
","""event"",""trial"",""time""
""focus"",""2"",""34705""
","""event"",""trial"",""time""
""fullscreenenter"",""1"",""3363""
","""event"",""trial"",""time""
""fullscreenexit"",""2"",""25176""
","","","-1","","","10","13393","3669","&#9761;","elianto","#3366ff99","-1","-1","1","+10","[]","0","0","2","","","","","","","",""
"call-function","60","659373","0.0-2.0-12.0","battery-v0.2","","""event"",""trial"",""time""
""fullscreenenter"",""1"",""3363""
""fullscreenexit"",""2"",""25176""
""blur"",""2"",""27142""
""focus"",""2"",""34705""
","""event"",""trial"",""time""
""blur"",""2"",""27142""
","""event"",""trial"",""time""
""focus"",""2"",""34705""
","""event"",""trial"",""time""
""fullscreenenter"",""1"",""3363""
","""event"",""trial"",""time""
""fullscreenexit"",""2"",""25176""
","","","","","","","","","","","","","","","","","","","","","","","","","","",""
"pit-instructions","61","700590","0.0-2.0-13.0","battery-v0.2","","""event"",""trial"",""time""
""fullscreenenter"",""1"",""3363""
""fullscreenexit"",""2"",""25176""
""blur"",""2"",""27142""
""focus"",""2"",""34705""
","""event"",""trial"",""time""
""blur"",""2"",""27142""
","""event"",""trial"",""time""
""focus"",""2"",""34705""
","""event"",""trial"",""time""
""fullscreenenter"",""1"",""3363""
","""event"",""trial"",""time""
""fullscreenexit"",""2"",""25176""
","","[{""page_index"":0,""viewing_time"":6537.5},{""page_index"":1,""viewing_time"":12454},{""page_index"":2,""viewing_time"":5266.5},{""page_index"":3,""viewing_time"":10682.10000000149},{""page_index"":4,""viewing_time"":6275.79999999702}]","41216.60000000149","","","","","","","","","","","","","","","","","","","","","","","",""
"pit-trial","62","704148","0.0-2.0-14.0-0.0","battery-v0.2","","""event"",""trial"",""time""
""fullscreenenter"",""1"",""3363""
""fullscreenexit"",""2"",""25176""
""blur"",""2"",""27142""
""focus"",""2"",""34705""
","""event"",""trial"",""time""
""blur"",""2"",""27142""
","""event"",""trial"",""time""
""focus"",""2"",""34705""
","""event"",""trial"",""time""
""fullscreenenter"",""1"",""3363""
","""event"",""trial"",""time""
""fullscreenexit"",""2"",""25176""
","","","698","","","10","13393","3669","&#9826;","elianto","#f73b6a7A","-1"," ","0","-10","[1550.1000000014901]","1","0","3","","","","","","","",""
"pit-trial","63","709007","0.0-2.0-14.0-1.0","battery-v0.2","","""event"",""trial"",""time""
""fullscreenenter"",""1"",""3363""
""fullscreenexit"",""2"",""25176""
""blur"",""2"",""27142""
""focus"",""2"",""34705""
","""event"",""trial"",""time""
""blur"",""2"",""27142""
","""event"",""trial"",""time""
""focus"",""2"",""34705""
","""event"",""trial"",""time""
""fullscreenenter"",""1"",""3363""
","""event"",""trial"",""time""
""fullscreenexit"",""2"",""25176""
","","","-1","","","10","13393","3669","&#9826;","elianto","#f73b6a7A","-1","-1","1","0","[]","0","0","3","","","","","","","",""
"pit-trial","64","713870","0.0-2.0-14.0-2.0","battery-v0.2","","""event"",""trial"",""time""
""fullscreenenter"",""1"",""3363""
""fullscreenexit"",""2"",""25176""
""blur"",""2"",""27142""
""focus"",""2"",""34705""
","""event"",""trial"",""time""
""blur"",""2"",""27142""
","""event"",""trial"",""time""
""focus"",""2"",""34705""
","""event"",""trial"",""time""
""fullscreenenter"",""1"",""3363""
","""event"",""trial"",""time""
""fullscreenexit"",""2"",""25176""
","","","-1","","","10","13393","3669","&#9826;","elianto","#f73b6a7A","-1","-1","1","0","[]","0","0","3","","","","","","","",""
"pit-trial","65","718734","0.0-2.0-14.0-3.0","battery-v0.2","","""event"",""trial"",""time""
""fullscreenenter"",""1"",""3363""
""fullscreenexit"",""2"",""25176""
""blur"",""2"",""27142""
""focus"",""2"",""34705""
","""event"",""trial"",""time""
""blur"",""2"",""27142""
","""event"",""trial"",""time""
""focus"",""2"",""34705""
","""event"",""trial"",""time""
""fullscreenenter"",""1"",""3363""
","""event"",""trial"",""time""
""fullscreenexit"",""2"",""25176""
","","","-1","","","10","13393","3669","&#9826;","elianto","#f73b6a7A","-1","-1","1","-10","[]","0","0","3","","","","","","","",""
"pit-trial","66","723597","0.0-2.0-14.0-4.0","battery-v0.2","","""event"",""trial"",""time""
""fullscreenenter"",""1"",""3363""
""fullscreenexit"",""2"",""25176""
""blur"",""2"",""27142""
""focus"",""2"",""34705""
","""event"",""trial"",""time""
""blur"",""2"",""27142""
","""event"",""trial"",""time""
""focus"",""2"",""34705""
","""event"",""trial"",""time""
""fullscreenenter"",""1"",""3363""
","""event"",""trial"",""time""
""fullscreenexit"",""2"",""25176""
","","","-1","","","10","13393","3669","&#9826;","elianto","#f73b6a7A","-1","-1","1","0","[]","0","0","3","","","","","","","",""
"pit-trial","67","728460","0.0-2.0-14.1-0.1","battery-v0.2","","""event"",""trial"",""time""
""fullscreenenter"",""1"",""3363""
""fullscreenexit"",""2"",""25176""
""blur"",""2"",""27142""
""focus"",""2"",""34705""
","""event"",""trial"",""time""
""blur"",""2"",""27142""
","""event"",""trial"",""time""
""focus"",""2"",""34705""
","""event"",""trial"",""time""
""fullscreenenter"",""1"",""3363""
","""event"",""trial"",""time""
""fullscreenexit"",""2"",""25176""
","","","-1","","","10","13393","3669","&#9826;","elianto","#f73b6a7A","-1","-1","1","0","[]","0","0","3","","","","","","","",""
"pit-trial","68","733324","0.0-2.0-14.1-1.1","battery-v0.2","","""event"",""trial"",""time""
""fullscreenenter"",""1"",""3363""
""fullscreenexit"",""2"",""25176""
""blur"",""2"",""27142""
""focus"",""2"",""34705""
","""event"",""trial"",""time""
""blur"",""2"",""27142""
","""event"",""trial"",""time""
""focus"",""2"",""34705""
","""event"",""trial"",""time""
""fullscreenenter"",""1"",""3363""
","""event"",""trial"",""time""
""fullscreenexit"",""2"",""25176""
","","","-1","","","10","13393","3669","&#9826;","elianto","#f73b6a7A","-1","-1","1","0","[]","0","0","3","","","","","","","",""
"pit-trial","69","738187","0.0-2.0-14.1-2.1","battery-v0.2","","""event"",""trial"",""time""
""fullscreenenter"",""1"",""3363""
""fullscreenexit"",""2"",""25176""
""blur"",""2"",""27142""
""focus"",""2"",""34705""
","""event"",""trial"",""time""
""blur"",""2"",""27142""
","""event"",""trial"",""time""
""focus"",""2"",""34705""
","""event"",""trial"",""time""
""fullscreenenter"",""1"",""3363""
","""event"",""trial"",""time""
""fullscreenexit"",""2"",""25176""
","","","-1","","","10","13393","3669","&#9826;","elianto","#f73b6a7A","-1","-1","1","0","[]","0","0","3","","","","","","","",""
"pit-trial","70","743049","0.0-2.0-14.1-3.1","battery-v0.2","","""event"",""trial"",""time""
""fullscreenenter"",""1"",""3363""
""fullscreenexit"",""2"",""25176""
""blur"",""2"",""27142""
""focus"",""2"",""34705""
","""event"",""trial"",""time""
""blur"",""2"",""27142""
","""event"",""trial"",""time""
""focus"",""2"",""34705""
","""event"",""trial"",""time""
""fullscreenenter"",""1"",""3363""
","""event"",""trial"",""time""
""fullscreenexit"",""2"",""25176""
","","","-1","","","10","13393","3669","&#9826;","elianto","#f73b6a7A","-1","-1","1","-10","[]","0","0","3","","","","","","","",""
"pit-trial","71","747913","0.0-2.0-14.1-4.1","battery-v0.2","","""event"",""trial"",""time""
""fullscreenenter"",""1"",""3363""
""fullscreenexit"",""2"",""25176""
""blur"",""2"",""27142""
""focus"",""2"",""34705""
","""event"",""trial"",""time""
""blur"",""2"",""27142""
","""event"",""trial"",""time""
""focus"",""2"",""34705""
","""event"",""trial"",""time""
""fullscreenenter"",""1"",""3363""
","""event"",""trial"",""time""
""fullscreenexit"",""2"",""25176""
","","","-1","","","10","13393","3669","&#9826;","elianto","#f73b6a7A","-1","-1","1","0","[]","0","0","3","","","","","","","",""
"pit-trial","72","752778","0.0-2.0-14.2-0.2","battery-v0.2","","""event"",""trial"",""time""
""fullscreenenter"",""1"",""3363""
""fullscreenexit"",""2"",""25176""
""blur"",""2"",""27142""
""focus"",""2"",""34705""
","""event"",""trial"",""time""
""blur"",""2"",""27142""
","""event"",""trial"",""time""
""focus"",""2"",""34705""
","""event"",""trial"",""time""
""fullscreenenter"",""1"",""3363""
","""event"",""trial"",""time""
""fullscreenexit"",""2"",""25176""
","","","-1","","","10","13393","3669","&#9826;","elianto","#f73b6a7A","-1","-1","1","0","[]","0","0","3","","","","","","","",""
"pit-trial","73","756184","0.0-2.0-14.2-1.2","battery-v0.2","","""event"",""trial"",""time""
""fullscreenenter"",""1"",""3363""
""fullscreenexit"",""2"",""25176""
""blur"",""2"",""27142""
""focus"",""2"",""34705""
","""event"",""trial"",""time""
""blur"",""2"",""27142""
","""event"",""trial"",""time""
""focus"",""2"",""34705""
","""event"",""trial"",""time""
""fullscreenenter"",""1"",""3363""
","""event"",""trial"",""time""
""fullscreenexit"",""2"",""25176""
","","","545","","","10","13393","3669","&#9826;","elianto","#f73b6a7A","-1"," ","0","-10","[1397.6000000014901]","1","0","3","","","","","","","",""
"pit-trial","74","761045","0.0-2.0-14.2-2.2","battery-v0.2","","""event"",""trial"",""time""
""fullscreenenter"",""1"",""3363""
""fullscreenexit"",""2"",""25176""
""blur"",""2"",""27142""
""focus"",""2"",""34705""
","""event"",""trial"",""time""
""blur"",""2"",""27142""
","""event"",""trial"",""time""
""focus"",""2"",""34705""
","""event"",""trial"",""time""
""fullscreenenter"",""1"",""3363""
","""event"",""trial"",""time""
""fullscreenexit"",""2"",""25176""
","","","-1","","","10","13393","3669","&#9826;","elianto","#f73b6a7A","-1","-1","1","0","[]","0","0","3","","","","","","","",""
"pit-trial","75","765906","0.0-2.0-14.2-3.2","battery-v0.2","","""event"",""trial"",""time""
""fullscreenenter"",""1"",""3363""
""fullscreenexit"",""2"",""25176""
""blur"",""2"",""27142""
""focus"",""2"",""34705""
","""event"",""trial"",""time""
""blur"",""2"",""27142""
","""event"",""trial"",""time""
""focus"",""2"",""34705""
","""event"",""trial"",""time""
""fullscreenenter"",""1"",""3363""
","""event"",""trial"",""time""
""fullscreenexit"",""2"",""25176""
","","","-1","","","10","13393","3669","&#9826;","elianto","#f73b6a7A","-1","-1","1","-10","[]","0","0","3","","","","","","","",""
"pit-trial","76","770765","0.0-2.0-14.2-4.2","battery-v0.2","","""event"",""trial"",""time""
""fullscreenenter"",""1"",""3363""
""fullscreenexit"",""2"",""25176""
""blur"",""2"",""27142""
""focus"",""2"",""34705""
","""event"",""trial"",""time""
""blur"",""2"",""27142""
","""event"",""trial"",""time""
""focus"",""2"",""34705""
","""event"",""trial"",""time""
""fullscreenenter"",""1"",""3363""
","""event"",""trial"",""time""
""fullscreenexit"",""2"",""25176""
","","","-1","","","10","13393","3669","&#9826;","elianto","#f73b6a7A","-1","-1","1","0","[]","0","0","3","","","","","","","",""
"pit-trial","77","775629","0.0-2.0-14.3-0.3","battery-v0.2","","""event"",""trial"",""time""
""fullscreenenter"",""1"",""3363""
""fullscreenexit"",""2"",""25176""
""blur"",""2"",""27142""
""focus"",""2"",""34705""
","""event"",""trial"",""time""
""blur"",""2"",""27142""
","""event"",""trial"",""time""
""focus"",""2"",""34705""
","""event"",""trial"",""time""
""fullscreenenter"",""1"",""3363""
","""event"",""trial"",""time""
""fullscreenexit"",""2"",""25176""
","","","-1","","","10","13393","3669","&#9826;","elianto","#f73b6a7A","-1","-1","1","0","[]","0","0","3","","","","","","","",""
"pit-trial","78","780493","0.0-2.0-14.3-1.3","battery-v0.2","","""event"",""trial"",""time""
""fullscreenenter"",""1"",""3363""
""fullscreenexit"",""2"",""25176""
""blur"",""2"",""27142""
""focus"",""2"",""34705""
","""event"",""trial"",""time""
""blur"",""2"",""27142""
","""event"",""trial"",""time""
""focus"",""2"",""34705""
","""event"",""trial"",""time""
""fullscreenenter"",""1"",""3363""
","""event"",""trial"",""time""
""fullscreenexit"",""2"",""25176""
","","","-1","","","10","13393","3669","&#9826;","elianto","#f73b6a7A","-1","-1","1","0","[]","0","0","3","","","","","","","",""
"pit-trial","79","785357","0.0-2.0-14.3-2.3","battery-v0.2","","""event"",""trial"",""time""
""fullscreenenter"",""1"",""3363""
""fullscreenexit"",""2"",""25176""
""blur"",""2"",""27142""
""focus"",""2"",""34705""
","""event"",""trial"",""time""
""blur"",""2"",""27142""
","""event"",""trial"",""time""
""focus"",""2"",""34705""
","""event"",""trial"",""time""
""fullscreenenter"",""1"",""3363""
","""event"",""trial"",""time""
""fullscreenexit"",""2"",""25176""
","","","-1","","","10","13393","3669","&#9826;","elianto","#f73b6a7A","-1","-1","1","0","[]","0","0","3","","","","","","","",""
"pit-trial","80","790221","0.0-2.0-14.3-3.3","battery-v0.2","","""event"",""trial"",""time""
""fullscreenenter"",""1"",""3363""
""fullscreenexit"",""2"",""25176""
""blur"",""2"",""27142""
""focus"",""2"",""34705""
","""event"",""trial"",""time""
""blur"",""2"",""27142""
","""event"",""trial"",""time""
""focus"",""2"",""34705""
","""event"",""trial"",""time""
""fullscreenenter"",""1"",""3363""
","""event"",""trial"",""time""
""fullscreenexit"",""2"",""25176""
","","","-1","","","10","13393","3669","&#9826;","elianto","#f73b6a7A","-1","-1","1","-10","[]","0","0","3","","","","","","","",""
"pit-trial","81","795085","0.0-2.0-14.3-4.3","battery-v0.2","","""event"",""trial"",""time""
""fullscreenenter"",""1"",""3363""
""fullscreenexit"",""2"",""25176""
""blur"",""2"",""27142""
""focus"",""2"",""34705""
","""event"",""trial"",""time""
""blur"",""2"",""27142""
","""event"",""trial"",""time""
""focus"",""2"",""34705""
","""event"",""trial"",""time""
""fullscreenenter"",""1"",""3363""
","""event"",""trial"",""time""
""fullscreenexit"",""2"",""25176""
","","","-1","","","10","13393","3669","&#9826;","elianto","#f73b6a7A","-1","-1","1","0","[]","0","0","3","","","","","","","",""
"call-function","82","795088","0.0-2.0-15.0","battery-v0.2","","""event"",""trial"",""time""
""fullscreenenter"",""1"",""3363""
""fullscreenexit"",""2"",""25176""
""blur"",""2"",""27142""
""focus"",""2"",""34705""
","""event"",""trial"",""time""
""blur"",""2"",""27142""
","""event"",""trial"",""time""
""focus"",""2"",""34705""
","""event"",""trial"",""time""
""fullscreenenter"",""1"",""3363""
","""event"",""trial"",""time""
""fullscreenexit"",""2"",""25176""
","","","","","","","","","","","","","","","","","","","","","","","","","","",""
"pit-instructions","83","867638","0.0-2.0-16.0","battery-v0.2","","""event"",""trial"",""time""
""fullscreenenter"",""1"",""3363""
""fullscreenexit"",""2"",""25176""
""blur"",""2"",""27142""
""focus"",""2"",""34705""
","""event"",""trial"",""time""
""blur"",""2"",""27142""
","""event"",""trial"",""time""
""focus"",""2"",""34705""
","""event"",""trial"",""time""
""fullscreenenter"",""1"",""3363""
","""event"",""trial"",""time""
""fullscreenexit"",""2"",""25176""
","","[{""page_index"":0,""viewing_time"":47229.89999999851},{""page_index"":1,""viewing_time"":9135.20000000298},{""page_index"":2,""viewing_time"":8934.39999999851},{""page_index"":3,""viewing_time"":7250.5}]","72550.69999999553","","","","","","","","","","","","","","","","","","","","","","","",""
"pit-trial","84","870958","0.0-2.0-17.0-0.0","battery-v0.2","","""event"",""trial"",""time""
""fullscreenenter"",""1"",""3363""
""fullscreenexit"",""2"",""25176""
""blur"",""2"",""27142""
""focus"",""2"",""34705""
","""event"",""trial"",""time""
""blur"",""2"",""27142""
","""event"",""trial"",""time""
""focus"",""2"",""34705""
","""event"",""trial"",""time""
""fullscreenenter"",""1"",""3363""
","""event"",""trial"",""time""
""fullscreenexit"",""2"",""25176""
","","","459.5","","","10","13393","3669","&#9789;","elianto","#f73b6a7A"," "," ","1","0","[1310.7999999970198]","1","0","4","","","","","","","",""
"pit-trial","85","874343","0.0-2.0-17.0-1.0","battery-v0.2","","""event"",""trial"",""time""
""fullscreenenter"",""1"",""3363""
""fullscreenexit"",""2"",""25176""
""blur"",""2"",""27142""
""focus"",""2"",""34705""
","""event"",""trial"",""time""
""blur"",""2"",""27142""
","""event"",""trial"",""time""
""focus"",""2"",""34705""
","""event"",""trial"",""time""
""fullscreenenter"",""1"",""3363""
","""event"",""trial"",""time""
""fullscreenexit"",""2"",""25176""
","","","526.1999999955297","","","10","13393","3669","&#9789;","elianto","#f73b6a7A"," "," ","1","0","[312.70000000298023,1377]","2","0","4","","","","","","","",""
"pit-trial","86","877769","0.0-2.0-17.0-2.0","battery-v0.2","","""event"",""trial"",""time""
""fullscreenenter"",""1"",""3363""
""fullscreenexit"",""2"",""25176""
""blur"",""2"",""27142""
""focus"",""2"",""34705""
","""event"",""trial"",""time""
""blur"",""2"",""27142""
","""event"",""trial"",""time""
""focus"",""2"",""34705""
","""event"",""trial"",""time""
""fullscreenenter"",""1"",""3363""
","""event"",""trial"",""time""
""fullscreenexit"",""2"",""25176""
","","","565.6999999955297","","","10","13393","3669","&#9789;","elianto","#f73b6a7A"," "," ","1","0","[1417.3999999985099]","1","0","4","","","","","","","",""
"pit-trial","87","881228","0.0-2.0-17.0-3.0","battery-v0.2","","""event"",""trial"",""time""
""fullscreenenter"",""1"",""3363""
""fullscreenexit"",""2"",""25176""
""blur"",""2"",""27142""
""focus"",""2"",""34705""
","""event"",""trial"",""time""
""blur"",""2"",""27142""
","""event"",""trial"",""time""
""focus"",""2"",""34705""
","""event"",""trial"",""time""
""fullscreenenter"",""1"",""3363""
","""event"",""trial"",""time""
""fullscreenexit"",""2"",""25176""
","","","599","","","10","13393","3669","&#9789;","elianto","#f73b6a7A"," "," ","1","-10","[1450.8999999985099]","1","0","4","","","","","","","",""
"pit-trial","88","885239","0.0-2.0-17.0-4.0","battery-v0.2","","""event"",""trial"",""time""
""fullscreenenter"",""1"",""3363""
""fullscreenexit"",""2"",""25176""
""blur"",""2"",""27142""
""focus"",""2"",""34705""
","""event"",""trial"",""time""
""blur"",""2"",""27142""
","""event"",""trial"",""time""
""focus"",""2"",""34705""
","""event"",""trial"",""time""
""fullscreenenter"",""1"",""3363""
","""event"",""trial"",""time""
""fullscreenexit"",""2"",""25176""
","","","1149.7000000029802","","","10","13393","3669","&#9789;","elianto","#f73b6a7A"," "," ","1","0","[2002.2000000029802]","1","0","4","","","","","","","",""
"pit-trial","89","888646","0.0-2.0-17.1-0.1","battery-v0.2","","""event"",""trial"",""time""
""fullscreenenter"",""1"",""3363""
""fullscreenexit"",""2"",""25176""
""blur"",""2"",""27142""
""focus"",""2"",""34705""
","""event"",""trial"",""time""
""blur"",""2"",""27142""
","""event"",""trial"",""time""
""focus"",""2"",""34705""
","""event"",""trial"",""time""
""fullscreenenter"",""1"",""3363""
","""event"",""trial"",""time""
""fullscreenexit"",""2"",""25176""
","","","547.1000000014901","","","10","13393","3669","&#9789;","elianto","#f73b6a7A"," "," ","1","0","[1398]","1","0","4","","","","","","","",""
"pit-trial","90","891978","0.0-2.0-17.1-1.1","battery-v0.2","","""event"",""trial"",""time""
""fullscreenenter"",""1"",""3363""
""fullscreenexit"",""2"",""25176""
""blur"",""2"",""27142""
""focus"",""2"",""34705""
","""event"",""trial"",""time""
""blur"",""2"",""27142""
","""event"",""trial"",""time""
""focus"",""2"",""34705""
","""event"",""trial"",""time""
""fullscreenenter"",""1"",""3363""
","""event"",""trial"",""time""
""fullscreenexit"",""2"",""25176""
","","","472.6000000014901","","","10","13393","3669","&#9789;","elianto","#f73b6a7A"," "," ","1","0","[1324.5]","1","0","4","","","","","","","",""
"pit-trial","91","895754","0.0-2.0-17.1-2.1","battery-v0.2","","""event"",""trial"",""time""
""fullscreenenter"",""1"",""3363""
""fullscreenexit"",""2"",""25176""
""blur"",""2"",""27142""
""focus"",""2"",""34705""
","""event"",""trial"",""time""
""blur"",""2"",""27142""
","""event"",""trial"",""time""
""focus"",""2"",""34705""
","""event"",""trial"",""time""
""fullscreenenter"",""1"",""3363""
","""event"",""trial"",""time""
""fullscreenexit"",""2"",""25176""
","","","917.3999999985099","","","10","13393","3669","&#9789;","elianto","#f73b6a7A"," "," ","1","0","[1769.8000000044703]","1","0","4","","","","","","","",""
"pit-trial","92","899490","0.0-2.0-17.1-3.1","battery-v0.2","","""event"",""trial"",""time""
""fullscreenenter"",""1"",""3363""
""fullscreenexit"",""2"",""25176""
""blur"",""2"",""27142""
""focus"",""2"",""34705""
","""event"",""trial"",""time""
""blur"",""2"",""27142""
","""event"",""trial"",""time""
""focus"",""2"",""34705""
","""event"",""trial"",""time""
""fullscreenenter"",""1"",""3363""
","""event"",""trial"",""time""
""fullscreenexit"",""2"",""25176""
","","","876.8999999985099","","","10","13393","3669","&#9789;","elianto","#f73b6a7A"," "," ","1","-10","[1727.3999999985099]","1","0","4","","","","","","","",""
"pit-trial","93","903186","0.0-2.0-17.1-4.1","battery-v0.2","","""event"",""trial"",""time""
""fullscreenenter"",""1"",""3363""
""fullscreenexit"",""2"",""25176""
""blur"",""2"",""27142""
""focus"",""2"",""34705""
","""event"",""trial"",""time""
""blur"",""2"",""27142""
","""event"",""trial"",""time""
""focus"",""2"",""34705""
","""event"",""trial"",""time""
""fullscreenenter"",""1"",""3363""
","""event"",""trial"",""time""
""fullscreenexit"",""2"",""25176""
","","","842.3999999985099","","","10","13393","3669","&#9789;","elianto","#f73b6a7A"," "," ","1","0","[1692.8999999985099]","1","0","4","","","","","","","",""
"pit-trial","94","907112","0.0-2.0-17.2-0.2","battery-v0.2","","""event"",""trial"",""time""
""fullscreenenter"",""1"",""3363""
""fullscreenexit"",""2"",""25176""
""blur"",""2"",""27142""
""focus"",""2"",""34705""
","""event"",""trial"",""time""
""blur"",""2"",""27142""
","""event"",""trial"",""time""
""focus"",""2"",""34705""
","""event"",""trial"",""time""
""fullscreenenter"",""1"",""3363""
","""event"",""trial"",""time""
""fullscreenexit"",""2"",""25176""
","","","1066.5","","","10","13393","3669","&#9789;","elianto","#f73b6a7A"," "," ","1","0","[1916.5999999940395]","1","0","4","","","","","","","",""
"pit-trial","95","910935","0.0-2.0-17.2-1.2","battery-v0.2","","""event"",""trial"",""time""
""fullscreenenter"",""1"",""3363""
""fullscreenexit"",""2"",""25176""
""blur"",""2"",""27142""
""focus"",""2"",""34705""
","""event"",""trial"",""time""
""blur"",""2"",""27142""
","""event"",""trial"",""time""
""focus"",""2"",""34705""
","""event"",""trial"",""time""
""fullscreenenter"",""1"",""3363""
","""event"",""trial"",""time""
""fullscreenexit"",""2"",""25176""
","","","966.2000000029802","","","10","13393","3669","&#9789;","elianto","#f73b6a7A"," "," ","1","0","[1817]","1","0","4","","","","","","","",""
"pit-trial","96","915233","0.0-2.0-17.2-2.2","battery-v0.2","","""event"",""trial"",""time""
""fullscreenenter"",""1"",""3363""
""fullscreenexit"",""2"",""25176""
""blur"",""2"",""27142""
""focus"",""2"",""34705""
","""event"",""trial"",""time""
""blur"",""2"",""27142""
","""event"",""trial"",""time""
""focus"",""2"",""34705""
","""event"",""trial"",""time""
""fullscreenenter"",""1"",""3363""
","""event"",""trial"",""time""
""fullscreenexit"",""2"",""25176""
","","","1437","","","10","13393","3669","&#9789;","elianto","#f73b6a7A"," "," ","1","0","[637.6000000014901,2289]","2","0","4","","","","","","","",""
"pit-trial","97","919453","0.0-2.0-17.2-3.2","battery-v0.2","","""event"",""trial"",""time""
""fullscreenenter"",""1"",""3363""
""fullscreenexit"",""2"",""25176""
""blur"",""2"",""27142""
""focus"",""2"",""34705""
","""event"",""trial"",""time""
""blur"",""2"",""27142""
","""event"",""trial"",""time""
""focus"",""2"",""34705""
","""event"",""trial"",""time""
""fullscreenenter"",""1"",""3363""
","""event"",""trial"",""time""
""fullscreenexit"",""2"",""25176""
","","","1360.1999999955297","","","10","13393","3669","&#9789;","elianto","#f73b6a7A"," "," ","1","-10","[2212]","1","0","4","","","","","","","",""
"pit-trial","98","922887","0.0-2.0-17.2-4.2","battery-v0.2","","""event"",""trial"",""time""
""fullscreenenter"",""1"",""3363""
""fullscreenexit"",""2"",""25176""
""blur"",""2"",""27142""
""focus"",""2"",""34705""
","""event"",""trial"",""time""
""blur"",""2"",""27142""
","""event"",""trial"",""time""
""focus"",""2"",""34705""
","""event"",""trial"",""time""
""fullscreenenter"",""1"",""3363""
","""event"",""trial"",""time""
""fullscreenexit"",""2"",""25176""
","","","574","","","10","13393","3669","&#9789;","elianto","#f73b6a7A"," "," ","1","0","[1426]","1","0","4","","","","","","","",""
"pit-trial","99","926295","0.0-2.0-17.3-0.3","battery-v0.2","","""event"",""trial"",""time""
""fullscreenenter"",""1"",""3363""
""fullscreenexit"",""2"",""25176""
""blur"",""2"",""27142""
""focus"",""2"",""34705""
","""event"",""trial"",""time""
""blur"",""2"",""27142""
","""event"",""trial"",""time""
""focus"",""2"",""34705""
","""event"",""trial"",""time""
""fullscreenenter"",""1"",""3363""
","""event"",""trial"",""time""
""fullscreenexit"",""2"",""25176""
","","","549.2999999970198","","","10","13393","3669","&#9789;","elianto","#f73b6a7A"," "," ","1","0","[1400.5999999940395]","1","0","4","","","","","","","",""
"pit-trial","100","930434","0.0-2.0-17.3-1.3","battery-v0.2","","""event"",""trial"",""time""
""fullscreenenter"",""1"",""3363""
""fullscreenexit"",""2"",""25176""
""blur"",""2"",""27142""
""focus"",""2"",""34705""
","""event"",""trial"",""time""
""blur"",""2"",""27142""
","""event"",""trial"",""time""
""focus"",""2"",""34705""
","""event"",""trial"",""time""
""fullscreenenter"",""1"",""3363""
","""event"",""trial"",""time""
""fullscreenexit"",""2"",""25176""
","","","1283.7999999970198","","","10","13393","3669","&#9789;","elianto","#f73b6a7A"," "," ","1","0","[2135.60000000149,3588.60000000149]","2","0","4","","","","","","","",""
"pit-trial","101","935294","0.0-2.0-17.3-2.3","battery-v0.2","","""event"",""trial"",""time""
""fullscreenenter"",""1"",""3363""
""fullscreenexit"",""2"",""25176""
""blur"",""2"",""27142""
""focus"",""2"",""34705""
","""event"",""trial"",""time""
""blur"",""2"",""27142""
","""event"",""trial"",""time""
""focus"",""2"",""34705""
","""event"",""trial"",""time""
""fullscreenenter"",""1"",""3363""
","""event"",""trial"",""time""
""fullscreenexit"",""2"",""25176""
","","","-1","","","10","13393","3669","&#9789;","elianto","#f73b6a7A"," ","-1","0","-10","[3217,4595.79999999702]","2","0","4","","","","","","","",""
"pit-trial","102","938621","0.0-2.0-17.3-3.3","battery-v0.2","","""event"",""trial"",""time""
""fullscreenenter"",""1"",""3363""
""fullscreenexit"",""2"",""25176""
""blur"",""2"",""27142""
""focus"",""2"",""34705""
","""event"",""trial"",""time""
""blur"",""2"",""27142""
","""event"",""trial"",""time""
""focus"",""2"",""34705""
","""event"",""trial"",""time""
""fullscreenenter"",""1"",""3363""
","""event"",""trial"",""time""
""fullscreenexit"",""2"",""25176""
","","","467.59999999403954","","","10","13393","3669","&#9789;","elianto","#f73b6a7A"," "," ","1","-10","[1319.2999999970198,2277.2999999970198]","2","0","4","","","","","","","",""
"pit-trial","103","941827","0.0-2.0-17.3-4.3","battery-v0.2","","""event"",""trial"",""time""
""fullscreenenter"",""1"",""3363""
""fullscreenexit"",""2"",""25176""
""blur"",""2"",""27142""
""focus"",""2"",""34705""
","""event"",""trial"",""time""
""blur"",""2"",""27142""
","""event"",""trial"",""time""
""focus"",""2"",""34705""
","""event"",""trial"",""time""
""fullscreenenter"",""1"",""3363""
","""event"",""trial"",""time""
""fullscreenexit"",""2"",""25176""
","","","347","","","10","13393","3669","&#9789;","elianto","#f73b6a7A"," "," ","1","0","[1197]","1","0","4","","","","","","","",""
"call-function","104","941829","0.0-2.0-18.0","battery-v0.2","","""event"",""trial"",""time""
""fullscreenenter"",""1"",""3363""
""fullscreenexit"",""2"",""25176""
""blur"",""2"",""27142""
""focus"",""2"",""34705""
","""event"",""trial"",""time""
""blur"",""2"",""27142""
","""event"",""trial"",""time""
""focus"",""2"",""34705""
","""event"",""trial"",""time""
""fullscreenenter"",""1"",""3363""
","""event"",""trial"",""time""
""fullscreenexit"",""2"",""25176""
","","","","","","","","","","","","","","","","","","","","","","","","","","",""
"pit-instructions","105","1029838","0.0-2.0-19.0","battery-v0.2","","""event"",""trial"",""time""
""fullscreenenter"",""1"",""3363""
""fullscreenexit"",""2"",""25176""
""blur"",""2"",""27142""
""focus"",""2"",""34705""
","""event"",""trial"",""time""
""blur"",""2"",""27142""
","""event"",""trial"",""time""
""focus"",""2"",""34705""
","""event"",""trial"",""time""
""fullscreenenter"",""1"",""3363""
","""event"",""trial"",""time""
""fullscreenexit"",""2"",""25176""
","","[{""page_index"":0,""viewing_time"":15616.70000000298},{""page_index"":1,""viewing_time"":8611.29999999702},{""page_index"":2,""viewing_time"":17991.39999999851},{""page_index"":3,""viewing_time"":7773.70000000298},{""page_index"":4,""viewing_time"":10477},{""page_index"":5,""viewing_time"":8108.10000000149},{""page_index"":6,""viewing_time"":7697.10000000149},{""page_index"":7,""viewing_time"":8491.89999999851},{""page_index"":8,""viewing_time"":3240.6999999955297}]","88008.39999999851","","","","","","","","","","","","","","","","","","","","","","","",""
"pit-comprehension","106","1040458","0.0-2.0-20.0-0.0","battery-v0.2","","""event"",""trial"",""time""
""fullscreenenter"",""1"",""3363""
""fullscreenexit"",""2"",""25176""
""blur"",""2"",""27142""
""focus"",""2"",""34705""
","""event"",""trial"",""time""
""blur"",""2"",""27142""
","""event"",""trial"",""time""
""focus"",""2"",""34705""
","""event"",""trial"",""time""
""fullscreenenter"",""1"",""3363""
","""event"",""trial"",""time""
""fullscreenexit"",""2"",""25176""
","","","10615.20000000298","[""SPACE""]","0","10","13393","3669","","","","","","","","","","","","","","","","","","",""
"pit-instructions","107","1045872","0.0-2.0-20.0-1.0","battery-v0.2","","""event"",""trial"",""time""
""fullscreenenter"",""1"",""3363""
""fullscreenexit"",""2"",""25176""
""blur"",""2"",""27142""
""focus"",""2"",""34705""
","""event"",""trial"",""time""
""blur"",""2"",""27142""
","""event"",""trial"",""time""
""focus"",""2"",""34705""
","""event"",""trial"",""time""
""fullscreenenter"",""1"",""3363""
","""event"",""trial"",""time""
""fullscreenexit"",""2"",""25176""
","","[{""page_index"":0,""viewing_time"":5377.89999999851}]","5378.5","","","","","","","","","","","","","","","","","","","","","","","",""
"pit-comprehension","108","1059563","0.0-2.0-21.0-0.0","battery-v0.2","","""event"",""trial"",""time""
""fullscreenenter"",""1"",""3363""
""fullscreenexit"",""2"",""25176""
""blur"",""2"",""27142""
""focus"",""2"",""34705""
","""event"",""trial"",""time""
""blur"",""2"",""27142""
","""event"",""trial"",""time""
""focus"",""2"",""34705""
","""event"",""trial"",""time""
""fullscreenenter"",""1"",""3363""
","""event"",""trial"",""time""
""fullscreenexit"",""2"",""25176""
","","","13686.5","[""10""]","0","10","13393","3669","","","","","","","","","","","","","","","","","","",""
"pit-instructions","109","1065252","0.0-2.0-21.0-1.0","battery-v0.2","","""event"",""trial"",""time""
""fullscreenenter"",""1"",""3363""
""fullscreenexit"",""2"",""25176""
""blur"",""2"",""27142""
""focus"",""2"",""34705""
","""event"",""trial"",""time""
""blur"",""2"",""27142""
","""event"",""trial"",""time""
""focus"",""2"",""34705""
","""event"",""trial"",""time""
""fullscreenenter"",""1"",""3363""
","""event"",""trial"",""time""
""fullscreenexit"",""2"",""25176""
","","[{""page_index"":0,""viewing_time"":5654}]","5654.60000000149","","","","","","","","","","","","","","","","","","","","","","","",""
"pit-comprehension","110","1079282","0.0-2.0-22.0-0.0","battery-v0.2","","""event"",""trial"",""time""
""fullscreenenter"",""1"",""3363""
""fullscreenexit"",""2"",""25176""
""blur"",""2"",""27142""
""focus"",""2"",""34705""
","""event"",""trial"",""time""
""blur"",""2"",""27142""
","""event"",""trial"",""time""
""focus"",""2"",""34705""
","""event"",""trial"",""time""
""fullscreenenter"",""1"",""3363""
","""event"",""trial"",""time""
""fullscreenexit"",""2"",""25176""
","","","14024.19999999553","[""0""]","0","10","13393","3669","","","","","","","","","","","","","","","","","","",""
"pit-instructions","111","1082117","0.0-2.0-22.0-1.0","battery-v0.2","","""event"",""trial"",""time""
""fullscreenenter"",""1"",""3363""
""fullscreenexit"",""2"",""25176""
""blur"",""2"",""27142""
""focus"",""2"",""34705""
","""event"",""trial"",""time""
""blur"",""2"",""27142""
","""event"",""trial"",""time""
""focus"",""2"",""34705""
","""event"",""trial"",""time""
""fullscreenenter"",""1"",""3363""
","""event"",""trial"",""time""
""fullscreenexit"",""2"",""25176""
","","[{""page_index"":0,""viewing_time"":2802.39999999851}]","2803","","","","","","","","","","","","","","","","","","","","","","","",""
"pit-comprehension","112","1098649","0.0-2.0-23.0-0.0","battery-v0.2","","""event"",""trial"",""time""
""fullscreenenter"",""1"",""3363""
""fullscreenexit"",""2"",""25176""
""blur"",""2"",""27142""
""focus"",""2"",""34705""
","""event"",""trial"",""time""
""blur"",""2"",""27142""
","""event"",""trial"",""time""
""focus"",""2"",""34705""
","""event"",""trial"",""time""
""fullscreenenter"",""1"",""3363""
","""event"",""trial"",""time""
""fullscreenexit"",""2"",""25176""
","","","16526.79999999702","[""True""]","0","10","13393","3669","","","","","","","","","","","","","","","","","","",""
"pit-instructions","113","1102249","0.0-2.0-23.0-1.0","battery-v0.2","","""event"",""trial"",""time""
""fullscreenenter"",""1"",""3363""
""fullscreenexit"",""2"",""25176""
""blur"",""2"",""27142""
""focus"",""2"",""34705""
""blur"",""114"",""1124282""
""focus"",""114"",""1124283""
","""event"",""trial"",""time""
""blur"",""2"",""27142""
""blur"",""114"",""1124282""
","""event"",""trial"",""time""
""focus"",""2"",""34705""
""focus"",""114"",""1124283""
","""event"",""trial"",""time""
""fullscreenenter"",""1"",""3363""
","""event"",""trial"",""time""
""fullscreenexit"",""2"",""25176""
","","[{""page_index"":0,""viewing_time"":3564.7999999970198}]","3565.10000000149","","","","","","","","","","","","","","","","","","","","","","","",""
"pit-comprehension","114","1126158","0.0-2.0-24.0-0.0","battery-v0.2","","""event"",""trial"",""time""
""fullscreenenter"",""1"",""3363""
""fullscreenexit"",""2"",""25176""
""blur"",""2"",""27142""
""focus"",""2"",""34705""
""blur"",""114"",""1124282""
""focus"",""114"",""1124283""
","""event"",""trial"",""time""
""blur"",""2"",""27142""
""blur"",""114"",""1124282""
","""event"",""trial"",""time""
""focus"",""2"",""34705""
""focus"",""114"",""1124283""
","""event"",""trial"",""time""
""fullscreenenter"",""1"",""3363""
","""event"",""trial"",""time""
""fullscreenexit"",""2"",""25176""
","","","23904.70000000298","[""True""]","0","10","13393","3669","","","","","","","","","","","","","","","","","","",""
"pit-instructions","115","1134434","0.0-2.0-24.0-1.0","battery-v0.2","","""event"",""trial"",""time""
""fullscreenenter"",""1"",""3363""
""fullscreenexit"",""2"",""25176""
""blur"",""2"",""27142""
""focus"",""2"",""34705""
""blur"",""114"",""1124282""
""focus"",""114"",""1124283""
","""event"",""trial"",""time""
""blur"",""2"",""27142""
""blur"",""114"",""1124282""
","""event"",""trial"",""time""
""focus"",""2"",""34705""
""focus"",""114"",""1124283""
","""event"",""trial"",""time""
""fullscreenenter"",""1"",""3363""
","""event"",""trial"",""time""
""fullscreenexit"",""2"",""25176""
","","[{""page_index"":0,""viewing_time"":8239.79999999702}]","8240.39999999851","","","","","","","","","","","","","","","","","","","","","","","",""
"pit-comprehension","116","1146437","0.0-2.0-25.0-0.0","battery-v0.2","","""event"",""trial"",""time""
""fullscreenenter"",""1"",""3363""
""fullscreenexit"",""2"",""25176""
""blur"",""2"",""27142""
""focus"",""2"",""34705""
""blur"",""114"",""1124282""
""focus"",""114"",""1124283""
","""event"",""trial"",""time""
""blur"",""2"",""27142""
""blur"",""114"",""1124282""
","""event"",""trial"",""time""
""focus"",""2"",""34705""
""focus"",""114"",""1124283""
","""event"",""trial"",""time""
""fullscreenenter"",""1"",""3363""
","""event"",""trial"",""time""
""fullscreenexit"",""2"",""25176""
","","","11997.69999999553","[""True""]","0","10","13393","3669","","","","","","","","","","","","","","","","","","",""
"pit-instructions","117","1150879","0.0-2.0-25.0-1.0","battery-v0.2","","""event"",""trial"",""time""
""fullscreenenter"",""1"",""3363""
""fullscreenexit"",""2"",""25176""
""blur"",""2"",""27142""
""focus"",""2"",""34705""
""blur"",""114"",""1124282""
""focus"",""114"",""1124283""
","""event"",""trial"",""time""
""blur"",""2"",""27142""
""blur"",""114"",""1124282""
","""event"",""trial"",""time""
""focus"",""2"",""34705""
""focus"",""114"",""1124283""
","""event"",""trial"",""time""
""fullscreenenter"",""1"",""3363""
","""event"",""trial"",""time""
""fullscreenexit"",""2"",""25176""
","","[{""page_index"":0,""viewing_time"":4409}]","4409.29999999702","","","","","","","","","","","","","","","","","","","","","","","",""
"pit-comprehension","118","1161051","0.0-2.0-26.0-0.0","battery-v0.2","","""event"",""trial"",""time""
""fullscreenenter"",""1"",""3363""
""fullscreenexit"",""2"",""25176""
""blur"",""2"",""27142""
""focus"",""2"",""34705""
""blur"",""114"",""1124282""
""focus"",""114"",""1124283""
","""event"",""trial"",""time""
""blur"",""2"",""27142""
""blur"",""114"",""1124282""
","""event"",""trial"",""time""
""focus"",""2"",""34705""
""focus"",""114"",""1124283""
","""event"",""trial"",""time""
""fullscreenenter"",""1"",""3363""
","""event"",""trial"",""time""
""fullscreenexit"",""2"",""25176""
","","","10167.69999999553","[""False""]","0","10","13393","3669","","","","","","","","","","","","","","","","","","",""
"pit-instructions","119","1165223","0.0-2.0-26.0-1.0","battery-v0.2","","""event"",""trial"",""time""
""fullscreenenter"",""1"",""3363""
""fullscreenexit"",""2"",""25176""
""blur"",""2"",""27142""
""focus"",""2"",""34705""
""blur"",""114"",""1124282""
""focus"",""114"",""1124283""
","""event"",""trial"",""time""
""blur"",""2"",""27142""
""blur"",""114"",""1124282""
","""event"",""trial"",""time""
""focus"",""2"",""34705""
""focus"",""114"",""1124283""
","""event"",""trial"",""time""
""fullscreenenter"",""1"",""3363""
","""event"",""trial"",""time""
""fullscreenexit"",""2"",""25176""
","","[{""page_index"":0,""viewing_time"":4145.70000000298}]","4146","","","","","","","","","","","","","","","","","","","","","","","",""
"pit-instructions","120","1200208","0.0-3.0","battery-v0.2","","""event"",""trial"",""time""
""fullscreenenter"",""1"",""3363""
""fullscreenexit"",""2"",""25176""
""blur"",""2"",""27142""
""focus"",""2"",""34705""
""blur"",""114"",""1124282""
""focus"",""114"",""1124283""
","""event"",""trial"",""time""
""blur"",""2"",""27142""
""blur"",""114"",""1124282""
","""event"",""trial"",""time""
""focus"",""2"",""34705""
""focus"",""114"",""1124283""
","""event"",""trial"",""time""
""fullscreenenter"",""1"",""3363""
","""event"",""trial"",""time""
""fullscreenexit"",""2"",""25176""
","","[{""page_index"":0,""viewing_time"":19374.90000000596},{""page_index"":1,""viewing_time"":6027.19999999553},{""page_index"":2,""viewing_time"":9571.20000000298}]","34973.90000000596","","","","","","","","","","","","","","","","","","","","","","","",""
"pit-trial","121","1205077","0.0-4.0","battery-v0.2","","""event"",""trial"",""time""
""fullscreenenter"",""1"",""3363""
""fullscreenexit"",""2"",""25176""
""blur"",""2"",""27142""
""focus"",""2"",""34705""
""blur"",""114"",""1124282""
""focus"",""114"",""1124283""
","""event"",""trial"",""time""
""blur"",""2"",""27142""
""blur"",""114"",""1124282""
","""event"",""trial"",""time""
""focus"",""2"",""34705""
""focus"",""114"",""1124283""
","""event"",""trial"",""time""
""fullscreenenter"",""1"",""3363""
","""event"",""trial"",""time""
""fullscreenexit"",""2"",""25176""
","","","-1","","","10","13393","3669","&#9752;","elianto","#f73b6a7A"," ","-1","0","-10","[]","0","1","","","13393","1","3","3","lose","go","0"
"pit-trial","122","1209678","0.0-5.0","battery-v0.2","","""event"",""trial"",""time""
""fullscreenenter"",""1"",""3363""
""fullscreenexit"",""2"",""25176""
""blur"",""2"",""27142""
""focus"",""2"",""34705""
""blur"",""114"",""1124282""
""focus"",""114"",""1124283""
","""event"",""trial"",""time""
""blur"",""2"",""27142""
""blur"",""114"",""1124282""
","""event"",""trial"",""time""
""focus"",""2"",""34705""
""focus"",""114"",""1124283""
","""event"",""trial"",""time""
""fullscreenenter"",""1"",""3363""
","""event"",""trial"",""time""
""fullscreenexit"",""2"",""25176""
","","","1739.2999999970198","","","10","13393","3669","&#9728;","elianto","#f73b6a7A","-1"," ","0","-10","[2592]","1","1","","","13393","2","0","4","lose","no-go","0"
"pit-trial","123","1214239","0.0-6.0","battery-v0.2","","""event"",""trial"",""time""
""fullscreenenter"",""1"",""3363""
""fullscreenexit"",""2"",""25176""
""blur"",""2"",""27142""
""focus"",""2"",""34705""
""blur"",""114"",""1124282""
""focus"",""114"",""1124283""
","""event"",""trial"",""time""
""blur"",""2"",""27142""
""blur"",""114"",""1124282""
","""event"",""trial"",""time""
""focus"",""2"",""34705""
""focus"",""114"",""1124283""
","""event"",""trial"",""time""
""fullscreenenter"",""1"",""3363""
","""event"",""trial"",""time""
""fullscreenexit"",""2"",""25176""
","","","1703.0999999940395","","","10","13393","3669","&#9730;","elianto","#3366ff99"," "," ","1","+10","[2556.2999999970198]","1","1","","","13393","3","1","1","win","go","0"
"pit-trial","124","1218060","0.0-7.0","battery-v0.2","","""event"",""trial"",""time""
""fullscreenenter"",""1"",""3363""
""fullscreenexit"",""2"",""25176""
""blur"",""2"",""27142""
""focus"",""2"",""34705""
""blur"",""114"",""1124282""
""focus"",""114"",""1124283""
","""event"",""trial"",""time""
""blur"",""2"",""27142""
""blur"",""114"",""1124282""
","""event"",""trial"",""time""
""focus"",""2"",""34705""
""focus"",""114"",""1124283""
","""event"",""trial"",""time""
""fullscreenenter"",""1"",""3363""
","""event"",""trial"",""time""
""fullscreenexit"",""2"",""25176""
","","","959.1999999955297","","","10","13393","3669","&#9733;","elianto","#3366ff99","-1"," ","0","0","[1812.1000000014901]","1","1","","","13393","4","2","2","win","no-go","0"
"pit-trial","125","1222919","0.0-8.0","battery-v0.2","","""event"",""trial"",""time""
""fullscreenenter"",""1"",""3363""
""fullscreenexit"",""2"",""25176""
""blur"",""2"",""27142""
""focus"",""2"",""34705""
""blur"",""114"",""1124282""
""focus"",""114"",""1124283""
","""event"",""trial"",""time""
""blur"",""2"",""27142""
""blur"",""114"",""1124282""
","""event"",""trial"",""time""
""focus"",""2"",""34705""
""focus"",""114"",""1124283""
","""event"",""trial"",""time""
""fullscreenenter"",""1"",""3363""
","""event"",""trial"",""time""
""fullscreenexit"",""2"",""25176""
","","","-1","","","10","13393","3669","&#9733;","elianto","#3366ff99","-1","-1","1","+10","[]","0","1","","","13393","5","2","2","win","no-go","0"
"pit-trial","126","1227777","0.0-9.0","battery-v0.2","","""event"",""trial"",""time""
""fullscreenenter"",""1"",""3363""
""fullscreenexit"",""2"",""25176""
""blur"",""2"",""27142""
""focus"",""2"",""34705""
""blur"",""114"",""1124282""
""focus"",""114"",""1124283""
","""event"",""trial"",""time""
""blur"",""2"",""27142""
""blur"",""114"",""1124282""
","""event"",""trial"",""time""
""focus"",""2"",""34705""
""focus"",""114"",""1124283""
","""event"",""trial"",""time""
""fullscreenenter"",""1"",""3363""
","""event"",""trial"",""time""
""fullscreenexit"",""2"",""25176""
","","","-1","","","10","13393","3669","&#9728;","elianto","#f73b6a7A","-1","-1","1","0","[]","0","1","","","13393","6","0","4","lose","no-go","0"
"pit-trial","127","1231858","0.0-10.0","battery-v0.2","","""event"",""trial"",""time""
""fullscreenenter"",""1"",""3363""
""fullscreenexit"",""2"",""25176""
""blur"",""2"",""27142""
""focus"",""2"",""34705""
""blur"",""114"",""1124282""
""focus"",""114"",""1124283""
","""event"",""trial"",""time""
""blur"",""2"",""27142""
""blur"",""114"",""1124282""
","""event"",""trial"",""time""
""focus"",""2"",""34705""
""focus"",""114"",""1124283""
","""event"",""trial"",""time""
""fullscreenenter"",""1"",""3363""
","""event"",""trial"",""time""
""fullscreenexit"",""2"",""25176""
","","","1221.5","","","10","13393","3669","&#9730;","elianto","#3366ff99"," "," ","1","+10","[2073.5]","1","1","","","13393","7","1","1","win","go","0"
"pit-trial","128","1235822","0.0-11.0","battery-v0.2","","""event"",""trial"",""time""
""fullscreenenter"",""1"",""3363""
""fullscreenexit"",""2"",""25176""
""blur"",""2"",""27142""
""focus"",""2"",""34705""
""blur"",""114"",""1124282""
""focus"",""114"",""1124283""
","""event"",""trial"",""time""
""blur"",""2"",""27142""
""blur"",""114"",""1124282""
","""event"",""trial"",""time""
""focus"",""2"",""34705""
""focus"",""114"",""1124283""
","""event"",""trial"",""time""
""fullscreenenter"",""1"",""3363""
","""event"",""trial"",""time""
""fullscreenexit"",""2"",""25176""
","","","1104.3999999985099","","","10","13393","3669","&#9752;","elianto","#f73b6a7A"," "," ","1","0","[1955.6999999955297]","1","1","","","13393","8","3","3","lose","go","0"
"pit-trial","129","1240680","0.0-12.0","battery-v0.2","","""event"",""trial"",""time""
""fullscreenenter"",""1"",""3363""
""fullscreenexit"",""2"",""25176""
""blur"",""2"",""27142""
""focus"",""2"",""34705""
""blur"",""114"",""1124282""
""focus"",""114"",""1124283""
","""event"",""trial"",""time""
""blur"",""2"",""27142""
""blur"",""114"",""1124282""
","""event"",""trial"",""time""
""focus"",""2"",""34705""
""focus"",""114"",""1124283""
","""event"",""trial"",""time""
""fullscreenenter"",""1"",""3363""
","""event"",""trial"",""time""
""fullscreenexit"",""2"",""25176""
","","","-1","","","10","13393","3669","&#9752;","elianto","#f73b6a7A"," ","-1","0","-10","[]","0","1","","","13393","9","3","3","lose","go","0"
"pit-trial","130","1245540","0.0-13.0","battery-v0.2","","""event"",""trial"",""time""
""fullscreenenter"",""1"",""3363""
""fullscreenexit"",""2"",""25176""
""blur"",""2"",""27142""
""focus"",""2"",""34705""
""blur"",""114"",""1124282""
""focus"",""114"",""1124283""
","""event"",""trial"",""time""
""blur"",""2"",""27142""
""blur"",""114"",""1124282""
","""event"",""trial"",""time""
""focus"",""2"",""34705""
""focus"",""114"",""1124283""
","""event"",""trial"",""time""
""fullscreenenter"",""1"",""3363""
","""event"",""trial"",""time""
""fullscreenexit"",""2"",""25176""
","","","-1","","","10","13393","3669","&#9728;","elianto","#f73b6a7A","-1","-1","1","0","[]","0","1","","","13393","10","0","4","lose","no-go","0"
"pit-trial","131","1250040","0.0-14.0","battery-v0.2","","""event"",""trial"",""time""
""fullscreenenter"",""1"",""3363""
""fullscreenexit"",""2"",""25176""
""blur"",""2"",""27142""
""focus"",""2"",""34705""
""blur"",""114"",""1124282""
""focus"",""114"",""1124283""
","""event"",""trial"",""time""
""blur"",""2"",""27142""
""blur"",""114"",""1124282""
","""event"",""trial"",""time""
""focus"",""2"",""34705""
""focus"",""114"",""1124283""
","""event"",""trial"",""time""
""fullscreenenter"",""1"",""3363""
","""event"",""trial"",""time""
""fullscreenexit"",""2"",""25176""
","","","1642.6000000014901","","","10","13393","3669","&#9730;","elianto","#3366ff99"," "," ","1","+10","[2495.2000000029802]","1","1","","","13393","11","1","1","win","go","0"
"pit-trial","132","1253736","0.0-15.0","battery-v0.2","","""event"",""trial"",""time""
""fullscreenenter"",""1"",""3363""
""fullscreenexit"",""2"",""25176""
""blur"",""2"",""27142""
""focus"",""2"",""34705""
""blur"",""114"",""1124282""
""focus"",""114"",""1124283""
","""event"",""trial"",""time""
""blur"",""2"",""27142""
""blur"",""114"",""1124282""
","""event"",""trial"",""time""
""focus"",""2"",""34705""
""focus"",""114"",""1124283""
","""event"",""trial"",""time""
""fullscreenenter"",""1"",""3363""
","""event"",""trial"",""time""
""fullscreenexit"",""2"",""25176""
","","","836.6000000014901","","","10","13393","3669","&#9733;","elianto","#3366ff99","-1"," ","0","0","[1688.3000000044703]","1","1","","","13393","12","2","2","win","no-go","0"
"pit-trial","133","1257134","0.0-16.0","battery-v0.2","","""event"",""trial"",""time""
""fullscreenenter"",""1"",""3363""
""fullscreenexit"",""2"",""25176""
""blur"",""2"",""27142""
""focus"",""2"",""34705""
""blur"",""114"",""1124282""
""focus"",""114"",""1124283""
","""event"",""trial"",""time""
""blur"",""2"",""27142""
""blur"",""114"",""1124282""
","""event"",""trial"",""time""
""focus"",""2"",""34705""
""focus"",""114"",""1124283""
","""event"",""trial"",""time""
""fullscreenenter"",""1"",""3363""
","""event"",""trial"",""time""
""fullscreenexit"",""2"",""25176""
","","","538.1000000014901","","","10","13393","3669","&#9730;","elianto","#3366ff99"," "," ","1","+10","[1390.7000000029802]","1","1","","","13393","13","1","1","win","go","0"
"pit-trial","134","1260571","0.0-17.0","battery-v0.2","","""event"",""trial"",""time""
""fullscreenenter"",""1"",""3363""
""fullscreenexit"",""2"",""25176""
""blur"",""2"",""27142""
""focus"",""2"",""34705""
""blur"",""114"",""1124282""
""focus"",""114"",""1124283""
","""event"",""trial"",""time""
""blur"",""2"",""27142""
""blur"",""114"",""1124282""
","""event"",""trial"",""time""
""focus"",""2"",""34705""
""focus"",""114"",""1124283""
","""event"",""trial"",""time""
""fullscreenenter"",""1"",""3363""
","""event"",""trial"",""time""
""fullscreenexit"",""2"",""25176""
","","","574.3999999985099","","","10","13393","3669","&#9728;","elianto","#f73b6a7A","-1"," ","0","-10","[1427.5999999940395]","1","1","","","13393","14","0","4","lose","no-go","0"
"pit-trial","135","1264268","0.0-18.0","battery-v0.2","","""event"",""trial"",""time""
""fullscreenenter"",""1"",""3363""
""fullscreenexit"",""2"",""25176""
""blur"",""2"",""27142""
""focus"",""2"",""34705""
""blur"",""114"",""1124282""
""focus"",""114"",""1124283""
","""event"",""trial"",""time""
""blur"",""2"",""27142""
""blur"",""114"",""1124282""
","""event"",""trial"",""time""
""focus"",""2"",""34705""
""focus"",""114"",""1124283""
","""event"",""trial"",""time""
""fullscreenenter"",""1"",""3363""
","""event"",""trial"",""time""
""fullscreenexit"",""2"",""25176""
","","","838.1999999955297","","","10","13393","3669","&#9733;","elianto","#3366ff99","-1"," ","0","0","[1688.8999999985099]","1","1","","","13393","15","2","2","win","no-go","0"
"pit-trial","136","1268517","0.0-19.0","battery-v0.2","","""event"",""trial"",""time""
""fullscreenenter"",""1"",""3363""
""fullscreenexit"",""2"",""25176""
""blur"",""2"",""27142""
""focus"",""2"",""34705""
""blur"",""114"",""1124282""
""focus"",""114"",""1124283""
","""event"",""trial"",""time""
""blur"",""2"",""27142""
""blur"",""114"",""1124282""
","""event"",""trial"",""time""
""focus"",""2"",""34705""
""focus"",""114"",""1124283""
","""event"",""trial"",""time""
""fullscreenenter"",""1"",""3363""
","""event"",""trial"",""time""
""fullscreenexit"",""2"",""25176""
","","","1390","","","10","13393","3669","&#9752;","elianto","#f73b6a7A"," "," ","1","0","[2243.10000000149]","1","1","","","13393","16","3","3","lose","go","0"
"pit-trial","137","1273381","0.0-20.0","battery-v0.2","","""event"",""trial"",""time""
""fullscreenenter"",""1"",""3363""
""fullscreenexit"",""2"",""25176""
""blur"",""2"",""27142""
""focus"",""2"",""34705""
""blur"",""114"",""1124282""
""focus"",""114"",""1124283""
","""event"",""trial"",""time""
""blur"",""2"",""27142""
""blur"",""114"",""1124282""
","""event"",""trial"",""time""
""focus"",""2"",""34705""
""focus"",""114"",""1124283""
","""event"",""trial"",""time""
""fullscreenenter"",""1"",""3363""
","""event"",""trial"",""time""
""fullscreenexit"",""2"",""25176""
","","","-1","","","10","13393","3669","&#9733;","elianto","#3366ff99","-1","-1","1","+10","[]","0","1","","","13393","17","2","2","win","no-go","0"
"pit-trial","138","1277723","0.0-21.0","battery-v0.2","","""event"",""trial"",""time""
""fullscreenenter"",""1"",""3363""
""fullscreenexit"",""2"",""25176""
""blur"",""2"",""27142""
""focus"",""2"",""34705""
""blur"",""114"",""1124282""
""focus"",""114"",""1124283""
","""event"",""trial"",""time""
""blur"",""2"",""27142""
""blur"",""114"",""1124282""
","""event"",""trial"",""time""
""focus"",""2"",""34705""
""focus"",""114"",""1124283""
","""event"",""trial"",""time""
""fullscreenenter"",""1"",""3363""
","""event"",""trial"",""time""
""fullscreenexit"",""2"",""25176""
","","","1482.1999999955297","","","10","13393","3669","&#9730;","elianto","#3366ff99"," "," ","1","+10","[2332.89999999851]","1","1","","","13393","18","1","1","win","go","0"
"pit-trial","139","1282588","0.0-22.0","battery-v0.2","","""event"",""trial"",""time""
""fullscreenenter"",""1"",""3363""
""fullscreenexit"",""2"",""25176""
""blur"",""2"",""27142""
""focus"",""2"",""34705""
""blur"",""114"",""1124282""
""focus"",""114"",""1124283""
","""event"",""trial"",""time""
""blur"",""2"",""27142""
""blur"",""114"",""1124282""
","""event"",""trial"",""time""
""focus"",""2"",""34705""
""focus"",""114"",""1124283""
","""event"",""trial"",""time""
""fullscreenenter"",""1"",""3363""
","""event"",""trial"",""time""
""fullscreenexit"",""2"",""25176""
","","","-1","","","10","13393","3669","&#9752;","elianto","#f73b6a7A"," ","-1","0","-10","[]","0","1","","","13393","19","3","3","lose","go","0"
"pit-trial","140","1286249","0.0-23.0","battery-v0.2","","""event"",""trial"",""time""
""fullscreenenter"",""1"",""3363""
""fullscreenexit"",""2"",""25176""
""blur"",""2"",""27142""
""focus"",""2"",""34705""
""blur"",""114"",""1124282""
""focus"",""114"",""1124283""
","""event"",""trial"",""time""
""blur"",""2"",""27142""
""blur"",""114"",""1124282""
","""event"",""trial"",""time""
""focus"",""2"",""34705""
""focus"",""114"",""1124283""
","""event"",""trial"",""time""
""fullscreenenter"",""1"",""3363""
","""event"",""trial"",""time""
""fullscreenexit"",""2"",""25176""
","","","801.2000000029802","","","10","13393","3669","&#9728;","elianto","#f73b6a7A","-1"," ","0","-10","[1652.8999999985099]","1","1","","","13393","20","0","4","lose","no-go","0"
"pit-instructions","141","1383667","0.0-24.0","battery-v0.2","","""event"",""trial"",""time""
""fullscreenenter"",""1"",""3363""
""fullscreenexit"",""2"",""25176""
""blur"",""2"",""27142""
""focus"",""2"",""34705""
""blur"",""114"",""1124282""
""focus"",""114"",""1124283""
","""event"",""trial"",""time""
""blur"",""2"",""27142""
""blur"",""114"",""1124282""
","""event"",""trial"",""time""
""focus"",""2"",""34705""
""focus"",""114"",""1124283""
","""event"",""trial"",""time""
""fullscreenenter"",""1"",""3363""
","""event"",""trial"",""time""
""fullscreenexit"",""2"",""25176""
","","[{""page_index"":0,""viewing_time"":5615.9000000059605},{""page_index"":1,""viewing_time"":91799.69999999553}]","97416.20000000298","","","","","","","","","","","","","","","","","","","","","","","",""
"pit-trial","142","1388531","0.0-25.0","battery-v0.2","","""event"",""trial"",""time""
""fullscreenenter"",""1"",""3363""
""fullscreenexit"",""2"",""25176""
""blur"",""2"",""27142""
""focus"",""2"",""34705""
""blur"",""114"",""1124282""
""focus"",""114"",""1124283""
","""event"",""trial"",""time""
""blur"",""2"",""27142""
""blur"",""114"",""1124282""
","""event"",""trial"",""time""
""focus"",""2"",""34705""
""focus"",""114"",""1124283""
","""event"",""trial"",""time""
""fullscreenenter"",""1"",""3363""
","""event"",""trial"",""time""
""fullscreenexit"",""2"",""25176""
","","","-1","","","10","13393","3669","y","elianto","#f73b6a7A"," ","-1","0","-10","[3085.39999999851]","1","2","","","13393","21","2","3","lose","go","0"
"pit-trial","143","1392307","0.0-26.0","battery-v0.2","","""event"",""trial"",""time""
""fullscreenenter"",""1"",""3363""
""fullscreenexit"",""2"",""25176""
""blur"",""2"",""27142""
""focus"",""2"",""34705""
""blur"",""114"",""1124282""
""focus"",""114"",""1124283""
","""event"",""trial"",""time""
""blur"",""2"",""27142""
""blur"",""114"",""1124282""
","""event"",""trial"",""time""
""focus"",""2"",""34705""
""focus"",""114"",""1124283""
","""event"",""trial"",""time""
""fullscreenenter"",""1"",""3363""
","""event"",""trial"",""time""
""fullscreenexit"",""2"",""25176""
","","","919","","","10","13393","3669","h","elianto","#f73b6a7A","-1"," ","0","-10","[1769.7999999970198]","1","2","","","13393","22","3","4","lose","no-go","0"
"pit-trial","144","1396140","0.0-27.0","battery-v0.2","","""event"",""trial"",""time""
""fullscreenenter"",""1"",""3363""
""fullscreenexit"",""2"",""25176""
""blur"",""2"",""27142""
""focus"",""2"",""34705""
""blur"",""114"",""1124282""
""focus"",""114"",""1124283""
","""event"",""trial"",""time""
""blur"",""2"",""27142""
""blur"",""114"",""1124282""
","""event"",""trial"",""time""
""focus"",""2"",""34705""
""focus"",""114"",""1124283""
","""event"",""trial"",""time""
""fullscreenenter"",""1"",""3363""
","""event"",""trial"",""time""
""fullscreenexit"",""2"",""25176""
","","","971.1000000014901","","","10","13393","3669","r","elianto","#3366ff99","-1"," ","0","0","[1824.3999999985099]","1","2","","","13393","23","1","2","win","no-go","0"
"pit-trial","145","1400994","0.0-28.0","battery-v0.2","","""event"",""trial"",""time""
""fullscreenenter"",""1"",""3363""
""fullscreenexit"",""2"",""25176""
""blur"",""2"",""27142""
""focus"",""2"",""34705""
""blur"",""114"",""1124282""
""focus"",""114"",""1124283""
","""event"",""trial"",""time""
""blur"",""2"",""27142""
""blur"",""114"",""1124282""
","""event"",""trial"",""time""
""focus"",""2"",""34705""
""focus"",""114"",""1124283""
","""event"",""trial"",""time""
""fullscreenenter"",""1"",""3363""
","""event"",""trial"",""time""
""fullscreenexit"",""2"",""25176""
","","","1992.6000000014901","","","10","13393","3669","m","elianto","#f73b6a7A"," "," ","1","-10","[2845.6999999955297]","1","2","","","13393","24","0","3","lose","go","1"
"pit-trial","146","1405145","0.0-29.0","battery-v0.2","","""event"",""trial"",""time""
""fullscreenenter"",""1"",""3363""
""fullscreenexit"",""2"",""25176""
""blur"",""2"",""27142""
""focus"",""2"",""34705""
""blur"",""114"",""1124282""
""focus"",""114"",""1124283""
","""event"",""trial"",""time""
""blur"",""2"",""27142""
""blur"",""114"",""1124282""
","""event"",""trial"",""time""
""focus"",""2"",""34705""
""focus"",""114"",""1124283""
","""event"",""trial"",""time""
""fullscreenenter"",""1"",""3363""
","""event"",""trial"",""time""
""fullscreenexit"",""2"",""25176""
","","","1291.5999999940395","","","10","13393","3669","y","elianto","#f73b6a7A"," "," ","1","0","[2142.7000000029802,3187.60000000149]","2","2","","","13393","25","2","3","lose","go","0"
"pit-trial","147","1410010","0.0-30.0","battery-v0.2","","""event"",""trial"",""time""
""fullscreenenter"",""1"",""3363""
""fullscreenexit"",""2"",""25176""
""blur"",""2"",""27142""
""focus"",""2"",""34705""
""blur"",""114"",""1124282""
""focus"",""114"",""1124283""
","""event"",""trial"",""time""
""blur"",""2"",""27142""
""blur"",""114"",""1124282""
","""event"",""trial"",""time""
""focus"",""2"",""34705""
""focus"",""114"",""1124283""
","""event"",""trial"",""time""
""fullscreenenter"",""1"",""3363""
","""event"",""trial"",""time""
""fullscreenexit"",""2"",""25176""
","","","-1","","","10","13393","3669","r","elianto","#3366ff99","-1","-1","1","+10","[]","0","2","","","13393","26","1","2","win","no-go","0"
"pit-trial","148","1414875","0.0-31.0","battery-v0.2","","""event"",""trial"",""time""
""fullscreenenter"",""1"",""3363""
""fullscreenexit"",""2"",""25176""
""blur"",""2"",""27142""
""focus"",""2"",""34705""
""blur"",""114"",""1124282""
""focus"",""114"",""1124283""
","""event"",""trial"",""time""
""blur"",""2"",""27142""
""blur"",""114"",""1124282""
","""event"",""trial"",""time""
""focus"",""2"",""34705""
""focus"",""114"",""1124283""
","""event"",""trial"",""time""
""fullscreenenter"",""1"",""3363""
","""event"",""trial"",""time""
""fullscreenexit"",""2"",""25176""
