"trial_type","trial_index","time_elapsed","internal_node_id","task_version","subject_id","interactions","blur_events","focus_events","fullscreenenter_events","fullscreenexit_events","success","view_history","rt","responses","num_errors","age","subject","participantId","rune","rune_set","hex","correct","choice","accuracy","outcome","keys","total_keys","block","practice","value","sub","trial","stimulus","robot","valence","action","sham"
"pavlovia","0","16","0.0-0.0","battery-v0.2","","""event"",""trial"",""time""
""fullscreenenter"",""1"",""10449""
","
","
","""event"",""trial"",""time""
""fullscreenenter"",""1"",""10449""
","
","","","","","","","","","","","","","","","","","","","","","","","","","","",""
"fullscreen","1","11431","0.0-1.0","battery-v0.2","","""event"",""trial"",""time""
""fullscreenenter"",""1"",""10449""
","
","
","""event"",""trial"",""time""
""fullscreenenter"",""1"",""10449""
","
","true","","","","","","","","","","","","","","","","","","","","","","","","","",""
"pit-instructions","2","21909","0.0-2.0-0.0","battery-v0.2","","""event"",""trial"",""time""
""fullscreenenter"",""1"",""10449""
","
","
","""event"",""trial"",""time""
""fullscreenenter"",""1"",""10449""
","
","","[{""page_index"":0,""viewing_time"":10464.899999999907}]","10466.899999999907","","","","","","","","","","","","","","","","","","","","","","","",""
"pit-comprehension","3","25486","0.0-2.0-1.0-0.0","battery-v0.2","","""event"",""trial"",""time""
""fullscreenenter"",""1"",""10449""
","
","
","""event"",""trial"",""time""
""fullscreenenter"",""1"",""10449""
","
","","","3563.899999999907","[""shark""]","0","12","6205","2069","","","","","","","","","","","","","","","","","","",""
"pit-instructions","4","28689","0.0-2.0-1.0-1.0","battery-v0.2","","""event"",""trial"",""time""
""fullscreenenter"",""1"",""10449""
","
","
","""event"",""trial"",""time""
""fullscreenenter"",""1"",""10449""
","
","","[{""page_index"":0,""viewing_time"":3181.9000000003725}]","3184.3000000002794","","","","","","","","","","","","","","","","","","","","","","","",""
"pit-comprehension","5","31886","0.0-2.0-2.0-0.0","battery-v0.2","","""event"",""trial"",""time""
""fullscreenenter"",""1"",""10449""
","
","
","""event"",""trial"",""time""
""fullscreenenter"",""1"",""10449""
","
","","","3180.2000000001863","[""tiger""]","0","12","6205","2069","","","","","","","","","","","","","","","","","","",""
"pit-instructions","6","32656","0.0-2.0-2.0-1.0","battery-v0.2","","""event"",""trial"",""time""
""fullscreenenter"",""1"",""10449""
","
","
","""event"",""trial"",""time""
""fullscreenenter"",""1"",""10449""
","
","","[{""page_index"":0,""viewing_time"":757.8999999999069}]","759.1999999997206","","","","","","","","","","","","","","","","","","","","","","","",""
"pit-instructions","7","154101","0.0-2.0-3.0","battery-v0.2","","""event"",""trial"",""time""
""fullscreenenter"",""1"",""10449""
","
","
","""event"",""trial"",""time""
""fullscreenenter"",""1"",""10449""
","
","","[{""page_index"":0,""viewing_time"":22031},{""page_index"":1,""viewing_time"":6296.899999999907},{""page_index"":2,""viewing_time"":7517.399999999907},{""page_index"":3,""viewing_time"":6391},{""page_index"":4,""viewing_time"":14606.700000000186},{""page_index"":5,""viewing_time"":5819.5},{""page_index"":6,""viewing_time"":7272.699999999721},{""page_index"":7,""viewing_time"":7186.100000000093},{""page_index"":8,""viewing_time"":6981.299999999814},{""page_index"":9,""viewing_time"":8453.900000000373},{""page_index"":10,""viewing_time"":7579.5},{""page_index"":11,""viewing_time"":7884.0999999996275},{""page_index"":12,""viewing_time"":6676},{""page_index"":13,""viewing_time"":6736.600000000093}]","121434.19999999972","","","","","","","","","","","","","","","","","","","","","","","",""
"pit-trial","8","158973","0.0-2.0-4.0-0.0","battery-v0.2","","""event"",""trial"",""time""
""fullscreenenter"",""1"",""10449""
","
","
","""event"",""trial"",""time""
""fullscreenenter"",""1"",""10449""
","
","","","-1","","","12","6205","2069","&#9784;","elianto","#FFFFF080"," ","-1","0","&#10060","[]","0","0","0","","","","","","","",""
"pit-trial","9","162573","0.0-2.0-4.1-0.1","battery-v0.2","","""event"",""trial"",""time""
""fullscreenenter"",""1"",""10449""
","
","
","""event"",""trial"",""time""
""fullscreenenter"",""1"",""10449""
","
","","","726.8000000002794","","","12","6205","2069","&#9784;","elianto","#FFFFF080"," "," ","1","&#10004","[1585.6000000000931]","1","0","0","","","","","","","",""
"pit-trial","10","166982","0.0-2.0-4.2-0.2","battery-v0.2","","""event"",""trial"",""time""
""fullscreenenter"",""1"",""10449""
","
","
","""event"",""trial"",""time""
""fullscreenenter"",""1"",""10449""
","
","","","1547","","","12","6205","2069","&#9784;","elianto","#FFFFF080"," "," ","1","&#10004","[2400.3000000002794]","1","0","0","","","","","","","",""
"pit-trial","11","170597","0.0-2.0-4.3-0.3","battery-v0.2","","""event"",""trial"",""time""
""fullscreenenter"",""1"",""10449""
","
","
","""event"",""trial"",""time""
""fullscreenenter"",""1"",""10449""
","
","","","748.9000000003725","","","12","6205","2069","&#9784;","elianto","#FFFFF080"," "," ","1","&#10004","[1605.5]","1","0","0","","","","","","","",""
"pit-trial","12","173901","0.0-2.0-4.4-0.4","battery-v0.2","","""event"",""trial"",""time""
""fullscreenenter"",""1"",""10449""
","
","
","""event"",""trial"",""time""
""fullscreenenter"",""1"",""10449""
","
","","","440","","","12","6205","2069","&#9784;","elianto","#FFFFF080"," "," ","1","&#10004","[1291.7999999998137]","1","0","0","","","","","","","",""
"pit-instructions","13","196967","0.0-2.0-5.0","battery-v0.2","","""event"",""trial"",""time""
""fullscreenenter"",""1"",""10449""
","
","
","""event"",""trial"",""time""
""fullscreenenter"",""1"",""10449""
","
","","[{""page_index"":0,""viewing_time"":5683.9000000003725},{""page_index"":1,""viewing_time"":5733.0999999996275},{""page_index"":2,""viewing_time"":5459.700000000186},{""page_index"":3,""viewing_time"":6179.100000000093}]","23057.900000000373","","","","","","","","","","","","","","","","","","","","","","","",""
"pit-trial","14","201837","0.0-2.0-6.0-0.0","battery-v0.2","","""event"",""trial"",""time""
""fullscreenenter"",""1"",""10449""
","
","
","""event"",""trial"",""time""
""fullscreenenter"",""1"",""10449""
","
","","","-1","","","12","6205","2069","&#9854;","elianto","#FFFFF080","-1","-1","1","&#10004","[]","0","0","1","","","","","","","",""
"pit-trial","15","206708","0.0-2.0-6.1-0.1","battery-v0.2","","""event"",""trial"",""time""
""fullscreenenter"",""1"",""10449""
","
","
","""event"",""trial"",""time""
""fullscreenenter"",""1"",""10449""
","
","","","-1","","","12","6205","2069","&#9854;","elianto","#FFFFF080","-1","-1","1","&#10004","[]","0","0","1","","","","","","","",""
"pit-trial","16","211573","0.0-2.0-6.2-0.2","battery-v0.2","","""event"",""trial"",""time""
""fullscreenenter"",""1"",""10449""
","
","
","""event"",""trial"",""time""
""fullscreenenter"",""1"",""10449""
","
","","","-1","","","12","6205","2069","&#9854;","elianto","#FFFFF080","-1","-1","1","&#10004","[]","0","0","1","","","","","","","",""
"pit-trial","17","216436","0.0-2.0-6.3-0.3","battery-v0.2","","""event"",""trial"",""time""
""fullscreenenter"",""1"",""10449""
","
","
","""event"",""trial"",""time""
""fullscreenenter"",""1"",""10449""
","
","","","-1","","","12","6205","2069","&#9854;","elianto","#FFFFF080","-1","-1","1","&#10004","[]","0","0","1","","","","","","","",""
"pit-trial","18","221300","0.0-2.0-6.4-0.4","battery-v0.2","","""event"",""trial"",""time""
""fullscreenenter"",""1"",""10449""
","
","
","""event"",""trial"",""time""
""fullscreenenter"",""1"",""10449""
","
","","","-1","","","12","6205","2069","&#9854;","elianto","#FFFFF080","-1","-1","1","&#10004","[]","0","0","1","","","","","","","",""
"pit-instructions","19","351008","0.0-2.0-7.0","battery-v0.2","","""event"",""trial"",""time""
""fullscreenenter"",""1"",""10449""
","
","
","""event"",""trial"",""time""
""fullscreenenter"",""1"",""10449""
","
","","[{""page_index"":0,""viewing_time"":6224.200000000186},{""page_index"":1,""viewing_time"":7486.399999999907},{""page_index"":2,""viewing_time"":6026.899999999907},{""page_index"":3,""viewing_time"":7999.700000000186},{""page_index"":4,""viewing_time"":6598.100000000093},{""page_index"":5,""viewing_time"":5711.399999999907},{""page_index"":6,""viewing_time"":5673.699999999721},{""page_index"":7,""viewing_time"":9235.5},{""page_index"":8,""viewing_time"":8996},{""page_index"":9,""viewing_time"":7016.300000000279},{""page_index"":10,""viewing_time"":8334.5},{""page_index"":11,""viewing_time"":4781.799999999814},{""page_index"":12,""viewing_time"":7348.5},{""page_index"":13,""viewing_time"":7270.399999999907},{""page_index"":14,""viewing_time"":7135.4000000003725},{""page_index"":15,""viewing_time"":8955.899999999907},{""page_index"":16,""viewing_time"":7656.299999999814},{""page_index"":17,""viewing_time"":7250}]","129702.30000000028","","","","","","","","","","","","","","","","","","","","","","","",""
"pit-trial","20","354894","0.0-2.0-8.0-0.0","battery-v0.2","","""event"",""trial"",""time""
""fullscreenenter"",""1"",""10449""
","
","
","""event"",""trial"",""time""
""fullscreenenter"",""1"",""10449""
","
","","","1017.8000000002794","","","12","6205","2069","&#9776;","elianto","#3366ff99"," "," ","1","+10","[1871.3999999999069]","1","0","1","","","","","","","",""
"pit-trial","21","358405","0.0-2.0-8.0-1.0","battery-v0.2","","""event"",""trial"",""time""
""fullscreenenter"",""1"",""10449""
","
","
","""event"",""trial"",""time""
""fullscreenenter"",""1"",""10449""
","
","","","636.2999999998137","","","12","6205","2069","&#9776;","elianto","#3366ff99"," "," ","1","+10","[1496.9000000003725]","1","0","1","","","","","","","",""
"pit-trial","22","361989","0.0-2.0-8.0-2.0","battery-v0.2","","""event"",""trial"",""time""
""fullscreenenter"",""1"",""10449""
","
","
","""event"",""trial"",""time""
""fullscreenenter"",""1"",""10449""
","
","","","721.5999999996275","","","12","6205","2069","&#9776;","elianto","#3366ff99"," "," ","1","+10","[1573.7999999998137]","1","0","1","","","","","","","",""
"pit-trial","23","365446","0.0-2.0-8.0-3.0","battery-v0.2","","""event"",""trial"",""time""
""fullscreenenter"",""1"",""10449""
","
","
","""event"",""trial"",""time""
""fullscreenenter"",""1"",""10449""
","
","","","595.8999999999069","","","12","6205","2069","&#9776;","elianto","#3366ff99"," "," ","1","0","[1447.1000000000931]","1","0","1","","","","","","","",""
"pit-trial","24","368980","0.0-2.0-8.0-4.0","battery-v0.2","","""event"",""trial"",""time""
""fullscreenenter"",""1"",""10449""
","
","
","""event"",""trial"",""time""
""fullscreenenter"",""1"",""10449""
","
","","","670.7999999998137","","","12","6205","2069","&#9776;","elianto","#3366ff99"," "," ","1","+10","[1525.1000000000931]","1","0","1","","","","","","","",""
"pit-trial","25","372445","0.0-2.0-8.1-0.1","battery-v0.2","","""event"",""trial"",""time""
""fullscreenenter"",""1"",""10449""
","
","
","""event"",""trial"",""time""
""fullscreenenter"",""1"",""10449""
","
","","","601","","","12","6205","2069","&#9776;","elianto","#3366ff99"," "," ","1","+10","[1451.5]","1","0","1","","","","","","","",""
"pit-trial","26","375942","0.0-2.0-8.1-1.1","battery-v0.2","","""event"",""trial"",""time""
""fullscreenenter"",""1"",""10449""
","
","
","""event"",""trial"",""time""
""fullscreenenter"",""1"",""10449""
","
","","","633.7999999998137","","","12","6205","2069","&#9776;","elianto","#3366ff99"," "," ","1","+10","[1484.7999999998137]","1","0","1","","","","","","","",""
"pit-trial","27","379710","0.0-2.0-8.1-2.1","battery-v0.2","","""event"",""trial"",""time""
""fullscreenenter"",""1"",""10449""
","
","
","""event"",""trial"",""time""
""fullscreenenter"",""1"",""10449""
","
","","","901.5","","","12","6205","2069","&#9776;","elianto","#3366ff99"," "," ","1","+10","[1754.2999999998137]","1","0","1","","","","","","","",""
"pit-trial","28","383229","0.0-2.0-8.1-3.1","battery-v0.2","","""event"",""trial"",""time""
""fullscreenenter"",""1"",""10449""
","
","
","""event"",""trial"",""time""
""fullscreenenter"",""1"",""10449""
","
","","","658","","","12","6205","2069","&#9776;","elianto","#3366ff99"," "," ","1","0","[1508.4000000003725]","1","0","1","","","","","","","",""
"pit-trial","29","386918","0.0-2.0-8.1-4.1","battery-v0.2","","""event"",""trial"",""time""
""fullscreenenter"",""1"",""10449""
","
","
","""event"",""trial"",""time""
""fullscreenenter"",""1"",""10449""
","
","","","829.6000000000931","","","12","6205","2069","&#9776;","elianto","#3366ff99"," "," ","1","+10","[1680.1999999997206]","1","0","1","","","","","","","",""
"pit-trial","30","390557","0.0-2.0-8.2-0.2","battery-v0.2","","""event"",""trial"",""time""
""fullscreenenter"",""1"",""10449""
","
","
","""event"",""trial"",""time""
""fullscreenenter"",""1"",""10449""
","
","","","767.3999999999069","","","12","6205","2069","&#9776;","elianto","#3366ff99"," "," ","1","+10","[1620.6000000000931]","1","0","1","","","","","","","",""
"pit-trial","31","394255","0.0-2.0-8.2-1.2","battery-v0.2","","""event"",""trial"",""time""
""fullscreenenter"",""1"",""10449""
","
","
","""event"",""trial"",""time""
""fullscreenenter"",""1"",""10449""
","
","","","835.7999999998137","","","12","6205","2069","&#9776;","elianto","#3366ff99"," "," ","1","+10","[1686.7000000001863]","1","0","1","","","","","","","",""
"pit-trial","32","397844","0.0-2.0-8.2-2.2","battery-v0.2","","""event"",""trial"",""time""
""fullscreenenter"",""1"",""10449""
","
","
","""event"",""trial"",""time""
""fullscreenenter"",""1"",""10449""
","
","","","726.1000000000931","","","12","6205","2069","&#9776;","elianto","#3366ff99"," "," ","1","+10","[1580.7999999998137]","1","0","1","","","","","","","",""
"pit-trial","33","401501","0.0-2.0-8.2-3.2","battery-v0.2","","""event"",""trial"",""time""
""fullscreenenter"",""1"",""10449""
","
","
","""event"",""trial"",""time""
""fullscreenenter"",""1"",""10449""
","
","","","798.2000000001863","","","12","6205","2069","&#9776;","elianto","#3366ff99"," "," ","1","0","[1650.1999999997206]","1","0","1","","","","","","","",""
"pit-trial","34","405301","0.0-2.0-8.2-4.2","battery-v0.2","","""event"",""trial"",""time""
""fullscreenenter"",""1"",""10449""
","
","
","""event"",""trial"",""time""
""fullscreenenter"",""1"",""10449""
","
","","","938","","","12","6205","2069","&#9776;","elianto","#3366ff99"," "," ","1","+10","[1790]","1","0","1","","","","","","","",""
"call-function","35","405310","0.0-2.0-9.0","battery-v0.2","","""event"",""trial"",""time""
""fullscreenenter"",""1"",""10449""
","
","
","""event"",""trial"",""time""
""fullscreenenter"",""1"",""10449""
","
","","","","","","","","","","","","","","","","","","","","","","","","","","",""
"pit-instructions","36","444878","0.0-2.0-10.0","battery-v0.2","","""event"",""trial"",""time""
""fullscreenenter"",""1"",""10449""
","
","
","""event"",""trial"",""time""
""fullscreenenter"",""1"",""10449""
","
","","[{""page_index"":0,""viewing_time"":5021.399999999907},{""page_index"":1,""viewing_time"":6218.9000000003725},{""page_index"":2,""viewing_time"":9032.19999999972},{""page_index"":3,""viewing_time"":10587.80000000028},{""page_index"":4,""viewing_time"":8703.599999999627}]","39566","","","","","","","","","","","","","","","","","","","","","","","",""
"pit-trial","37","448822","0.0-2.0-11.0-0.0","battery-v0.2","","""event"",""trial"",""time""
""fullscreenenter"",""1"",""10449""
","
","
","""event"",""trial"",""time""
""fullscreenenter"",""1"",""10449""
","
","","","1077","","","12","6205","2069","&#9761;","elianto","#3366ff99","-1"," ","0","0","[1930.7999999998137]","1","0","2","","","","","","","",""
"pit-trial","38","452349","0.0-2.0-11.0-1.0","battery-v0.2","","""event"",""trial"",""time""
""fullscreenenter"",""1"",""10449""
","
","
","""event"",""trial"",""time""
""fullscreenenter"",""1"",""10449""
","
","","","667.8999999999069","","","12","6205","2069","&#9761;","elianto","#3366ff99","-1"," ","0","0","[1520.3999999999069]","1","0","2","","","","","","","",""
"pit-trial","39","455574","0.0-2.0-11.0-2.0","battery-v0.2","","""event"",""trial"",""time""
""fullscreenenter"",""1"",""10449""
","
","
","""event"",""trial"",""time""
""fullscreenenter"",""1"",""10449""
","
","","","360","","","12","6205","2069","&#9761;","elianto","#3366ff99","-1"," ","0","0","[1215.8000000002794]","1","0","2","","","","","","","",""
"pit-trial","40","460444","0.0-2.0-11.0-3.0","battery-v0.2","","""event"",""trial"",""time""
""fullscreenenter"",""1"",""10449""
","
","
","""event"",""trial"",""time""
""fullscreenenter"",""1"",""10449""
","
","","","-1","","","12","6205","2069","&#9761;","elianto","#3366ff99","-1","-1","1","0","[]","0","0","2","","","","","","","",""
"pit-trial","41","465310","0.0-2.0-11.0-4.0","battery-v0.2","","""event"",""trial"",""time""
""fullscreenenter"",""1"",""10449""
","
","
","""event"",""trial"",""time""
""fullscreenenter"",""1"",""10449""
","
","","","-1","","","12","6205","2069","&#9761;","elianto","#3366ff99","-1","-1","1","+10","[]","0","0","2","","","","","","","",""
"pit-trial","42","470182","0.0-2.0-11.1-0.1","battery-v0.2","","""event"",""trial"",""time""
""fullscreenenter"",""1"",""10449""
","
","
","""event"",""trial"",""time""
""fullscreenenter"",""1"",""10449""
","
","","","-1","","","12","6205","2069","&#9761;","elianto","#3366ff99","-1","-1","1","+10","[]","0","0","2","","","","","","","",""
"pit-trial","43","475053","0.0-2.0-11.1-1.1","battery-v0.2","","""event"",""trial"",""time""
""fullscreenenter"",""1"",""10449""
","
","
","""event"",""trial"",""time""
""fullscreenenter"",""1"",""10449""
","
","","","-1","","","12","6205","2069","&#9761;","elianto","#3366ff99","-1","-1","1","+10","[]","0","0","2","","","","","","","",""
"pit-trial","44","479926","0.0-2.0-11.1-2.1","battery-v0.2","","""event"",""trial"",""time""
""fullscreenenter"",""1"",""10449""
","
","
","""event"",""trial"",""time""
""fullscreenenter"",""1"",""10449""
","
","","","-1","","","12","6205","2069","&#9761;","elianto","#3366ff99","-1","-1","1","+10","[]","0","0","2","","","","","","","",""
"pit-trial","45","484798","0.0-2.0-11.1-3.1","battery-v0.2","","""event"",""trial"",""time""
""fullscreenenter"",""1"",""10449""
","
","
","""event"",""trial"",""time""
""fullscreenenter"",""1"",""10449""
","
","","","-1","","","12","6205","2069","&#9761;","elianto","#3366ff99","-1","-1","1","0","[]","0","0","2","","","","","","","",""
"pit-trial","46","489669","0.0-2.0-11.1-4.1","battery-v0.2","","""event"",""trial"",""time""
""fullscreenenter"",""1"",""10449""
","
","
","""event"",""trial"",""time""
""fullscreenenter"",""1"",""10449""
","
","","","-1","","","12","6205","2069","&#9761;","elianto","#3366ff99","-1","-1","1","+10","[]","0","0","2","","","","","","","",""
"pit-trial","47","494542","0.0-2.0-11.2-0.2","battery-v0.2","","""event"",""trial"",""time""
""fullscreenenter"",""1"",""10449""
","
","
","""event"",""trial"",""time""
""fullscreenenter"",""1"",""10449""
","
","","","-1","","","12","6205","2069","&#9761;","elianto","#3366ff99","-1","-1","1","+10","[]","0","0","2","","","","","","","",""
"pit-trial","48","499413","0.0-2.0-11.2-1.2","battery-v0.2","","""event"",""trial"",""time""
""fullscreenenter"",""1"",""10449""
","
","
","""event"",""trial"",""time""
""fullscreenenter"",""1"",""10449""
","
","","","-1","","","12","6205","2069","&#9761;","elianto","#3366ff99","-1","-1","1","+10","[]","0","0","2","","","","","","","",""
"pit-trial","49","504285","0.0-2.0-11.2-2.2","battery-v0.2","","""event"",""trial"",""time""
""fullscreenenter"",""1"",""10449""
","
","
","""event"",""trial"",""time""
""fullscreenenter"",""1"",""10449""
","
","","","-1","","","12","6205","2069","&#9761;","elianto","#3366ff99","-1","-1","1","+10","[]","0","0","2","","","","","","","",""
"pit-trial","50","509157","0.0-2.0-11.2-3.2","battery-v0.2","","""event"",""trial"",""time""
""fullscreenenter"",""1"",""10449""
","
","
","""event"",""trial"",""time""
""fullscreenenter"",""1"",""10449""
","
","","","-1","","","12","6205","2069","&#9761;","elianto","#3366ff99","-1","-1","1","0","[]","0","0","2","","","","","","","",""
"pit-trial","51","514030","0.0-2.0-11.2-4.2","battery-v0.2","","""event"",""trial"",""time""
""fullscreenenter"",""1"",""10449""
","
","
","""event"",""trial"",""time""
""fullscreenenter"",""1"",""10449""
","
","","","-1","","","12","6205","2069","&#9761;","elianto","#3366ff99","-1","-1","1","+10","[]","0","0","2","","","","","","","",""
"pit-trial","52","518902","0.0-2.0-11.3-0.3","battery-v0.2","","""event"",""trial"",""time""
""fullscreenenter"",""1"",""10449""
","
","
","""event"",""trial"",""time""
""fullscreenenter"",""1"",""10449""
","
","","","-1","","","12","6205","2069","&#9761;","elianto","#3366ff99","-1","-1","1","+10","[]","0","0","2","","","","","","","",""
"pit-trial","53","523773","0.0-2.0-11.3-1.3","battery-v0.2","","""event"",""trial"",""time""
""fullscreenenter"",""1"",""10449""
","
","
","""event"",""trial"",""time""
""fullscreenenter"",""1"",""10449""
","
","","","-1","","","12","6205","2069","&#9761;","elianto","#3366ff99","-1","-1","1","+10","[]","0","0","2","","","","","","","",""
"pit-trial","54","528645","0.0-2.0-11.3-2.3","battery-v0.2","","""event"",""trial"",""time""
""fullscreenenter"",""1"",""10449""
","
","
","""event"",""trial"",""time""
""fullscreenenter"",""1"",""10449""
","
","","","-1","","","12","6205","2069","&#9761;","elianto","#3366ff99","-1","-1","1","+10","[]","0","0","2","","","","","","","",""
"pit-trial","55","533514","0.0-2.0-11.3-3.3","battery-v0.2","","""event"",""trial"",""time""
""fullscreenenter"",""1"",""10449""
","
","
","""event"",""trial"",""time""
""fullscreenenter"",""1"",""10449""
","
","","","-1","","","12","6205","2069","&#9761;","elianto","#3366ff99","-1","-1","1","0","[]","0","0","2","","","","","","","",""
"pit-trial","56","538382","0.0-2.0-11.3-4.3","battery-v0.2","","""event"",""trial"",""time""
""fullscreenenter"",""1"",""10449""
","
","
","""event"",""trial"",""time""
""fullscreenenter"",""1"",""10449""
","
","","","-1","","","12","6205","2069","&#9761;","elianto","#3366ff99","-1","-1","1","+10","[]","0","0","2","","","","","","","",""
"call-function","57","538388","0.0-2.0-12.0","battery-v0.2","","""event"",""trial"",""time""
""fullscreenenter"",""1"",""10449""
","
","
","""event"",""trial"",""time""
""fullscreenenter"",""1"",""10449""
","
","","","","","","","","","","","","","","","","","","","","","","","","","","",""
"pit-instructions","58","570836","0.0-2.0-13.0","battery-v0.2","","""event"",""trial"",""time""
""fullscreenenter"",""1"",""10449""
","
","
","""event"",""trial"",""time""
""fullscreenenter"",""1"",""10449""
","
","","[{""page_index"":0,""viewing_time"":4309.899999999907},{""page_index"":1,""viewing_time"":7474.199999999721},{""page_index"":2,""viewing_time"":3806.5},{""page_index"":3,""viewing_time"":11280.900000000373},{""page_index"":4,""viewing_time"":5571.299999999814}]","32445.69999999972","","","","","","","","","","","","","","","","","","","","","","","",""
"pit-trial","59","575701","0.0-2.0-14.0-0.0","battery-v0.2","","""event"",""trial"",""time""
""fullscreenenter"",""1"",""10449""
","
","
","""event"",""trial"",""time""
""fullscreenenter"",""1"",""10449""
","
","","","-1","","","12","6205","2069","&#9826;","elianto","#f73b6a7A","-1","-1","1","0","[]","0","0","3","","","","","","","",""
"pit-trial","60","580573","0.0-2.0-14.0-1.0","battery-v0.2","","""event"",""trial"",""time""
""fullscreenenter"",""1"",""10449""
","
","
","""event"",""trial"",""time""
""fullscreenenter"",""1"",""10449""
","
","","","-1","","","12","6205","2069","&#9826;","elianto","#f73b6a7A","-1","-1","1","0","[]","0","0","3","","","","","","","",""
"pit-trial","61","585437","0.0-2.0-14.0-2.0","battery-v0.2","","""event"",""trial"",""time""
""fullscreenenter"",""1"",""10449""
","
","
","""event"",""trial"",""time""
""fullscreenenter"",""1"",""10449""
","
","","","-1","","","12","6205","2069","&#9826;","elianto","#f73b6a7A","-1","-1","1","0","[]","0","0","3","","","","","","","",""
"pit-trial","62","588757","0.0-2.0-14.0-3.0","battery-v0.2","","""event"",""trial"",""time""
""fullscreenenter"",""1"",""10449""
","
","
","""event"",""trial"",""time""
""fullscreenenter"",""1"",""10449""
","
","","","457.3000000002794","","","12","6205","2069","&#9826;","elianto","#f73b6a7A","-1"," ","0","0","[1309.2000000001863]","1","0","3","","","","","","","",""
"pit-trial","63","592124","0.0-2.0-14.0-4.0","battery-v0.2","","""event"",""trial"",""time""
""fullscreenenter"",""1"",""10449""
","
","
","""event"",""trial"",""time""
""fullscreenenter"",""1"",""10449""
","
","","","508.79999999981374","","","12","6205","2069","&#9826;","elianto","#f73b6a7A","-1"," ","0","-10","[1359.8999999999069]","1","0","3","","","","","","","",""
"pit-trial","64","596997","0.0-2.0-14.1-0.1","battery-v0.2","","""event"",""trial"",""time""
""fullscreenenter"",""1"",""10449""
","
","
","""event"",""trial"",""time""
""fullscreenenter"",""1"",""10449""
","
","","","-1","","","12","6205","2069","&#9826;","elianto","#f73b6a7A","-1","-1","1","0","[]","0","0","3","","","","","","","",""
"pit-trial","65","601863","0.0-2.0-14.1-1.1","battery-v0.2","","""event"",""trial"",""time""
""fullscreenenter"",""1"",""10449""
","
","
","""event"",""trial"",""time""
""fullscreenenter"",""1"",""10449""
","
","","","-1","","","12","6205","2069","&#9826;","elianto","#f73b6a7A","-1","-1","1","0","[]","0","0","3","","","","","","","",""
"pit-trial","66","606733","0.0-2.0-14.1-2.1","battery-v0.2","","""event"",""trial"",""time""
""fullscreenenter"",""1"",""10449""
","
","
","""event"",""trial"",""time""
""fullscreenenter"",""1"",""10449""
","
","","","-1","","","12","6205","2069","&#9826;","elianto","#f73b6a7A","-1","-1","1","0","[]","0","0","3","","","","","","","",""
"pit-trial","67","611605","0.0-2.0-14.1-3.1","battery-v0.2","","""event"",""trial"",""time""
""fullscreenenter"",""1"",""10449""
","
","
","""event"",""trial"",""time""
""fullscreenenter"",""1"",""10449""
","
","","","-1","","","12","6205","2069","&#9826;","elianto","#f73b6a7A","-1","-1","1","-10","[]","0","0","3","","","","","","","",""
"pit-trial","68","616477","0.0-2.0-14.1-4.1","battery-v0.2","","""event"",""trial"",""time""
""fullscreenenter"",""1"",""10449""
","
","
","""event"",""trial"",""time""
""fullscreenenter"",""1"",""10449""
","
","","","-1","","","12","6205","2069","&#9826;","elianto","#f73b6a7A","-1","-1","1","0","[]","0","0","3","","","","","","","",""
"pit-trial","69","621349","0.0-2.0-14.2-0.2","battery-v0.2","","""event"",""trial"",""time""
""fullscreenenter"",""1"",""10449""
","
","
","""event"",""trial"",""time""
""fullscreenenter"",""1"",""10449""
","
","","","-1","","","12","6205","2069","&#9826;","elianto","#f73b6a7A","-1","-1","1","0","[]","0","0","3","","","","","","","",""
"pit-trial","70","626221","0.0-2.0-14.2-1.2","battery-v0.2","","""event"",""trial"",""time""
""fullscreenenter"",""1"",""10449""
","
","
","""event"",""trial"",""time""
""fullscreenenter"",""1"",""10449""
","
","","","-1","","","12","6205","2069","&#9826;","elianto","#f73b6a7A","-1","-1","1","0","[]","0","0","3","","","","","","","",""
"pit-trial","71","631094","0.0-2.0-14.2-2.2","battery-v0.2","","""event"",""trial"",""time""
""fullscreenenter"",""1"",""10449""
","
","
","""event"",""trial"",""time""
""fullscreenenter"",""1"",""10449""
","
","","","-1","","","12","6205","2069","&#9826;","elianto","#f73b6a7A","-1","-1","1","0","[]","0","0","3","","","","","","","",""
"pit-trial","72","635965","0.0-2.0-14.2-3.2","battery-v0.2","","""event"",""trial"",""time""
""fullscreenenter"",""1"",""10449""
","
","
","""event"",""trial"",""time""
""fullscreenenter"",""1"",""10449""
","
","","","-1","","","12","6205","2069","&#9826;","elianto","#f73b6a7A","-1","-1","1","-10","[]","0","0","3","","","","","","","",""
"pit-trial","73","640838","0.0-2.0-14.2-4.2","battery-v0.2","","""event"",""trial"",""time""
""fullscreenenter"",""1"",""10449""
","
","
","""event"",""trial"",""time""
""fullscreenenter"",""1"",""10449""
","
","","","-1","","","12","6205","2069","&#9826;","elianto","#f73b6a7A","-1","-1","1","0","[]","0","0","3","","","","","","","",""
"pit-trial","74","645709","0.0-2.0-14.3-0.3","battery-v0.2","","""event"",""trial"",""time""
""fullscreenenter"",""1"",""10449""
","
","
","""event"",""trial"",""time""
""fullscreenenter"",""1"",""10449""
","
","","","-1","","","12","6205","2069","&#9826;","elianto","#f73b6a7A","-1","-1","1","0","[]","0","0","3","","","","","","","",""
"pit-trial","75","650582","0.0-2.0-14.3-1.3","battery-v0.2","","""event"",""trial"",""time""
""fullscreenenter"",""1"",""10449""
","
","
","""event"",""trial"",""time""
""fullscreenenter"",""1"",""10449""
","
","","","-1","","","12","6205","2069","&#9826;","elianto","#f73b6a7A","-1","-1","1","0","[]","0","0","3","","","","","","","",""
"pit-trial","76","655454","0.0-2.0-14.3-2.3","battery-v0.2","","""event"",""trial"",""time""
""fullscreenenter"",""1"",""10449""
","
","
","""event"",""trial"",""time""
""fullscreenenter"",""1"",""10449""
","
","","","-1","","","12","6205","2069","&#9826;","elianto","#f73b6a7A","-1","-1","1","0","[]","0","0","3","","","","","","","",""
"pit-trial","77","660326","0.0-2.0-14.3-3.3","battery-v0.2","","""event"",""trial"",""time""
""fullscreenenter"",""1"",""10449""
","
","
","""event"",""trial"",""time""
""fullscreenenter"",""1"",""10449""
","
","","","-1","","","12","6205","2069","&#9826;","elianto","#f73b6a7A","-1","-1","1","-10","[]","0","0","3","","","","","","","",""
"pit-trial","78","665197","0.0-2.0-14.3-4.3","battery-v0.2","","""event"",""trial"",""time""
""fullscreenenter"",""1"",""10449""
","
","
","""event"",""trial"",""time""
""fullscreenenter"",""1"",""10449""
","
","","","-1","","","12","6205","2069","&#9826;","elianto","#f73b6a7A","-1","-1","1","0","[]","0","0","3","","","","","","","",""
"call-function","79","665203","0.0-2.0-15.0","battery-v0.2","","""event"",""trial"",""time""
""fullscreenenter"",""1"",""10449""
","
","
","""event"",""trial"",""time""
""fullscreenenter"",""1"",""10449""
","
","","","","","","","","","","","","","","","","","","","","","","","","","","",""
"pit-instructions","80","693692","0.0-2.0-16.0","battery-v0.2","","""event"",""trial"",""time""
""fullscreenenter"",""1"",""10449""
","
","
","""event"",""trial"",""time""
""fullscreenenter"",""1"",""10449""
","
","","[{""page_index"":0,""viewing_time"":8215.200000000186},{""page_index"":1,""viewing_time"":8727},{""page_index"":2,""viewing_time"":5553.700000000186},{""page_index"":3,""viewing_time"":5987.399999999441}]","28486","","","","","","","","","","","","","","","","","","","","","","","",""
"pit-trial","81","698557","0.0-2.0-17.0-0.0","battery-v0.2","","""event"",""trial"",""time""
""fullscreenenter"",""1"",""10449""
","
","
","""event"",""trial"",""time""
""fullscreenenter"",""1"",""10449""
","
","","","-1","","","12","6205","2069","&#9789;","elianto","#f73b6a7A"," ","-1","0","-10","[]","0","0","4","","","","","","","",""
"pit-trial","82","703420","0.0-2.0-17.0-1.0","battery-v0.2","","""event"",""trial"",""time""
""fullscreenenter"",""1"",""10449""
","
","
","""event"",""trial"",""time""
""fullscreenenter"",""1"",""10449""
","
","","","-1","","","12","6205","2069","&#9789;","elianto","#f73b6a7A"," ","-1","0","-10","[]","0","0","4","","","","","","","",""
"pit-trial","83","708284","0.0-2.0-17.0-2.0","battery-v0.2","","""event"",""trial"",""time""
""fullscreenenter"",""1"",""10449""
","
","
","""event"",""trial"",""time""
""fullscreenenter"",""1"",""10449""
","
","","","-1","","","12","6205","2069","&#9789;","elianto","#f73b6a7A"," ","-1","0","-10","[]","0","0","4","","","","","","","",""
"pit-trial","84","711822","0.0-2.0-17.0-3.0","battery-v0.2","","""event"",""trial"",""time""
""fullscreenenter"",""1"",""10449""
","
","
","""event"",""trial"",""time""
""fullscreenenter"",""1"",""10449""
","
","","","672.5999999996275","","","12","6205","2069","&#9789;","elianto","#f73b6a7A"," "," ","1","-10","[1523.8999999994412]","1","0","4","","","","","","","",""
"pit-trial","85","715164","0.0-2.0-17.0-4.0","battery-v0.2","","""event"",""trial"",""time""
""fullscreenenter"",""1"",""10449""
","
","
","""event"",""trial"",""time""
""fullscreenenter"",""1"",""10449""
","
","","","473.5","","","12","6205","2069","&#9789;","elianto","#f73b6a7A"," "," ","1","0","[1330.2000000001863]","1","0","4","","","","","","","",""
"pit-trial","86","718382","0.0-2.0-17.1-0.1","battery-v0.2","","""event"",""trial"",""time""
""fullscreenenter"",""1"",""10449""
","
","
","""event"",""trial"",""time""
""fullscreenenter"",""1"",""10449""
","
","","","353.59999999962747","","","12","6205","2069","&#9789;","elianto","#f73b6a7A"," "," ","1","0","[1207.7000000001863]","1","0","4","","","","","","","",""
"pit-trial","87","721436","0.0-2.0-17.1-1.1","battery-v0.2","","""event"",""trial"",""time""
""fullscreenenter"",""1"",""10449""
","
","
","""event"",""trial"",""time""
""fullscreenenter"",""1"",""10449""
","
","","","188.6000000005588","","","12","6205","2069","&#9789;","elianto","#f73b6a7A"," "," ","1","0","[1041.7999999998137]","1","0","4","","","","","","","",""
"pit-trial","88","724310","0.0-2.0-17.1-2.1","battery-v0.2","","""event"",""trial"",""time""
""fullscreenenter"",""1"",""10449""
","
","
","""event"",""trial"",""time""
""fullscreenenter"",""1"",""10449""
","
","","","14.400000000372529","","","12","6205","2069","&#9789;","elianto","#f73b6a7A"," "," ","1","0","[866.2999999998137]","1","0","4","","","","","","","",""
"pit-trial","89","727350","0.0-2.0-17.1-3.1","battery-v0.2","","""event"",""trial"",""time""
""fullscreenenter"",""1"",""10449""
","
","
","""event"",""trial"",""time""
""fullscreenenter"",""1"",""10449""
","
","","","179.70000000018626","","","12","6205","2069","&#9789;","elianto","#f73b6a7A"," "," ","1","-10","[1030]","1","0","4","","","","","","","",""
"pit-trial","90","730342","0.0-2.0-17.1-4.1","battery-v0.2","","""event"",""trial"",""time""
""fullscreenenter"",""1"",""10449""
","
","
","""event"",""trial"",""time""
""fullscreenenter"",""1"",""10449""
","
","","","122.79999999981374","","","12","6205","2069","&#9789;","elianto","#f73b6a7A"," "," ","1","0","[978.7999999998137]","1","0","4","","","","","","","",""
"pit-trial","91","733373","0.0-2.0-17.2-0.2","battery-v0.2","","""event"",""trial"",""time""
""fullscreenenter"",""1"",""10449""
","
","
","""event"",""trial"",""time""
""fullscreenenter"",""1"",""10449""
","
","","","164.1000000005588","","","12","6205","2069","&#9789;","elianto","#f73b6a7A"," "," ","1","0","[1017.6000000005588]","1","0","4","","","","","","","",""
"pit-trial","92","736653","0.0-2.0-17.2-1.2","battery-v0.2","","""event"",""trial"",""time""
""fullscreenenter"",""1"",""10449""
","
","
","""event"",""trial"",""time""
""fullscreenenter"",""1"",""10449""
","
","","","402.79999999981374","","","12","6205","2069","&#9789;","elianto","#f73b6a7A"," "," ","1","0","[1263.7999999998137]","1","0","4","","","","","","","",""
"pit-trial","93","739702","0.0-2.0-17.2-2.2","battery-v0.2","","""event"",""trial"",""time""
""fullscreenenter"",""1"",""10449""
","
","
","""event"",""trial"",""time""
""fullscreenenter"",""1"",""10449""
","
","","","180.09999999962747","","","12","6205","2069","&#9789;","elianto","#f73b6a7A"," "," ","1","0","[1034.5]","1","0","4","","","","","","","",""
"pit-trial","94","742701","0.0-2.0-17.2-3.2","battery-v0.2","","""event"",""trial"",""time""
""fullscreenenter"",""1"",""10449""
","
","
","""event"",""trial"",""time""
""fullscreenenter"",""1"",""10449""
","
","","","134.20000000018626","","","12","6205","2069","&#9789;","elianto","#f73b6a7A"," "," ","1","-10","[990.5]","1","0","4","","","","","","","",""
"pit-trial","95","745765","0.0-2.0-17.2-4.2","battery-v0.2","","""event"",""trial"",""time""
""fullscreenenter"",""1"",""10449""
","
","
","""event"",""trial"",""time""
""fullscreenenter"",""1"",""10449""
","
","","","195.70000000018626","","","12","6205","2069","&#9789;","elianto","#f73b6a7A"," "," ","1","0","[1052.5999999996275]","1","0","4","","","","","","","",""
"pit-trial","96","748781","0.0-2.0-17.3-0.3","battery-v0.2","","""event"",""trial"",""time""
""fullscreenenter"",""1"",""10449""
","
","
","""event"",""trial"",""time""
""fullscreenenter"",""1"",""10449""
","
","","","153.8999999994412","","","12","6205","2069","&#9789;","elianto","#f73b6a7A"," "," ","1","0","[1004.7999999998137]","1","0","4","","","","","","","",""
"pit-trial","97","751837","0.0-2.0-17.3-1.3","battery-v0.2","","""event"",""trial"",""time""
""fullscreenenter"",""1"",""10449""
","
","
","""event"",""trial"",""time""
""fullscreenenter"",""1"",""10449""
","
","","","192.70000000018626","","","12","6205","2069","&#9789;","elianto","#f73b6a7A"," "," ","1","0","[1045.5999999996275]","1","0","4","","","","","","","",""
"pit-trial","98","754780","0.0-2.0-17.3-2.3","battery-v0.2","","""event"",""trial"",""time""
""fullscreenenter"",""1"",""10449""
","
","
","""event"",""trial"",""time""
""fullscreenenter"",""1"",""10449""
","
","","","77.6000000005588","","","12","6205","2069","&#9789;","elianto","#f73b6a7A"," "," ","1","0","[928.2000000001863]","1","0","4","","","","","","","",""
"pit-trial","99","758109","0.0-2.0-17.3-3.3","battery-v0.2","","""event"",""trial"",""time""
""fullscreenenter"",""1"",""10449""
","
","
","""event"",""trial"",""time""
""fullscreenenter"",""1"",""10449""
","
","","","466.20000000018626","","","12","6205","2069","&#9789;","elianto","#f73b6a7A"," "," ","1","-10","[1318]","1","0","4","","","","","","","",""
"pit-trial","100","761429","0.0-2.0-17.3-4.3","battery-v0.2","","""event"",""trial"",""time""
""fullscreenenter"",""1"",""10449""
","
","
","""event"",""trial"",""time""
""fullscreenenter"",""1"",""10449""
","
","","","457.90000000037253","","","12","6205","2069","&#9789;","elianto","#f73b6a7A"," "," ","1","0","[1308.2999999998137]","1","0","4","","","","","","","",""
"call-function","101","761433","0.0-2.0-18.0","battery-v0.2","","""event"",""trial"",""time""
""fullscreenenter"",""1"",""10449""
""blur"",""102"",""783066""
""focus"",""102"",""787999""
""blur"",""102"",""788011""
""focus"",""102"",""792258""
""blur"",""102"",""828518""
""focus"",""102"",""830193""
","""event"",""trial"",""time""
""blur"",""102"",""783066""
""blur"",""102"",""788011""
""blur"",""102"",""828518""
","""event"",""trial"",""time""
""focus"",""102"",""787999""
""focus"",""102"",""792258""
""focus"",""102"",""830193""
","""event"",""trial"",""time""
""fullscreenenter"",""1"",""10449""
","
","","","","","","","","","","","","","","","","","","","","","","","","","","",""
"pit-instructions","102","846175","0.0-2.0-19.0","battery-v0.2","","""event"",""trial"",""time""
""fullscreenenter"",""1"",""10449""
""blur"",""102"",""783066""
""focus"",""102"",""787999""
""blur"",""102"",""788011""
""focus"",""102"",""792258""
""blur"",""102"",""828518""
""focus"",""102"",""830193""
","""event"",""trial"",""time""
""blur"",""102"",""783066""
""blur"",""102"",""788011""
""blur"",""102"",""828518""
","""event"",""trial"",""time""
""focus"",""102"",""787999""
""focus"",""102"",""792258""
""focus"",""102"",""830193""
","""event"",""trial"",""time""
""fullscreenenter"",""1"",""10449""
","
","","[{""page_index"":0,""viewing_time"":6320.600000000559},{""page_index"":1,""viewing_time"":6628.299999999814},{""page_index"":2,""viewing_time"":18938.299999999814},{""page_index"":3,""viewing_time"":7628.700000000186},{""page_index"":4,""viewing_time"":14164.099999999627},{""page_index"":5,""viewing_time"":9248.300000000745},{""page_index"":6,""viewing_time"":9538.699999999255},{""page_index"":7,""viewing_time"":6892.5},{""page_index"":8,""viewing_time"":5379.300000000745}]","84740","","","","","","","","","","","","","","","","","","","","","","","",""
"pit-comprehension","103","851535","0.0-2.0-20.0-0.0","battery-v0.2","","""event"",""trial"",""time""
""fullscreenenter"",""1"",""10449""
""blur"",""102"",""783066""
""focus"",""102"",""787999""
""blur"",""102"",""788011""
""focus"",""102"",""792258""
""blur"",""102"",""828518""
""focus"",""102"",""830193""
","""event"",""trial"",""time""
""blur"",""102"",""783066""
""blur"",""102"",""788011""
""blur"",""102"",""828518""
","""event"",""trial"",""time""
""focus"",""102"",""787999""
""focus"",""102"",""792258""
""focus"",""102"",""830193""
","""event"",""trial"",""time""
""fullscreenenter"",""1"",""10449""
","
","","","5348.5","[""SPACE""]","0","12","6205","2069","","","","","","","","","","","","","","","","","","",""
"pit-instructions","104","855258","0.0-2.0-20.0-1.0","battery-v0.2","","""event"",""trial"",""time""
""fullscreenenter"",""1"",""10449""
""blur"",""102"",""783066""
""focus"",""102"",""787999""
""blur"",""102"",""788011""
""focus"",""102"",""792258""
""blur"",""102"",""828518""
""focus"",""102"",""830193""
","""event"",""trial"",""time""
""blur"",""102"",""783066""
""blur"",""102"",""788011""
""blur"",""102"",""828518""
","""event"",""trial"",""time""
""focus"",""102"",""787999""
""focus"",""102"",""792258""
""focus"",""102"",""830193""
","""event"",""trial"",""time""
""fullscreenenter"",""1"",""10449""
","
","","[{""page_index"":0,""viewing_time"":3638.7000000001863}]","3639.7000000001863","","","","","","","","","","","","","","","","","","","","","","","",""
"pit-comprehension","105","861742","0.0-2.0-21.0-0.0","battery-v0.2","","""event"",""trial"",""time""
""fullscreenenter"",""1"",""10449""
""blur"",""102"",""783066""
""focus"",""102"",""787999""
""blur"",""102"",""788011""
""focus"",""102"",""792258""
""blur"",""102"",""828518""
""focus"",""102"",""830193""
","""event"",""trial"",""time""
""blur"",""102"",""783066""
""blur"",""102"",""788011""
""blur"",""102"",""828518""
","""event"",""trial"",""time""
""focus"",""102"",""787999""
""focus"",""102"",""792258""
""focus"",""102"",""830193""
","""event"",""trial"",""time""
""fullscreenenter"",""1"",""10449""
","
","","","6473","[""10""]","0","12","6205","2069","","","","","","","","","","","","","","","","","","",""
"pit-instructions","106","868465","0.0-2.0-21.0-1.0","battery-v0.2","","""event"",""trial"",""time""
""fullscreenenter"",""1"",""10449""
""blur"",""102"",""783066""
""focus"",""102"",""787999""
""blur"",""102"",""788011""
""focus"",""102"",""792258""
""blur"",""102"",""828518""
""focus"",""102"",""830193""
","""event"",""trial"",""time""
""blur"",""102"",""783066""
""blur"",""102"",""788011""
""blur"",""102"",""828518""
","""event"",""trial"",""time""
""focus"",""102"",""787999""
""focus"",""102"",""792258""
""focus"",""102"",""830193""
","""event"",""trial"",""time""
""fullscreenenter"",""1"",""10449""
","
","","[{""page_index"":0,""viewing_time"":6642.9000000003725}]","6644","","","","","","","","","","","","","","","","","","","","","","","",""
"pit-comprehension","107","874607","0.0-2.0-22.0-0.0","battery-v0.2","","""event"",""trial"",""time""
""fullscreenenter"",""1"",""10449""
""blur"",""102"",""783066""
""focus"",""102"",""787999""
""blur"",""102"",""788011""
""focus"",""102"",""792258""
""blur"",""102"",""828518""
""focus"",""102"",""830193""
","""event"",""trial"",""time""
""blur"",""102"",""783066""
""blur"",""102"",""788011""
""blur"",""102"",""828518""
","""event"",""trial"",""time""
""focus"",""102"",""787999""
""focus"",""102"",""792258""
""focus"",""102"",""830193""
","""event"",""trial"",""time""
""fullscreenenter"",""1"",""10449""
","
","","","6131.700000000186","[""-10""]","1","12","6205","2069","","","","","","","","","","","","","","","","","","",""
"pit-instructions","108","876760","0.0-2.0-22.0-1.0","battery-v0.2","","""event"",""trial"",""time""
""fullscreenenter"",""1"",""10449""
""blur"",""102"",""783066""
""focus"",""102"",""787999""
""blur"",""102"",""788011""
""focus"",""102"",""792258""
""blur"",""102"",""828518""
""focus"",""102"",""830193""
","""event"",""trial"",""time""
""blur"",""102"",""783066""
""blur"",""102"",""788011""
""blur"",""102"",""828518""
","""event"",""trial"",""time""
""focus"",""102"",""787999""
""focus"",""102"",""792258""
""focus"",""102"",""830193""
","""event"",""trial"",""time""
""fullscreenenter"",""1"",""10449""
","
","","[{""page_index"":0,""viewing_time"":2053.2000000001863}]","2054.300000000745","","","","","","","","","","","","","","","","","","","","","","","",""
"pit-instructions","109","883412","0.0-2.0-22.0-2.0-0.0","battery-v0.2","","""event"",""trial"",""time""
""fullscreenenter"",""1"",""10449""
""blur"",""102"",""783066""
""focus"",""102"",""787999""
""blur"",""102"",""788011""
""focus"",""102"",""792258""
""blur"",""102"",""828518""
""focus"",""102"",""830193""
","""event"",""trial"",""time""
""blur"",""102"",""783066""
""blur"",""102"",""788011""
""blur"",""102"",""828518""
","""event"",""trial"",""time""
""focus"",""102"",""787999""
""focus"",""102"",""792258""
""focus"",""102"",""830193""
","""event"",""trial"",""time""
""fullscreenenter"",""1"",""10449""
","
","","[{""page_index"":0,""viewing_time"":6646.299999999814}]","6647.5","","","","","","","","","","","","","","","","","","","","","","","",""
"pit-comprehension","110","890502","0.0-2.0-22.1-0.1","battery-v0.2","","""event"",""trial"",""time""
""fullscreenenter"",""1"",""10449""
""blur"",""102"",""783066""
""focus"",""102"",""787999""
""blur"",""102"",""788011""
""focus"",""102"",""792258""
""blur"",""102"",""828518""
""focus"",""102"",""830193""
","""event"",""trial"",""time""
""blur"",""102"",""783066""
""blur"",""102"",""788011""
""blur"",""102"",""828518""
","""event"",""trial"",""time""
""focus"",""102"",""787999""
""focus"",""102"",""792258""
""focus"",""102"",""830193""
","""event"",""trial"",""time""
""fullscreenenter"",""1"",""10449""
","
","","","7078.299999999814","[""0""]","0","12","6205","2069","","","","","","","","","","","","","","","","","","",""
"pit-instructions","111","892251","0.0-2.0-22.1-1.1","battery-v0.2","","""event"",""trial"",""time""
""fullscreenenter"",""1"",""10449""
""blur"",""102"",""783066""
""focus"",""102"",""787999""
""blur"",""102"",""788011""
""focus"",""102"",""792258""
""blur"",""102"",""828518""
""focus"",""102"",""830193""
","""event"",""trial"",""time""
""blur"",""102"",""783066""
""blur"",""102"",""788011""
""blur"",""102"",""828518""
","""event"",""trial"",""time""
""focus"",""102"",""787999""
""focus"",""102"",""792258""
""focus"",""102"",""830193""
","""event"",""trial"",""time""
""fullscreenenter"",""1"",""10449""
","
","","[{""page_index"":0,""viewing_time"":1663.3999999994412}]","1664.5999999996275","","","","","","","","","","","","","","","","","","","","","","","",""
"pit-comprehension","112","903952","0.0-2.0-23.0-0.0","battery-v0.2","","""event"",""trial"",""time""
""fullscreenenter"",""1"",""10449""
""blur"",""102"",""783066""
""focus"",""102"",""787999""
""blur"",""102"",""788011""
""focus"",""102"",""792258""
""blur"",""102"",""828518""
""focus"",""102"",""830193""
","""event"",""trial"",""time""
""blur"",""102"",""783066""
""blur"",""102"",""788011""
""blur"",""102"",""828518""
","""event"",""trial"",""time""
""focus"",""102"",""787999""
""focus"",""102"",""792258""
""focus"",""102"",""830193""
","""event"",""trial"",""time""
""fullscreenenter"",""1"",""10449""
","
","","","11685.299999999814","[""True""]","0","12","6205","2069","","","","","","","","","","","","","","","","","","",""
"pit-instructions","113","905172","0.0-2.0-23.0-1.0","battery-v0.2","","""event"",""trial"",""time""
""fullscreenenter"",""1"",""10449""
""blur"",""102"",""783066""
""focus"",""102"",""787999""
""blur"",""102"",""788011""
""focus"",""102"",""792258""
""blur"",""102"",""828518""
""focus"",""102"",""830193""
","""event"",""trial"",""time""
""blur"",""102"",""783066""
""blur"",""102"",""788011""
""blur"",""102"",""828518""
","""event"",""trial"",""time""
""focus"",""102"",""787999""
""focus"",""102"",""792258""
""focus"",""102"",""830193""
","""event"",""trial"",""time""
""fullscreenenter"",""1"",""10449""
","
","","[{""page_index"":0,""viewing_time"":1120.2999999998137}]","1121.5","","","","","","","","","","","","","","","","","","","","","","","",""
"pit-comprehension","114","912894","0.0-2.0-24.0-0.0","battery-v0.2","","""event"",""trial"",""time""
""fullscreenenter"",""1"",""10449""
""blur"",""102"",""783066""
""focus"",""102"",""787999""
""blur"",""102"",""788011""
""focus"",""102"",""792258""
""blur"",""102"",""828518""
""focus"",""102"",""830193""
","""event"",""trial"",""time""
""blur"",""102"",""783066""
""blur"",""102"",""788011""
""blur"",""102"",""828518""
","""event"",""trial"",""time""
""focus"",""102"",""787999""
""focus"",""102"",""792258""
""focus"",""102"",""830193""
","""event"",""trial"",""time""
""fullscreenenter"",""1"",""10449""
","
","","","7710.600000000559","[""True""]","0","12","6205","2069","","","","","","","","","","","","","","","","","","",""
"pit-instructions","115","915249","0.0-2.0-24.0-1.0","battery-v0.2","","""event"",""trial"",""time""
""fullscreenenter"",""1"",""10449""
""blur"",""102"",""783066""
""focus"",""102"",""787999""
""blur"",""102"",""788011""
""focus"",""102"",""792258""
""blur"",""102"",""828518""
""focus"",""102"",""830193""
","""event"",""trial"",""time""
""blur"",""102"",""783066""
""blur"",""102"",""788011""
""blur"",""102"",""828518""
","""event"",""trial"",""time""
""focus"",""102"",""787999""
""focus"",""102"",""792258""
""focus"",""102"",""830193""
","""event"",""trial"",""time""
""fullscreenenter"",""1"",""10449""
","
","","[{""page_index"":0,""viewing_time"":2227.2999999998137}]","2229.699999999255","","","","","","","","","","","","","","","","","","","","","","","",""
"pit-comprehension","116","921715","0.0-2.0-25.0-0.0","battery-v0.2","","""event"",""trial"",""time""
""fullscreenenter"",""1"",""10449""
""blur"",""102"",""783066""
""focus"",""102"",""787999""
""blur"",""102"",""788011""
""focus"",""102"",""792258""
""blur"",""102"",""828518""
""focus"",""102"",""830193""
","""event"",""trial"",""time""
""blur"",""102"",""783066""
""blur"",""102"",""788011""
""blur"",""102"",""828518""
","""event"",""trial"",""time""
""focus"",""102"",""787999""
""focus"",""102"",""792258""
""focus"",""102"",""830193""
","""event"",""trial"",""time""
""fullscreenenter"",""1"",""10449""
","
","","","6454.100000000559","[""True""]","0","12","6205","2069","","","","","","","","","","","","","","","","","","",""
"pit-instructions","117","926551","0.0-2.0-25.0-1.0","battery-v0.2","","""event"",""trial"",""time""
""fullscreenenter"",""1"",""10449""
""blur"",""102"",""783066""
""focus"",""102"",""787999""
""blur"",""102"",""788011""
""focus"",""102"",""792258""
""blur"",""102"",""828518""
""focus"",""102"",""830193""
","""event"",""trial"",""time""
""blur"",""102"",""783066""
""blur"",""102"",""788011""
""blur"",""102"",""828518""
","""event"",""trial"",""time""
""focus"",""102"",""787999""
""focus"",""102"",""792258""
""focus"",""102"",""830193""
","""event"",""trial"",""time""
""fullscreenenter"",""1"",""10449""
","
","","[{""page_index"":0,""viewing_time"":4749.5}]","4750.799999999814","","","","","","","","","","","","","","","","","","","","","","","",""
"pit-comprehension","118","934757","0.0-2.0-26.0-0.0","battery-v0.2","","""event"",""trial"",""time""
""fullscreenenter"",""1"",""10449""
""blur"",""102"",""783066""
""focus"",""102"",""787999""
""blur"",""102"",""788011""
""focus"",""102"",""792258""
""blur"",""102"",""828518""
""focus"",""102"",""830193""
","""event"",""trial"",""time""
""blur"",""102"",""783066""
""blur"",""102"",""788011""
""blur"",""102"",""828518""
","""event"",""trial"",""time""
""focus"",""102"",""787999""
""focus"",""102"",""792258""
""focus"",""102"",""830193""
","""event"",""trial"",""time""
""fullscreenenter"",""1"",""10449""
","
","","","8194.299999999814","[""False""]","0","12","6205","2069","","","","","","","","","","","","","","","","","","",""
"pit-instructions","119","936395","0.0-2.0-26.0-1.0","battery-v0.2","","""event"",""trial"",""time""
""fullscreenenter"",""1"",""10449""
""blur"",""102"",""783066""
""focus"",""102"",""787999""
""blur"",""102"",""788011""
""focus"",""102"",""792258""
""blur"",""102"",""828518""
""focus"",""102"",""830193""
","""event"",""trial"",""time""
""blur"",""102"",""783066""
""blur"",""102"",""788011""
""blur"",""102"",""828518""
","""event"",""trial"",""time""
""focus"",""102"",""787999""
""focus"",""102"",""792258""
""focus"",""102"",""830193""
","""event"",""trial"",""time""
""fullscreenenter"",""1"",""10449""
","
","","[{""page_index"":0,""viewing_time"":1548.2999999998137}]","1549.5999999996275","","","","","","","","","","","","","","","","","","","","","","","",""
"pit-instructions","120","956264","0.0-3.0","battery-v0.2","","""event"",""trial"",""time""
""fullscreenenter"",""1"",""10449""
""blur"",""102"",""783066""
""focus"",""102"",""787999""
""blur"",""102"",""788011""
""focus"",""102"",""792258""
""blur"",""102"",""828518""
""focus"",""102"",""830193""
","""event"",""trial"",""time""
""blur"",""102"",""783066""
""blur"",""102"",""788011""
""blur"",""102"",""828518""
","""event"",""trial"",""time""
""focus"",""102"",""787999""
""focus"",""102"",""792258""
""focus"",""102"",""830193""
","""event"",""trial"",""time""
""fullscreenenter"",""1"",""10449""
","
","","[{""page_index"":0,""viewing_time"":6254.600000000559},{""page_index"":1,""viewing_time"":5693.700000000186},{""page_index"":2,""viewing_time"":7909.5999999996275}]","19861.60000000056","","","","","","","","","","","","","","","","","","","","","","","",""
"pit-trial","121","960173","0.0-4.0","battery-v0.2","","""event"",""trial"",""time""
""fullscreenenter"",""1"",""10449""
""blur"",""102"",""783066""
""focus"",""102"",""787999""
""blur"",""102"",""788011""
""focus"",""102"",""792258""
""blur"",""102"",""828518""
""focus"",""102"",""830193""
","""event"",""trial"",""time""
""blur"",""102"",""783066""
""blur"",""102"",""788011""
""blur"",""102"",""828518""
","""event"",""trial"",""time""
""focus"",""102"",""787999""
""focus"",""102"",""792258""
""focus"",""102"",""830193""
","""event"",""trial"",""time""
""fullscreenenter"",""1"",""10449""
","
","","","1039.1000000005588","","","12","6205","2069","&#9733;","elianto","#3366ff99","-1"," ","0","+10","[1892.2999999998137]","1","1","","","6205","1","2","2","win","no-go","1"
"pit-trial","122","963980","0.0-5.0","battery-v0.2","","""event"",""trial"",""time""
""fullscreenenter"",""1"",""10449""
""blur"",""102"",""783066""
""focus"",""102"",""787999""
""blur"",""102"",""788011""
""focus"",""102"",""792258""
""blur"",""102"",""828518""
""focus"",""102"",""830193""
","""event"",""trial"",""time""
""blur"",""102"",""783066""
""blur"",""102"",""788011""
""blur"",""102"",""828518""
","""event"",""trial"",""time""
""focus"",""102"",""787999""
""focus"",""102"",""792258""
""focus"",""102"",""830193""
","""event"",""trial"",""time""
""fullscreenenter"",""1"",""10449""
","
","","","942.7000000001863","","","12","6205","2069","&#9730;","elianto","#3366ff99"," "," ","1","+10","[1797.5]","1","1","","","6205","2","1","1","win","go","0"
"pit-trial","123","967828","0.0-6.0","battery-v0.2","","""event"",""trial"",""time""
""fullscreenenter"",""1"",""10449""
""blur"",""102"",""783066""
""focus"",""102"",""787999""
""blur"",""102"",""788011""
""focus"",""102"",""792258""
""blur"",""102"",""828518""
""focus"",""102"",""830193""
","""event"",""trial"",""time""
""blur"",""102"",""783066""
""blur"",""102"",""788011""
""blur"",""102"",""828518""
","""event"",""trial"",""time""
""focus"",""102"",""787999""
""focus"",""102"",""792258""
""focus"",""102"",""830193""
","""event"",""trial"",""time""
""fullscreenenter"",""1"",""10449""
","
","","","984","","","12","6205","2069","&#9728;","elianto","#f73b6a7A","-1"," ","0","-10","[1835.699999999255]","1","1","","","6205","3","0","4","lose","no-go","0"
"pit-trial","124","971572","0.0-7.0","battery-v0.2","","""event"",""trial"",""time""
""fullscreenenter"",""1"",""10449""
""blur"",""102"",""783066""
""focus"",""102"",""787999""
""blur"",""102"",""788011""
""focus"",""102"",""792258""
""blur"",""102"",""828518""
""focus"",""102"",""830193""
","""event"",""trial"",""time""
""blur"",""102"",""783066""
""blur"",""102"",""788011""
""blur"",""102"",""828518""
","""event"",""trial"",""time""
""focus"",""102"",""787999""
""focus"",""102"",""792258""
""focus"",""102"",""830193""
","""event"",""trial"",""time""
""fullscreenenter"",""1"",""10449""
","
","","","882.0999999996275","","","12","6205","2069","&#9752;","elianto","#f73b6a7A"," "," ","1","0","[1733.6000000005588]","1","1","","","6205","4","3","3","lose","go","0"
"pit-trial","125","976438","0.0-8.0","battery-v0.2","","""event"",""trial"",""time""
""fullscreenenter"",""1"",""10449""
""blur"",""102"",""783066""
""focus"",""102"",""787999""
""blur"",""102"",""788011""
""focus"",""102"",""792258""
""blur"",""102"",""828518""
""focus"",""102"",""830193""
","""event"",""trial"",""time""
""blur"",""102"",""783066""
""blur"",""102"",""788011""
""blur"",""102"",""828518""
","""event"",""trial"",""time""
""focus"",""102"",""787999""
""focus"",""102"",""792258""
""focus"",""102"",""830193""
","""event"",""trial"",""time""
""fullscreenenter"",""1"",""10449""
","
","","","-1","","","12","6205","2069","&#9728;","elianto","#f73b6a7A","-1","-1","1","0","[]","0","1","","","6205","5","0","4","lose","no-go","0"
"pit-trial","126","980164","0.0-9.0","battery-v0.2","","""event"",""trial"",""time""
""fullscreenenter"",""1"",""10449""
""blur"",""102"",""783066""
""focus"",""102"",""787999""
""blur"",""102"",""788011""
""focus"",""102"",""792258""
""blur"",""102"",""828518""
""focus"",""102"",""830193""
","""event"",""trial"",""time""
""blur"",""102"",""783066""
""blur"",""102"",""788011""
""blur"",""102"",""828518""
","""event"",""trial"",""time""
""focus"",""102"",""787999""
""focus"",""102"",""792258""
""focus"",""102"",""830193""
","""event"",""trial"",""time""
""fullscreenenter"",""1"",""10449""
","
","","","863.5999999996275","","","12","6205","2069","&#9752;","elianto","#f73b6a7A"," "," ","1","0","[1719.6000000005588]","1","1","","","6205","6","3","3","lose","go","0"
"pit-trial","127","983997","0.0-10.0","battery-v0.2","","""event"",""trial"",""time""
""fullscreenenter"",""1"",""10449""
""blur"",""102"",""783066""
""focus"",""102"",""787999""
""blur"",""102"",""788011""
""focus"",""102"",""792258""
""blur"",""102"",""828518""
""focus"",""102"",""830193""
","""event"",""trial"",""time""
""blur"",""102"",""783066""
""blur"",""102"",""788011""
""blur"",""102"",""828518""
","""event"",""trial"",""time""
""focus"",""102"",""787999""
""focus"",""102"",""792258""
""focus"",""102"",""830193""
","""event"",""trial"",""time""
""fullscreenenter"",""1"",""10449""
","
","","","969.5","","","12","6205","2069","&#9733;","elianto","#3366ff99","-1"," ","0","0","[1821.5999999996275]","1","1","","","6205","7","2","2","win","no-go","0"
"pit-trial","128","987517","0.0-11.0","battery-v0.2","","""event"",""trial"",""time""
""fullscreenenter"",""1"",""10449""
""blur"",""102"",""783066""
""focus"",""102"",""787999""
""blur"",""102"",""788011""
""focus"",""102"",""792258""
""blur"",""102"",""828518""
""focus"",""102"",""830193""
","""event"",""trial"",""time""
""blur"",""102"",""783066""
""blur"",""102"",""788011""
""blur"",""102"",""828518""
","""event"",""trial"",""time""
""focus"",""102"",""787999""
""focus"",""102"",""792258""
""focus"",""102"",""830193""
","""event"",""trial"",""time""
""fullscreenenter"",""1"",""10449""
","
","","","648.5999999996275","","","12","6205","2069","&#9730;","elianto","#3366ff99"," "," ","1","+10","[1503.9000000003725]","1","1","","","6205","8","1","1","win","go","0"
"pit-trial","129","991292","0.0-12.0","battery-v0.2","","""event"",""trial"",""time""
""fullscreenenter"",""1"",""10449""
""blur"",""102"",""783066""
""focus"",""102"",""787999""
""blur"",""102"",""788011""
""focus"",""102"",""792258""
""blur"",""102"",""828518""
""focus"",""102"",""830193""
","""event"",""trial"",""time""
""blur"",""102"",""783066""
""blur"",""102"",""788011""
""blur"",""102"",""828518""
","""event"",""trial"",""time""
""focus"",""102"",""787999""
""focus"",""102"",""792258""
""focus"",""102"",""830193""
","""event"",""trial"",""time""
""fullscreenenter"",""1"",""10449""
","
","","","912.8999999994412","","","12","6205","2069","&#9730;","elianto","#3366ff99"," "," ","1","+10","[1764.7999999998137]","1","1","","","6205","9","1","1","win","go","0"
"pit-trial","130","994926","0.0-13.0","battery-v0.2","","""event"",""trial"",""time""
""fullscreenenter"",""1"",""10449""
""blur"",""102"",""783066""
""focus"",""102"",""787999""
""blur"",""102"",""788011""
""focus"",""102"",""792258""
""blur"",""102"",""828518""
""focus"",""102"",""830193""
","""event"",""trial"",""time""
""blur"",""102"",""783066""
""blur"",""102"",""788011""
""blur"",""102"",""828518""
","""event"",""trial"",""time""
""focus"",""102"",""787999""
""focus"",""102"",""792258""
""focus"",""102"",""830193""
","""event"",""trial"",""time""
""fullscreenenter"",""1"",""10449""
","
","","","770.2000000001863","","","12","6205","2069","&#9733;","elianto","#3366ff99","-1"," ","0","0","[1621.7000000001863]","1","1","","","6205","10","2","2","win","no-go","0"
"pit-trial","131","998933","0.0-14.0","battery-v0.2","","""event"",""trial"",""time""
""fullscreenenter"",""1"",""10449""
""blur"",""102"",""783066""
""focus"",""102"",""787999""
""blur"",""102"",""788011""
""focus"",""102"",""792258""
""blur"",""102"",""828518""
""focus"",""102"",""830193""
","""event"",""trial"",""time""
""blur"",""102"",""783066""
""blur"",""102"",""788011""
""blur"",""102"",""828518""
","""event"",""trial"",""time""
""focus"",""102"",""787999""
""focus"",""102"",""792258""
""focus"",""102"",""830193""
","""event"",""trial"",""time""
""fullscreenenter"",""1"",""10449""
","
","","","1135.2000000001863","","","12","6205","2069","&#9752;","elianto","#f73b6a7A"," "," ","1","0","[1990.800000000745]","1","1","","","6205","11","3","3","lose","go","0"
"pit-trial","132","1003806","0.0-15.0","battery-v0.2","","""event"",""trial"",""time""
""fullscreenenter"",""1"",""10449""
""blur"",""102"",""783066""
""focus"",""102"",""787999""
""blur"",""102"",""788011""
""focus"",""102"",""792258""
""blur"",""102"",""828518""
""focus"",""102"",""830193""
","""event"",""trial"",""time""
""blur"",""102"",""783066""
""blur"",""102"",""788011""
""blur"",""102"",""828518""
","""event"",""trial"",""time""
""focus"",""102"",""787999""
""focus"",""102"",""792258""
""focus"",""102"",""830193""
","""event"",""trial"",""time""
""fullscreenenter"",""1"",""10449""
","
","","","-1","","","12","6205","2069","&#9728;","elianto","#f73b6a7A","-1","-1","1","0","[]","0","1","","","6205","12","0","4","lose","no-go","0"
"pit-trial","133","1007333","0.0-16.0","battery-v0.2","","""event"",""trial"",""time""
""fullscreenenter"",""1"",""10449""
""blur"",""102"",""783066""
""focus"",""102"",""787999""
""blur"",""102"",""788011""
""focus"",""102"",""792258""
""blur"",""102"",""828518""
""focus"",""102"",""830193""
","""event"",""trial"",""time""
""blur"",""102"",""783066""
""blur"",""102"",""788011""
""blur"",""102"",""828518""
","""event"",""trial"",""time""
""focus"",""102"",""787999""
""focus"",""102"",""792258""
""focus"",""102"",""830193""
","""event"",""trial"",""time""
""fullscreenenter"",""1"",""10449""
","
","","","659.7999999998137","","","12","6205","2069","&#9730;","elianto","#3366ff99"," "," ","1","0","[1511.800000000745]","1","1","","","6205","13","1","1","win","go","1"
"pit-trial","134","1012206","0.0-17.0","battery-v0.2","","""event"",""trial"",""time""
""fullscreenenter"",""1"",""10449""
""blur"",""102"",""783066""
""focus"",""102"",""787999""
""blur"",""102"",""788011""
""focus"",""102"",""792258""
""blur"",""102"",""828518""
""focus"",""102"",""830193""
","""event"",""trial"",""time""
""blur"",""102"",""783066""
""blur"",""102"",""788011""
""blur"",""102"",""828518""
","""event"",""trial"",""time""
""focus"",""102"",""787999""
""focus"",""102"",""792258""
""focus"",""102"",""830193""
","""event"",""trial"",""time""
""fullscreenenter"",""1"",""10449""
","
","","","-1","","","12","6205","2069","&#9728;","elianto","#f73b6a7A","-1","-1","1","0","[]","0","1","","","6205","14","0","4","lose","no-go","0"
"pit-trial","135","1017077","0.0-18.0","battery-v0.2","","""event"",""trial"",""time""
""fullscreenenter"",""1"",""10449""
""blur"",""102"",""783066""
""focus"",""102"",""787999""
""blur"",""102"",""788011""
""focus"",""102"",""792258""
""blur"",""102"",""828518""
""focus"",""102"",""830193""
","""event"",""trial"",""time""
""blur"",""102"",""783066""
""blur"",""102"",""788011""
""blur"",""102"",""828518""
","""event"",""trial"",""time""
""focus"",""102"",""787999""
""focus"",""102"",""792258""
""focus"",""102"",""830193""
","""event"",""trial"",""time""
""fullscreenenter"",""1"",""10449""
","
","","","-1","","","12","6205","2069","&#9733;","elianto","#3366ff99","-1","-1","1","+10","[]","0","1","","","6205","15","2","2","win","no-go","0"
"pit-trial","136","1020919","0.0-19.0","battery-v0.2","","""event"",""trial"",""time""
""fullscreenenter"",""1"",""10449""
""blur"",""102"",""783066""
""focus"",""102"",""787999""
""blur"",""102"",""788011""
""focus"",""102"",""792258""
""blur"",""102"",""828518""
""focus"",""102"",""830193""
","""event"",""trial"",""time""
""blur"",""102"",""783066""
""blur"",""102"",""788011""
""blur"",""102"",""828518""
","""event"",""trial"",""time""
""focus"",""102"",""787999""
""focus"",""102"",""792258""
""focus"",""102"",""830193""
","""event"",""trial"",""time""
""fullscreenenter"",""1"",""10449""
","
","","","965.0999999996275","","","12","6205","2069","&#9752;","elianto","#f73b6a7A"," "," ","1","-10","[1821]","1","1","","","6205","16","3","3","lose","go","1"
"pit-trial","137","1024743","0.0-20.0","battery-v0.2","","""event"",""trial"",""time""
""fullscreenenter"",""1"",""10449""
""blur"",""102"",""783066""
""focus"",""102"",""787999""
""blur"",""102"",""788011""
""focus"",""102"",""792258""
""blur"",""102"",""828518""
""focus"",""102"",""830193""
","""event"",""trial"",""time""
""blur"",""102"",""783066""
""blur"",""102"",""788011""
""blur"",""102"",""828518""
","""event"",""trial"",""time""
""focus"",""102"",""787999""
""focus"",""102"",""792258""
""focus"",""102"",""830193""
","""event"",""trial"",""time""
""fullscreenenter"",""1"",""10449""
","
","","","955.1000000005588","","","12","6205","2069","&#9752;","elianto","#f73b6a7A"," "," ","1","0","[1809.7000000001863]","1","1","","","6205","17","3","3","lose","go","0"
"pit-trial","138","1029612","0.0-21.0","battery-v0.2","","""event"",""trial"",""time""
""fullscreenenter"",""1"",""10449""
""blur"",""102"",""783066""
""focus"",""102"",""787999""
""blur"",""102"",""788011""
""focus"",""102"",""792258""
""blur"",""102"",""828518""
""focus"",""102"",""830193""
","""event"",""trial"",""time""
""blur"",""102"",""783066""
""blur"",""102"",""788011""
""blur"",""102"",""828518""
","""event"",""trial"",""time""
""focus"",""102"",""787999""
""focus"",""102"",""792258""
""focus"",""102"",""830193""
","""event"",""trial"",""time""
""fullscreenenter"",""1"",""10449""
","
","","","-1","","","12","6205","2069","&#9728;","elianto","#f73b6a7A","-1","-1","1","0","[]","0","1","","","6205","18","0","4","lose","no-go","0"
"pit-trial","139","1033205","0.0-22.0","battery-v0.2","","""event"",""trial"",""time""
""fullscreenenter"",""1"",""10449""
""blur"",""102"",""783066""
""focus"",""102"",""787999""
""blur"",""102"",""788011""
""focus"",""102"",""792258""
""blur"",""102"",""828518""
""focus"",""102"",""830193""
","""event"",""trial"",""time""
""blur"",""102"",""783066""
""blur"",""102"",""788011""
""blur"",""102"",""828518""
","""event"",""trial"",""time""
""focus"",""102"",""787999""
""focus"",""102"",""792258""
""focus"",""102"",""830193""
","""event"",""trial"",""time""
""fullscreenenter"",""1"",""10449""
","
","","","725.2999999998137","","","12","6205","2069","&#9730;","elianto","#3366ff99"," "," ","1","+10","[1580.8999999994412]","1","1","","","6205","19","1","1","win","go","0"
"pit-trial","140","1038077","0.0-23.0","battery-v0.2","","""event"",""trial"",""time""
""fullscreenenter"",""1"",""10449""
""blur"",""102"",""783066""
""focus"",""102"",""787999""
""blur"",""102"",""788011""
""focus"",""102"",""792258""
""blur"",""102"",""828518""
""focus"",""102"",""830193""
","""event"",""trial"",""time""
""blur"",""102"",""783066""
""blur"",""102"",""788011""
""blur"",""102"",""828518""
","""event"",""trial"",""time""
""focus"",""102"",""787999""
""focus"",""102"",""792258""
""focus"",""102"",""830193""
","""event"",""trial"",""time""
""fullscreenenter"",""1"",""10449""
","
","","","-1","","","12","6205","2069","&#9733;","elianto","#3366ff99","-1","-1","1","+10","[]","0","1","","","6205","20","2","2","win","no-go","0"
"pit-instructions","141","1050678","0.0-24.0","battery-v0.2","","""event"",""trial"",""time""
""fullscreenenter"",""1"",""10449""
""blur"",""102"",""783066""
""focus"",""102"",""787999""
""blur"",""102"",""788011""
""focus"",""102"",""792258""
""blur"",""102"",""828518""
""focus"",""102"",""830193""
","""event"",""trial"",""time""
""blur"",""102"",""783066""
""blur"",""102"",""788011""
""blur"",""102"",""828518""
","""event"",""trial"",""time""
""focus"",""102"",""787999""
""focus"",""102"",""792258""
""focus"",""102"",""830193""
","""event"",""trial"",""time""
""fullscreenenter"",""1"",""10449""
","
","","[{""page_index"":0,""viewing_time"":6041.4000000003725},{""page_index"":1,""viewing_time"":6551.899999999441}]","12594.799999999814","","","","","","","","","","","","","","","","","","","","","","","",""
"pit-trial","142","1055404","0.0-25.0","battery-v0.2","","""event"",""trial"",""time""
""fullscreenenter"",""1"",""10449""
""blur"",""102"",""783066""
""focus"",""102"",""787999""
""blur"",""102"",""788011""
""focus"",""102"",""792258""
""blur"",""102"",""828518""
""focus"",""102"",""830193""
","""event"",""trial"",""time""
""blur"",""102"",""783066""
""blur"",""102"",""788011""
""blur"",""102"",""828518""
","""event"",""trial"",""time""
""focus"",""102"",""787999""
""focus"",""102"",""792258""
""focus"",""102"",""830193""
","""event"",""trial"",""time""
""fullscreenenter"",""1"",""10449""
","
","","","1856","","","12","6205","2069","t","elianto","#f73b6a7A","-1"," ","0","0","[2710.7999999998137]","1","2","","","6205","21","2","4","lose","no-go","1"
"pit-trial","143","1060268","0.0-26.0","battery-v0.2","","""event"",""trial"",""time""
""fullscreenenter"",""1"",""10449""
""blur"",""102"",""783066""
""focus"",""102"",""787999""
""blur"",""102"",""788011""
""focus"",""102"",""792258""
""blur"",""102"",""828518""
""focus"",""102"",""830193""
","""event"",""trial"",""time""
""blur"",""102"",""783066""
""blur"",""102"",""788011""
""blur"",""102"",""828518""
","""event"",""trial"",""time""
""focus"",""102"",""787999""
""focus"",""102"",""792258""
""focus"",""102"",""830193""
","""event"",""trial"",""time""
""fullscreenenter"",""1"",""10449""
","
","","","-1","","","12","6205","2069","n","elianto","#f73b6a7A","-1","-1","1","0","[]","0","2","","","6205","22","0","4","lose","no-go","0"
"pit-trial","144","1063821","0.0-27.0","battery-v0.2","","""event"",""trial"",""time""
""fullscreenenter"",""1"",""10449""
""blur"",""102"",""783066""
""focus"",""102"",""787999""
""blur"",""102"",""788011""
""focus"",""102"",""792258""
""blur"",""102"",""828518""
""focus"",""102"",""830193""
","""event"",""trial"",""time""
""blur"",""102"",""783066""
""blur"",""102"",""788011""
""blur"",""102"",""828518""
","""event"",""trial"",""time""
""focus"",""102"",""787999""
""focus"",""102"",""792258""
""focus"",""102"",""830193""
","""event"",""trial"",""time""
""fullscreenenter"",""1"",""10449""
","
","","","691","","","12","6205","2069","f","elianto","#3366ff99"," "," ","1","+10","[1542.6000000005588]","1","2","","","6205","23","1","1","win","go","0"
"pit-trial","145","1068684","0.0-28.0","battery-v0.2","","""event"",""trial"",""time""
""fullscreenenter"",""1"",""10449""
""blur"",""102"",""783066""
""focus"",""102"",""787999""
""blur"",""102"",""788011""
""focus"",""102"",""792258""
""blur"",""102"",""828518""
""focus"",""102"",""830193""
","""event"",""trial"",""time""
""blur"",""102"",""783066""
""blur"",""102"",""788011""
""blur"",""102"",""828518""
","""event"",""trial"",""time""
""focus"",""102"",""787999""
""focus"",""102"",""792258""
""focus"",""102"",""830193""
","""event"",""trial"",""time""
""fullscreenenter"",""1"",""10449""
","
","","","-1","","","12","6205","2069","b","elianto","#f73b6a7A"," ","-1","0","-10","[]","0","2","","","6205","24","3","3","lose","go","0"
"pit-trial","146","1072308","0.0-29.0","battery-v0.2","","""event"",""trial"",""time""
""fullscreenenter"",""1"",""10449""
""blur"",""102"",""783066""
""focus"",""102"",""787999""
""blur"",""102"",""788011""
""focus"",""102"",""792258""
""blur"",""102"",""828518""
""focus"",""102"",""830193""
","""event"",""trial"",""time""
""blur"",""102"",""783066""
""blur"",""102"",""788011""
""blur"",""102"",""828518""
","""event"",""trial"",""time""
""focus"",""102"",""787999""
""focus"",""102"",""792258""
""focus"",""102"",""830193""
","""event"",""trial"",""time""
""fullscreenenter"",""1"",""10449""
","
","","","762.6000000005588","","","12","6205","2069","t","elianto","#f73b6a7A","-1"," ","0","-10","[1614.4000000003725]","1","2","","","6205","25","2","4","lose","no-go","0"
"pit-trial","147","1076796","0.0-30.0","battery-v0.2","","""event"",""trial"",""time""
""fullscreenenter"",""1"",""10449""
""blur"",""102"",""783066""
""focus"",""102"",""787999""
""blur"",""102"",""788011""
""focus"",""102"",""792258""
""blur"",""102"",""828518""
""focus"",""102"",""830193""
","""event"",""trial"",""time""
""blur"",""102"",""783066""
""blur"",""102"",""788011""
""blur"",""102"",""828518""
","""event"",""trial"",""time""
""focus"",""102"",""787999""
""focus"",""102"",""792258""
""focus"",""102"",""830193""
","""event"",""trial"",""time""
""fullscreenenter"",""1"",""10449""
","
","","","1623.7999999998137","","","12","6205","2069","n","elianto","#f73b6a7A","-1"," ","0","0","[2475]","1","2","","","6205","26","0","4","lose","no-go","1"
"pit-trial","148","1081037","0.0-31.0","battery-v0.2","","""event"",""trial"",""time""
""fullscreenenter"",""1"",""10449""
""blur"",""102"",""783066""
""focus"",""102"",""787999""
""blur"",""102"",""788011""
""focus"",""102"",""792258""
""blur"",""102"",""828518""
""focus"",""102"",""830193""
","""event"",""trial"",""time""
""blur"",""102"",""783066""
""blur"",""102"",""788011""
""blur"",""102"",""828518""
","""event"",""trial"",""time""
""focus"",""102"",""787999""
""focus"",""102"",""792258""
""focus"",""102"",""830193""
","""event"",""trial"",""time""
""fullscreenenter"",""1"",""10449""
","
","","","1382.0999999996275","","","12","6205","2069","f","elianto","#3366ff99"," "," ","1","+10","[2232.2999999998137]","1","2","","","6205","27","1","1","win","go","0"
"pit-trial","149","1085901","0.0-32.0","battery-v0.2","","""event"",""trial"",""time""
""fullscreenenter"",""1"",""10449""
""blur"",""102"",""783066""
""focus"",""102"",""787999""
""blur"",""102"",""788011""
""focus"",""102"",""792258""
""blur"",""102"",""828518""
""focus"",""102"",""830193""
","""event"",""trial"",""time""
""blur"",""102"",""783066""
""blur"",""102"",""788011""
""blur"",""102"",""828518""
","""event"",""trial"",""time""
""focus"",""102"",""787999""
""focus"",""102"",""792258""
""focus"",""102"",""830193""
","""event"",""trial"",""time""
""fullscreenenter"",""1"",""10449""
","
","","","-1","","","12","6205","2069","b","elianto","#f73b6a7A"," ","-1","0","-10","[]","0","2","","","6205","28","3","3","lose","go","0"
"pit-trial","150","1090236","0.0-33.0","battery-v0.2","","""event"",""trial"",""time""
""fullscreenenter"",""1"",""10449""
""blur"",""102"",""783066""
""focus"",""102"",""787999""
""blur"",""102"",""788011""
""focus"",""102"",""792258""
""blur"",""102"",""828518""
""focus"",""102"",""830193""
","""event"",""trial"",""time""
""blur"",""102"",""783066""
""blur"",""102"",""788011""
""blur"",""102"",""828518""
","""event"",""trial"",""time""
""focus"",""102"",""787999""
""focus"",""102"",""792258""
""focus"",""102"",""830193""
","""event"",""trial"",""time""
""fullscreenenter"",""1"",""10449""
","
","","","1477","","","12","6205","2069","t","elianto","#f73b6a7A","-1"," ","0","-10","[2328.2999999998137]","1","2","","","6205","29","2","4","lose","no-go","0"
"pit-trial","151","1094853","0.0-34.0","battery-v0.2","","""event"",""trial"",""time""
""fullscreenenter"",""1"",""10449""
""blur"",""102"",""783066""
""focus"",""102"",""787999""
""blur"",""102"",""788011""
""focus"",""102"",""792258""
""blur"",""102"",""828518""
""focus"",""102"",""830193""
","""event"",""trial"",""time""
""blur"",""102"",""783066""
""blur"",""102"",""788011""
""blur"",""102"",""828518""
","""event"",""trial"",""time""
""focus"",""102"",""787999""
""focus"",""102"",""792258""
""focus"",""102"",""830193""
","""event"",""trial"",""time""
""fullscreenenter"",""1"",""10449""
","
","","","1751.7999999998137","","","12","6205","2069","n","elianto","#f73b6a7A","-1"," ","0","-10","[2603.5]","1","2","","","6205","30","0","4","lose","no-go","0"
"pit-trial","152","1099014","0.0-35.0","battery-v0.2","","""event"",""trial"",""time""
""fullscreenenter"",""1"",""10449""
""blur"",""102"",""783066""
""focus"",""102"",""787999""
""blur"",""102"",""788011""
""focus"",""102"",""792258""
""blur"",""102"",""828518""
""focus"",""102"",""830193""
","""event"",""trial"",""time""
""blur"",""102"",""783066""
""blur"",""102"",""788011""
""blur"",""102"",""828518""
","""event"",""trial"",""time""
""focus"",""102"",""787999""
""focus"",""102"",""792258""
""focus"",""102"",""830193""
","""event"",""trial"",""time""
""fullscreenenter"",""1"",""10449""
","
","","","1289.7000000001863","","","12","6205","2069","b","elianto","#f73b6a7A"," "," ","1","0","[2148.2999999998137]","1","2","","","6205","31","3","3","lose","go","0"
"pit-trial","153","1103504","0.0-36.0","battery-v0.2","","""event"",""trial"",""time""
""fullscreenenter"",""1"",""10449""
""blur"",""102"",""783066""
""focus"",""102"",""787999""
""blur"",""102"",""788011""
""focus"",""102"",""792258""
""blur"",""102"",""828518""
""focus"",""102"",""830193""
","""event"",""trial"",""time""
""blur"",""102"",""783066""
""blur"",""102"",""788011""
""blur"",""102"",""828518""
","""event"",""trial"",""time""
""focus"",""102"",""787999""
""focus"",""102"",""792258""
""focus"",""102"",""830193""
","""event"",""trial"",""time""
""fullscreenenter"",""1"",""10449""
","
","","","1625","","","12","6205","2069","f","elianto","#3366ff99"," "," ","1","+10","[2480]","1","2","","","6205","32","1","1","win","go","0"
"pit-trial","154","1107382","0.0-37.0","battery-v0.2","","""event"",""trial"",""time""
""fullscreenenter"",""1"",""10449""
""blur"",""102"",""783066""
""focus"",""102"",""787999""
""blur"",""102"",""788011""
""focus"",""102"",""792258""
""blur"",""102"",""828518""
""focus"",""102"",""830193""
","""event"",""trial"",""time""
""blur"",""102"",""783066""
""blur"",""102"",""788011""
""blur"",""102"",""828518""
","""event"",""trial"",""time""
""focus"",""102"",""787999""
""focus"",""102"",""792258""
""focus"",""102"",""830193""
","""event"",""trial"",""time""
""fullscreenenter"",""1"",""10449""
","
","","","1008.5","","","12","6205","2069","t","elianto","#f73b6a7A","-1"," ","0","-10","[1860.6000000005588,3697.600000000559]","2","2","","","6205","33","2","4","lose","no-go","0"
"pit-trial","155","1111293","0.0-38.0","battery-v0.2","","""event"",""trial"",""time""
""fullscreenenter"",""1"",""10449""
""blur"",""102"",""783066""
""focus"",""102"",""787999""
""blur"",""102"",""788011""
""focus"",""102"",""792258""
""blur"",""102"",""828518""
""focus"",""102"",""830193""
","""event"",""trial"",""time""
""blur"",""102"",""783066""
""blur"",""102"",""788011""
""blur"",""102"",""828518""
","""event"",""trial"",""time""
""focus"",""102"",""787999""
""focus"",""102"",""792258""
""focus"",""102"",""830193""
","""event"",""trial"",""time""
""fullscreenenter"",""1"",""10449""
","
","","","1047.1000000005588","","","12","6205","2069","f","elianto","#3366ff99"," "," ","1","0","[1902.8999999994412]","1","2","","","6205","34","1","1","win","go","1"
"pit-trial","156","1116165","0.0-39.0","battery-v0.2","","""event"",""trial"",""time""
""fullscreenenter"",""1"",""10449""
""blur"",""102"",""783066""
""focus"",""102"",""787999""
""blur"",""102"",""788011""
""focus"",""102"",""792258""
""blur"",""102"",""828518""
""focus"",""102"",""830193""
","""event"",""trial"",""time""
""blur"",""102"",""783066""
""blur"",""102"",""788011""
""blur"",""102"",""828518""
","""event"",""trial"",""time""
""focus"",""102"",""787999""
""focus"",""102"",""792258""
""focus"",""102"",""830193""
","""event"",""trial"",""time""
""fullscreenenter"",""1"",""10449""
","
","","","-1","","","12","6205","2069","b","elianto","#f73b6a7A"," ","-1","0","0","[]","0","2","","","6205","35","3","3","lose","go","1"
"pit-trial","157","1120245","0.0-40.0","battery-v0.2","","""event"",""trial"",""time""
""fullscreenenter"",""1"",""10449""
""blur"",""102"",""783066""
""focus"",""102"",""787999""
""blur"",""102"",""788011""
""focus"",""102"",""792258""
""blur"",""102"",""828518""
""focus"",""102"",""830193""
","""event"",""trial"",""time""
""blur"",""102"",""783066""
""blur"",""102"",""788011""
""blur"",""102"",""828518""
","""event"",""trial"",""time""
""focus"",""102"",""787999""
""focus"",""102"",""792258""
""focus"",""102"",""830193""
","""event"",""trial"",""time""
""fullscreenenter"",""1"",""10449""
","
","","","1215","","","12","6205","2069","n","elianto","#f73b6a7A","-1"," ","0","-10","[2071.2999999998137]","1","2","","","6205","36","0","4","lose","no-go","0"
"pit-trial","158","1124213","0.0-41.0","battery-v0.2","","""event"",""trial"",""time""
""fullscreenenter"",""1"",""10449""
""blur"",""102"",""783066""
""focus"",""102"",""787999""
""blur"",""102"",""788011""
""focus"",""102"",""792258""
""blur"",""102"",""828518""
""focus"",""102"",""830193""
","""event"",""trial"",""time""
""blur"",""102"",""783066""
""blur"",""102"",""788011""
""blur"",""102"",""828518""
","""event"",""trial"",""time""
""focus"",""102"",""787999""
""focus"",""102"",""792258""
""focus"",""102"",""830193""
","""event"",""trial"",""time""
""fullscreenenter"",""1"",""10449""
","
","","","1098.7000000001863","","","12","6205","2069","f","elianto","#3366ff99"," "," ","1","+10","[1954.7999999998137]","1","2","","","6205","37","1","1","win","go","0"
"pit-trial","159","1128174","0.0-42.0","battery-v0.2","","""event"",""trial"",""time""
""fullscreenenter"",""1"",""10449""
""blur"",""102"",""783066""
""focus"",""102"",""787999""
""blur"",""102"",""788011""
""focus"",""102"",""792258""
""blur"",""102"",""828518""
""focus"",""102"",""830193""
","""event"",""trial"",""time""
""blur"",""102"",""783066""
""blur"",""102"",""788011""
""blur"",""102"",""828518""
","""event"",""trial"",""time""
""focus"",""102"",""787999""
""focus"",""102"",""792258""
""focus"",""102"",""830193""
","""event"",""trial"",""time""
""fullscreenenter"",""1"",""10449""
","
","","","1088.2999999998137","","","12","6205","2069","t","elianto","#f73b6a7A","-1"," ","0","-10","[1944.5999999996275]","1","2","","","6205","38","2","4","lose","no-go","0"
"pit-trial","160","1131749","0.0-43.0","battery-v0.2","","""event"",""trial"",""time""
""fullscreenenter"",""1"",""10449""
""blur"",""102"",""783066""
""focus"",""102"",""787999""
""blur"",""102"",""788011""
""focus"",""102"",""792258""
""blur"",""102"",""828518""
""focus"",""102"",""830193""
","""event"",""trial"",""time""
""blur"",""102"",""783066""
""blur"",""102"",""788011""
""blur"",""102"",""828518""
","""event"",""trial"",""time""
""focus"",""102"",""787999""
""focus"",""102"",""792258""
""focus"",""102"",""830193""
","""event"",""trial"",""time""
""fullscreenenter"",""1"",""10449""
","
","","","710.5999999996275","","","12","6205","2069","n","elianto","#f73b6a7A","-1"," ","0","-10","[1565.7999999998137]","1","2","","","6205","39","0","4","lose","no-go","0"
"pit-trial","161","1136620","0.0-44.0","battery-v0.2","","""event"",""trial"",""time""
""fullscreenenter"",""1"",""10449""
""blur"",""102"",""783066""
""focus"",""102"",""787999""
""blur"",""102"",""788011""
""focus"",""102"",""792258""
""blur"",""102"",""828518""
""focus"",""102"",""830193""
","""event"",""trial"",""time""
""blur"",""102"",""783066""
""blur"",""102"",""788011""
""blur"",""102"",""828518""
","""event"",""trial"",""time""
""focus"",""102"",""787999""
""focus"",""102"",""792258""
""focus"",""102"",""830193""
","""event"",""trial"",""time""
""fullscreenenter"",""1"",""10449""
","
","","","-1","","","12","6205","2069","b","elianto","#f73b6a7A"," ","-1","0","0","[]","0","2","","","6205","40","3","3","lose","go","1"
"pit-trial","162","1141485","0.0-45.0","battery-v0.2","","""event"",""trial"",""time""
""fullscreenenter"",""1"",""10449""
""blur"",""102"",""783066""
""focus"",""102"",""787999""
""blur"",""102"",""788011""
""focus"",""102"",""792258""
""blur"",""102"",""828518""
""focus"",""102"",""830193""
","""event"",""trial"",""time""
""blur"",""102"",""783066""
""blur"",""102"",""788011""
""blur"",""102"",""828518""
","""event"",""trial"",""time""
""focus"",""102"",""787999""
""focus"",""102"",""792258""
""focus"",""102"",""830193""
","""event"",""trial"",""time""
""fullscreenenter"",""1"",""10449""
","
","","","-1","","","12","6205","2069","b","elianto","#f73b6a7A"," ","-1","0","-10","[]","0","2","","","6205","41","3","3","lose","go","0"
"pit-trial","163","1146358","0.0-46.0","battery-v0.2","","""event"",""trial"",""time""
""fullscreenenter"",""1"",""10449""
""blur"",""102"",""783066""
""focus"",""102"",""787999""
""blur"",""102"",""788011""
""focus"",""102"",""792258""
""blur"",""102"",""828518""
""focus"",""102"",""830193""
","""event"",""trial"",""time""
""blur"",""102"",""783066""
""blur"",""102"",""788011""
""blur"",""102"",""828518""
","""event"",""trial"",""time""
""focus"",""102"",""787999""
""focus"",""102"",""792258""
""focus"",""102"",""830193""
","""event"",""trial"",""time""
""fullscreenenter"",""1"",""10449""
","
","","","-1","","","12","6205","2069","t","elianto","#f73b6a7A","-1","-1","1","0","[]","0","2","","","6205","42","2","4","lose","no-go","0"
"pit-trial","164","1150598","0.0-47.0","battery-v0.2","","""event"",""trial"",""time""
""fullscreenenter"",""1"",""10449""
""blur"",""102"",""783066""
""focus"",""102"",""787999""
""blur"",""102"",""788011""
""focus"",""102"",""792258""
""blur"",""102"",""828518""
""focus"",""102"",""830193""
","""event"",""trial"",""time""
""blur"",""102"",""783066""
""blur"",""102"",""788011""
""blur"",""102"",""828518""
","""event"",""trial"",""time""
""focus"",""102"",""787999""
""focus"",""102"",""792258""
""focus"",""102"",""830193""
","""event"",""trial"",""time""
""fullscreenenter"",""1"",""10449""
","
","","","1372","","","12","6205","2069","n","elianto","#f73b6a7A","-1"," ","0","-10","[2226.2999999998137]","1","2","","","6205","43","0","4","lose","no-go","0"
"pit-trial","165","1154838","0.0-48.0","battery-v0.2","","""event"",""trial"",""time""
""fullscreenenter"",""1"",""10449""
""blur"",""102"",""783066""
""focus"",""102"",""787999""
""blur"",""102"",""788011""
""focus"",""102"",""792258""
""blur"",""102"",""828518""
""focus"",""102"",""830193""
","""event"",""trial"",""time""
""blur"",""102"",""783066""
""blur"",""102"",""788011""
""blur"",""102"",""828518""
","""event"",""trial"",""time""
""focus"",""102"",""787999""
""focus"",""102"",""792258""
""focus"",""102"",""830193""
","""event"",""trial"",""time""
""fullscreenenter"",""1"",""10449""
","
","","","1373.5","","","12","6205","2069","f","elianto","#3366ff99"," "," ","1","+10","[2228.699999999255]","1","2","","","6205","44","1","1","win","go","0"
"pit-trial","166","1159711","0.0-49.0","battery-v0.2","","""event"",""trial"",""time""
""fullscreenenter"",""1"",""10449""
""blur"",""102"",""783066""
""focus"",""102"",""787999""
""blur"",""102"",""788011""
""focus"",""102"",""792258""
""blur"",""102"",""828518""
""focus"",""102"",""830193""
","""event"",""trial"",""time""
""blur"",""102"",""783066""
""blur"",""102"",""788011""
""blur"",""102"",""828518""
","""event"",""trial"",""time""
""focus"",""102"",""787999""
""focus"",""102"",""792258""
""focus"",""102"",""830193""
","""event"",""trial"",""time""
""fullscreenenter"",""1"",""10449""
","
","","","-1","","","12","6205","2069","n","elianto","#f73b6a7A","-1","-1","1","0","[]","0","2","","","6205","45","0","4","lose","no-go","0"
"pit-trial","167","1164582","0.0-50.0","battery-v0.2","","""event"",""trial"",""time""
""fullscreenenter"",""1"",""10449""
""blur"",""102"",""783066""
""focus"",""102"",""787999""
""blur"",""102"",""788011""
""focus"",""102"",""792258""
""blur"",""102"",""828518""
""focus"",""102"",""830193""
","""event"",""trial"",""time""
""blur"",""102"",""783066""
""blur"",""102"",""788011""
""blur"",""102"",""828518""
","""event"",""trial"",""time""
""focus"",""102"",""787999""
""focus"",""102"",""792258""
""focus"",""102"",""830193""
","""event"",""trial"",""time""
""fullscreenenter"",""1"",""10449""
","
","","","-1","","","12","6205","2069","b","elianto","#f73b6a7A"," ","-1","0","-10","[]","0","2","","","6205","46","3","3","lose","go","0"
"pit-trial","168","1169453","0.0-51.0","battery-v0.2","","""event"",""trial"",""time""
""fullscreenenter"",""1"",""10449""
""blur"",""102"",""783066""
""focus"",""102"",""787999""
""blur"",""102"",""788011""
""focus"",""102"",""792258""
""blur"",""102"",""828518""
""focus"",""102"",""830193""
","""event"",""trial"",""time""
""blur"",""102"",""783066""
""blur"",""102"",""788011""
""blur"",""102"",""828518""
","""event"",""trial"",""time""
""focus"",""102"",""787999""
""focus"",""102"",""792258""
""focus"",""102"",""830193""
","""event"",""trial"",""time""
""fullscreenenter"",""1"",""10449""
","
","","","-1","","","12","6205","2069","t","elianto","#f73b6a7A","-1","-1","1","0","[]","0","2","","","6205","47","2","4","lose","no-go","0"
"pit-trial","169","1173621","0.0-52.0","battery-v0.2","","""event"",""trial"",""time""
""fullscreenenter"",""1"",""10449""
""blur"",""102"",""783066""
""focus"",""102"",""787999""
""blur"",""102"",""788011""
""focus"",""102"",""792258""
""blur"",""102"",""828518""
""focus"",""102"",""830193""
","""event"",""trial"",""time""
""blur"",""102"",""783066""
""blur"",""102"",""788011""
""blur"",""102"",""828518""
","""event"",""trial"",""time""
""focus"",""102"",""787999""
""focus"",""102"",""792258""
""focus"",""102"",""830193""
","""event"",""trial"",""time""
""fullscreenenter"",""1"",""10449""
","
","","","1295.7999999998137","","","12","6205","2069","c","elianto","#3366ff99","-1"," ","0","0","[2152.4000000003725,3166.7999999998137]","2","2","","","6205","48","4","2","win","no-go","0"
"pit-trial","170","1178493","0.0-53.0","battery-v0.2","","""event"",""trial"",""time""
""fullscreenenter"",""1"",""10449""
""blur"",""102"",""783066""
""focus"",""102"",""787999""
""blur"",""102"",""788011""
""focus"",""102"",""792258""
""blur"",""102"",""828518""
""focus"",""102"",""830193""
","""event"",""trial"",""time""
""blur"",""102"",""783066""
""blur"",""102"",""788011""
""blur"",""102"",""828518""
","""event"",""trial"",""time""
""focus"",""102"",""787999""
""focus"",""102"",""792258""
""focus"",""102"",""830193""
","""event"",""trial"",""time""
""fullscreenenter"",""1"",""10449""
","
","","","-1","","","12","6205","2069","b","elianto","#f73b6a7A"," ","-1","0","0","[]","0","2","","","6205","49","3","3","lose","go","1"
"pit-trial","171","1182309","0.0-54.0","battery-v0.2","","""event"",""trial"",""time""
""fullscreenenter"",""1"",""10449""
""blur"",""102"",""783066""
""focus"",""102"",""787999""
""blur"",""102"",""788011""
""focus"",""102"",""792258""
""blur"",""102"",""828518""
""focus"",""102"",""830193""
","""event"",""trial"",""time""
""blur"",""102"",""783066""
""blur"",""102"",""788011""
""blur"",""102"",""828518""
","""event"",""trial"",""time""
""focus"",""102"",""787999""
""focus"",""102"",""792258""
""focus"",""102"",""830193""
","""event"",""trial"",""time""
""fullscreenenter"",""1"",""10449""
","
","","","944.7999999998137","","","12","6205","2069","c","elianto","#3366ff99","-1"," ","0","0","[1799.9000000003725]","1","2","","","6205","50","4","2","win","no-go","0"
"pit-trial","172","1187182","0.0-55.0","battery-v0.2","","""event"",""trial"",""time""
""fullscreenenter"",""1"",""10449""
""blur"",""102"",""783066""
""focus"",""102"",""787999""
""blur"",""102"",""788011""
""focus"",""102"",""792258""
""blur"",""102"",""828518""
""focus"",""102"",""830193""
","""event"",""trial"",""time""
""blur"",""102"",""783066""
""blur"",""102"",""788011""
""blur"",""102"",""828518""
","""event"",""trial"",""time""
""focus"",""102"",""787999""
""focus"",""102"",""792258""
""focus"",""102"",""830193""
","""event"",""trial"",""time""
""fullscreenenter"",""1"",""10449""
","
","","","-1","","","12","6205","2069","n","elianto","#f73b6a7A","-1","-1","1","0","[]","0","2","","","6205","51","0","4","lose","no-go","0"
"pit-trial","173","1192053","0.0-56.0","battery-v0.2","","""event"",""trial"",""time""
""fullscreenenter"",""1"",""10449""
""blur"",""102"",""783066""
""focus"",""102"",""787999""
""blur"",""102"",""788011""
""focus"",""102"",""792258""
""blur"",""102"",""828518""
""focus"",""102"",""830193""
","""event"",""trial"",""time""
""blur"",""102"",""783066""
""blur"",""102"",""788011""
""blur"",""102"",""828518""
","""event"",""trial"",""time""
""focus"",""102"",""787999""
""focus"",""102"",""792258""
""focus"",""102"",""830193""
","""event"",""trial"",""time""
""fullscreenenter"",""1"",""10449""
","
","","","-1","","","12","6205","2069","f","elianto","#3366ff99"," ","-1","0","0","[]","0","2","","","6205","52","1","1","win","go","0"
"pit-trial","174","1196926","0.0-57.0","battery-v0.2","","""event"",""trial"",""time""
""fullscreenenter"",""1"",""10449""
""blur"",""102"",""783066""
""focus"",""102"",""787999""
""blur"",""102"",""788011""
""focus"",""102"",""792258""
""blur"",""102"",""828518""
""focus"",""102"",""830193""
","""event"",""trial"",""time""
""blur"",""102"",""783066""
""blur"",""102"",""788011""
""blur"",""102"",""828518""
","""event"",""trial"",""time""
""focus"",""102"",""787999""
""focus"",""102"",""792258""
""focus"",""102"",""830193""
","""event"",""trial"",""time""
""fullscreenenter"",""1"",""10449""
","
","","","-1","","","12","6205","2069","n","elianto","#f73b6a7A","-1","-1","1","0","[]","0","2","","","6205","53","0","4","lose","no-go","0"
"pit-trial","175","1201798","0.0-58.0","battery-v0.2","","""event"",""trial"",""time""
""fullscreenenter"",""1"",""10449""
""blur"",""102"",""783066""
""focus"",""102"",""787999""
""blur"",""102"",""788011""
""focus"",""102"",""792258""
""blur"",""102"",""828518""
""focus"",""102"",""830193""
","""event"",""trial"",""time""
""blur"",""102"",""783066""
""blur"",""102"",""788011""
""blur"",""102"",""828518""
","""event"",""trial"",""time""
""focus"",""102"",""787999""
""focus"",""102"",""792258""
""focus"",""102"",""830193""
","""event"",""trial"",""time""
""fullscreenenter"",""1"",""10449""
","
","","","-1","","","12","6205","2069","t","elianto","#f73b6a7A","-1","-1","1","-10","[]","0","2","","","6205","54","2","4","lose","no-go","1"
"pit-trial","176","1205917","0.0-59.0","battery-v0.2","","""event"",""trial"",""time""
""fullscreenenter"",""1"",""10449""
""blur"",""102"",""783066""
""focus"",""102"",""787999""
""blur"",""102"",""788011""
""focus"",""102"",""792258""
""blur"",""102"",""828518""
""focus"",""102"",""830193""
","""event"",""trial"",""time""
""blur"",""102"",""783066""
""blur"",""102"",""788011""
""blur"",""102"",""828518""
","""event"",""trial"",""time""
""focus"",""102"",""787999""
""focus"",""102"",""792258""
""focus"",""102"",""830193""
","""event"",""trial"",""time""
""fullscreenenter"",""1"",""10449""
","
","","","1251.4000000003725","","","12","6205","2069","c","elianto","#3366ff99","-1"," ","0","0","[2106.9000000003725]","1","2","","","6205","55","4","2","win","no-go","0"
"pit-trial","177","1210789","0.0-60.0","battery-v0.2","","""event"",""trial"",""time""
""fullscreenenter"",""1"",""10449""
""blur"",""102"",""783066""
""focus"",""102"",""787999""
""blur"",""102"",""788011""
""focus"",""102"",""792258""
""blur"",""102"",""828518""
""focus"",""102"",""830193""
","""event"",""trial"",""time""
""blur"",""102"",""783066""
""blur"",""102"",""788011""
""blur"",""102"",""828518""
","""event"",""trial"",""time""
""focus"",""102"",""787999""
""focus"",""102"",""792258""
""focus"",""102"",""830193""
","""event"",""trial"",""time""
""fullscreenenter"",""1"",""10449""
","
","","","-1","","","12","6205","2069","f","elianto","#3366ff99"," ","-1","0","0","[]","0","2","","","6205","56","1","1","win","go","0"
"pit-trial","178","1215661","0.0-61.0","battery-v0.2","","""event"",""trial"",""time""
""fullscreenenter"",""1"",""10449""
""blur"",""102"",""783066""
""focus"",""102"",""787999""
""blur"",""102"",""788011""
""focus"",""102"",""792258""
""blur"",""102"",""828518""
""focus"",""102"",""830193""
","""event"",""trial"",""time""
""blur"",""102"",""783066""
""blur"",""102"",""788011""
""blur"",""102"",""828518""
","""event"",""trial"",""time""
""focus"",""102"",""787999""
""focus"",""102"",""792258""
""focus"",""102"",""830193""
","""event"",""trial"",""time""
""fullscreenenter"",""1"",""10449""
","
","","","-1","","","12","6205","2069","n","elianto","#f73b6a7A","-1","-1","1","0","[]","0","2","","","6205","57","0","4","lose","no-go","0"
"pit-trial","179","1219230","0.0-62.0","battery-v0.2","","""event"",""trial"",""time""
