"trial_type","trial_index","time_elapsed","internal_node_id","task_version","subject_id","interactions","blur_events","focus_events","fullscreenenter_events","fullscreenexit_events","success","view_history","rt","responses","num_errors","age","subject","participantId","rune","rune_set","hex","correct","choice","accuracy","outcome","keys","total_keys","block","practice","value","sub","trial","stimulus","robot","valence","action","sham"
"pavlovia","0","19","0.0-0.0","battery-v0.2","","""event"",""trial"",""time""
""fullscreenenter"",""1"",""958""
","
","
","""event"",""trial"",""time""
""fullscreenenter"",""1"",""958""
","
","","","","","","","","","","","","","","","","","","","","","","","","","","",""
"fullscreen","1","1927","0.0-1.0","battery-v0.2","","""event"",""trial"",""time""
""fullscreenenter"",""1"",""958""
","
","
","""event"",""trial"",""time""
""fullscreenenter"",""1"",""958""
","
","true","","","","","","","","","","","","","","","","","","","","","","","","","",""
"pit-instructions","2","5755","0.0-2.0-0.0","battery-v0.2","","""event"",""trial"",""time""
""fullscreenenter"",""1"",""958""
","
","
","""event"",""trial"",""time""
""fullscreenenter"",""1"",""958""
","
","","[{""page_index"":0,""viewing_time"":3822.5999999940395}]","3823.2000000029802","","","","","","","","","","","","","","","","","","","","","","","",""
"pit-comprehension","3","9041","0.0-2.0-1.0-0.0","battery-v0.2","","""event"",""trial"",""time""
""fullscreenenter"",""1"",""958""
","
","
","""event"",""trial"",""time""
""fullscreenenter"",""1"",""958""
","
","","","3277.7999999970198","[""shark""]","0","19","10872","5259","","","","","","","","","","","","","","","","","","",""
"pit-instructions","4","10068","0.0-2.0-1.0-1.0","battery-v0.2","","""event"",""trial"",""time""
""fullscreenenter"",""1"",""958""
","
","
","""event"",""trial"",""time""
""fullscreenenter"",""1"",""958""
","
","","[{""page_index"":0,""viewing_time"":1007.5}]","1008","","","","","","","","","","","","","","","","","","","","","","","",""
"pit-comprehension","5","11865","0.0-2.0-2.0-0.0","battery-v0.2","","""event"",""trial"",""time""
""fullscreenenter"",""1"",""958""
","
","
","""event"",""trial"",""time""
""fullscreenenter"",""1"",""958""
","
","","","1787.9000000059605","[""tiger""]","0","19","10872","5259","","","","","","","","","","","","","","","","","","",""
"pit-instructions","6","12372","0.0-2.0-2.0-1.0","battery-v0.2","","""event"",""trial"",""time""
""fullscreenenter"",""1"",""958""
","
","
","""event"",""trial"",""time""
""fullscreenenter"",""1"",""958""
","
","","[{""page_index"":0,""viewing_time"":498.29999999701977}]","498.69999998807907","","","","","","","","","","","","","","","","","","","","","","","",""
"pit-instructions","7","115742","0.0-2.0-3.0","battery-v0.2","","""event"",""trial"",""time""
""fullscreenenter"",""1"",""958""
","
","
","""event"",""trial"",""time""
""fullscreenenter"",""1"",""958""
","
","","[{""page_index"":0,""viewing_time"":10760.29999999702},{""page_index"":1,""viewing_time"":5714.29999999702},{""page_index"":2,""viewing_time"":6991.70000000298},{""page_index"":3,""viewing_time"":6494.20000000298},{""page_index"":4,""viewing_time"":11755.59999999404},{""page_index"":5,""viewing_time"":7578.4000000059605},{""page_index"":6,""viewing_time"":8749.40000000596},{""page_index"":7,""viewing_time"":7062.199999988079},{""page_index"":8,""viewing_time"":6354.5},{""page_index"":9,""viewing_time"":6727.100000008941},{""page_index"":10,""viewing_time"":7058.79999999702},{""page_index"":11,""viewing_time"":6169.5999999940395},{""page_index"":12,""viewing_time"":6093.5},{""page_index"":13,""viewing_time"":5854.20000000298}]","103364.20000000298","","","","","","","","","","","","","","","","","","","","","","","",""
"pit-trial","8","119460","0.0-2.0-4.0-0.0","battery-v0.2","","""event"",""trial"",""time""
""fullscreenenter"",""1"",""958""
","
","
","""event"",""trial"",""time""
""fullscreenenter"",""1"",""958""
","
","","","854.9000000059605","","","19","10872","5259","&#9784;","elianto","#FFFFF080"," "," ","1","&#10004","[1706.5,2778.1000000089407]","2","0","0","","","","","","","",""
"pit-trial","9","124151","0.0-2.0-4.1-0.1","battery-v0.2","","""event"",""trial"",""time""
""fullscreenenter"",""1"",""958""
","
","
","""event"",""trial"",""time""
""fullscreenenter"",""1"",""958""
","
","","","1819.2999999970198","","","19","10872","5259","&#9784;","elianto","#FFFFF080"," "," ","1","&#10004","[2675.2999999970198,4115.29999999702]","2","0","0","","","","","","","",""
"pit-trial","10","127402","0.0-2.0-4.2-0.2","battery-v0.2","","""event"",""trial"",""time""
""fullscreenenter"",""1"",""958""
","
","
","""event"",""trial"",""time""
""fullscreenenter"",""1"",""958""
","
","","","376.09999999403954","","","19","10872","5259","&#9784;","elianto","#FFFFF080"," "," ","1","&#10004","[1232.5]","1","0","0","","","","","","","",""
"pit-trial","11","130420","0.0-2.0-4.3-0.3","battery-v0.2","","""event"",""trial"",""time""
""fullscreenenter"",""1"",""958""
","
","
","""event"",""trial"",""time""
""fullscreenenter"",""1"",""958""
","
","","","152.59999999403954","","","19","10872","5259","&#9784;","elianto","#FFFFF080"," "," ","1","&#10004","[1008.1000000089407]","1","0","0","","","","","","","",""
"pit-trial","12","133411","0.0-2.0-4.4-0.4","battery-v0.2","","""event"",""trial"",""time""
""fullscreenenter"",""1"",""958""
""blur"",""13"",""134791""
""focus"",""13"",""231272""
","""event"",""trial"",""time""
""blur"",""13"",""134791""
","""event"",""trial"",""time""
""focus"",""13"",""231272""
","""event"",""trial"",""time""
""fullscreenenter"",""1"",""958""
","
","","","123","","","19","10872","5259","&#9784;","elianto","#FFFFF080"," "," ","1","&#10004","[980.9000000059605]","1","0","0","","","","","","","",""
"pit-instructions","13","254009","0.0-2.0-5.0","battery-v0.2","","""event"",""trial"",""time""
""fullscreenenter"",""1"",""958""
""blur"",""13"",""134791""
""focus"",""13"",""231272""
","""event"",""trial"",""time""
""blur"",""13"",""134791""
","""event"",""trial"",""time""
""focus"",""13"",""231272""
","""event"",""trial"",""time""
""fullscreenenter"",""1"",""958""
","
","","[{""page_index"":0,""viewing_time"":99184.29999999702},{""page_index"":1,""viewing_time"":11858.79999999702},{""page_index"":2,""viewing_time"":4322.5},{""page_index"":3,""viewing_time"":5225.29999999702}]","120591.29999999702","","","","","","","","","","","","","","","","","","","","","","","",""
"pit-trial","14","258875","0.0-2.0-6.0-0.0","battery-v0.2","","""event"",""trial"",""time""
""fullscreenenter"",""1"",""958""
""blur"",""13"",""134791""
""focus"",""13"",""231272""
","""event"",""trial"",""time""
""blur"",""13"",""134791""
","""event"",""trial"",""time""
""focus"",""13"",""231272""
","""event"",""trial"",""time""
""fullscreenenter"",""1"",""958""
","
","","","-1","","","19","10872","5259","&#9854;","elianto","#FFFFF080","-1","-1","1","&#10004","[]","0","0","1","","","","","","","",""
"pit-trial","15","263748","0.0-2.0-6.1-0.1","battery-v0.2","","""event"",""trial"",""time""
""fullscreenenter"",""1"",""958""
""blur"",""13"",""134791""
""focus"",""13"",""231272""
","""event"",""trial"",""time""
""blur"",""13"",""134791""
","""event"",""trial"",""time""
""focus"",""13"",""231272""
","""event"",""trial"",""time""
""fullscreenenter"",""1"",""958""
","
","","","-1","","","19","10872","5259","&#9854;","elianto","#FFFFF080","-1","-1","1","&#10004","[]","0","0","1","","","","","","","",""
"pit-trial","16","268632","0.0-2.0-6.2-0.2","battery-v0.2","","""event"",""trial"",""time""
""fullscreenenter"",""1"",""958""
""blur"",""13"",""134791""
""focus"",""13"",""231272""
""blur"",""17"",""269698""
""focus"",""17"",""270842""
""blur"",""17"",""273094""
","""event"",""trial"",""time""
""blur"",""13"",""134791""
""blur"",""17"",""269698""
""blur"",""17"",""273094""
","""event"",""trial"",""time""
""focus"",""13"",""231272""
""focus"",""17"",""270842""
","""event"",""trial"",""time""
""fullscreenenter"",""1"",""958""
","
","","","-1","","","19","10872","5259","&#9854;","elianto","#FFFFF080","-1","-1","1","&#10004","[]","0","0","1","","","","","","","",""
"pit-trial","17","273501","0.0-2.0-6.3-0.3","battery-v0.2","","""event"",""trial"",""time""
""fullscreenenter"",""1"",""958""
""blur"",""13"",""134791""
""focus"",""13"",""231272""
""blur"",""17"",""269698""
""focus"",""17"",""270842""
""blur"",""17"",""273094""
","""event"",""trial"",""time""
""blur"",""13"",""134791""
""blur"",""17"",""269698""
""blur"",""17"",""273094""
","""event"",""trial"",""time""
""focus"",""13"",""231272""
""focus"",""17"",""270842""
","""event"",""trial"",""time""
""fullscreenenter"",""1"",""958""
","
","","","-1","","","19","10872","5259","&#9854;","elianto","#FFFFF080","-1","-1","1","&#10004","[3903.3999999910593]","1","0","1","","","","","","","",""
"pit-trial","18","278378","0.0-2.0-6.4-0.4","battery-v0.2","","""event"",""trial"",""time""
""fullscreenenter"",""1"",""958""
""blur"",""13"",""134791""
""focus"",""13"",""231272""
""blur"",""17"",""269698""
""focus"",""17"",""270842""
""blur"",""17"",""273094""
""focus"",""19"",""356314""
""blur"",""19"",""367077""
""focus"",""19"",""1014332""
""blur"",""19"",""1029557""
""focus"",""19"",""1553777""
""blur"",""19"",""1594580""
""focus"",""19"",""1597846""
","""event"",""trial"",""time""
""blur"",""13"",""134791""
""blur"",""17"",""269698""
""blur"",""17"",""273094""
""blur"",""19"",""367077""
""blur"",""19"",""1029557""
""blur"",""19"",""1594580""
","""event"",""trial"",""time""
""focus"",""13"",""231272""
""focus"",""17"",""270842""
""focus"",""19"",""356314""
""focus"",""19"",""1014332""
""focus"",""19"",""1553777""
""focus"",""19"",""1597846""
","""event"",""trial"",""time""
""fullscreenenter"",""1"",""958""
","
","","","-1","","","19","10872","5259","&#9854;","elianto","#FFFFF080","-1","-1","1","&#10004","[]","0","0","1","","","","","","","",""
"pit-instructions","19","1666676","0.0-2.0-7.0","battery-v0.2","","""event"",""trial"",""time""
""fullscreenenter"",""1"",""958""
""blur"",""13"",""134791""
""focus"",""13"",""231272""
""blur"",""17"",""269698""
""focus"",""17"",""270842""
""blur"",""17"",""273094""
""focus"",""19"",""356314""
""blur"",""19"",""367077""
""focus"",""19"",""1014332""
""blur"",""19"",""1029557""
""focus"",""19"",""1553777""
""blur"",""19"",""1594580""
""focus"",""19"",""1597846""
","""event"",""trial"",""time""
""blur"",""13"",""134791""
""blur"",""17"",""269698""
""blur"",""17"",""273094""
""blur"",""19"",""367077""
""blur"",""19"",""1029557""
""blur"",""19"",""1594580""
","""event"",""trial"",""time""
""focus"",""13"",""231272""
""focus"",""17"",""270842""
""focus"",""19"",""356314""
""focus"",""19"",""1014332""
""focus"",""19"",""1553777""
""focus"",""19"",""1597846""
","""event"",""trial"",""time""
""fullscreenenter"",""1"",""958""
","
","","[{""page_index"":0,""viewing_time"":79358.20000000298},{""page_index"":1,""viewing_time"":6488.5},{""page_index"":2,""viewing_time"":651069.200000003},{""page_index"":3,""viewing_time"":7850.29999999702},{""page_index"":4,""viewing_time"":5278.79999999702},{""page_index"":5,""viewing_time"":526271.6000000089},{""page_index"":6,""viewing_time"":4400},{""page_index"":7,""viewing_time"":16696},{""page_index"":8,""viewing_time"":7429.899999991059},{""page_index"":9,""viewing_time"":5924},{""page_index"":10,""viewing_time"":9393.90000000596},{""page_index"":11,""viewing_time"":4144.70000000298},{""page_index"":12,""viewing_time"":6571.0999999940395},{""page_index"":13,""viewing_time"":6470.29999999702},{""page_index"":14,""viewing_time"":6140.20000000298},{""page_index"":15,""viewing_time"":12837.79999999702},{""page_index"":16,""viewing_time"":7399.9000000059605},{""page_index"":17,""viewing_time"":24564.5}]","1388289.400000006","","","","","","","","","","","","","","","","","","","","","","","",""
"pit-trial","20","1671544","0.0-2.0-8.0-0.0","battery-v0.2","","""event"",""trial"",""time""
""fullscreenenter"",""1"",""958""
""blur"",""13"",""134791""
""focus"",""13"",""231272""
""blur"",""17"",""269698""
""focus"",""17"",""270842""
""blur"",""17"",""273094""
""focus"",""19"",""356314""
""blur"",""19"",""367077""
""focus"",""19"",""1014332""
""blur"",""19"",""1029557""
""focus"",""19"",""1553777""
""blur"",""19"",""1594580""
""focus"",""19"",""1597846""
","""event"",""trial"",""time""
""blur"",""13"",""134791""
""blur"",""17"",""269698""
""blur"",""17"",""273094""
""blur"",""19"",""367077""
""blur"",""19"",""1029557""
""blur"",""19"",""1594580""
","""event"",""trial"",""time""
""focus"",""13"",""231272""
""focus"",""17"",""270842""
""focus"",""19"",""356314""
""focus"",""19"",""1014332""
""focus"",""19"",""1553777""
""focus"",""19"",""1597846""
","""event"",""trial"",""time""
""fullscreenenter"",""1"",""958""
","
","","","-1","","","19","10872","5259","&#9776;","elianto","#3366ff99"," ","-1","0","0","[]","0","0","1","","","","","","","",""
"pit-trial","21","1675263","0.0-2.0-8.0-1.0","battery-v0.2","","""event"",""trial"",""time""
""fullscreenenter"",""1"",""958""
""blur"",""13"",""134791""
""focus"",""13"",""231272""
""blur"",""17"",""269698""
""focus"",""17"",""270842""
""blur"",""17"",""273094""
""focus"",""19"",""356314""
""blur"",""19"",""367077""
""focus"",""19"",""1014332""
""blur"",""19"",""1029557""
""focus"",""19"",""1553777""
""blur"",""19"",""1594580""
""focus"",""19"",""1597846""
","""event"",""trial"",""time""
""blur"",""13"",""134791""
""blur"",""17"",""269698""
""blur"",""17"",""273094""
""blur"",""19"",""367077""
""blur"",""19"",""1029557""
""blur"",""19"",""1594580""
","""event"",""trial"",""time""
""focus"",""13"",""231272""
""focus"",""17"",""270842""
""focus"",""19"",""356314""
""focus"",""19"",""1014332""
""focus"",""19"",""1553777""
""focus"",""19"",""1597846""
","""event"",""trial"",""time""
""fullscreenenter"",""1"",""958""
","
","","","859.2999999970198","","","19","10872","5259","&#9776;","elianto","#3366ff99"," "," ","1","+10","[1710.300000011921]","1","0","1","","","","","","","",""
"pit-trial","22","1678470","0.0-2.0-8.0-2.0","battery-v0.2","","""event"",""trial"",""time""
""fullscreenenter"",""1"",""958""
""blur"",""13"",""134791""
""focus"",""13"",""231272""
""blur"",""17"",""269698""
""focus"",""17"",""270842""
""blur"",""17"",""273094""
""focus"",""19"",""356314""
""blur"",""19"",""367077""
""focus"",""19"",""1014332""
""blur"",""19"",""1029557""
""focus"",""19"",""1553777""
""blur"",""19"",""1594580""
""focus"",""19"",""1597846""
","""event"",""trial"",""time""
""blur"",""13"",""134791""
""blur"",""17"",""269698""
""blur"",""17"",""273094""
""blur"",""19"",""367077""
""blur"",""19"",""1029557""
""blur"",""19"",""1594580""
","""event"",""trial"",""time""
""focus"",""13"",""231272""
""focus"",""17"",""270842""
""focus"",""19"",""356314""
""focus"",""19"",""1014332""
""focus"",""19"",""1553777""
""focus"",""19"",""1597846""
","""event"",""trial"",""time""
""fullscreenenter"",""1"",""958""
","
","","","339.19999998807907","","","19","10872","5259","&#9776;","elianto","#3366ff99"," "," ","1","+10","[1190.5999999940395]","1","0","1","","","","","","","",""
"pit-trial","23","1681439","0.0-2.0-8.0-3.0","battery-v0.2","","""event"",""trial"",""time""
""fullscreenenter"",""1"",""958""
""blur"",""13"",""134791""
""focus"",""13"",""231272""
""blur"",""17"",""269698""
""focus"",""17"",""270842""
""blur"",""17"",""273094""
""focus"",""19"",""356314""
""blur"",""19"",""367077""
""focus"",""19"",""1014332""
""blur"",""19"",""1029557""
""focus"",""19"",""1553777""
""blur"",""19"",""1594580""
""focus"",""19"",""1597846""
","""event"",""trial"",""time""
""blur"",""13"",""134791""
""blur"",""17"",""269698""
""blur"",""17"",""273094""
""blur"",""19"",""367077""
""blur"",""19"",""1029557""
""blur"",""19"",""1594580""
","""event"",""trial"",""time""
""focus"",""13"",""231272""
""focus"",""17"",""270842""
""focus"",""19"",""356314""
""focus"",""19"",""1014332""
""focus"",""19"",""1553777""
""focus"",""19"",""1597846""
","""event"",""trial"",""time""
""fullscreenenter"",""1"",""958""
","
","","","109.5","","","19","10872","5259","&#9776;","elianto","#3366ff99"," "," ","1","0","[959.8999999910593]","1","0","1","","","","","","","",""
"pit-trial","24","1684972","0.0-2.0-8.0-4.0","battery-v0.2","","""event"",""trial"",""time""
""fullscreenenter"",""1"",""958""
""blur"",""13"",""134791""
""focus"",""13"",""231272""
""blur"",""17"",""269698""
""focus"",""17"",""270842""
""blur"",""17"",""273094""
""focus"",""19"",""356314""
""blur"",""19"",""367077""
""focus"",""19"",""1014332""
""blur"",""19"",""1029557""
""focus"",""19"",""1553777""
""blur"",""19"",""1594580""
""focus"",""19"",""1597846""
","""event"",""trial"",""time""
""blur"",""13"",""134791""
""blur"",""17"",""269698""
""blur"",""17"",""273094""
""blur"",""19"",""367077""
""blur"",""19"",""1029557""
""blur"",""19"",""1594580""
","""event"",""trial"",""time""
""focus"",""13"",""231272""
""focus"",""17"",""270842""
""focus"",""19"",""356314""
""focus"",""19"",""1014332""
""focus"",""19"",""1553777""
""focus"",""19"",""1597846""
","""event"",""trial"",""time""
""fullscreenenter"",""1"",""958""
","
","","","675.4000000059605","","","19","10872","5259","&#9776;","elianto","#3366ff99"," "," ","1","+10","[1526.8999999910593]","1","0","1","","","","","","","",""
"pit-trial","25","1688412","0.0-2.0-8.1-0.1","battery-v0.2","","""event"",""trial"",""time""
""fullscreenenter"",""1"",""958""
""blur"",""13"",""134791""
""focus"",""13"",""231272""
""blur"",""17"",""269698""
""focus"",""17"",""270842""
""blur"",""17"",""273094""
""focus"",""19"",""356314""
""blur"",""19"",""367077""
""focus"",""19"",""1014332""
""blur"",""19"",""1029557""
""focus"",""19"",""1553777""
""blur"",""19"",""1594580""
""focus"",""19"",""1597846""
","""event"",""trial"",""time""
""blur"",""13"",""134791""
""blur"",""17"",""269698""
""blur"",""17"",""273094""
""blur"",""19"",""367077""
""blur"",""19"",""1029557""
""blur"",""19"",""1594580""
","""event"",""trial"",""time""
""focus"",""13"",""231272""
""focus"",""17"",""270842""
""focus"",""19"",""356314""
""focus"",""19"",""1014332""
""focus"",""19"",""1553777""
""focus"",""19"",""1597846""
","""event"",""trial"",""time""
""fullscreenenter"",""1"",""958""
","
","","","581","","","19","10872","5259","&#9776;","elianto","#3366ff99"," "," ","1","+10","[1431.2999999970198]","1","0","1","","","","","","","",""
"pit-trial","26","1691852","0.0-2.0-8.1-1.1","battery-v0.2","","""event"",""trial"",""time""
""fullscreenenter"",""1"",""958""
""blur"",""13"",""134791""
""focus"",""13"",""231272""
""blur"",""17"",""269698""
""focus"",""17"",""270842""
""blur"",""17"",""273094""
""focus"",""19"",""356314""
""blur"",""19"",""367077""
""focus"",""19"",""1014332""
""blur"",""19"",""1029557""
""focus"",""19"",""1553777""
""blur"",""19"",""1594580""
""focus"",""19"",""1597846""
","""event"",""trial"",""time""
""blur"",""13"",""134791""
""blur"",""17"",""269698""
""blur"",""17"",""273094""
""blur"",""19"",""367077""
""blur"",""19"",""1029557""
""blur"",""19"",""1594580""
","""event"",""trial"",""time""
""focus"",""13"",""231272""
""focus"",""17"",""270842""
""focus"",""19"",""356314""
""focus"",""19"",""1014332""
""focus"",""19"",""1553777""
""focus"",""19"",""1597846""
","""event"",""trial"",""time""
""fullscreenenter"",""1"",""958""
","
","","","582","","","19","10872","5259","&#9776;","elianto","#3366ff99"," "," ","1","+10","[1434]","1","0","1","","","","","","","",""
"pit-trial","27","1695308","0.0-2.0-8.1-2.1","battery-v0.2","","""event"",""trial"",""time""
""fullscreenenter"",""1"",""958""
""blur"",""13"",""134791""
""focus"",""13"",""231272""
""blur"",""17"",""269698""
""focus"",""17"",""270842""
""blur"",""17"",""273094""
""focus"",""19"",""356314""
""blur"",""19"",""367077""
""focus"",""19"",""1014332""
""blur"",""19"",""1029557""
""focus"",""19"",""1553777""
""blur"",""19"",""1594580""
""focus"",""19"",""1597846""
","""event"",""trial"",""time""
""blur"",""13"",""134791""
""blur"",""17"",""269698""
""blur"",""17"",""273094""
""blur"",""19"",""367077""
""blur"",""19"",""1029557""
""blur"",""19"",""1594580""
","""event"",""trial"",""time""
""focus"",""13"",""231272""
""focus"",""17"",""270842""
""focus"",""19"",""356314""
""focus"",""19"",""1014332""
""focus"",""19"",""1553777""
""focus"",""19"",""1597846""
","""event"",""trial"",""time""
""fullscreenenter"",""1"",""958""
","
","","","598.5999999940395","","","19","10872","5259","&#9776;","elianto","#3366ff99"," "," ","1","+10","[1449]","1","0","1","","","","","","","",""
"pit-trial","28","1698748","0.0-2.0-8.1-3.1","battery-v0.2","","""event"",""trial"",""time""
""fullscreenenter"",""1"",""958""
""blur"",""13"",""134791""
""focus"",""13"",""231272""
""blur"",""17"",""269698""
""focus"",""17"",""270842""
""blur"",""17"",""273094""
""focus"",""19"",""356314""
""blur"",""19"",""367077""
""focus"",""19"",""1014332""
""blur"",""19"",""1029557""
""focus"",""19"",""1553777""
""blur"",""19"",""1594580""
""focus"",""19"",""1597846""
","""event"",""trial"",""time""
""blur"",""13"",""134791""
""blur"",""17"",""269698""
""blur"",""17"",""273094""
""blur"",""19"",""367077""
""blur"",""19"",""1029557""
""blur"",""19"",""1594580""
","""event"",""trial"",""time""
""focus"",""13"",""231272""
""focus"",""17"",""270842""
""focus"",""19"",""356314""
""focus"",""19"",""1014332""
""focus"",""19"",""1553777""
""focus"",""19"",""1597846""
","""event"",""trial"",""time""
""fullscreenenter"",""1"",""958""
","
","","","583.2999999970198","","","19","10872","5259","&#9776;","elianto","#3366ff99"," "," ","1","0","[1433.7000000029802]","1","0","1","","","","","","","",""
"pit-trial","29","1702108","0.0-2.0-8.1-4.1","battery-v0.2","","""event"",""trial"",""time""
""fullscreenenter"",""1"",""958""
""blur"",""13"",""134791""
""focus"",""13"",""231272""
""blur"",""17"",""269698""
""focus"",""17"",""270842""
""blur"",""17"",""273094""
""focus"",""19"",""356314""
""blur"",""19"",""367077""
""focus"",""19"",""1014332""
""blur"",""19"",""1029557""
""focus"",""19"",""1553777""
""blur"",""19"",""1594580""
""focus"",""19"",""1597846""
","""event"",""trial"",""time""
""blur"",""13"",""134791""
""blur"",""17"",""269698""
""blur"",""17"",""273094""
""blur"",""19"",""367077""
""blur"",""19"",""1029557""
""blur"",""19"",""1594580""
","""event"",""trial"",""time""
""focus"",""13"",""231272""
""focus"",""17"",""270842""
""focus"",""19"",""356314""
""focus"",""19"",""1014332""
""focus"",""19"",""1553777""
""focus"",""19"",""1597846""
","""event"",""trial"",""time""
""fullscreenenter"",""1"",""958""
","
","","","503.79999999701977","","","19","10872","5259","&#9776;","elianto","#3366ff99"," "," ","1","+10","[1354]","1","0","1","","","","","","","",""
"pit-trial","30","1705453","0.0-2.0-8.2-0.2","battery-v0.2","","""event"",""trial"",""time""
""fullscreenenter"",""1"",""958""
""blur"",""13"",""134791""
""focus"",""13"",""231272""
""blur"",""17"",""269698""
""focus"",""17"",""270842""
""blur"",""17"",""273094""
""focus"",""19"",""356314""
""blur"",""19"",""367077""
""focus"",""19"",""1014332""
""blur"",""19"",""1029557""
""focus"",""19"",""1553777""
""blur"",""19"",""1594580""
""focus"",""19"",""1597846""
","""event"",""trial"",""time""
""blur"",""13"",""134791""
""blur"",""17"",""269698""
""blur"",""17"",""273094""
""blur"",""19"",""367077""
""blur"",""19"",""1029557""
""blur"",""19"",""1594580""
","""event"",""trial"",""time""
""focus"",""13"",""231272""
""focus"",""17"",""270842""
""focus"",""19"",""356314""
""focus"",""19"",""1014332""
""focus"",""19"",""1553777""
""focus"",""19"",""1597846""
","""event"",""trial"",""time""
""fullscreenenter"",""1"",""958""
","
","","","487.5","","","19","10872","5259","&#9776;","elianto","#3366ff99"," "," ","1","+10","[1338.0999999940395]","1","0","1","","","","","","","",""
"pit-trial","31","1708796","0.0-2.0-8.2-1.2","battery-v0.2","","""event"",""trial"",""time""
""fullscreenenter"",""1"",""958""
""blur"",""13"",""134791""
""focus"",""13"",""231272""
""blur"",""17"",""269698""
""focus"",""17"",""270842""
""blur"",""17"",""273094""
""focus"",""19"",""356314""
""blur"",""19"",""367077""
""focus"",""19"",""1014332""
""blur"",""19"",""1029557""
""focus"",""19"",""1553777""
""blur"",""19"",""1594580""
""focus"",""19"",""1597846""
","""event"",""trial"",""time""
""blur"",""13"",""134791""
""blur"",""17"",""269698""
""blur"",""17"",""273094""
""blur"",""19"",""367077""
""blur"",""19"",""1029557""
""blur"",""19"",""1594580""
","""event"",""trial"",""time""
""focus"",""13"",""231272""
""focus"",""17"",""270842""
""focus"",""19"",""356314""
""focus"",""19"",""1014332""
""focus"",""19"",""1553777""
""focus"",""19"",""1597846""
","""event"",""trial"",""time""
""fullscreenenter"",""1"",""958""
","
","","","486.5","","","19","10872","5259","&#9776;","elianto","#3366ff99"," "," ","1","+10","[1337]","1","0","1","","","","","","","",""
"pit-trial","32","1712142","0.0-2.0-8.2-2.2","battery-v0.2","","""event"",""trial"",""time""
""fullscreenenter"",""1"",""958""
""blur"",""13"",""134791""
""focus"",""13"",""231272""
""blur"",""17"",""269698""
""focus"",""17"",""270842""
""blur"",""17"",""273094""
""focus"",""19"",""356314""
""blur"",""19"",""367077""
""focus"",""19"",""1014332""
""blur"",""19"",""1029557""
""focus"",""19"",""1553777""
""blur"",""19"",""1594580""
""focus"",""19"",""1597846""
","""event"",""trial"",""time""
""blur"",""13"",""134791""
""blur"",""17"",""269698""
""blur"",""17"",""273094""
""blur"",""19"",""367077""
""blur"",""19"",""1029557""
""blur"",""19"",""1594580""
","""event"",""trial"",""time""
""focus"",""13"",""231272""
""focus"",""17"",""270842""
""focus"",""19"",""356314""
""focus"",""19"",""1014332""
""focus"",""19"",""1553777""
""focus"",""19"",""1597846""
","""event"",""trial"",""time""
""fullscreenenter"",""1"",""958""
","
","","","486.70000000298023","","","19","10872","5259","&#9776;","elianto","#3366ff99"," "," ","1","+10","[1339.2000000029802]","1","0","1","","","","","","","",""
"pit-trial","33","1715535","0.0-2.0-8.2-3.2","battery-v0.2","","""event"",""trial"",""time""
""fullscreenenter"",""1"",""958""
""blur"",""13"",""134791""
""focus"",""13"",""231272""
""blur"",""17"",""269698""
""focus"",""17"",""270842""
""blur"",""17"",""273094""
""focus"",""19"",""356314""
""blur"",""19"",""367077""
""focus"",""19"",""1014332""
""blur"",""19"",""1029557""
""focus"",""19"",""1553777""
""blur"",""19"",""1594580""
""focus"",""19"",""1597846""
","""event"",""trial"",""time""
""blur"",""13"",""134791""
""blur"",""17"",""269698""
""blur"",""17"",""273094""
""blur"",""19"",""367077""
""blur"",""19"",""1029557""
""blur"",""19"",""1594580""
","""event"",""trial"",""time""
""focus"",""13"",""231272""
""focus"",""17"",""270842""
""focus"",""19"",""356314""
""focus"",""19"",""1014332""
""focus"",""19"",""1553777""
""focus"",""19"",""1597846""
","""event"",""trial"",""time""
""fullscreenenter"",""1"",""958""
","
","","","535.6000000089407","","","19","10872","5259","&#9776;","elianto","#3366ff99"," "," ","1","0","[1386.2000000029802]","1","0","1","","","","","","","",""
"pit-trial","34","1718844","0.0-2.0-8.2-4.2","battery-v0.2","","""event"",""trial"",""time""
""fullscreenenter"",""1"",""958""
""blur"",""13"",""134791""
""focus"",""13"",""231272""
""blur"",""17"",""269698""
""focus"",""17"",""270842""
""blur"",""17"",""273094""
""focus"",""19"",""356314""
""blur"",""19"",""367077""
""focus"",""19"",""1014332""
""blur"",""19"",""1029557""
""focus"",""19"",""1553777""
""blur"",""19"",""1594580""
""focus"",""19"",""1597846""
","""event"",""trial"",""time""
""blur"",""13"",""134791""
""blur"",""17"",""269698""
""blur"",""17"",""273094""
""blur"",""19"",""367077""
""blur"",""19"",""1029557""
""blur"",""19"",""1594580""
","""event"",""trial"",""time""
""focus"",""13"",""231272""
""focus"",""17"",""270842""
""focus"",""19"",""356314""
""focus"",""19"",""1014332""
""focus"",""19"",""1553777""
""focus"",""19"",""1597846""
","""event"",""trial"",""time""
""fullscreenenter"",""1"",""958""
","
","","","453","","","19","10872","5259","&#9776;","elianto","#3366ff99"," "," ","1","+10","[1303.0999999940395]","1","0","1","","","","","","","",""
"call-function","35","1718849","0.0-2.0-9.0","battery-v0.2","","""event"",""trial"",""time""
""fullscreenenter"",""1"",""958""
""blur"",""13"",""134791""
""focus"",""13"",""231272""
""blur"",""17"",""269698""
""focus"",""17"",""270842""
""blur"",""17"",""273094""
""focus"",""19"",""356314""
""blur"",""19"",""367077""
""focus"",""19"",""1014332""
""blur"",""19"",""1029557""
""focus"",""19"",""1553777""
""blur"",""19"",""1594580""
""focus"",""19"",""1597846""
""blur"",""36"",""1729412""
""focus"",""36"",""1732702""
","""event"",""trial"",""time""
""blur"",""13"",""134791""
""blur"",""17"",""269698""
""blur"",""17"",""273094""
""blur"",""19"",""367077""
""blur"",""19"",""1029557""
""blur"",""19"",""1594580""
""blur"",""36"",""1729412""
","""event"",""trial"",""time""
""focus"",""13"",""231272""
""focus"",""17"",""270842""
""focus"",""19"",""356314""
""focus"",""19"",""1014332""
""focus"",""19"",""1553777""
""focus"",""19"",""1597846""
""focus"",""36"",""1732702""
","""event"",""trial"",""time""
""fullscreenenter"",""1"",""958""
","
","","","","","","","","","","","","","","","","","","","","","","","","","","",""
"pit-instructions","36","1759996","0.0-2.0-10.0","battery-v0.2","","""event"",""trial"",""time""
""fullscreenenter"",""1"",""958""
""blur"",""13"",""134791""
""focus"",""13"",""231272""
""blur"",""17"",""269698""
""focus"",""17"",""270842""
""blur"",""17"",""273094""
""focus"",""19"",""356314""
""blur"",""19"",""367077""
""focus"",""19"",""1014332""
""blur"",""19"",""1029557""
""focus"",""19"",""1553777""
""blur"",""19"",""1594580""
""focus"",""19"",""1597846""
""blur"",""36"",""1729412""
""focus"",""36"",""1732702""
","""event"",""trial"",""time""
""blur"",""13"",""134791""
""blur"",""17"",""269698""
""blur"",""17"",""273094""
""blur"",""19"",""367077""
""blur"",""19"",""1029557""
""blur"",""19"",""1594580""
""blur"",""36"",""1729412""
","""event"",""trial"",""time""
""focus"",""13"",""231272""
""focus"",""17"",""270842""
""focus"",""19"",""356314""
""focus"",""19"",""1014332""
""focus"",""19"",""1553777""
""focus"",""19"",""1597846""
""focus"",""36"",""1732702""
","""event"",""trial"",""time""
""fullscreenenter"",""1"",""958""
","
","","[{""page_index"":0,""viewing_time"":5478.600000008941},{""page_index"":1,""viewing_time"":9208.39999999106},{""page_index"":2,""viewing_time"":9487},{""page_index"":3,""viewing_time"":9434},{""page_index"":4,""viewing_time"":7538.4000000059605}]","41146.80000001192","","","","","","","","","","","","","","","","","","","","","","","",""
"pit-trial","37","1764865","0.0-2.0-11.0-0.0","battery-v0.2","","""event"",""trial"",""time""
""fullscreenenter"",""1"",""958""
""blur"",""13"",""134791""
""focus"",""13"",""231272""
""blur"",""17"",""269698""
""focus"",""17"",""270842""
""blur"",""17"",""273094""
""focus"",""19"",""356314""
""blur"",""19"",""367077""
""focus"",""19"",""1014332""
""blur"",""19"",""1029557""
""focus"",""19"",""1553777""
""blur"",""19"",""1594580""
""focus"",""19"",""1597846""
""blur"",""36"",""1729412""
""focus"",""36"",""1732702""
","""event"",""trial"",""time""
""blur"",""13"",""134791""
""blur"",""17"",""269698""
""blur"",""17"",""273094""
""blur"",""19"",""367077""
""blur"",""19"",""1029557""
""blur"",""19"",""1594580""
""blur"",""36"",""1729412""
","""event"",""trial"",""time""
""focus"",""13"",""231272""
""focus"",""17"",""270842""
""focus"",""19"",""356314""
""focus"",""19"",""1014332""
""focus"",""19"",""1553777""
""focus"",""19"",""1597846""
""focus"",""36"",""1732702""
","""event"",""trial"",""time""
""fullscreenenter"",""1"",""958""
","
","","","-1","","","19","10872","5259","&#9761;","elianto","#3366ff99","-1","-1","1","+10","[]","0","0","2","","","","","","","",""
"pit-trial","38","1769747","0.0-2.0-11.0-1.0","battery-v0.2","","""event"",""trial"",""time""
""fullscreenenter"",""1"",""958""
""blur"",""13"",""134791""
""focus"",""13"",""231272""
""blur"",""17"",""269698""
""focus"",""17"",""270842""
""blur"",""17"",""273094""
""focus"",""19"",""356314""
""blur"",""19"",""367077""
""focus"",""19"",""1014332""
""blur"",""19"",""1029557""
""focus"",""19"",""1553777""
""blur"",""19"",""1594580""
""focus"",""19"",""1597846""
""blur"",""36"",""1729412""
""focus"",""36"",""1732702""
","""event"",""trial"",""time""
""blur"",""13"",""134791""
""blur"",""17"",""269698""
""blur"",""17"",""273094""
""blur"",""19"",""367077""
""blur"",""19"",""1029557""
""blur"",""19"",""1594580""
""blur"",""36"",""1729412""
","""event"",""trial"",""time""
""focus"",""13"",""231272""
""focus"",""17"",""270842""
""focus"",""19"",""356314""
""focus"",""19"",""1014332""
""focus"",""19"",""1553777""
""focus"",""19"",""1597846""
""focus"",""36"",""1732702""
","""event"",""trial"",""time""
""fullscreenenter"",""1"",""958""
","
","","","-1","","","19","10872","5259","&#9761;","elianto","#3366ff99","-1","-1","1","+10","[]","0","0","2","","","","","","","",""
"pit-trial","39","1774620","0.0-2.0-11.0-2.0","battery-v0.2","","""event"",""trial"",""time""
""fullscreenenter"",""1"",""958""
""blur"",""13"",""134791""
""focus"",""13"",""231272""
""blur"",""17"",""269698""
""focus"",""17"",""270842""
""blur"",""17"",""273094""
""focus"",""19"",""356314""
""blur"",""19"",""367077""
""focus"",""19"",""1014332""
""blur"",""19"",""1029557""
""focus"",""19"",""1553777""
""blur"",""19"",""1594580""
""focus"",""19"",""1597846""
""blur"",""36"",""1729412""
""focus"",""36"",""1732702""
","""event"",""trial"",""time""
""blur"",""13"",""134791""
""blur"",""17"",""269698""
""blur"",""17"",""273094""
""blur"",""19"",""367077""
""blur"",""19"",""1029557""
""blur"",""19"",""1594580""
""blur"",""36"",""1729412""
","""event"",""trial"",""time""
""focus"",""13"",""231272""
""focus"",""17"",""270842""
""focus"",""19"",""356314""
""focus"",""19"",""1014332""
""focus"",""19"",""1553777""
""focus"",""19"",""1597846""
""focus"",""36"",""1732702""
","""event"",""trial"",""time""
""fullscreenenter"",""1"",""958""
","
","","","-1","","","19","10872","5259","&#9761;","elianto","#3366ff99","-1","-1","1","+10","[]","0","0","2","","","","","","","",""
"pit-trial","40","1779495","0.0-2.0-11.0-3.0","battery-v0.2","","""event"",""trial"",""time""
""fullscreenenter"",""1"",""958""
""blur"",""13"",""134791""
""focus"",""13"",""231272""
""blur"",""17"",""269698""
""focus"",""17"",""270842""
""blur"",""17"",""273094""
""focus"",""19"",""356314""
""blur"",""19"",""367077""
""focus"",""19"",""1014332""
""blur"",""19"",""1029557""
""focus"",""19"",""1553777""
""blur"",""19"",""1594580""
""focus"",""19"",""1597846""
""blur"",""36"",""1729412""
""focus"",""36"",""1732702""
","""event"",""trial"",""time""
""blur"",""13"",""134791""
""blur"",""17"",""269698""
""blur"",""17"",""273094""
""blur"",""19"",""367077""
""blur"",""19"",""1029557""
""blur"",""19"",""1594580""
""blur"",""36"",""1729412""
","""event"",""trial"",""time""
""focus"",""13"",""231272""
""focus"",""17"",""270842""
""focus"",""19"",""356314""
""focus"",""19"",""1014332""
""focus"",""19"",""1553777""
""focus"",""19"",""1597846""
""focus"",""36"",""1732702""
","""event"",""trial"",""time""
""fullscreenenter"",""1"",""958""
","
","","","-1","","","19","10872","5259","&#9761;","elianto","#3366ff99","-1","-1","1","0","[]","0","0","2","","","","","","","",""
"pit-trial","41","1784368","0.0-2.0-11.0-4.0","battery-v0.2","","""event"",""trial"",""time""
""fullscreenenter"",""1"",""958""
""blur"",""13"",""134791""
""focus"",""13"",""231272""
""blur"",""17"",""269698""
""focus"",""17"",""270842""
""blur"",""17"",""273094""
""focus"",""19"",""356314""
""blur"",""19"",""367077""
""focus"",""19"",""1014332""
""blur"",""19"",""1029557""
""focus"",""19"",""1553777""
""blur"",""19"",""1594580""
""focus"",""19"",""1597846""
""blur"",""36"",""1729412""
""focus"",""36"",""1732702""
","""event"",""trial"",""time""
""blur"",""13"",""134791""
""blur"",""17"",""269698""
""blur"",""17"",""273094""
""blur"",""19"",""367077""
""blur"",""19"",""1029557""
""blur"",""19"",""1594580""
""blur"",""36"",""1729412""
","""event"",""trial"",""time""
""focus"",""13"",""231272""
""focus"",""17"",""270842""
""focus"",""19"",""356314""
""focus"",""19"",""1014332""
""focus"",""19"",""1553777""
""focus"",""19"",""1597846""
""focus"",""36"",""1732702""
","""event"",""trial"",""time""
""fullscreenenter"",""1"",""958""
","
","","","-1","","","19","10872","5259","&#9761;","elianto","#3366ff99","-1","-1","1","+10","[]","0","0","2","","","","","","","",""
"pit-trial","42","1789242","0.0-2.0-11.1-0.1","battery-v0.2","","""event"",""trial"",""time""
""fullscreenenter"",""1"",""958""
""blur"",""13"",""134791""
""focus"",""13"",""231272""
""blur"",""17"",""269698""
""focus"",""17"",""270842""
""blur"",""17"",""273094""
""focus"",""19"",""356314""
""blur"",""19"",""367077""
""focus"",""19"",""1014332""
""blur"",""19"",""1029557""
""focus"",""19"",""1553777""
""blur"",""19"",""1594580""
""focus"",""19"",""1597846""
""blur"",""36"",""1729412""
""focus"",""36"",""1732702""
","""event"",""trial"",""time""
""blur"",""13"",""134791""
""blur"",""17"",""269698""
""blur"",""17"",""273094""
""blur"",""19"",""367077""
""blur"",""19"",""1029557""
""blur"",""19"",""1594580""
""blur"",""36"",""1729412""
","""event"",""trial"",""time""
""focus"",""13"",""231272""
""focus"",""17"",""270842""
""focus"",""19"",""356314""
""focus"",""19"",""1014332""
""focus"",""19"",""1553777""
""focus"",""19"",""1597846""
""focus"",""36"",""1732702""
","""event"",""trial"",""time""
""fullscreenenter"",""1"",""958""
","
","","","-1","","","19","10872","5259","&#9761;","elianto","#3366ff99","-1","-1","1","+10","[]","0","0","2","","","","","","","",""
"pit-trial","43","1794099","0.0-2.0-11.1-1.1","battery-v0.2","","""event"",""trial"",""time""
""fullscreenenter"",""1"",""958""
""blur"",""13"",""134791""
""focus"",""13"",""231272""
""blur"",""17"",""269698""
""focus"",""17"",""270842""
""blur"",""17"",""273094""
""focus"",""19"",""356314""
""blur"",""19"",""367077""
""focus"",""19"",""1014332""
""blur"",""19"",""1029557""
""focus"",""19"",""1553777""
""blur"",""19"",""1594580""
""focus"",""19"",""1597846""
""blur"",""36"",""1729412""
""focus"",""36"",""1732702""
","""event"",""trial"",""time""
""blur"",""13"",""134791""
""blur"",""17"",""269698""
""blur"",""17"",""273094""
""blur"",""19"",""367077""
""blur"",""19"",""1029557""
""blur"",""19"",""1594580""
""blur"",""36"",""1729412""
","""event"",""trial"",""time""
""focus"",""13"",""231272""
""focus"",""17"",""270842""
""focus"",""19"",""356314""
""focus"",""19"",""1014332""
""focus"",""19"",""1553777""
""focus"",""19"",""1597846""
""focus"",""36"",""1732702""
","""event"",""trial"",""time""
""fullscreenenter"",""1"",""958""
","
","","","-1","","","19","10872","5259","&#9761;","elianto","#3366ff99","-1","-1","1","+10","[]","0","0","2","","","","","","","",""
"pit-trial","44","1798956","0.0-2.0-11.1-2.1","battery-v0.2","","""event"",""trial"",""time""
""fullscreenenter"",""1"",""958""
""blur"",""13"",""134791""
""focus"",""13"",""231272""
""blur"",""17"",""269698""
""focus"",""17"",""270842""
""blur"",""17"",""273094""
""focus"",""19"",""356314""
""blur"",""19"",""367077""
""focus"",""19"",""1014332""
""blur"",""19"",""1029557""
""focus"",""19"",""1553777""
""blur"",""19"",""1594580""
""focus"",""19"",""1597846""
""blur"",""36"",""1729412""
""focus"",""36"",""1732702""
","""event"",""trial"",""time""
""blur"",""13"",""134791""
""blur"",""17"",""269698""
""blur"",""17"",""273094""
""blur"",""19"",""367077""
""blur"",""19"",""1029557""
""blur"",""19"",""1594580""
""blur"",""36"",""1729412""
","""event"",""trial"",""time""
""focus"",""13"",""231272""
""focus"",""17"",""270842""
""focus"",""19"",""356314""
""focus"",""19"",""1014332""
""focus"",""19"",""1553777""
""focus"",""19"",""1597846""
""focus"",""36"",""1732702""
","""event"",""trial"",""time""
""fullscreenenter"",""1"",""958""
","
","","","-1","","","19","10872","5259","&#9761;","elianto","#3366ff99","-1","-1","1","+10","[]","0","0","2","","","","","","","",""
"pit-trial","45","1803815","0.0-2.0-11.1-3.1","battery-v0.2","","""event"",""trial"",""time""
""fullscreenenter"",""1"",""958""
""blur"",""13"",""134791""
""focus"",""13"",""231272""
""blur"",""17"",""269698""
""focus"",""17"",""270842""
""blur"",""17"",""273094""
""focus"",""19"",""356314""
""blur"",""19"",""367077""
""focus"",""19"",""1014332""
""blur"",""19"",""1029557""
""focus"",""19"",""1553777""
""blur"",""19"",""1594580""
""focus"",""19"",""1597846""
""blur"",""36"",""1729412""
""focus"",""36"",""1732702""
","""event"",""trial"",""time""
""blur"",""13"",""134791""
""blur"",""17"",""269698""
""blur"",""17"",""273094""
""blur"",""19"",""367077""
""blur"",""19"",""1029557""
""blur"",""19"",""1594580""
""blur"",""36"",""1729412""
","""event"",""trial"",""time""
""focus"",""13"",""231272""
""focus"",""17"",""270842""
""focus"",""19"",""356314""
""focus"",""19"",""1014332""
""focus"",""19"",""1553777""
""focus"",""19"",""1597846""
""focus"",""36"",""1732702""
","""event"",""trial"",""time""
""fullscreenenter"",""1"",""958""
","
","","","-1","","","19","10872","5259","&#9761;","elianto","#3366ff99","-1","-1","1","0","[]","0","0","2","","","","","","","",""
"pit-trial","46","1808675","0.0-2.0-11.1-4.1","battery-v0.2","","""event"",""trial"",""time""
""fullscreenenter"",""1"",""958""
""blur"",""13"",""134791""
""focus"",""13"",""231272""
""blur"",""17"",""269698""
""focus"",""17"",""270842""
""blur"",""17"",""273094""
""focus"",""19"",""356314""
""blur"",""19"",""367077""
""focus"",""19"",""1014332""
""blur"",""19"",""1029557""
""focus"",""19"",""1553777""
""blur"",""19"",""1594580""
""focus"",""19"",""1597846""
""blur"",""36"",""1729412""
""focus"",""36"",""1732702""
","""event"",""trial"",""time""
""blur"",""13"",""134791""
""blur"",""17"",""269698""
""blur"",""17"",""273094""
""blur"",""19"",""367077""
""blur"",""19"",""1029557""
""blur"",""19"",""1594580""
""blur"",""36"",""1729412""
","""event"",""trial"",""time""
""focus"",""13"",""231272""
""focus"",""17"",""270842""
""focus"",""19"",""356314""
""focus"",""19"",""1014332""
""focus"",""19"",""1553777""
""focus"",""19"",""1597846""
""focus"",""36"",""1732702""
","""event"",""trial"",""time""
""fullscreenenter"",""1"",""958""
","
","","","-1","","","19","10872","5259","&#9761;","elianto","#3366ff99","-1","-1","1","+10","[]","0","0","2","","","","","","","",""
"pit-trial","47","1813533","0.0-2.0-11.2-0.2","battery-v0.2","","""event"",""trial"",""time""
""fullscreenenter"",""1"",""958""
""blur"",""13"",""134791""
""focus"",""13"",""231272""
""blur"",""17"",""269698""
""focus"",""17"",""270842""
""blur"",""17"",""273094""
""focus"",""19"",""356314""
""blur"",""19"",""367077""
""focus"",""19"",""1014332""
""blur"",""19"",""1029557""
""focus"",""19"",""1553777""
""blur"",""19"",""1594580""
""focus"",""19"",""1597846""
""blur"",""36"",""1729412""
""focus"",""36"",""1732702""
","""event"",""trial"",""time""
""blur"",""13"",""134791""
""blur"",""17"",""269698""
""blur"",""17"",""273094""
""blur"",""19"",""367077""
""blur"",""19"",""1029557""
""blur"",""19"",""1594580""
""blur"",""36"",""1729412""
","""event"",""trial"",""time""
""focus"",""13"",""231272""
""focus"",""17"",""270842""
""focus"",""19"",""356314""
""focus"",""19"",""1014332""
""focus"",""19"",""1553777""
""focus"",""19"",""1597846""
""focus"",""36"",""1732702""
","""event"",""trial"",""time""
""fullscreenenter"",""1"",""958""
","
","","","-1","","","19","10872","5259","&#9761;","elianto","#3366ff99","-1","-1","1","+10","[]","0","0","2","","","","","","","",""
"pit-trial","48","1818391","0.0-2.0-11.2-1.2","battery-v0.2","","""event"",""trial"",""time""
""fullscreenenter"",""1"",""958""
""blur"",""13"",""134791""
""focus"",""13"",""231272""
""blur"",""17"",""269698""
""focus"",""17"",""270842""
""blur"",""17"",""273094""
""focus"",""19"",""356314""
""blur"",""19"",""367077""
""focus"",""19"",""1014332""
""blur"",""19"",""1029557""
""focus"",""19"",""1553777""
""blur"",""19"",""1594580""
""focus"",""19"",""1597846""
""blur"",""36"",""1729412""
""focus"",""36"",""1732702""
","""event"",""trial"",""time""
""blur"",""13"",""134791""
""blur"",""17"",""269698""
""blur"",""17"",""273094""
""blur"",""19"",""367077""
""blur"",""19"",""1029557""
""blur"",""19"",""1594580""
""blur"",""36"",""1729412""
","""event"",""trial"",""time""
""focus"",""13"",""231272""
""focus"",""17"",""270842""
""focus"",""19"",""356314""
""focus"",""19"",""1014332""
""focus"",""19"",""1553777""
""focus"",""19"",""1597846""
""focus"",""36"",""1732702""
","""event"",""trial"",""time""
""fullscreenenter"",""1"",""958""
","
","","","-1","","","19","10872","5259","&#9761;","elianto","#3366ff99","-1","-1","1","+10","[]","0","0","2","","","","","","","",""
"pit-trial","49","1823248","0.0-2.0-11.2-2.2","battery-v0.2","","""event"",""trial"",""time""
""fullscreenenter"",""1"",""958""
""blur"",""13"",""134791""
""focus"",""13"",""231272""
""blur"",""17"",""269698""
""focus"",""17"",""270842""
""blur"",""17"",""273094""
""focus"",""19"",""356314""
""blur"",""19"",""367077""
""focus"",""19"",""1014332""
""blur"",""19"",""1029557""
""focus"",""19"",""1553777""
""blur"",""19"",""1594580""
""focus"",""19"",""1597846""
""blur"",""36"",""1729412""
""focus"",""36"",""1732702""
","""event"",""trial"",""time""
""blur"",""13"",""134791""
""blur"",""17"",""269698""
""blur"",""17"",""273094""
""blur"",""19"",""367077""
""blur"",""19"",""1029557""
""blur"",""19"",""1594580""
""blur"",""36"",""1729412""
","""event"",""trial"",""time""
""focus"",""13"",""231272""
""focus"",""17"",""270842""
""focus"",""19"",""356314""
""focus"",""19"",""1014332""
""focus"",""19"",""1553777""
""focus"",""19"",""1597846""
""focus"",""36"",""1732702""
","""event"",""trial"",""time""
""fullscreenenter"",""1"",""958""
","
","","","-1","","","19","10872","5259","&#9761;","elianto","#3366ff99","-1","-1","1","+10","[]","0","0","2","","","","","","","",""
"pit-trial","50","1828106","0.0-2.0-11.2-3.2","battery-v0.2","","""event"",""trial"",""time""
""fullscreenenter"",""1"",""958""
""blur"",""13"",""134791""
""focus"",""13"",""231272""
""blur"",""17"",""269698""
""focus"",""17"",""270842""
""blur"",""17"",""273094""
""focus"",""19"",""356314""
""blur"",""19"",""367077""
""focus"",""19"",""1014332""
""blur"",""19"",""1029557""
""focus"",""19"",""1553777""
""blur"",""19"",""1594580""
""focus"",""19"",""1597846""
""blur"",""36"",""1729412""
""focus"",""36"",""1732702""
","""event"",""trial"",""time""
""blur"",""13"",""134791""
""blur"",""17"",""269698""
""blur"",""17"",""273094""
""blur"",""19"",""367077""
""blur"",""19"",""1029557""
""blur"",""19"",""1594580""
""blur"",""36"",""1729412""
","""event"",""trial"",""time""
""focus"",""13"",""231272""
""focus"",""17"",""270842""
""focus"",""19"",""356314""
""focus"",""19"",""1014332""
""focus"",""19"",""1553777""
""focus"",""19"",""1597846""
""focus"",""36"",""1732702""
","""event"",""trial"",""time""
""fullscreenenter"",""1"",""958""
","
","","","-1","","","19","10872","5259","&#9761;","elianto","#3366ff99","-1","-1","1","0","[]","0","0","2","","","","","","","",""
"pit-trial","51","1832963","0.0-2.0-11.2-4.2","battery-v0.2","","""event"",""trial"",""time""
""fullscreenenter"",""1"",""958""
""blur"",""13"",""134791""
""focus"",""13"",""231272""
""blur"",""17"",""269698""
""focus"",""17"",""270842""
""blur"",""17"",""273094""
""focus"",""19"",""356314""
""blur"",""19"",""367077""
""focus"",""19"",""1014332""
""blur"",""19"",""1029557""
""focus"",""19"",""1553777""
""blur"",""19"",""1594580""
""focus"",""19"",""1597846""
""blur"",""36"",""1729412""
""focus"",""36"",""1732702""
","""event"",""trial"",""time""
""blur"",""13"",""134791""
""blur"",""17"",""269698""
""blur"",""17"",""273094""
""blur"",""19"",""367077""
""blur"",""19"",""1029557""
""blur"",""19"",""1594580""
""blur"",""36"",""1729412""
","""event"",""trial"",""time""
""focus"",""13"",""231272""
""focus"",""17"",""270842""
""focus"",""19"",""356314""
""focus"",""19"",""1014332""
""focus"",""19"",""1553777""
""focus"",""19"",""1597846""
""focus"",""36"",""1732702""
","""event"",""trial"",""time""
""fullscreenenter"",""1"",""958""
","
","","","-1","","","19","10872","5259","&#9761;","elianto","#3366ff99","-1","-1","1","+10","[]","0","0","2","","","","","","","",""
"pit-trial","52","1837822","0.0-2.0-11.3-0.3","battery-v0.2","","""event"",""trial"",""time""
""fullscreenenter"",""1"",""958""
""blur"",""13"",""134791""
""focus"",""13"",""231272""
""blur"",""17"",""269698""
""focus"",""17"",""270842""
""blur"",""17"",""273094""
""focus"",""19"",""356314""
""blur"",""19"",""367077""
""focus"",""19"",""1014332""
""blur"",""19"",""1029557""
""focus"",""19"",""1553777""
""blur"",""19"",""1594580""
""focus"",""19"",""1597846""
""blur"",""36"",""1729412""
""focus"",""36"",""1732702""
","""event"",""trial"",""time""
""blur"",""13"",""134791""
""blur"",""17"",""269698""
""blur"",""17"",""273094""
""blur"",""19"",""367077""
""blur"",""19"",""1029557""
""blur"",""19"",""1594580""
""blur"",""36"",""1729412""
","""event"",""trial"",""time""
""focus"",""13"",""231272""
""focus"",""17"",""270842""
""focus"",""19"",""356314""
""focus"",""19"",""1014332""
""focus"",""19"",""1553777""
""focus"",""19"",""1597846""
""focus"",""36"",""1732702""
","""event"",""trial"",""time""
""fullscreenenter"",""1"",""958""
","
","","","-1","","","19","10872","5259","&#9761;","elianto","#3366ff99","-1","-1","1","+10","[]","0","0","2","","","","","","","",""
"pit-trial","53","1842681","0.0-2.0-11.3-1.3","battery-v0.2","","""event"",""trial"",""time""
""fullscreenenter"",""1"",""958""
""blur"",""13"",""134791""
""focus"",""13"",""231272""
""blur"",""17"",""269698""
""focus"",""17"",""270842""
""blur"",""17"",""273094""
""focus"",""19"",""356314""
""blur"",""19"",""367077""
""focus"",""19"",""1014332""
""blur"",""19"",""1029557""
""focus"",""19"",""1553777""
""blur"",""19"",""1594580""
""focus"",""19"",""1597846""
""blur"",""36"",""1729412""
""focus"",""36"",""1732702""
","""event"",""trial"",""time""
""blur"",""13"",""134791""
""blur"",""17"",""269698""
""blur"",""17"",""273094""
""blur"",""19"",""367077""
""blur"",""19"",""1029557""
""blur"",""19"",""1594580""
""blur"",""36"",""1729412""
","""event"",""trial"",""time""
""focus"",""13"",""231272""
""focus"",""17"",""270842""
""focus"",""19"",""356314""
""focus"",""19"",""1014332""
""focus"",""19"",""1553777""
""focus"",""19"",""1597846""
""focus"",""36"",""1732702""
","""event"",""trial"",""time""
""fullscreenenter"",""1"",""958""
","
","","","-1","","","19","10872","5259","&#9761;","elianto","#3366ff99","-1","-1","1","+10","[]","0","0","2","","","","","","","",""
"pit-trial","54","1847537","0.0-2.0-11.3-2.3","battery-v0.2","","""event"",""trial"",""time""
""fullscreenenter"",""1"",""958""
""blur"",""13"",""134791""
""focus"",""13"",""231272""
""blur"",""17"",""269698""
""focus"",""17"",""270842""
""blur"",""17"",""273094""
""focus"",""19"",""356314""
""blur"",""19"",""367077""
""focus"",""19"",""1014332""
""blur"",""19"",""1029557""
""focus"",""19"",""1553777""
""blur"",""19"",""1594580""
""focus"",""19"",""1597846""
""blur"",""36"",""1729412""
""focus"",""36"",""1732702""
","""event"",""trial"",""time""
""blur"",""13"",""134791""
""blur"",""17"",""269698""
""blur"",""17"",""273094""
""blur"",""19"",""367077""
""blur"",""19"",""1029557""
""blur"",""19"",""1594580""
""blur"",""36"",""1729412""
","""event"",""trial"",""time""
""focus"",""13"",""231272""
""focus"",""17"",""270842""
""focus"",""19"",""356314""
""focus"",""19"",""1014332""
""focus"",""19"",""1553777""
""focus"",""19"",""1597846""
""focus"",""36"",""1732702""
","""event"",""trial"",""time""
""fullscreenenter"",""1"",""958""
","
","","","-1","","","19","10872","5259","&#9761;","elianto","#3366ff99","-1","-1","1","+10","[]","0","0","2","","","","","","","",""
"pit-trial","55","1852394","0.0-2.0-11.3-3.3","battery-v0.2","","""event"",""trial"",""time""
""fullscreenenter"",""1"",""958""
""blur"",""13"",""134791""
""focus"",""13"",""231272""
""blur"",""17"",""269698""
""focus"",""17"",""270842""
""blur"",""17"",""273094""
""focus"",""19"",""356314""
""blur"",""19"",""367077""
""focus"",""19"",""1014332""
""blur"",""19"",""1029557""
""focus"",""19"",""1553777""
""blur"",""19"",""1594580""
""focus"",""19"",""1597846""
""blur"",""36"",""1729412""
""focus"",""36"",""1732702""
","""event"",""trial"",""time""
""blur"",""13"",""134791""
""blur"",""17"",""269698""
""blur"",""17"",""273094""
""blur"",""19"",""367077""
""blur"",""19"",""1029557""
""blur"",""19"",""1594580""
""blur"",""36"",""1729412""
","""event"",""trial"",""time""
""focus"",""13"",""231272""
""focus"",""17"",""270842""
""focus"",""19"",""356314""
""focus"",""19"",""1014332""
""focus"",""19"",""1553777""
""focus"",""19"",""1597846""
""focus"",""36"",""1732702""
","""event"",""trial"",""time""
""fullscreenenter"",""1"",""958""
","
","","","-1","","","19","10872","5259","&#9761;","elianto","#3366ff99","-1","-1","1","0","[]","0","0","2","","","","","","","",""
"pit-trial","56","1857252","0.0-2.0-11.3-4.3","battery-v0.2","","""event"",""trial"",""time""
""fullscreenenter"",""1"",""958""
""blur"",""13"",""134791""
""focus"",""13"",""231272""
""blur"",""17"",""269698""
""focus"",""17"",""270842""
""blur"",""17"",""273094""
""focus"",""19"",""356314""
""blur"",""19"",""367077""
""focus"",""19"",""1014332""
""blur"",""19"",""1029557""
""focus"",""19"",""1553777""
""blur"",""19"",""1594580""
""focus"",""19"",""1597846""
""blur"",""36"",""1729412""
""focus"",""36"",""1732702""
","""event"",""trial"",""time""
""blur"",""13"",""134791""
""blur"",""17"",""269698""
""blur"",""17"",""273094""
""blur"",""19"",""367077""
""blur"",""19"",""1029557""
""blur"",""19"",""1594580""
""blur"",""36"",""1729412""
","""event"",""trial"",""time""
""focus"",""13"",""231272""
""focus"",""17"",""270842""
""focus"",""19"",""356314""
""focus"",""19"",""1014332""
""focus"",""19"",""1553777""
""focus"",""19"",""1597846""
""focus"",""36"",""1732702""
","""event"",""trial"",""time""
""fullscreenenter"",""1"",""958""
","
","","","-1","","","19","10872","5259","&#9761;","elianto","#3366ff99","-1","-1","1","+10","[]","0","0","2","","","","","","","",""
"call-function","57","1857258","0.0-2.0-12.0","battery-v0.2","","""event"",""trial"",""time""
""fullscreenenter"",""1"",""958""
""blur"",""13"",""134791""
""focus"",""13"",""231272""
""blur"",""17"",""269698""
""focus"",""17"",""270842""
""blur"",""17"",""273094""
""focus"",""19"",""356314""
""blur"",""19"",""367077""
""focus"",""19"",""1014332""
""blur"",""19"",""1029557""
""focus"",""19"",""1553777""
""blur"",""19"",""1594580""
""focus"",""19"",""1597846""
""blur"",""36"",""1729412""
""focus"",""36"",""1732702""
","""event"",""trial"",""time""
""blur"",""13"",""134791""
""blur"",""17"",""269698""
""blur"",""17"",""273094""
""blur"",""19"",""367077""
""blur"",""19"",""1029557""
""blur"",""19"",""1594580""
""blur"",""36"",""1729412""
","""event"",""trial"",""time""
""focus"",""13"",""231272""
""focus"",""17"",""270842""
""focus"",""19"",""356314""
""focus"",""19"",""1014332""
""focus"",""19"",""1553777""
""focus"",""19"",""1597846""
""focus"",""36"",""1732702""
","""event"",""trial"",""time""
""fullscreenenter"",""1"",""958""
","
","","","","","","","","","","","","","","","","","","","","","","","","","","",""
"pit-instructions","58","1943311","0.0-2.0-13.0","battery-v0.2","","""event"",""trial"",""time""
""fullscreenenter"",""1"",""958""
""blur"",""13"",""134791""
""focus"",""13"",""231272""
""blur"",""17"",""269698""
""focus"",""17"",""270842""
""blur"",""17"",""273094""
""focus"",""19"",""356314""
""blur"",""19"",""367077""
""focus"",""19"",""1014332""
""blur"",""19"",""1029557""
""focus"",""19"",""1553777""
""blur"",""19"",""1594580""
""focus"",""19"",""1597846""
""blur"",""36"",""1729412""
""focus"",""36"",""1732702""
","""event"",""trial"",""time""
""blur"",""13"",""134791""
""blur"",""17"",""269698""
""blur"",""17"",""273094""
""blur"",""19"",""367077""
""blur"",""19"",""1029557""
""blur"",""19"",""1594580""
""blur"",""36"",""1729412""
","""event"",""trial"",""time""
""focus"",""13"",""231272""
""focus"",""17"",""270842""
""focus"",""19"",""356314""
""focus"",""19"",""1014332""
""focus"",""19"",""1553777""
""focus"",""19"",""1597846""
""focus"",""36"",""1732702""
","""event"",""trial"",""time""
""fullscreenenter"",""1"",""958""
","
","","[{""page_index"":0,""viewing_time"":24673.70000000298},{""page_index"":1,""viewing_time"":6045.79999999702},{""page_index"":2,""viewing_time"":1452.9000000059605},{""page_index"":1,""viewing_time"":292.8999999910593},{""page_index"":0,""viewing_time"":1284.2999999970198},{""page_index"":1,""viewing_time"":9844.10000000894},{""page_index"":2,""viewing_time"":18949},{""page_index"":3,""viewing_time"":18180.89999999106},{""page_index"":4,""viewing_time"":5327.600000008941}]","86051.59999999404","","","","","","","","","","","","","","","","","","","","","","","",""
"pit-trial","59","1948186","0.0-2.0-14.0-0.0","battery-v0.2","","""event"",""trial"",""time""
""fullscreenenter"",""1"",""958""
""blur"",""13"",""134791""
""focus"",""13"",""231272""
""blur"",""17"",""269698""
""focus"",""17"",""270842""
""blur"",""17"",""273094""
""focus"",""19"",""356314""
""blur"",""19"",""367077""
""focus"",""19"",""1014332""
""blur"",""19"",""1029557""
""focus"",""19"",""1553777""
""blur"",""19"",""1594580""
""focus"",""19"",""1597846""
""blur"",""36"",""1729412""
""focus"",""36"",""1732702""
","""event"",""trial"",""time""
""blur"",""13"",""134791""
""blur"",""17"",""269698""
""blur"",""17"",""273094""
""blur"",""19"",""367077""
""blur"",""19"",""1029557""
""blur"",""19"",""1594580""
""blur"",""36"",""1729412""
","""event"",""trial"",""time""
""focus"",""13"",""231272""
""focus"",""17"",""270842""
""focus"",""19"",""356314""
""focus"",""19"",""1014332""
""focus"",""19"",""1553777""
""focus"",""19"",""1597846""
""focus"",""36"",""1732702""
","""event"",""trial"",""time""
""fullscreenenter"",""1"",""958""
","
","","","-1","","","19","10872","5259","&#9826;","elianto","#f73b6a7A","-1","-1","1","0","[]","0","0","3","","","","","","","",""
"pit-trial","60","1953058","0.0-2.0-14.0-1.0","battery-v0.2","","""event"",""trial"",""time""
""fullscreenenter"",""1"",""958""
""blur"",""13"",""134791""
""focus"",""13"",""231272""
""blur"",""17"",""269698""
""focus"",""17"",""270842""
""blur"",""17"",""273094""
""focus"",""19"",""356314""
""blur"",""19"",""367077""
""focus"",""19"",""1014332""
""blur"",""19"",""1029557""
""focus"",""19"",""1553777""
""blur"",""19"",""1594580""
""focus"",""19"",""1597846""
""blur"",""36"",""1729412""
""focus"",""36"",""1732702""
","""event"",""trial"",""time""
""blur"",""13"",""134791""
""blur"",""17"",""269698""
""blur"",""17"",""273094""
""blur"",""19"",""367077""
""blur"",""19"",""1029557""
""blur"",""19"",""1594580""
""blur"",""36"",""1729412""
","""event"",""trial"",""time""
""focus"",""13"",""231272""
""focus"",""17"",""270842""
""focus"",""19"",""356314""
""focus"",""19"",""1014332""
""focus"",""19"",""1553777""
""focus"",""19"",""1597846""
""focus"",""36"",""1732702""
","""event"",""trial"",""time""
""fullscreenenter"",""1"",""958""
","
","","","-1","","","19","10872","5259","&#9826;","elianto","#f73b6a7A","-1","-1","1","0","[]","0","0","3","","","","","","","",""
"pit-trial","61","1956972","0.0-2.0-14.0-2.0","battery-v0.2","","""event"",""trial"",""time""
""fullscreenenter"",""1"",""958""
""blur"",""13"",""134791""
""focus"",""13"",""231272""
""blur"",""17"",""269698""
""focus"",""17"",""270842""
""blur"",""17"",""273094""
""focus"",""19"",""356314""
""blur"",""19"",""367077""
""focus"",""19"",""1014332""
""blur"",""19"",""1029557""
""focus"",""19"",""1553777""
""blur"",""19"",""1594580""
""focus"",""19"",""1597846""
""blur"",""36"",""1729412""
""focus"",""36"",""1732702""
","""event"",""trial"",""time""
""blur"",""13"",""134791""
""blur"",""17"",""269698""
""blur"",""17"",""273094""
""blur"",""19"",""367077""
""blur"",""19"",""1029557""
""blur"",""19"",""1594580""
""blur"",""36"",""1729412""
","""event"",""trial"",""time""
""focus"",""13"",""231272""
""focus"",""17"",""270842""
""focus"",""19"",""356314""
""focus"",""19"",""1014332""
""focus"",""19"",""1553777""
""focus"",""19"",""1597846""
""focus"",""36"",""1732702""
","""event"",""trial"",""time""
""fullscreenenter"",""1"",""958""
","
","","","1055.2000000029802","","","19","10872","5259","&#9826;","elianto","#f73b6a7A","-1"," ","0","-10","[1906]","1","0","3","","","","","","","",""
"pit-trial","62","1961849","0.0-2.0-14.0-3.0","battery-v0.2","","""event"",""trial"",""time""
""fullscreenenter"",""1"",""958""
""blur"",""13"",""134791""
""focus"",""13"",""231272""
""blur"",""17"",""269698""
""focus"",""17"",""270842""
""blur"",""17"",""273094""
""focus"",""19"",""356314""
""blur"",""19"",""367077""
""focus"",""19"",""1014332""
""blur"",""19"",""1029557""
""focus"",""19"",""1553777""
""blur"",""19"",""1594580""
""focus"",""19"",""1597846""
""blur"",""36"",""1729412""
""focus"",""36"",""1732702""
","""event"",""trial"",""time""
""blur"",""13"",""134791""
""blur"",""17"",""269698""
""blur"",""17"",""273094""
""blur"",""19"",""367077""
""blur"",""19"",""1029557""
""blur"",""19"",""1594580""
""blur"",""36"",""1729412""
","""event"",""trial"",""time""
""focus"",""13"",""231272""
""focus"",""17"",""270842""
""focus"",""19"",""356314""
""focus"",""19"",""1014332""
""focus"",""19"",""1553777""
""focus"",""19"",""1597846""
""focus"",""36"",""1732702""
","""event"",""trial"",""time""
""fullscreenenter"",""1"",""958""
","
","","","-1","","","19","10872","5259","&#9826;","elianto","#f73b6a7A","-1","-1","1","-10","[]","0","0","3","","","","","","","",""
"pit-trial","63","1966714","0.0-2.0-14.0-4.0","battery-v0.2","","""event"",""trial"",""time""
""fullscreenenter"",""1"",""958""
""blur"",""13"",""134791""
""focus"",""13"",""231272""
""blur"",""17"",""269698""
""focus"",""17"",""270842""
""blur"",""17"",""273094""
""focus"",""19"",""356314""
""blur"",""19"",""367077""
""focus"",""19"",""1014332""
""blur"",""19"",""1029557""
""focus"",""19"",""1553777""
""blur"",""19"",""1594580""
""focus"",""19"",""1597846""
""blur"",""36"",""1729412""
""focus"",""36"",""1732702""
","""event"",""trial"",""time""
""blur"",""13"",""134791""
""blur"",""17"",""269698""
""blur"",""17"",""273094""
""blur"",""19"",""367077""
""blur"",""19"",""1029557""
""blur"",""19"",""1594580""
""blur"",""36"",""1729412""
","""event"",""trial"",""time""
""focus"",""13"",""231272""
""focus"",""17"",""270842""
""focus"",""19"",""356314""
""focus"",""19"",""1014332""
""focus"",""19"",""1553777""
""focus"",""19"",""1597846""
""focus"",""36"",""1732702""
","""event"",""trial"",""time""
""fullscreenenter"",""1"",""958""
","
","","","-1","","","19","10872","5259","&#9826;","elianto","#f73b6a7A","-1","-1","1","0","[]","0","0","3","","","","","","","",""
"pit-trial","64","1971575","0.0-2.0-14.1-0.1","battery-v0.2","","""event"",""trial"",""time""
""fullscreenenter"",""1"",""958""
""blur"",""13"",""134791""
""focus"",""13"",""231272""
""blur"",""17"",""269698""
""focus"",""17"",""270842""
""blur"",""17"",""273094""
""focus"",""19"",""356314""
""blur"",""19"",""367077""
""focus"",""19"",""1014332""
""blur"",""19"",""1029557""
""focus"",""19"",""1553777""
""blur"",""19"",""1594580""
""focus"",""19"",""1597846""
""blur"",""36"",""1729412""
""focus"",""36"",""1732702""
","""event"",""trial"",""time""
""blur"",""13"",""134791""
""blur"",""17"",""269698""
""blur"",""17"",""273094""
""blur"",""19"",""367077""
""blur"",""19"",""1029557""
""blur"",""19"",""1594580""
""blur"",""36"",""1729412""
","""event"",""trial"",""time""
""focus"",""13"",""231272""
""focus"",""17"",""270842""
""focus"",""19"",""356314""
""focus"",""19"",""1014332""
""focus"",""19"",""1553777""
""focus"",""19"",""1597846""
""focus"",""36"",""1732702""
","""event"",""trial"",""time""
""fullscreenenter"",""1"",""958""
","
","","","-1","","","19","10872","5259","&#9826;","elianto","#f73b6a7A","-1","-1","1","0","[]","0","0","3","","","","","","","",""
"pit-trial","65","1976436","0.0-2.0-14.1-1.1","battery-v0.2","","""event"",""trial"",""time""
""fullscreenenter"",""1"",""958""
""blur"",""13"",""134791""
""focus"",""13"",""231272""
""blur"",""17"",""269698""
""focus"",""17"",""270842""
""blur"",""17"",""273094""
""focus"",""19"",""356314""
""blur"",""19"",""367077""
""focus"",""19"",""1014332""
""blur"",""19"",""1029557""
""focus"",""19"",""1553777""
""blur"",""19"",""1594580""
""focus"",""19"",""1597846""
""blur"",""36"",""1729412""
""focus"",""36"",""1732702""
","""event"",""trial"",""time""
""blur"",""13"",""134791""
""blur"",""17"",""269698""
""blur"",""17"",""273094""
""blur"",""19"",""367077""
""blur"",""19"",""1029557""
""blur"",""19"",""1594580""
""blur"",""36"",""1729412""
","""event"",""trial"",""time""
""focus"",""13"",""231272""
""focus"",""17"",""270842""
""focus"",""19"",""356314""
""focus"",""19"",""1014332""
""focus"",""19"",""1553777""
""focus"",""19"",""1597846""
""focus"",""36"",""1732702""
","""event"",""trial"",""time""
""fullscreenenter"",""1"",""958""
","
","","","-1","","","19","10872","5259","&#9826;","elianto","#f73b6a7A","-1","-1","1","0","[]","0","0","3","","","","","","","",""
"pit-trial","66","1981291","0.0-2.0-14.1-2.1","battery-v0.2","","""event"",""trial"",""time""
""fullscreenenter"",""1"",""958""
""blur"",""13"",""134791""
""focus"",""13"",""231272""
""blur"",""17"",""269698""
""focus"",""17"",""270842""
""blur"",""17"",""273094""
""focus"",""19"",""356314""
""blur"",""19"",""367077""
""focus"",""19"",""1014332""
""blur"",""19"",""1029557""
""focus"",""19"",""1553777""
""blur"",""19"",""1594580""
""focus"",""19"",""1597846""
""blur"",""36"",""1729412""
""focus"",""36"",""1732702""
","""event"",""trial"",""time""
""blur"",""13"",""134791""
""blur"",""17"",""269698""
""blur"",""17"",""273094""
""blur"",""19"",""367077""
""blur"",""19"",""1029557""
""blur"",""19"",""1594580""
""blur"",""36"",""1729412""
","""event"",""trial"",""time""
""focus"",""13"",""231272""
""focus"",""17"",""270842""
""focus"",""19"",""356314""
""focus"",""19"",""1014332""
""focus"",""19"",""1553777""
""focus"",""19"",""1597846""
""focus"",""36"",""1732702""
","""event"",""trial"",""time""
""fullscreenenter"",""1"",""958""
","
","","","-1","","","19","10872","5259","&#9826;","elianto","#f73b6a7A","-1","-1","1","0","[]","0","0","3","","","","","","","",""
"pit-trial","67","1986148","0.0-2.0-14.1-3.1","battery-v0.2","","""event"",""trial"",""time""
""fullscreenenter"",""1"",""958""
""blur"",""13"",""134791""
""focus"",""13"",""231272""
""blur"",""17"",""269698""
""focus"",""17"",""270842""
""blur"",""17"",""273094""
""focus"",""19"",""356314""
""blur"",""19"",""367077""
""focus"",""19"",""1014332""
""blur"",""19"",""1029557""
""focus"",""19"",""1553777""
""blur"",""19"",""1594580""
""focus"",""19"",""1597846""
""blur"",""36"",""1729412""
""focus"",""36"",""1732702""
","""event"",""trial"",""time""
""blur"",""13"",""134791""
""blur"",""17"",""269698""
""blur"",""17"",""273094""
""blur"",""19"",""367077""
""blur"",""19"",""1029557""
""blur"",""19"",""1594580""
""blur"",""36"",""1729412""
","""event"",""trial"",""time""
""focus"",""13"",""231272""
""focus"",""17"",""270842""
""focus"",""19"",""356314""
""focus"",""19"",""1014332""
""focus"",""19"",""1553777""
""focus"",""19"",""1597846""
""focus"",""36"",""1732702""
","""event"",""trial"",""time""
""fullscreenenter"",""1"",""958""
","
","","","-1","","","19","10872","5259","&#9826;","elianto","#f73b6a7A","-1","-1","1","-10","[]","0","0","3","","","","","","","",""
"pit-trial","68","1991005","0.0-2.0-14.1-4.1","battery-v0.2","","""event"",""trial"",""time""
""fullscreenenter"",""1"",""958""
""blur"",""13"",""134791""
""focus"",""13"",""231272""
""blur"",""17"",""269698""
""focus"",""17"",""270842""
""blur"",""17"",""273094""
""focus"",""19"",""356314""
""blur"",""19"",""367077""
""focus"",""19"",""1014332""
""blur"",""19"",""1029557""
""focus"",""19"",""1553777""
""blur"",""19"",""1594580""
""focus"",""19"",""1597846""
""blur"",""36"",""1729412""
""focus"",""36"",""1732702""
","""event"",""trial"",""time""
""blur"",""13"",""134791""
""blur"",""17"",""269698""
""blur"",""17"",""273094""
""blur"",""19"",""367077""
""blur"",""19"",""1029557""
""blur"",""19"",""1594580""
""blur"",""36"",""1729412""
","""event"",""trial"",""time""
""focus"",""13"",""231272""
""focus"",""17"",""270842""
""focus"",""19"",""356314""
""focus"",""19"",""1014332""
""focus"",""19"",""1553777""
""focus"",""19"",""1597846""
""focus"",""36"",""1732702""
","""event"",""trial"",""time""
""fullscreenenter"",""1"",""958""
","
","","","-1","","","19","10872","5259","&#9826;","elianto","#f73b6a7A","-1","-1","1","0","[]","0","0","3","","","","","","","",""
"pit-trial","69","1995863","0.0-2.0-14.2-0.2","battery-v0.2","","""event"",""trial"",""time""
""fullscreenenter"",""1"",""958""
""blur"",""13"",""134791""
""focus"",""13"",""231272""
""blur"",""17"",""269698""
""focus"",""17"",""270842""
""blur"",""17"",""273094""
""focus"",""19"",""356314""
""blur"",""19"",""367077""
""focus"",""19"",""1014332""
""blur"",""19"",""1029557""
""focus"",""19"",""1553777""
""blur"",""19"",""1594580""
""focus"",""19"",""1597846""
""blur"",""36"",""1729412""
""focus"",""36"",""1732702""
","""event"",""trial"",""time""
""blur"",""13"",""134791""
""blur"",""17"",""269698""
""blur"",""17"",""273094""
""blur"",""19"",""367077""
""blur"",""19"",""1029557""
""blur"",""19"",""1594580""
""blur"",""36"",""1729412""
","""event"",""trial"",""time""
""focus"",""13"",""231272""
""focus"",""17"",""270842""
""focus"",""19"",""356314""
""focus"",""19"",""1014332""
""focus"",""19"",""1553777""
""focus"",""19"",""1597846""
""focus"",""36"",""1732702""
","""event"",""trial"",""time""
""fullscreenenter"",""1"",""958""
","
","","","-1","","","19","10872","5259","&#9826;","elianto","#f73b6a7A","-1","-1","1","0","[]","0","0","3","","","","","","","",""
"pit-trial","70","2000719","0.0-2.0-14.2-1.2","battery-v0.2","","""event"",""trial"",""time""
""fullscreenenter"",""1"",""958""
""blur"",""13"",""134791""
""focus"",""13"",""231272""
""blur"",""17"",""269698""
""focus"",""17"",""270842""
""blur"",""17"",""273094""
""focus"",""19"",""356314""
""blur"",""19"",""367077""
""focus"",""19"",""1014332""
""blur"",""19"",""1029557""
""focus"",""19"",""1553777""
""blur"",""19"",""1594580""
""focus"",""19"",""1597846""
""blur"",""36"",""1729412""
""focus"",""36"",""1732702""
","""event"",""trial"",""time""
""blur"",""13"",""134791""
""blur"",""17"",""269698""
""blur"",""17"",""273094""
""blur"",""19"",""367077""
""blur"",""19"",""1029557""
""blur"",""19"",""1594580""
""blur"",""36"",""1729412""
","""event"",""trial"",""time""
""focus"",""13"",""231272""
""focus"",""17"",""270842""
""focus"",""19"",""356314""
""focus"",""19"",""1014332""
""focus"",""19"",""1553777""
""focus"",""19"",""1597846""
""focus"",""36"",""1732702""
","""event"",""trial"",""time""
""fullscreenenter"",""1"",""958""
","
","","","-1","","","19","10872","5259","&#9826;","elianto","#f73b6a7A","-1","-1","1","0","[]","0","0","3","","","","","","","",""
"pit-trial","71","2005576","0.0-2.0-14.2-2.2","battery-v0.2","","""event"",""trial"",""time""
""fullscreenenter"",""1"",""958""
""blur"",""13"",""134791""
""focus"",""13"",""231272""
""blur"",""17"",""269698""
""focus"",""17"",""270842""
""blur"",""17"",""273094""
""focus"",""19"",""356314""
""blur"",""19"",""367077""
""focus"",""19"",""1014332""
""blur"",""19"",""1029557""
""focus"",""19"",""1553777""
""blur"",""19"",""1594580""
""focus"",""19"",""1597846""
""blur"",""36"",""1729412""
""focus"",""36"",""1732702""
","""event"",""trial"",""time""
""blur"",""13"",""134791""
""blur"",""17"",""269698""
""blur"",""17"",""273094""
""blur"",""19"",""367077""
""blur"",""19"",""1029557""
""blur"",""19"",""1594580""
""blur"",""36"",""1729412""
","""event"",""trial"",""time""
""focus"",""13"",""231272""
""focus"",""17"",""270842""
""focus"",""19"",""356314""
""focus"",""19"",""1014332""
""focus"",""19"",""1553777""
""focus"",""19"",""1597846""
""focus"",""36"",""1732702""
","""event"",""trial"",""time""
""fullscreenenter"",""1"",""958""
","
","","","-1","","","19","10872","5259","&#9826;","elianto","#f73b6a7A","-1","-1","1","0","[]","0","0","3","","","","","","","",""
"pit-trial","72","2010433","0.0-2.0-14.2-3.2","battery-v0.2","","""event"",""trial"",""time""
""fullscreenenter"",""1"",""958""
""blur"",""13"",""134791""
""focus"",""13"",""231272""
""blur"",""17"",""269698""
""focus"",""17"",""270842""
""blur"",""17"",""273094""
""focus"",""19"",""356314""
""blur"",""19"",""367077""
""focus"",""19"",""1014332""
""blur"",""19"",""1029557""
""focus"",""19"",""1553777""
""blur"",""19"",""1594580""
""focus"",""19"",""1597846""
""blur"",""36"",""1729412""
""focus"",""36"",""1732702""
","""event"",""trial"",""time""
""blur"",""13"",""134791""
""blur"",""17"",""269698""
""blur"",""17"",""273094""
""blur"",""19"",""367077""
""blur"",""19"",""1029557""
""blur"",""19"",""1594580""
""blur"",""36"",""1729412""
","""event"",""trial"",""time""
""focus"",""13"",""231272""
""focus"",""17"",""270842""
""focus"",""19"",""356314""
""focus"",""19"",""1014332""
""focus"",""19"",""1553777""
""focus"",""19"",""1597846""
""focus"",""36"",""1732702""
","""event"",""trial"",""time""
""fullscreenenter"",""1"",""958""
","
","","","-1","","","19","10872","5259","&#9826;","elianto","#f73b6a7A","-1","-1","1","-10","[]","0","0","3","","","","","","","",""
"pit-trial","73","2015290","0.0-2.0-14.2-4.2","battery-v0.2","","""event"",""trial"",""time""
""fullscreenenter"",""1"",""958""
""blur"",""13"",""134791""
""focus"",""13"",""231272""
""blur"",""17"",""269698""
""focus"",""17"",""270842""
""blur"",""17"",""273094""
""focus"",""19"",""356314""
""blur"",""19"",""367077""
""focus"",""19"",""1014332""
""blur"",""19"",""1029557""
""focus"",""19"",""1553777""
""blur"",""19"",""1594580""
""focus"",""19"",""1597846""
""blur"",""36"",""1729412""
""focus"",""36"",""1732702""
","""event"",""trial"",""time""
""blur"",""13"",""134791""
""blur"",""17"",""269698""
""blur"",""17"",""273094""
""blur"",""19"",""367077""
""blur"",""19"",""1029557""
""blur"",""19"",""1594580""
""blur"",""36"",""1729412""
","""event"",""trial"",""time""
""focus"",""13"",""231272""
""focus"",""17"",""270842""
""focus"",""19"",""356314""
""focus"",""19"",""1014332""
""focus"",""19"",""1553777""
""focus"",""19"",""1597846""
""focus"",""36"",""1732702""
","""event"",""trial"",""time""
""fullscreenenter"",""1"",""958""
","
","","","-1","","","19","10872","5259","&#9826;","elianto","#f73b6a7A","-1","-1","1","0","[]","0","0","3","","","","","","","",""
"pit-trial","74","2020153","0.0-2.0-14.3-0.3","battery-v0.2","","""event"",""trial"",""time""
""fullscreenenter"",""1"",""958""
""blur"",""13"",""134791""
""focus"",""13"",""231272""
""blur"",""17"",""269698""
""focus"",""17"",""270842""
""blur"",""17"",""273094""
""focus"",""19"",""356314""
""blur"",""19"",""367077""
""focus"",""19"",""1014332""
""blur"",""19"",""1029557""
""focus"",""19"",""1553777""
""blur"",""19"",""1594580""
""focus"",""19"",""1597846""
""blur"",""36"",""1729412""
""focus"",""36"",""1732702""
","""event"",""trial"",""time""
""blur"",""13"",""134791""
""blur"",""17"",""269698""
""blur"",""17"",""273094""
""blur"",""19"",""367077""
""blur"",""19"",""1029557""
""blur"",""19"",""1594580""
""blur"",""36"",""1729412""
","""event"",""trial"",""time""
""focus"",""13"",""231272""
""focus"",""17"",""270842""
""focus"",""19"",""356314""
""focus"",""19"",""1014332""
""focus"",""19"",""1553777""
""focus"",""19"",""1597846""
""focus"",""36"",""1732702""
","""event"",""trial"",""time""
""fullscreenenter"",""1"",""958""
","
","","","-1","","","19","10872","5259","&#9826;","elianto","#f73b6a7A","-1","-1","1","0","[]","0","0","3","","","","","","","",""
"pit-trial","75","2025009","0.0-2.0-14.3-1.3","battery-v0.2","","""event"",""trial"",""time""
""fullscreenenter"",""1"",""958""
""blur"",""13"",""134791""
""focus"",""13"",""231272""
""blur"",""17"",""269698""
""focus"",""17"",""270842""
""blur"",""17"",""273094""
""focus"",""19"",""356314""
""blur"",""19"",""367077""
""focus"",""19"",""1014332""
""blur"",""19"",""1029557""
""focus"",""19"",""1553777""
""blur"",""19"",""1594580""
""focus"",""19"",""1597846""
""blur"",""36"",""1729412""
""focus"",""36"",""1732702""
","""event"",""trial"",""time""
""blur"",""13"",""134791""
""blur"",""17"",""269698""
""blur"",""17"",""273094""
""blur"",""19"",""367077""
""blur"",""19"",""1029557""
""blur"",""19"",""1594580""
""blur"",""36"",""1729412""
","""event"",""trial"",""time""
""focus"",""13"",""231272""
""focus"",""17"",""270842""
""focus"",""19"",""356314""
""focus"",""19"",""1014332""
""focus"",""19"",""1553777""
""focus"",""19"",""1597846""
""focus"",""36"",""1732702""
","""event"",""trial"",""time""
""fullscreenenter"",""1"",""958""
","
","","","-1","","","19","10872","5259","&#9826;","elianto","#f73b6a7A","-1","-1","1","0","[]","0","0","3","","","","","","","",""
"pit-trial","76","2029867","0.0-2.0-14.3-2.3","battery-v0.2","","""event"",""trial"",""time""
""fullscreenenter"",""1"",""958""
""blur"",""13"",""134791""
""focus"",""13"",""231272""
""blur"",""17"",""269698""
""focus"",""17"",""270842""
""blur"",""17"",""273094""
""focus"",""19"",""356314""
""blur"",""19"",""367077""
""focus"",""19"",""1014332""
""blur"",""19"",""1029557""
""focus"",""19"",""1553777""
""blur"",""19"",""1594580""
""focus"",""19"",""1597846""
""blur"",""36"",""1729412""
""focus"",""36"",""1732702""
","""event"",""trial"",""time""
""blur"",""13"",""134791""
""blur"",""17"",""269698""
""blur"",""17"",""273094""
""blur"",""19"",""367077""
""blur"",""19"",""1029557""
""blur"",""19"",""1594580""
""blur"",""36"",""1729412""
","""event"",""trial"",""time""
""focus"",""13"",""231272""
""focus"",""17"",""270842""
""focus"",""19"",""356314""
""focus"",""19"",""1014332""
""focus"",""19"",""1553777""
""focus"",""19"",""1597846""
""focus"",""36"",""1732702""
","""event"",""trial"",""time""
""fullscreenenter"",""1"",""958""
","
","","","-1","","","19","10872","5259","&#9826;","elianto","#f73b6a7A","-1","-1","1","0","[]","0","0","3","","","","","","","",""
"pit-trial","77","2034726","0.0-2.0-14.3-3.3","battery-v0.2","","""event"",""trial"",""time""
""fullscreenenter"",""1"",""958""
""blur"",""13"",""134791""
""focus"",""13"",""231272""
""blur"",""17"",""269698""
""focus"",""17"",""270842""
""blur"",""17"",""273094""
""focus"",""19"",""356314""
""blur"",""19"",""367077""
""focus"",""19"",""1014332""
""blur"",""19"",""1029557""
""focus"",""19"",""1553777""
""blur"",""19"",""1594580""
""focus"",""19"",""1597846""
""blur"",""36"",""1729412""
""focus"",""36"",""1732702""
","""event"",""trial"",""time""
""blur"",""13"",""134791""
""blur"",""17"",""269698""
""blur"",""17"",""273094""
""blur"",""19"",""367077""
""blur"",""19"",""1029557""
""blur"",""19"",""1594580""
""blur"",""36"",""1729412""
","""event"",""trial"",""time""
""focus"",""13"",""231272""
""focus"",""17"",""270842""
""focus"",""19"",""356314""
""focus"",""19"",""1014332""
""focus"",""19"",""1553777""
""focus"",""19"",""1597846""
""focus"",""36"",""1732702""
","""event"",""trial"",""time""
""fullscreenenter"",""1"",""958""
","
","","","-1","","","19","10872","5259","&#9826;","elianto","#f73b6a7A","-1","-1","1","-10","[]","0","0","3","","","","","","","",""
"pit-trial","78","2039585","0.0-2.0-14.3-4.3","battery-v0.2","","""event"",""trial"",""time""
""fullscreenenter"",""1"",""958""
""blur"",""13"",""134791""
""focus"",""13"",""231272""
""blur"",""17"",""269698""
""focus"",""17"",""270842""
""blur"",""17"",""273094""
""focus"",""19"",""356314""
""blur"",""19"",""367077""
""focus"",""19"",""1014332""
""blur"",""19"",""1029557""
""focus"",""19"",""1553777""
""blur"",""19"",""1594580""
""focus"",""19"",""1597846""
""blur"",""36"",""1729412""
""focus"",""36"",""1732702""
","""event"",""trial"",""time""
""blur"",""13"",""134791""
""blur"",""17"",""269698""
""blur"",""17"",""273094""
""blur"",""19"",""367077""
""blur"",""19"",""1029557""
""blur"",""19"",""1594580""
""blur"",""36"",""1729412""
","""event"",""trial"",""time""
""focus"",""13"",""231272""
""focus"",""17"",""270842""
""focus"",""19"",""356314""
""focus"",""19"",""1014332""
""focus"",""19"",""1553777""
""focus"",""19"",""1597846""
""focus"",""36"",""1732702""
","""event"",""trial"",""time""
""fullscreenenter"",""1"",""958""
","
","","","-1","","","19","10872","5259","&#9826;","elianto","#f73b6a7A","-1","-1","1","0","[]","0","0","3","","","","","","","",""
"call-function","79","2039591","0.0-2.0-15.0","battery-v0.2","","""event"",""trial"",""time""
""fullscreenenter"",""1"",""958""
""blur"",""13"",""134791""
""focus"",""13"",""231272""
""blur"",""17"",""269698""
""focus"",""17"",""270842""
""blur"",""17"",""273094""
""focus"",""19"",""356314""
""blur"",""19"",""367077""
""focus"",""19"",""1014332""
""blur"",""19"",""1029557""
""focus"",""19"",""1553777""
""blur"",""19"",""1594580""
""focus"",""19"",""1597846""
""blur"",""36"",""1729412""
""focus"",""36"",""1732702""
","""event"",""trial"",""time""
""blur"",""13"",""134791""
""blur"",""17"",""269698""
""blur"",""17"",""273094""
""blur"",""19"",""367077""
""blur"",""19"",""1029557""
""blur"",""19"",""1594580""
""blur"",""36"",""1729412""
","""event"",""trial"",""time""
""focus"",""13"",""231272""
""focus"",""17"",""270842""
""focus"",""19"",""356314""
""focus"",""19"",""1014332""
""focus"",""19"",""1553777""
""focus"",""19"",""1597846""
""focus"",""36"",""1732702""
","""event"",""trial"",""time""
""fullscreenenter"",""1"",""958""
","
","","","","","","","","","","","","","","","","","","","","","","","","","","",""
"pit-instructions","80","2069621","0.0-2.0-16.0","battery-v0.2","","""event"",""trial"",""time""
""fullscreenenter"",""1"",""958""
""blur"",""13"",""134791""
""focus"",""13"",""231272""
""blur"",""17"",""269698""
""focus"",""17"",""270842""
""blur"",""17"",""273094""
""focus"",""19"",""356314""
""blur"",""19"",""367077""
""focus"",""19"",""1014332""
""blur"",""19"",""1029557""
""focus"",""19"",""1553777""
""blur"",""19"",""1594580""
""focus"",""19"",""1597846""
""blur"",""36"",""1729412""
""focus"",""36"",""1732702""
","""event"",""trial"",""time""
""blur"",""13"",""134791""
""blur"",""17"",""269698""
""blur"",""17"",""273094""
""blur"",""19"",""367077""
""blur"",""19"",""1029557""
""blur"",""19"",""1594580""
""blur"",""36"",""1729412""
","""event"",""trial"",""time""
""focus"",""13"",""231272""
""focus"",""17"",""270842""
""focus"",""19"",""356314""
""focus"",""19"",""1014332""
""focus"",""19"",""1553777""
""focus"",""19"",""1597846""
""focus"",""36"",""1732702""
","""event"",""trial"",""time""
""fullscreenenter"",""1"",""958""
","
","","[{""page_index"":0,""viewing_time"":11802.5},{""page_index"":1,""viewing_time"":8854.60000000894},{""page_index"":2,""viewing_time"":4486.0999999940395},{""page_index"":3,""viewing_time"":4885.70000000298}]","30029.40000000596","","","","","","","","","","","","","","","","","","","","","","","",""
"pit-trial","81","2073974","0.0-2.0-17.0-0.0","battery-v0.2","","""event"",""trial"",""time""
""fullscreenenter"",""1"",""958""
""blur"",""13"",""134791""
""focus"",""13"",""231272""
""blur"",""17"",""269698""
""focus"",""17"",""270842""
""blur"",""17"",""273094""
""focus"",""19"",""356314""
""blur"",""19"",""367077""
""focus"",""19"",""1014332""
""blur"",""19"",""1029557""
""focus"",""19"",""1553777""
""blur"",""19"",""1594580""
""focus"",""19"",""1597846""
""blur"",""36"",""1729412""
""focus"",""36"",""1732702""
","""event"",""trial"",""time""
""blur"",""13"",""134791""
""blur"",""17"",""269698""
""blur"",""17"",""273094""
""blur"",""19"",""367077""
""blur"",""19"",""1029557""
""blur"",""19"",""1594580""
""blur"",""36"",""1729412""
","""event"",""trial"",""time""
""focus"",""13"",""231272""
""focus"",""17"",""270842""
""focus"",""19"",""356314""
""focus"",""19"",""1014332""
""focus"",""19"",""1553777""
""focus"",""19"",""1597846""
""focus"",""36"",""1732702""
","""event"",""trial"",""time""
""fullscreenenter"",""1"",""958""
","
","","","1477.6000000089407","","","19","10872","5259","&#9789;","elianto","#f73b6a7A"," "," ","1","0","[2336.2000000029802]","1","0","4","","","","","","","",""
"pit-trial","82","2077034","0.0-2.0-17.0-1.0","battery-v0.2","","""event"",""trial"",""time""
""fullscreenenter"",""1"",""958""
""blur"",""13"",""134791""
""focus"",""13"",""231272""
""blur"",""17"",""269698""
""focus"",""17"",""270842""
""blur"",""17"",""273094""
""focus"",""19"",""356314""
""blur"",""19"",""367077""
""focus"",""19"",""1014332""
""blur"",""19"",""1029557""
""focus"",""19"",""1553777""
""blur"",""19"",""1594580""
""focus"",""19"",""1597846""
""blur"",""36"",""1729412""
""focus"",""36"",""1732702""
","""event"",""trial"",""time""
""blur"",""13"",""134791""
""blur"",""17"",""269698""
""blur"",""17"",""273094""
""blur"",""19"",""367077""
""blur"",""19"",""1029557""
""blur"",""19"",""1594580""
""blur"",""36"",""1729412""
","""event"",""trial"",""time""
""focus"",""13"",""231272""
""focus"",""17"",""270842""
""focus"",""19"",""356314""
""focus"",""19"",""1014332""
""focus"",""19"",""1553777""
""focus"",""19"",""1597846""
""focus"",""36"",""1732702""
","""event"",""trial"",""time""
""fullscreenenter"",""1"",""958""
","
","","","186.40000000596046","","","19","10872","5259","&#9789;","elianto","#f73b6a7A"," "," ","1","0","[1040.5]","1","0","4","","","","","","","",""
"pit-trial","83","2079956","0.0-2.0-17.0-2.0","battery-v0.2","","""event"",""trial"",""time""
""fullscreenenter"",""1"",""958""
""blur"",""13"",""134791""
""focus"",""13"",""231272""
""blur"",""17"",""269698""
""focus"",""17"",""270842""
""blur"",""17"",""273094""
""focus"",""19"",""356314""
""blur"",""19"",""367077""
""focus"",""19"",""1014332""
""blur"",""19"",""1029557""
""focus"",""19"",""1553777""
""blur"",""19"",""1594580""
""focus"",""19"",""1597846""
""blur"",""36"",""1729412""
""focus"",""36"",""1732702""
","""event"",""trial"",""time""
""blur"",""13"",""134791""
""blur"",""17"",""269698""
""blur"",""17"",""273094""
""blur"",""19"",""367077""
""blur"",""19"",""1029557""
""blur"",""19"",""1594580""
""blur"",""36"",""1729412""
","""event"",""trial"",""time""
""focus"",""13"",""231272""
""focus"",""17"",""270842""
""focus"",""19"",""356314""
""focus"",""19"",""1014332""
""focus"",""19"",""1553777""
""focus"",""19"",""1597846""
""focus"",""36"",""1732702""
","""event"",""trial"",""time""
""fullscreenenter"",""1"",""958""
","
","","","47.3999999910593","","","19","10872","5259","&#9789;","elianto","#f73b6a7A"," "," ","1","0","[906.2999999970198]","1","0","4","","","","","","","",""
"pit-trial","84","2083652","0.0-2.0-17.0-3.0","battery-v0.2","","""event"",""trial"",""time""
""fullscreenenter"",""1"",""958""
""blur"",""13"",""134791""
""focus"",""13"",""231272""
""blur"",""17"",""269698""
""focus"",""17"",""270842""
""blur"",""17"",""273094""
""focus"",""19"",""356314""
""blur"",""19"",""367077""
""focus"",""19"",""1014332""
""blur"",""19"",""1029557""
""focus"",""19"",""1553777""
""blur"",""19"",""1594580""
""focus"",""19"",""1597846""
""blur"",""36"",""1729412""
""focus"",""36"",""1732702""
","""event"",""trial"",""time""
""blur"",""13"",""134791""
""blur"",""17"",""269698""
""blur"",""17"",""273094""
""blur"",""19"",""367077""
""blur"",""19"",""1029557""
""blur"",""19"",""1594580""
""blur"",""36"",""1729412""
","""event"",""trial"",""time""
""focus"",""13"",""231272""
""focus"",""17"",""270842""
""focus"",""19"",""356314""
""focus"",""19"",""1014332""
""focus"",""19"",""1553777""
""focus"",""19"",""1597846""
""focus"",""36"",""1732702""
","""event"",""trial"",""time""
""fullscreenenter"",""1"",""958""
","
","","","826","","","19","10872","5259","&#9789;","elianto","#f73b6a7A"," "," ","1","-10","[800.5,1680.4000000059605]","2","0","4","","","","","","","",""
"pit-trial","85","2086614","0.0-2.0-17.0-4.0","battery-v0.2","","""event"",""trial"",""time""
""fullscreenenter"",""1"",""958""
""blur"",""13"",""134791""
""focus"",""13"",""231272""
""blur"",""17"",""269698""
""focus"",""17"",""270842""
""blur"",""17"",""273094""
""focus"",""19"",""356314""
""blur"",""19"",""367077""
""focus"",""19"",""1014332""
""blur"",""19"",""1029557""
""focus"",""19"",""1553777""
""blur"",""19"",""1594580""
""focus"",""19"",""1597846""
""blur"",""36"",""1729412""
""focus"",""36"",""1732702""
","""event"",""trial"",""time""
""blur"",""13"",""134791""
""blur"",""17"",""269698""
""blur"",""17"",""273094""
""blur"",""19"",""367077""
""blur"",""19"",""1029557""
""blur"",""19"",""1594580""
""blur"",""36"",""1729412""
","""event"",""trial"",""time""
""focus"",""13"",""231272""
""focus"",""17"",""270842""
""focus"",""19"",""356314""
""focus"",""19"",""1014332""
""focus"",""19"",""1553777""
""focus"",""19"",""1597846""
""focus"",""36"",""1732702""
","""event"",""trial"",""time""
""fullscreenenter"",""1"",""958""
","
","","","87","","","19","10872","5259","&#9789;","elianto","#f73b6a7A"," "," ","1","0","[945.5]","1","0","4","","","","","","","",""
"pit-trial","86","2089764","0.0-2.0-17.1-0.1","battery-v0.2","","""event"",""trial"",""time""
""fullscreenenter"",""1"",""958""
""blur"",""13"",""134791""
""focus"",""13"",""231272""
""blur"",""17"",""269698""
""focus"",""17"",""270842""
""blur"",""17"",""273094""
""focus"",""19"",""356314""
""blur"",""19"",""367077""
""focus"",""19"",""1014332""
""blur"",""19"",""1029557""
""focus"",""19"",""1553777""
""blur"",""19"",""1594580""
""focus"",""19"",""1597846""
""blur"",""36"",""1729412""
""focus"",""36"",""1732702""
","""event"",""trial"",""time""
""blur"",""13"",""134791""
""blur"",""17"",""269698""
""blur"",""17"",""273094""
""blur"",""19"",""367077""
""blur"",""19"",""1029557""
""blur"",""19"",""1594580""
""blur"",""36"",""1729412""
","""event"",""trial"",""time""
""focus"",""13"",""231272""
""focus"",""17"",""270842""
""focus"",""19"",""356314""
""focus"",""19"",""1014332""
""focus"",""19"",""1553777""
""focus"",""19"",""1597846""
""focus"",""36"",""1732702""
","""event"",""trial"",""time""
""fullscreenenter"",""1"",""958""
","
","","","272.19999998807907","","","19","10872","5259","&#9789;","elianto","#f73b6a7A"," "," ","1","0","[1133.7999999970198]","1","0","4","","","","","","","",""
"pit-trial","87","2093415","0.0-2.0-17.1-1.1","battery-v0.2","","""event"",""trial"",""time""
""fullscreenenter"",""1"",""958""
""blur"",""13"",""134791""
""focus"",""13"",""231272""
""blur"",""17"",""269698""
""focus"",""17"",""270842""
""blur"",""17"",""273094""
""focus"",""19"",""356314""
""blur"",""19"",""367077""
""focus"",""19"",""1014332""
""blur"",""19"",""1029557""
""focus"",""19"",""1553777""
""blur"",""19"",""1594580""
""focus"",""19"",""1597846""
""blur"",""36"",""1729412""
""focus"",""36"",""1732702""
","""event"",""trial"",""time""
""blur"",""13"",""134791""
""blur"",""17"",""269698""
""blur"",""17"",""273094""
""blur"",""19"",""367077""
""blur"",""19"",""1029557""
""blur"",""19"",""1594580""
""blur"",""36"",""1729412""
","""event"",""trial"",""time""
""focus"",""13"",""231272""
""focus"",""17"",""270842""
""focus"",""19"",""356314""
""focus"",""19"",""1014332""
""focus"",""19"",""1553777""
""focus"",""19"",""1597846""
""focus"",""36"",""1732702""
","""event"",""trial"",""time""
""fullscreenenter"",""1"",""958""
","
","","","783.7999999970198","","","19","10872","5259","&#9789;","elianto","#f73b6a7A"," "," ","1","0","[1633.7999999970198]","1","0","4","","","","","","","",""
"pit-trial","88","2096647","0.0-2.0-17.1-2.1","battery-v0.2","","""event"",""trial"",""time""
""fullscreenenter"",""1"",""958""
""blur"",""13"",""134791""
""focus"",""13"",""231272""
""blur"",""17"",""269698""
""focus"",""17"",""270842""
""blur"",""17"",""273094""
""focus"",""19"",""356314""
""blur"",""19"",""367077""
""focus"",""19"",""1014332""
""blur"",""19"",""1029557""
""focus"",""19"",""1553777""
""blur"",""19"",""1594580""
""focus"",""19"",""1597846""
""blur"",""36"",""1729412""
""focus"",""36"",""1732702""
","""event"",""trial"",""time""
""blur"",""13"",""134791""
""blur"",""17"",""269698""
""blur"",""17"",""273094""
""blur"",""19"",""367077""
""blur"",""19"",""1029557""
""blur"",""19"",""1594580""
""blur"",""36"",""1729412""
","""event"",""trial"",""time""
""focus"",""13"",""231272""
""focus"",""17"",""270842""
""focus"",""19"",""356314""
""focus"",""19"",""1014332""
""focus"",""19"",""1553777""
""focus"",""19"",""1597846""
""focus"",""36"",""1732702""
","""event"",""trial"",""time""
""fullscreenenter"",""1"",""958""
","
","","","351.3999999910593","","","19","10872","5259","&#9789;","elianto","#f73b6a7A"," "," ","1","0","[1213.7999999970198]","1","0","4","","","","","","","",""
"pit-trial","89","2099560","0.0-2.0-17.1-3.1","battery-v0.2","","""event"",""trial"",""time""
""fullscreenenter"",""1"",""958""
""blur"",""13"",""134791""
""focus"",""13"",""231272""
""blur"",""17"",""269698""
""focus"",""17"",""270842""
""blur"",""17"",""273094""
""focus"",""19"",""356314""
""blur"",""19"",""367077""
""focus"",""19"",""1014332""
""blur"",""19"",""1029557""
""focus"",""19"",""1553777""
""blur"",""19"",""1594580""
""focus"",""19"",""1597846""
""blur"",""36"",""1729412""
""focus"",""36"",""1732702""
","""event"",""trial"",""time""
""blur"",""13"",""134791""
""blur"",""17"",""269698""
""blur"",""17"",""273094""
""blur"",""19"",""367077""
""blur"",""19"",""1029557""
""blur"",""19"",""1594580""
""blur"",""36"",""1729412""
","""event"",""trial"",""time""
""focus"",""13"",""231272""
""focus"",""17"",""270842""
""focus"",""19"",""356314""
""focus"",""19"",""1014332""
""focus"",""19"",""1553777""
""focus"",""19"",""1597846""
""focus"",""36"",""1732702""
","""event"",""trial"",""time""
""fullscreenenter"",""1"",""958""
","
","","","44.30000001192093","","","19","10872","5259","&#9789;","elianto","#f73b6a7A"," "," ","1","-10","[894.5999999940395,1567.2000000029802]","2","0","4","","","","","","","",""
"pit-trial","90","2102556","0.0-2.0-17.1-4.1","battery-v0.2","","""event"",""trial"",""time""
""fullscreenenter"",""1"",""958""
""blur"",""13"",""134791""
""focus"",""13"",""231272""
""blur"",""17"",""269698""
""focus"",""17"",""270842""
""blur"",""17"",""273094""
""focus"",""19"",""356314""
""blur"",""19"",""367077""
""focus"",""19"",""1014332""
""blur"",""19"",""1029557""
""focus"",""19"",""1553777""
""blur"",""19"",""1594580""
""focus"",""19"",""1597846""
""blur"",""36"",""1729412""
""focus"",""36"",""1732702""
","""event"",""trial"",""time""
""blur"",""13"",""134791""
""blur"",""17"",""269698""
""blur"",""17"",""273094""
""blur"",""19"",""367077""
""blur"",""19"",""1029557""
""blur"",""19"",""1594580""
""blur"",""36"",""1729412""
","""event"",""trial"",""time""
""focus"",""13"",""231272""
""focus"",""17"",""270842""
""focus"",""19"",""356314""
""focus"",""19"",""1014332""
""focus"",""19"",""1553777""
""focus"",""19"",""1597846""
""focus"",""36"",""1732702""
","""event"",""trial"",""time""
""fullscreenenter"",""1"",""958""
","
","","","139.40000000596046","","","19","10872","5259","&#9789;","elianto","#f73b6a7A"," "," ","1","0","[990.2000000029802]","1","0","4","","","","","","","",""
"pit-trial","91","2105707","0.0-2.0-17.2-0.2","battery-v0.2","","""event"",""trial"",""time""
""fullscreenenter"",""1"",""958""
""blur"",""13"",""134791""
""focus"",""13"",""231272""
""blur"",""17"",""269698""
""focus"",""17"",""270842""
""blur"",""17"",""273094""
""focus"",""19"",""356314""
""blur"",""19"",""367077""
""focus"",""19"",""1014332""
""blur"",""19"",""1029557""
""focus"",""19"",""1553777""
""blur"",""19"",""1594580""
""focus"",""19"",""1597846""
""blur"",""36"",""1729412""
""focus"",""36"",""1732702""
","""event"",""trial"",""time""
""blur"",""13"",""134791""
""blur"",""17"",""269698""
""blur"",""17"",""273094""
""blur"",""19"",""367077""
""blur"",""19"",""1029557""
""blur"",""19"",""1594580""
""blur"",""36"",""1729412""
","""event"",""trial"",""time""
""focus"",""13"",""231272""
""focus"",""17"",""270842""
""focus"",""19"",""356314""
""focus"",""19"",""1014332""
""focus"",""19"",""1553777""
""focus"",""19"",""1597846""
""focus"",""36"",""1732702""
","""event"",""trial"",""time""
""fullscreenenter"",""1"",""958""
","
","","","294.70000000298023","","","19","10872","5259","&#9789;","elianto","#f73b6a7A"," "," ","1","0","[1145.2000000029802,1833.2000000029802,2473.800000011921]","3","0","4","","","","","","","",""
"pit-trial","92","2109292","0.0-2.0-17.2-1.2","battery-v0.2","","""event"",""trial"",""time""
""fullscreenenter"",""1"",""958""
""blur"",""13"",""134791""
""focus"",""13"",""231272""
""blur"",""17"",""269698""
""focus"",""17"",""270842""
""blur"",""17"",""273094""
""focus"",""19"",""356314""
""blur"",""19"",""367077""
""focus"",""19"",""1014332""
""blur"",""19"",""1029557""
""focus"",""19"",""1553777""
""blur"",""19"",""1594580""
""focus"",""19"",""1597846""
""blur"",""36"",""1729412""
""focus"",""36"",""1732702""
","""event"",""trial"",""time""
""blur"",""13"",""134791""
""blur"",""17"",""269698""
""blur"",""17"",""273094""
""blur"",""19"",""367077""
""blur"",""19"",""1029557""
""blur"",""19"",""1594580""
""blur"",""36"",""1729412""
","""event"",""trial"",""time""
""focus"",""13"",""231272""
""focus"",""17"",""270842""
""focus"",""19"",""356314""
""focus"",""19"",""1014332""
""focus"",""19"",""1553777""
""focus"",""19"",""1597846""
