"trial_type","trial_index","time_elapsed","internal_node_id","task_version","subject_id","interactions","blur_events","focus_events","fullscreenenter_events","fullscreenexit_events","success","view_history","rt","responses","num_errors","age","subject","participantId","rune","rune_set","hex","correct","choice","accuracy","outcome","keys","total_keys","block","practice","value","sub","trial","stimulus","robot","valence","action","sham"
"pavlovia","0","15","0.0-0.0","battery-v0.2","","""event"",""trial"",""time""
""fullscreenenter"",""1"",""6862""
","
","
","""event"",""trial"",""time""
""fullscreenenter"",""1"",""6862""
","
","","","","","","","","","","","","","","","","","","","","","","","","","","",""
"fullscreen","1","7849","0.0-1.0","battery-v0.2","","""event"",""trial"",""time""
""fullscreenenter"",""1"",""6862""
","
","
","""event"",""trial"",""time""
""fullscreenenter"",""1"",""6862""
","
","true","","","","","","","","","","","","","","","","","","","","","","","","","",""
"pit-instructions","2","13030","0.0-2.0-0.0","battery-v0.2","","""event"",""trial"",""time""
""fullscreenenter"",""1"",""6862""
","
","
","""event"",""trial"",""time""
""fullscreenenter"",""1"",""6862""
","
","","[{""page_index"":0,""viewing_time"":5176.799999952316}]","5177.5","","","","","","","","","","","","","","","","","","","","","","","",""
"pit-comprehension","3","21030","0.0-2.0-1.0-0.0","battery-v0.2","","""event"",""trial"",""time""
""fullscreenenter"",""1"",""6862""
","
","
","""event"",""trial"",""time""
""fullscreenenter"",""1"",""6862""
","
","","","7995.700000047684","[""shark""]","0","24","16219","6274","","","","","","","","","","","","","","","","","","",""
"pit-instructions","4","26613","0.0-2.0-1.0-1.0","battery-v0.2","","""event"",""trial"",""time""
""fullscreenenter"",""1"",""6862""
","
","
","""event"",""trial"",""time""
""fullscreenenter"",""1"",""6862""
","
","","[{""page_index"":0,""viewing_time"":5571.099999904633}]","5571.599999904633","","","","","","","","","","","","","","","","","","","","","","","",""
"pit-comprehension","5","28863","0.0-2.0-2.0-0.0","battery-v0.2","","""event"",""trial"",""time""
""fullscreenenter"",""1"",""6862""
","
","
","""event"",""trial"",""time""
""fullscreenenter"",""1"",""6862""
","
","","","2245.7000000476837","[""tiger""]","0","24","16219","6274","","","","","","","","","","","","","","","","","","",""
"pit-instructions","6","31416","0.0-2.0-2.0-1.0","battery-v0.2","","""event"",""trial"",""time""
""fullscreenenter"",""1"",""6862""
","
","
","""event"",""trial"",""time""
""fullscreenenter"",""1"",""6862""
","
","","[{""page_index"":0,""viewing_time"":2548.5}]","2548.899999856949","","","","","","","","","","","","","","","","","","","","","","","",""
"pit-instructions","7","124863","0.0-2.0-3.0","battery-v0.2","","""event"",""trial"",""time""
""fullscreenenter"",""1"",""6862""
","
","
","""event"",""trial"",""time""
""fullscreenenter"",""1"",""6862""
","
","","[{""page_index"":0,""viewing_time"":7460.299999952316},{""page_index"":1,""viewing_time"":6017.799999952316},{""page_index"":2,""viewing_time"":7065.799999952316},{""page_index"":3,""viewing_time"":6433.800000190735},{""page_index"":4,""viewing_time"":5683.599999904633},{""page_index"":5,""viewing_time"":5216.5},{""page_index"":6,""viewing_time"":6438.099999904633},{""page_index"":7,""viewing_time"":6880.400000095367},{""page_index"":8,""viewing_time"":6083.700000047684},{""page_index"":9,""viewing_time"":8267.5},{""page_index"":10,""viewing_time"":8232.200000047684},{""page_index"":11,""viewing_time"":7658.5},{""page_index"":12,""viewing_time"":6424.799999952316},{""page_index"":13,""viewing_time"":5584}]","93447.59999990463","","","","","","","","","","","","","","","","","","","","","","","",""
"pit-trial","8","128389","0.0-2.0-4.0-0.0","battery-v0.2","","""event"",""trial"",""time""
""fullscreenenter"",""1"",""6862""
","
","
","""event"",""trial"",""time""
""fullscreenenter"",""1"",""6862""
","
","","","669.2000000476837","","","24","16219","6274","&#9784;","elianto","#FFFFF080"," "," ","1","&#10004","[1520.5999999046326]","1","0","0","","","","","","","",""
"pit-trial","9","131817","0.0-2.0-4.1-0.1","battery-v0.2","","""event"",""trial"",""time""
""fullscreenenter"",""1"",""6862""
","
","
","""event"",""trial"",""time""
""fullscreenenter"",""1"",""6862""
","
","","","569.8999998569489","","","24","16219","6274","&#9784;","elianto","#FFFFF080"," "," ","1","&#10004","[1421.5]","1","0","0","","","","","","","",""
"pit-trial","10","135192","0.0-2.0-4.2-0.2","battery-v0.2","","""event"",""trial"",""time""
""fullscreenenter"",""1"",""6862""
","
","
","""event"",""trial"",""time""
""fullscreenenter"",""1"",""6862""
","
","","","519","","","24","16219","6274","&#9784;","elianto","#FFFFF080"," "," ","1","&#10004","[1369.6999998092651]","1","0","0","","","","","","","",""
"pit-trial","11","138543","0.0-2.0-4.3-0.3","battery-v0.2","","""event"",""trial"",""time""
""fullscreenenter"",""1"",""6862""
","
","
","""event"",""trial"",""time""
""fullscreenenter"",""1"",""6862""
","
","","","493.89999985694885","","","24","16219","6274","&#9784;","elianto","#FFFFF080"," "," ","1","&#10004","[1345.7000000476837]","1","0","0","","","","","","","",""
"pit-trial","12","141954","0.0-2.0-4.4-0.4","battery-v0.2","","""event"",""trial"",""time""
""fullscreenenter"",""1"",""6862""
","
","
","""event"",""trial"",""time""
""fullscreenenter"",""1"",""6862""
","
","","","552.9000000953674","","","24","16219","6274","&#9784;","elianto","#FFFFF080"," "," ","1","&#10004","[1404.7999999523163]","1","0","0","","","","","","","",""
"pit-instructions","13","163179","0.0-2.0-5.0","battery-v0.2","","""event"",""trial"",""time""
""fullscreenenter"",""1"",""6862""
","
","
","""event"",""trial"",""time""
""fullscreenenter"",""1"",""6862""
","
","","[{""page_index"":0,""viewing_time"":4789.299999952316},{""page_index"":1,""viewing_time"":5927.099999904633},{""page_index"":2,""viewing_time"":5410.400000095367},{""page_index"":3,""viewing_time"":5094.599999904633}]","21221.89999985695","","","","","","","","","","","","","","","","","","","","","","","",""
"pit-trial","14","168036","0.0-2.0-6.0-0.0","battery-v0.2","","""event"",""trial"",""time""
""fullscreenenter"",""1"",""6862""
","
","
","""event"",""trial"",""time""
""fullscreenenter"",""1"",""6862""
","
","","","-1","","","24","16219","6274","&#9854;","elianto","#FFFFF080","-1","-1","1","&#10004","[]","0","0","1","","","","","","","",""
"pit-trial","15","172893","0.0-2.0-6.1-0.1","battery-v0.2","","""event"",""trial"",""time""
""fullscreenenter"",""1"",""6862""
","
","
","""event"",""trial"",""time""
""fullscreenenter"",""1"",""6862""
","
","","","-1","","","24","16219","6274","&#9854;","elianto","#FFFFF080","-1","-1","1","&#10004","[]","0","0","1","","","","","","","",""
"pit-trial","16","177750","0.0-2.0-6.2-0.2","battery-v0.2","","""event"",""trial"",""time""
""fullscreenenter"",""1"",""6862""
","
","
","""event"",""trial"",""time""
""fullscreenenter"",""1"",""6862""
","
","","","-1","","","24","16219","6274","&#9854;","elianto","#FFFFF080","-1","-1","1","&#10004","[]","0","0","1","","","","","","","",""
"pit-trial","17","182606","0.0-2.0-6.3-0.3","battery-v0.2","","""event"",""trial"",""time""
""fullscreenenter"",""1"",""6862""
","
","
","""event"",""trial"",""time""
""fullscreenenter"",""1"",""6862""
","
","","","-1","","","24","16219","6274","&#9854;","elianto","#FFFFF080","-1","-1","1","&#10004","[]","0","0","1","","","","","","","",""
"pit-trial","18","187462","0.0-2.0-6.4-0.4","battery-v0.2","","""event"",""trial"",""time""
""fullscreenenter"",""1"",""6862""
","
","
","""event"",""trial"",""time""
""fullscreenenter"",""1"",""6862""
","
","","","-1","","","24","16219","6274","&#9854;","elianto","#FFFFF080","-1","-1","1","&#10004","[]","0","0","1","","","","","","","",""
"pit-instructions","19","308664","0.0-2.0-7.0","battery-v0.2","","""event"",""trial"",""time""
""fullscreenenter"",""1"",""6862""
","
","
","""event"",""trial"",""time""
""fullscreenenter"",""1"",""6862""
","
","","[{""page_index"":0,""viewing_time"":9996},{""page_index"":1,""viewing_time"":7468.299999952316},{""page_index"":2,""viewing_time"":6664.700000047684},{""page_index"":3,""viewing_time"":6406.700000047684},{""page_index"":4,""viewing_time"":5162.699999809265},{""page_index"":5,""viewing_time"":6483.100000143051},{""page_index"":6,""viewing_time"":5434.399999856949},{""page_index"":7,""viewing_time"":7622.200000047684},{""page_index"":8,""viewing_time"":6562.200000047684},{""page_index"":9,""viewing_time"":5613.400000095367},{""page_index"":10,""viewing_time"":6686.299999952316},{""page_index"":11,""viewing_time"":4940.099999904633},{""page_index"":12,""viewing_time"":6659.799999952316},{""page_index"":13,""viewing_time"":6183.200000047684},{""page_index"":14,""viewing_time"":6767.5},{""page_index"":15,""viewing_time"":7024.100000143051},{""page_index"":16,""viewing_time"":8933},{""page_index"":17,""viewing_time"":6593.699999809265}]","121201.89999985695","","","","","","","","","","","","","","","","","","","","","","","",""
"pit-trial","20","312239","0.0-2.0-8.0-0.0","battery-v0.2","","""event"",""trial"",""time""
""fullscreenenter"",""1"",""6862""
","
","
","""event"",""trial"",""time""
""fullscreenenter"",""1"",""6862""
","
","","","720.1000001430511","","","24","16219","6274","&#9776;","elianto","#3366ff99"," "," ","1","+10","[1571.1000001430511]","1","0","1","","","","","","","",""
"pit-trial","21","315825","0.0-2.0-8.0-1.0","battery-v0.2","","""event"",""trial"",""time""
""fullscreenenter"",""1"",""6862""
","
","
","""event"",""trial"",""time""
""fullscreenenter"",""1"",""6862""
","
","","","730.7000000476837","","","24","16219","6274","&#9776;","elianto","#3366ff99"," "," ","1","+10","[1581.6999998092651]","1","0","1","","","","","","","",""
"pit-trial","22","319465","0.0-2.0-8.0-2.0","battery-v0.2","","""event"",""trial"",""time""
""fullscreenenter"",""1"",""6862""
","
","
","""event"",""trial"",""time""
""fullscreenenter"",""1"",""6862""
","
","","","783.5999999046326","","","24","16219","6274","&#9776;","elianto","#3366ff99"," "," ","1","+10","[1634.9000000953674]","1","0","1","","","","","","","",""
"pit-trial","23","322778","0.0-2.0-8.0-3.0","battery-v0.2","","""event"",""trial"",""time""
""fullscreenenter"",""1"",""6862""
","
","
","""event"",""trial"",""time""
""fullscreenenter"",""1"",""6862""
","
","","","459.59999990463257","","","24","16219","6274","&#9776;","elianto","#3366ff99"," "," ","1","0","[1309.7999999523163]","1","0","1","","","","","","","",""
"pit-trial","24","326166","0.0-2.0-8.0-4.0","battery-v0.2","","""event"",""trial"",""time""
""fullscreenenter"",""1"",""6862""
","
","
","""event"",""trial"",""time""
""fullscreenenter"",""1"",""6862""
","
","","","532.7000000476837","","","24","16219","6274","&#9776;","elianto","#3366ff99"," "," ","1","+10","[1384]","1","0","1","","","","","","","",""
"pit-trial","25","329570","0.0-2.0-8.1-0.1","battery-v0.2","","""event"",""trial"",""time""
""fullscreenenter"",""1"",""6862""
","
","
","""event"",""trial"",""time""
""fullscreenenter"",""1"",""6862""
","
","","","548.2000000476837","","","24","16219","6274","&#9776;","elianto","#3366ff99"," "," ","1","+10","[1399]","1","0","1","","","","","","","",""
"pit-trial","26","332968","0.0-2.0-8.1-1.1","battery-v0.2","","""event"",""trial"",""time""
""fullscreenenter"",""1"",""6862""
","
","
","""event"",""trial"",""time""
""fullscreenenter"",""1"",""6862""
","
","","","541.6999998092651","","","24","16219","6274","&#9776;","elianto","#3366ff99"," "," ","1","+10","[1392.9000000953674]","1","0","1","","","","","","","",""
"pit-trial","27","336085","0.0-2.0-8.1-2.1","battery-v0.2","","""event"",""trial"",""time""
""fullscreenenter"",""1"",""6862""
","
","
","""event"",""trial"",""time""
""fullscreenenter"",""1"",""6862""
","
","","","261.89999985694885","","","24","16219","6274","&#9776;","elianto","#3366ff99"," "," ","1","+10","[1112.8999998569489]","1","0","1","","","","","","","",""
"pit-trial","28","339409","0.0-2.0-8.1-3.1","battery-v0.2","","""event"",""trial"",""time""
""fullscreenenter"",""1"",""6862""
","
","
","""event"",""trial"",""time""
""fullscreenenter"",""1"",""6862""
","
","","","468.7999999523163","","","24","16219","6274","&#9776;","elianto","#3366ff99"," "," ","1","0","[1319.5999999046326]","1","0","1","","","","","","","",""
"pit-trial","29","342723","0.0-2.0-8.1-4.1","battery-v0.2","","""event"",""trial"",""time""
""fullscreenenter"",""1"",""6862""
","
","
","""event"",""trial"",""time""
""fullscreenenter"",""1"",""6862""
","
","","","457.40000009536743","","","24","16219","6274","&#9776;","elianto","#3366ff99"," "," ","1","+10","[1309.4000000953674]","1","0","1","","","","","","","",""
"pit-trial","30","345974","0.0-2.0-8.2-0.2","battery-v0.2","","""event"",""trial"",""time""
""fullscreenenter"",""1"",""6862""
","
","
","""event"",""trial"",""time""
""fullscreenenter"",""1"",""6862""
","
","","","394.60000014305115","","","24","16219","6274","&#9776;","elianto","#3366ff99"," "," ","1","+10","[1246]","1","0","1","","","","","","","",""
"pit-trial","31","349580","0.0-2.0-8.2-1.2","battery-v0.2","","""event"",""trial"",""time""
""fullscreenenter"",""1"",""6862""
","
","
","""event"",""trial"",""time""
""fullscreenenter"",""1"",""6862""
","
","","","750","","","24","16219","6274","&#9776;","elianto","#3366ff99"," "," ","1","+10","[1601.2000000476837]","1","0","1","","","","","","","",""
"pit-trial","32","353011","0.0-2.0-8.2-2.2","battery-v0.2","","""event"",""trial"",""time""
""fullscreenenter"",""1"",""6862""
","
","
","""event"",""trial"",""time""
""fullscreenenter"",""1"",""6862""
","
","","","576.2999999523163","","","24","16219","6274","&#9776;","elianto","#3366ff99"," "," ","1","+10","[1427.2000000476837]","1","0","1","","","","","","","",""
"pit-trial","33","356553","0.0-2.0-8.2-3.2","battery-v0.2","","""event"",""trial"",""time""
""fullscreenenter"",""1"",""6862""
","
","
","""event"",""trial"",""time""
""fullscreenenter"",""1"",""6862""
","
","","","687.5","","","24","16219","6274","&#9776;","elianto","#3366ff99"," "," ","1","0","[1537.7000000476837]","1","0","1","","","","","","","",""
"pit-trial","34","359970","0.0-2.0-8.2-4.2","battery-v0.2","","""event"",""trial"",""time""
""fullscreenenter"",""1"",""6862""
","
","
","""event"",""trial"",""time""
""fullscreenenter"",""1"",""6862""
","
","","","561","","","24","16219","6274","&#9776;","elianto","#3366ff99"," "," ","1","+10","[1412.0999999046326]","1","0","1","","","","","","","",""
"call-function","35","359973","0.0-2.0-9.0","battery-v0.2","","""event"",""trial"",""time""
""fullscreenenter"",""1"",""6862""
","
","
","""event"",""trial"",""time""
""fullscreenenter"",""1"",""6862""
","
","","","","","","","","","","","","","","","","","","","","","","","","","","",""
"pit-instructions","36","399330","0.0-2.0-10.0","battery-v0.2","","""event"",""trial"",""time""
""fullscreenenter"",""1"",""6862""
","
","
","""event"",""trial"",""time""
""fullscreenenter"",""1"",""6862""
","
","","[{""page_index"":0,""viewing_time"":7603.799999952316},{""page_index"":1,""viewing_time"":7293.200000047684},{""page_index"":2,""viewing_time"":9146.100000143051},{""page_index"":3,""viewing_time"":8282},{""page_index"":4,""viewing_time"":7031.899999856949}]","39357.40000009537","","","","","","","","","","","","","","","","","","","","","","","",""
"pit-trial","37","404185","0.0-2.0-11.0-0.0","battery-v0.2","","""event"",""trial"",""time""
""fullscreenenter"",""1"",""6862""
","
","
","""event"",""trial"",""time""
""fullscreenenter"",""1"",""6862""
","
","","","-1","","","24","16219","6274","&#9761;","elianto","#3366ff99","-1","-1","1","+10","[]","0","0","2","","","","","","","",""
"pit-trial","38","409041","0.0-2.0-11.0-1.0","battery-v0.2","","""event"",""trial"",""time""
""fullscreenenter"",""1"",""6862""
","
","
","""event"",""trial"",""time""
""fullscreenenter"",""1"",""6862""
","
","","","-1","","","24","16219","6274","&#9761;","elianto","#3366ff99","-1","-1","1","+10","[]","0","0","2","","","","","","","",""
"pit-trial","39","413898","0.0-2.0-11.0-2.0","battery-v0.2","","""event"",""trial"",""time""
""fullscreenenter"",""1"",""6862""
","
","
","""event"",""trial"",""time""
""fullscreenenter"",""1"",""6862""
","
","","","-1","","","24","16219","6274","&#9761;","elianto","#3366ff99","-1","-1","1","+10","[]","0","0","2","","","","","","","",""
"pit-trial","40","418754","0.0-2.0-11.0-3.0","battery-v0.2","","""event"",""trial"",""time""
""fullscreenenter"",""1"",""6862""
","
","
","""event"",""trial"",""time""
""fullscreenenter"",""1"",""6862""
","
","","","-1","","","24","16219","6274","&#9761;","elianto","#3366ff99","-1","-1","1","0","[]","0","0","2","","","","","","","",""
"pit-trial","41","423610","0.0-2.0-11.0-4.0","battery-v0.2","","""event"",""trial"",""time""
""fullscreenenter"",""1"",""6862""
","
","
","""event"",""trial"",""time""
""fullscreenenter"",""1"",""6862""
","
","","","-1","","","24","16219","6274","&#9761;","elianto","#3366ff99","-1","-1","1","+10","[]","0","0","2","","","","","","","",""
"pit-trial","42","428467","0.0-2.0-11.1-0.1","battery-v0.2","","""event"",""trial"",""time""
""fullscreenenter"",""1"",""6862""
","
","
","""event"",""trial"",""time""
""fullscreenenter"",""1"",""6862""
","
","","","-1","","","24","16219","6274","&#9761;","elianto","#3366ff99","-1","-1","1","+10","[]","0","0","2","","","","","","","",""
"pit-trial","43","433323","0.0-2.0-11.1-1.1","battery-v0.2","","""event"",""trial"",""time""
""fullscreenenter"",""1"",""6862""
","
","
","""event"",""trial"",""time""
""fullscreenenter"",""1"",""6862""
","
","","","-1","","","24","16219","6274","&#9761;","elianto","#3366ff99","-1","-1","1","+10","[]","0","0","2","","","","","","","",""
"pit-trial","44","438179","0.0-2.0-11.1-2.1","battery-v0.2","","""event"",""trial"",""time""
""fullscreenenter"",""1"",""6862""
","
","
","""event"",""trial"",""time""
""fullscreenenter"",""1"",""6862""
","
","","","-1","","","24","16219","6274","&#9761;","elianto","#3366ff99","-1","-1","1","+10","[]","0","0","2","","","","","","","",""
"pit-trial","45","443035","0.0-2.0-11.1-3.1","battery-v0.2","","""event"",""trial"",""time""
""fullscreenenter"",""1"",""6862""
","
","
","""event"",""trial"",""time""
""fullscreenenter"",""1"",""6862""
","
","","","-1","","","24","16219","6274","&#9761;","elianto","#3366ff99","-1","-1","1","0","[]","0","0","2","","","","","","","",""
"pit-trial","46","447892","0.0-2.0-11.1-4.1","battery-v0.2","","""event"",""trial"",""time""
""fullscreenenter"",""1"",""6862""
","
","
","""event"",""trial"",""time""
""fullscreenenter"",""1"",""6862""
","
","","","-1","","","24","16219","6274","&#9761;","elianto","#3366ff99","-1","-1","1","+10","[]","0","0","2","","","","","","","",""
"pit-trial","47","452748","0.0-2.0-11.2-0.2","battery-v0.2","","""event"",""trial"",""time""
""fullscreenenter"",""1"",""6862""
","
","
","""event"",""trial"",""time""
""fullscreenenter"",""1"",""6862""
","
","","","-1","","","24","16219","6274","&#9761;","elianto","#3366ff99","-1","-1","1","+10","[]","0","0","2","","","","","","","",""
"pit-trial","48","457605","0.0-2.0-11.2-1.2","battery-v0.2","","""event"",""trial"",""time""
""fullscreenenter"",""1"",""6862""
","
","
","""event"",""trial"",""time""
""fullscreenenter"",""1"",""6862""
","
","","","-1","","","24","16219","6274","&#9761;","elianto","#3366ff99","-1","-1","1","+10","[]","0","0","2","","","","","","","",""
"pit-trial","49","462461","0.0-2.0-11.2-2.2","battery-v0.2","","""event"",""trial"",""time""
""fullscreenenter"",""1"",""6862""
","
","
","""event"",""trial"",""time""
""fullscreenenter"",""1"",""6862""
","
","","","-1","","","24","16219","6274","&#9761;","elianto","#3366ff99","-1","-1","1","+10","[]","0","0","2","","","","","","","",""
"pit-trial","50","467318","0.0-2.0-11.2-3.2","battery-v0.2","","""event"",""trial"",""time""
""fullscreenenter"",""1"",""6862""
","
","
","""event"",""trial"",""time""
""fullscreenenter"",""1"",""6862""
","
","","","-1","","","24","16219","6274","&#9761;","elianto","#3366ff99","-1","-1","1","0","[]","0","0","2","","","","","","","",""
"pit-trial","51","472174","0.0-2.0-11.2-4.2","battery-v0.2","","""event"",""trial"",""time""
""fullscreenenter"",""1"",""6862""
","
","
","""event"",""trial"",""time""
""fullscreenenter"",""1"",""6862""
","
","","","-1","","","24","16219","6274","&#9761;","elianto","#3366ff99","-1","-1","1","+10","[]","0","0","2","","","","","","","",""
"pit-trial","52","477030","0.0-2.0-11.3-0.3","battery-v0.2","","""event"",""trial"",""time""
""fullscreenenter"",""1"",""6862""
","
","
","""event"",""trial"",""time""
""fullscreenenter"",""1"",""6862""
","
","","","-1","","","24","16219","6274","&#9761;","elianto","#3366ff99","-1","-1","1","+10","[]","0","0","2","","","","","","","",""
"pit-trial","53","481887","0.0-2.0-11.3-1.3","battery-v0.2","","""event"",""trial"",""time""
""fullscreenenter"",""1"",""6862""
","
","
","""event"",""trial"",""time""
""fullscreenenter"",""1"",""6862""
","
","","","-1","","","24","16219","6274","&#9761;","elianto","#3366ff99","-1","-1","1","+10","[]","0","0","2","","","","","","","",""
"pit-trial","54","486742","0.0-2.0-11.3-2.3","battery-v0.2","","""event"",""trial"",""time""
""fullscreenenter"",""1"",""6862""
","
","
","""event"",""trial"",""time""
""fullscreenenter"",""1"",""6862""
","
","","","-1","","","24","16219","6274","&#9761;","elianto","#3366ff99","-1","-1","1","+10","[]","0","0","2","","","","","","","",""
"pit-trial","55","491597","0.0-2.0-11.3-3.3","battery-v0.2","","""event"",""trial"",""time""
""fullscreenenter"",""1"",""6862""
","
","
","""event"",""trial"",""time""
""fullscreenenter"",""1"",""6862""
","
","","","-1","","","24","16219","6274","&#9761;","elianto","#3366ff99","-1","-1","1","0","[]","0","0","2","","","","","","","",""
"pit-trial","56","496452","0.0-2.0-11.3-4.3","battery-v0.2","","""event"",""trial"",""time""
""fullscreenenter"",""1"",""6862""
","
","
","""event"",""trial"",""time""
""fullscreenenter"",""1"",""6862""
","
","","","-1","","","24","16219","6274","&#9761;","elianto","#3366ff99","-1","-1","1","+10","[]","0","0","2","","","","","","","",""
"call-function","57","496455","0.0-2.0-12.0","battery-v0.2","","""event"",""trial"",""time""
""fullscreenenter"",""1"",""6862""
","
","
","""event"",""trial"",""time""
""fullscreenenter"",""1"",""6862""
","
","","","","","","","","","","","","","","","","","","","","","","","","","","",""
"pit-instructions","58","531901","0.0-2.0-13.0","battery-v0.2","","""event"",""trial"",""time""
""fullscreenenter"",""1"",""6862""
","
","
","""event"",""trial"",""time""
""fullscreenenter"",""1"",""6862""
","
","","[{""page_index"":0,""viewing_time"":8024.5},{""page_index"":1,""viewing_time"":6966.400000095367},{""page_index"":2,""viewing_time"":4198.5},{""page_index"":3,""viewing_time"":11035.099999904633},{""page_index"":4,""viewing_time"":5221.200000047684}]","35446.09999990463","","","","","","","","","","","","","","","","","","","","","","","",""
"pit-trial","59","535407","0.0-2.0-14.0-0.0","battery-v0.2","","""event"",""trial"",""time""
""fullscreenenter"",""1"",""6862""
","
","
","""event"",""trial"",""time""
""fullscreenenter"",""1"",""6862""
","
","","","651.5","","","24","16219","6274","&#9826;","elianto","#f73b6a7A","-1"," ","0","-10","[1502.2000000476837]","1","0","3","","","","","","","",""
"pit-trial","60","538711","0.0-2.0-14.0-1.0","battery-v0.2","","""event"",""trial"",""time""
""fullscreenenter"",""1"",""6862""
","
","
","""event"",""trial"",""time""
""fullscreenenter"",""1"",""6862""
","
","","","449.09999990463257","","","24","16219","6274","&#9826;","elianto","#f73b6a7A","-1"," ","0","-10","[1300.5]","1","0","3","","","","","","","",""
"pit-trial","61","543567","0.0-2.0-14.0-2.0","battery-v0.2","","""event"",""trial"",""time""
""fullscreenenter"",""1"",""6862""
","
","
","""event"",""trial"",""time""
""fullscreenenter"",""1"",""6862""
","
","","","-1","","","24","16219","6274","&#9826;","elianto","#f73b6a7A","-1","-1","1","0","[]","0","0","3","","","","","","","",""
"pit-trial","62","548423","0.0-2.0-14.0-3.0","battery-v0.2","","""event"",""trial"",""time""
""fullscreenenter"",""1"",""6862""
","
","
","""event"",""trial"",""time""
""fullscreenenter"",""1"",""6862""
","
","","","-1","","","24","16219","6274","&#9826;","elianto","#f73b6a7A","-1","-1","1","-10","[]","0","0","3","","","","","","","",""
"pit-trial","63","553279","0.0-2.0-14.0-4.0","battery-v0.2","","""event"",""trial"",""time""
""fullscreenenter"",""1"",""6862""
","
","
","""event"",""trial"",""time""
""fullscreenenter"",""1"",""6862""
","
","","","-1","","","24","16219","6274","&#9826;","elianto","#f73b6a7A","-1","-1","1","0","[]","0","0","3","","","","","","","",""
"pit-trial","64","558136","0.0-2.0-14.1-0.1","battery-v0.2","","""event"",""trial"",""time""
""fullscreenenter"",""1"",""6862""
","
","
","""event"",""trial"",""time""
""fullscreenenter"",""1"",""6862""
","
","","","-1","","","24","16219","6274","&#9826;","elianto","#f73b6a7A","-1","-1","1","0","[]","0","0","3","","","","","","","",""
"pit-trial","65","562992","0.0-2.0-14.1-1.1","battery-v0.2","","""event"",""trial"",""time""
""fullscreenenter"",""1"",""6862""
","
","
","""event"",""trial"",""time""
""fullscreenenter"",""1"",""6862""
","
","","","-1","","","24","16219","6274","&#9826;","elianto","#f73b6a7A","-1","-1","1","0","[]","0","0","3","","","","","","","",""
"pit-trial","66","567847","0.0-2.0-14.1-2.1","battery-v0.2","","""event"",""trial"",""time""
""fullscreenenter"",""1"",""6862""
","
","
","""event"",""trial"",""time""
""fullscreenenter"",""1"",""6862""
","
","","","-1","","","24","16219","6274","&#9826;","elianto","#f73b6a7A","-1","-1","1","0","[]","0","0","3","","","","","","","",""
"pit-trial","67","572703","0.0-2.0-14.1-3.1","battery-v0.2","","""event"",""trial"",""time""
""fullscreenenter"",""1"",""6862""
","
","
","""event"",""trial"",""time""
""fullscreenenter"",""1"",""6862""
","
","","","-1","","","24","16219","6274","&#9826;","elianto","#f73b6a7A","-1","-1","1","-10","[]","0","0","3","","","","","","","",""
"pit-trial","68","577558","0.0-2.0-14.1-4.1","battery-v0.2","","""event"",""trial"",""time""
""fullscreenenter"",""1"",""6862""
","
","
","""event"",""trial"",""time""
""fullscreenenter"",""1"",""6862""
","
","","","-1","","","24","16219","6274","&#9826;","elianto","#f73b6a7A","-1","-1","1","0","[]","0","0","3","","","","","","","",""
"pit-trial","69","582415","0.0-2.0-14.2-0.2","battery-v0.2","","""event"",""trial"",""time""
""fullscreenenter"",""1"",""6862""
","
","
","""event"",""trial"",""time""
""fullscreenenter"",""1"",""6862""
","
","","","-1","","","24","16219","6274","&#9826;","elianto","#f73b6a7A","-1","-1","1","0","[]","0","0","3","","","","","","","",""
"pit-trial","70","587271","0.0-2.0-14.2-1.2","battery-v0.2","","""event"",""trial"",""time""
""fullscreenenter"",""1"",""6862""
","
","
","""event"",""trial"",""time""
""fullscreenenter"",""1"",""6862""
","
","","","-1","","","24","16219","6274","&#9826;","elianto","#f73b6a7A","-1","-1","1","0","[]","0","0","3","","","","","","","",""
"pit-trial","71","592127","0.0-2.0-14.2-2.2","battery-v0.2","","""event"",""trial"",""time""
""fullscreenenter"",""1"",""6862""
","
","
","""event"",""trial"",""time""
""fullscreenenter"",""1"",""6862""
","
","","","-1","","","24","16219","6274","&#9826;","elianto","#f73b6a7A","-1","-1","1","0","[]","0","0","3","","","","","","","",""
"pit-trial","72","596982","0.0-2.0-14.2-3.2","battery-v0.2","","""event"",""trial"",""time""
""fullscreenenter"",""1"",""6862""
","
","
","""event"",""trial"",""time""
""fullscreenenter"",""1"",""6862""
","
","","","-1","","","24","16219","6274","&#9826;","elianto","#f73b6a7A","-1","-1","1","-10","[]","0","0","3","","","","","","","",""
"pit-trial","73","601837","0.0-2.0-14.2-4.2","battery-v0.2","","""event"",""trial"",""time""
""fullscreenenter"",""1"",""6862""
","
","
","""event"",""trial"",""time""
""fullscreenenter"",""1"",""6862""
","
","","","-1","","","24","16219","6274","&#9826;","elianto","#f73b6a7A","-1","-1","1","0","[]","0","0","3","","","","","","","",""
"pit-trial","74","606692","0.0-2.0-14.3-0.3","battery-v0.2","","""event"",""trial"",""time""
""fullscreenenter"",""1"",""6862""
","
","
","""event"",""trial"",""time""
""fullscreenenter"",""1"",""6862""
","
","","","-1","","","24","16219","6274","&#9826;","elianto","#f73b6a7A","-1","-1","1","0","[]","0","0","3","","","","","","","",""
"pit-trial","75","611548","0.0-2.0-14.3-1.3","battery-v0.2","","""event"",""trial"",""time""
""fullscreenenter"",""1"",""6862""
","
","
","""event"",""trial"",""time""
""fullscreenenter"",""1"",""6862""
","
","","","-1","","","24","16219","6274","&#9826;","elianto","#f73b6a7A","-1","-1","1","0","[]","0","0","3","","","","","","","",""
"pit-trial","76","616404","0.0-2.0-14.3-2.3","battery-v0.2","","""event"",""trial"",""time""
""fullscreenenter"",""1"",""6862""
","
","
","""event"",""trial"",""time""
""fullscreenenter"",""1"",""6862""
","
","","","-1","","","24","16219","6274","&#9826;","elianto","#f73b6a7A","-1","-1","1","0","[]","0","0","3","","","","","","","",""
"pit-trial","77","621260","0.0-2.0-14.3-3.3","battery-v0.2","","""event"",""trial"",""time""
""fullscreenenter"",""1"",""6862""
","
","
","""event"",""trial"",""time""
""fullscreenenter"",""1"",""6862""
","
","","","-1","","","24","16219","6274","&#9826;","elianto","#f73b6a7A","-1","-1","1","-10","[]","0","0","3","","","","","","","",""
"pit-trial","78","626117","0.0-2.0-14.3-4.3","battery-v0.2","","""event"",""trial"",""time""
""fullscreenenter"",""1"",""6862""
","
","
","""event"",""trial"",""time""
""fullscreenenter"",""1"",""6862""
","
","","","-1","","","24","16219","6274","&#9826;","elianto","#f73b6a7A","-1","-1","1","0","[]","0","0","3","","","","","","","",""
"call-function","79","626119","0.0-2.0-15.0","battery-v0.2","","""event"",""trial"",""time""
""fullscreenenter"",""1"",""6862""
","
","
","""event"",""trial"",""time""
""fullscreenenter"",""1"",""6862""
","
","","","","","","","","","","","","","","","","","","","","","","","","","","",""
"pit-instructions","80","664962","0.0-2.0-16.0","battery-v0.2","","""event"",""trial"",""time""
""fullscreenenter"",""1"",""6862""
","
","
","""event"",""trial"",""time""
""fullscreenenter"",""1"",""6862""
","
","","[{""page_index"":0,""viewing_time"":9607.700000047684},{""page_index"":1,""viewing_time"":11417.099999904633},{""page_index"":2,""viewing_time"":12833.700000047684},{""page_index"":3,""viewing_time"":4983.799999952316}]","38842.799999952316","","","","","","","","","","","","","","","","","","","","","","","",""
"pit-trial","81","668347","0.0-2.0-17.0-0.0","battery-v0.2","","""event"",""trial"",""time""
""fullscreenenter"",""1"",""6862""
","
","
","""event"",""trial"",""time""
""fullscreenenter"",""1"",""6862""
","
","","","530.4000000953674","","","24","16219","6274","&#9789;","elianto","#f73b6a7A"," "," ","1","0","[1380.7000000476837]","1","0","4","","","","","","","",""
"pit-trial","82","671825","0.0-2.0-17.0-1.0","battery-v0.2","","""event"",""trial"",""time""
""fullscreenenter"",""1"",""6862""
","
","
","""event"",""trial"",""time""
""fullscreenenter"",""1"",""6862""
","
","","","623.7999999523163","","","24","16219","6274","&#9789;","elianto","#f73b6a7A"," "," ","1","0","[1474.6000001430511]","1","0","4","","","","","","","",""
"pit-trial","83","675155","0.0-2.0-17.0-2.0","battery-v0.2","","""event"",""trial"",""time""
""fullscreenenter"",""1"",""6862""
","
","
","""event"",""trial"",""time""
""fullscreenenter"",""1"",""6862""
","
","","","474.2999999523163","","","24","16219","6274","&#9789;","elianto","#f73b6a7A"," "," ","1","0","[1325.7000000476837]","1","0","4","","","","","","","",""
"pit-trial","84","678385","0.0-2.0-17.0-3.0","battery-v0.2","","""event"",""trial"",""time""
""fullscreenenter"",""1"",""6862""
","
","
","""event"",""trial"",""time""
""fullscreenenter"",""1"",""6862""
","
","","","374.40000009536743","","","24","16219","6274","&#9789;","elianto","#f73b6a7A"," "," ","1","-10","[1225.6000001430511]","1","0","4","","","","","","","",""
"pit-trial","85","681623","0.0-2.0-17.0-4.0","battery-v0.2","","""event"",""trial"",""time""
""fullscreenenter"",""1"",""6862""
","
","
","""event"",""trial"",""time""
""fullscreenenter"",""1"",""6862""
","
","","","383","","","24","16219","6274","&#9789;","elianto","#f73b6a7A"," "," ","1","0","[1234.1000001430511]","1","0","4","","","","","","","",""
"pit-trial","86","684777","0.0-2.0-17.1-0.1","battery-v0.2","","""event"",""trial"",""time""
""fullscreenenter"",""1"",""6862""
","
","
","""event"",""trial"",""time""
""fullscreenenter"",""1"",""6862""
","
","","","296.7999999523163","","","24","16219","6274","&#9789;","elianto","#f73b6a7A"," "," ","1","0","[1148.5999999046326]","1","0","4","","","","","","","",""
"pit-trial","87","687897","0.0-2.0-17.1-1.1","battery-v0.2","","""event"",""trial"",""time""
""fullscreenenter"",""1"",""6862""
","
","
","""event"",""trial"",""time""
""fullscreenenter"",""1"",""6862""
","
","","","263.7000000476837","","","24","16219","6274","&#9789;","elianto","#f73b6a7A"," "," ","1","0","[1114.9000000953674]","1","0","4","","","","","","","",""
"pit-trial","88","691060","0.0-2.0-17.1-2.1","battery-v0.2","","""event"",""trial"",""time""
""fullscreenenter"",""1"",""6862""
","
","
","""event"",""trial"",""time""
""fullscreenenter"",""1"",""6862""
","
","","","307.89999985694885","","","24","16219","6274","&#9789;","elianto","#f73b6a7A"," "," ","1","0","[367.2999999523163,1158.0999999046326]","2","0","4","","","","","","","",""
"pit-trial","89","694462","0.0-2.0-17.1-3.1","battery-v0.2","","""event"",""trial"",""time""
""fullscreenenter"",""1"",""6862""
","
","
","""event"",""trial"",""time""
""fullscreenenter"",""1"",""6862""
","
","","","546.2999999523163","","","24","16219","6274","&#9789;","elianto","#f73b6a7A"," "," ","1","-10","[1397.5]","1","0","4","","","","","","","",""
"pit-trial","90","697578","0.0-2.0-17.1-4.1","battery-v0.2","","""event"",""trial"",""time""
""fullscreenenter"",""1"",""6862""
","
","
","""event"",""trial"",""time""
""fullscreenenter"",""1"",""6862""
","
","","","260.90000009536743","","","24","16219","6274","&#9789;","elianto","#f73b6a7A"," "," ","1","0","[1112.4000000953674]","1","0","4","","","","","","","",""
"pit-trial","91","701155","0.0-2.0-17.2-0.2","battery-v0.2","","""event"",""trial"",""time""
""fullscreenenter"",""1"",""6862""
","
","
","""event"",""trial"",""time""
""fullscreenenter"",""1"",""6862""
","
","","","720.7000000476837","","","24","16219","6274","&#9789;","elianto","#f73b6a7A"," "," ","1","0","[1572.3999998569489]","1","0","4","","","","","","","",""
"pit-trial","92","704473","0.0-2.0-17.2-1.2","battery-v0.2","","""event"",""trial"",""time""
""fullscreenenter"",""1"",""6862""
","
","
","""event"",""trial"",""time""
""fullscreenenter"",""1"",""6862""
","
","","","461.90000009536743","","","24","16219","6274","&#9789;","elianto","#f73b6a7A"," "," ","1","0","[1313.6000001430511]","1","0","4","","","","","","","",""
"pit-trial","93","707500","0.0-2.0-17.2-2.2","battery-v0.2","","""event"",""trial"",""time""
""fullscreenenter"",""1"",""6862""
","
","
","""event"",""trial"",""time""
""fullscreenenter"",""1"",""6862""
","
","","","172","","","24","16219","6274","&#9789;","elianto","#f73b6a7A"," "," ","1","0","[1023.5]","1","0","4","","","","","","","",""
"pit-trial","94","710803","0.0-2.0-17.2-3.2","battery-v0.2","","""event"",""trial"",""time""
""fullscreenenter"",""1"",""6862""
","
","
","""event"",""trial"",""time""
""fullscreenenter"",""1"",""6862""
","
","","","447.90000009536743","","","24","16219","6274","&#9789;","elianto","#f73b6a7A"," "," ","1","-10","[1298.5999999046326]","1","0","4","","","","","","","",""
"pit-trial","95","714058","0.0-2.0-17.2-4.2","battery-v0.2","","""event"",""trial"",""time""
""fullscreenenter"",""1"",""6862""
","
","
","""event"",""trial"",""time""
""fullscreenenter"",""1"",""6862""
","
","","","398.7999999523163","","","24","16219","6274","&#9789;","elianto","#f73b6a7A"," "," ","1","0","[1250.1000001430511]","1","0","4","","","","","","","",""
"pit-trial","96","717221","0.0-2.0-17.3-0.3","battery-v0.2","","""event"",""trial"",""time""
""fullscreenenter"",""1"",""6862""
","
","
","""event"",""trial"",""time""
""fullscreenenter"",""1"",""6862""
","
","","","306.7000000476837","","","24","16219","6274","&#9789;","elianto","#f73b6a7A"," "," ","1","0","[1157.9000000953674]","1","0","4","","","","","","","",""
"pit-trial","97","720548","0.0-2.0-17.3-1.3","battery-v0.2","","""event"",""trial"",""time""
""fullscreenenter"",""1"",""6862""
","
","
","""event"",""trial"",""time""
""fullscreenenter"",""1"",""6862""
","
","","","471","","","24","16219","6274","&#9789;","elianto","#f73b6a7A"," "," ","1","0","[1322.5999999046326]","1","0","4","","","","","","","",""
"pit-trial","98","723890","0.0-2.0-17.3-2.3","battery-v0.2","","""event"",""trial"",""time""
""fullscreenenter"",""1"",""6862""
","
","
","""event"",""trial"",""time""
""fullscreenenter"",""1"",""6862""
","
","","","486.2000000476837","","","24","16219","6274","&#9789;","elianto","#f73b6a7A"," "," ","1","0","[1337.1000001430511]","1","0","4","","","","","","","",""
"pit-trial","99","727150","0.0-2.0-17.3-3.3","battery-v0.2","","""event"",""trial"",""time""
""fullscreenenter"",""1"",""6862""
","
","
","""event"",""trial"",""time""
""fullscreenenter"",""1"",""6862""
","
","","","403.7000000476837","","","24","16219","6274","&#9789;","elianto","#f73b6a7A"," "," ","1","-10","[1255.5]","1","0","4","","","","","","","",""
"pit-trial","100","730419","0.0-2.0-17.3-4.3","battery-v0.2","","""event"",""trial"",""time""
""fullscreenenter"",""1"",""6862""
","
","
","""event"",""trial"",""time""
""fullscreenenter"",""1"",""6862""
","
","","","414","","","24","16219","6274","&#9789;","elianto","#f73b6a7A"," "," ","1","0","[1264.8000001907349]","1","0","4","","","","","","","",""
"call-function","101","730422","0.0-2.0-18.0","battery-v0.2","","""event"",""trial"",""time""
""fullscreenenter"",""1"",""6862""
","
","
","""event"",""trial"",""time""
""fullscreenenter"",""1"",""6862""
","
","","","","","","","","","","","","","","","","","","","","","","","","","","",""
"pit-instructions","102","801702","0.0-2.0-19.0","battery-v0.2","","""event"",""trial"",""time""
""fullscreenenter"",""1"",""6862""
","
","
","""event"",""trial"",""time""
""fullscreenenter"",""1"",""6862""
","
","","[{""page_index"":0,""viewing_time"":6788.5},{""page_index"":1,""viewing_time"":6867},{""page_index"":2,""viewing_time"":13720.299999952316},{""page_index"":3,""viewing_time"":8016.600000143051},{""page_index"":4,""viewing_time"":9613.5},{""page_index"":5,""viewing_time"":8301},{""page_index"":6,""viewing_time"":8318.199999809265},{""page_index"":7,""viewing_time"":6333.800000190735},{""page_index"":8,""viewing_time"":3322.399999856949}]","71281.90000009537","","","","","","","","","","","","","","","","","","","","","","","",""
"pit-comprehension","103","806063","0.0-2.0-20.0-0.0","battery-v0.2","","""event"",""trial"",""time""
""fullscreenenter"",""1"",""6862""
","
","
","""event"",""trial"",""time""
""fullscreenenter"",""1"",""6862""
","
","","","4355.700000047684","[""SPACE""]","0","24","16219","6274","","","","","","","","","","","","","","","","","","",""
"pit-instructions","104","812128","0.0-2.0-20.0-1.0","battery-v0.2","","""event"",""trial"",""time""
""fullscreenenter"",""1"",""6862""
","
","
","""event"",""trial"",""time""
""fullscreenenter"",""1"",""6862""
","
","","[{""page_index"":0,""viewing_time"":6041.099999904633}]","6041.700000047684","","","","","","","","","","","","","","","","","","","","","","","",""
"pit-comprehension","105","816729","0.0-2.0-21.0-0.0","battery-v0.2","","""event"",""trial"",""time""
""fullscreenenter"",""1"",""6862""
","
","
","""event"",""trial"",""time""
""fullscreenenter"",""1"",""6862""
","
","","","4596.600000143051","[""10""]","0","24","16219","6274","","","","","","","","","","","","","","","","","","",""
"pit-instructions","106","824111","0.0-2.0-21.0-1.0","battery-v0.2","","""event"",""trial"",""time""
""fullscreenenter"",""1"",""6862""
","
","
","""event"",""trial"",""time""
""fullscreenenter"",""1"",""6862""
","
","","[{""page_index"":0,""viewing_time"":7358.900000095367}]","7359.299999952316","","","","","","","","","","","","","","","","","","","","","","","",""
"pit-comprehension","107","830531","0.0-2.0-22.0-0.0","battery-v0.2","","""event"",""trial"",""time""
""fullscreenenter"",""1"",""6862""
","
","
","""event"",""trial"",""time""
""fullscreenenter"",""1"",""6862""
","
","","","6415.399999856949","[""0""]","0","24","16219","6274","","","","","","","","","","","","","","","","","","",""
"pit-instructions","108","838461","0.0-2.0-22.0-1.0","battery-v0.2","","""event"",""trial"",""time""
""fullscreenenter"",""1"",""6862""
","
","
","""event"",""trial"",""time""
""fullscreenenter"",""1"",""6862""
","
","","[{""page_index"":0,""viewing_time"":7906.699999809265}]","7907.099999904633","","","","","","","","","","","","","","","","","","","","","","","",""
"pit-comprehension","109","850379","0.0-2.0-23.0-0.0","battery-v0.2","","""event"",""trial"",""time""
""fullscreenenter"",""1"",""6862""
","
","
","""event"",""trial"",""time""
""fullscreenenter"",""1"",""6862""
","
","","","11914","[""True""]","0","24","16219","6274","","","","","","","","","","","","","","","","","","",""
"pit-instructions","110","854011","0.0-2.0-23.0-1.0","battery-v0.2","","""event"",""trial"",""time""
""fullscreenenter"",""1"",""6862""
","
","
","""event"",""trial"",""time""
""fullscreenenter"",""1"",""6862""
","
","","[{""page_index"":0,""viewing_time"":3607.5}]","3608.100000143051","","","","","","","","","","","","","","","","","","","","","","","",""
"pit-comprehension","111","863479","0.0-2.0-24.0-0.0","battery-v0.2","","""event"",""trial"",""time""
""fullscreenenter"",""1"",""6862""
","
","
","""event"",""trial"",""time""
""fullscreenenter"",""1"",""6862""
","
","","","9463.899999856949","[""True""]","0","24","16219","6274","","","","","","","","","","","","","","","","","","",""
"pit-instructions","112","892277","0.0-2.0-24.0-1.0","battery-v0.2","","""event"",""trial"",""time""
""fullscreenenter"",""1"",""6862""
","
","
","""event"",""trial"",""time""
""fullscreenenter"",""1"",""6862""
","
","","[{""page_index"":0,""viewing_time"":28774}]","28774.5","","","","","","","","","","","","","","","","","","","","","","","",""
"pit-comprehension","113","900162","0.0-2.0-25.0-0.0","battery-v0.2","","""event"",""trial"",""time""
""fullscreenenter"",""1"",""6862""
","
","
","""event"",""trial"",""time""
""fullscreenenter"",""1"",""6862""
","
","","","7880.400000095367","[""True""]","0","24","16219","6274","","","","","","","","","","","","","","","","","","",""
"pit-instructions","114","913594","0.0-2.0-25.0-1.0","battery-v0.2","","""event"",""trial"",""time""
""fullscreenenter"",""1"",""6862""
","
","
","""event"",""trial"",""time""
""fullscreenenter"",""1"",""6862""
","
","","[{""page_index"":0,""viewing_time"":13408.699999809265}]","13409.199999809265","","","","","","","","","","","","","","","","","","","","","","","",""
"pit-comprehension","115","920145","0.0-2.0-26.0-0.0","battery-v0.2","","""event"",""trial"",""time""
""fullscreenenter"",""1"",""6862""
","
","
","""event"",""trial"",""time""
""fullscreenenter"",""1"",""6862""
","
","","","6546.100000143051","[""False""]","0","24","16219","6274","","","","","","","","","","","","","","","","","","",""
"pit-instructions","116","924678","0.0-2.0-26.0-1.0","battery-v0.2","","""event"",""trial"",""time""
""fullscreenenter"",""1"",""6862""
","
","
","""event"",""trial"",""time""
""fullscreenenter"",""1"",""6862""
","
","","[{""page_index"":0,""viewing_time"":4507.299999952316}]","4507.799999952316","","","","","","","","","","","","","","","","","","","","","","","",""
"pit-instructions","117","943828","0.0-3.0","battery-v0.2","","""event"",""trial"",""time""
""fullscreenenter"",""1"",""6862""
","
","
","""event"",""trial"",""time""
""fullscreenenter"",""1"",""6862""
","
","","[{""page_index"":0,""viewing_time"":5929.5},{""page_index"":1,""viewing_time"":5933.100000143051},{""page_index"":2,""viewing_time"":7284.399999856949}]","19147.5","","","","","","","","","","","","","","","","","","","","","","","",""
"pit-trial","118","947885","0.0-4.0","battery-v0.2","","""event"",""trial"",""time""
""fullscreenenter"",""1"",""6862""
","
","
","""event"",""trial"",""time""
""fullscreenenter"",""1"",""6862""
","
","","","1198.2000000476837","","","24","16219","6274","&#9733;","elianto","#3366ff99","-1"," ","0","+10","[2048.600000143051]","1","1","","","16219","1","2","2","win","no-go","1"
"pit-trial","119","952401","0.0-5.0","battery-v0.2","","""event"",""trial"",""time""
""fullscreenenter"",""1"",""6862""
","
","
","""event"",""trial"",""time""
""fullscreenenter"",""1"",""6862""
","
","","","1660.2000000476837","","","24","16219","6274","&#9730;","elianto","#3366ff99"," "," ","1","0","[2511.4000000953674]","1","1","","","16219","2","1","1","win","go","1"
"pit-trial","120","956583","0.0-6.0","battery-v0.2","","""event"",""trial"",""time""
""fullscreenenter"",""1"",""6862""
","
","
","""event"",""trial"",""time""
""fullscreenenter"",""1"",""6862""
","
","","","1326.1000001430511","","","24","16219","6274","&#9752;","elianto","#f73b6a7A"," "," ","1","0","[2177.4000000953674]","1","1","","","16219","3","3","3","lose","go","0"
"pit-trial","121","961240","0.0-7.0","battery-v0.2","","""event"",""trial"",""time""
""fullscreenenter"",""1"",""6862""
","
","
","""event"",""trial"",""time""
""fullscreenenter"",""1"",""6862""
","
","","","1803.5","","","24","16219","6274","&#9728;","elianto","#f73b6a7A","-1"," ","0","-10","[2654.4000000953674]","1","1","","","16219","4","0","4","lose","no-go","0"
"pit-trial","122","966096","0.0-8.0","battery-v0.2","","""event"",""trial"",""time""
""fullscreenenter"",""1"",""6862""
","
","
","""event"",""trial"",""time""
""fullscreenenter"",""1"",""6862""
","
","","","-1","","","24","16219","6274","&#9728;","elianto","#f73b6a7A","-1","-1","1","-10","[]","0","1","","","16219","5","0","4","lose","no-go","1"
"pit-trial","123","970081","0.0-9.0","battery-v0.2","","""event"",""trial"",""time""
""fullscreenenter"",""1"",""6862""
","
","
","""event"",""trial"",""time""
""fullscreenenter"",""1"",""6862""
","
","","","1129.2999999523163","","","24","16219","6274","&#9733;","elianto","#3366ff99","-1"," ","0","+10","[1979.9000000953674]","1","1","","","16219","6","2","2","win","no-go","1"
"pit-trial","124","974937","0.0-10.0","battery-v0.2","","""event"",""trial"",""time""
""fullscreenenter"",""1"",""6862""
","
","
","""event"",""trial"",""time""
""fullscreenenter"",""1"",""6862""
","
","","","-1","","","24","16219","6274","&#9730;","elianto","#3366ff99"," ","-1","0","+10","[]","0","1","","","16219","7","1","1","win","go","1"
"pit-trial","125","978748","0.0-11.0","battery-v0.2","","""event"",""trial"",""time""
""fullscreenenter"",""1"",""6862""
","
","
","""event"",""trial"",""time""
""fullscreenenter"",""1"",""6862""
","
","","","954.7000000476837","","","24","16219","6274","&#9752;","elianto","#f73b6a7A"," "," ","1","-10","[1806.4000000953674]","1","1","","","16219","8","3","3","lose","go","1"
"pit-trial","126","982528","0.0-12.0","battery-v0.2","","""event"",""trial"",""time""
""fullscreenenter"",""1"",""6862""
","
","
","""event"",""trial"",""time""
""fullscreenenter"",""1"",""6862""
","
","","","925.2999999523163","","","24","16219","6274","&#9733;","elianto","#3366ff99","-1"," ","0","0","[1776]","1","1","","","16219","9","2","2","win","no-go","0"
"pit-trial","127","986771","0.0-13.0","battery-v0.2","","""event"",""trial"",""time""
""fullscreenenter"",""1"",""6862""
","
","
","""event"",""trial"",""time""
""fullscreenenter"",""1"",""6862""
","
","","","1387.3999998569489","","","24","16219","6274","&#9728;","elianto","#f73b6a7A","-1"," ","0","-10","[2238.0999999046326]","1","1","","","16219","10","0","4","lose","no-go","0"
"pit-trial","128","990254","0.0-14.0","battery-v0.2","","""event"",""trial"",""time""
""fullscreenenter"",""1"",""6862""
","
","
","""event"",""trial"",""time""
""fullscreenenter"",""1"",""6862""
","
","","","627","","","24","16219","6274","&#9752;","elianto","#f73b6a7A"," "," ","1","0","[1478.2000000476837]","1","1","","","16219","11","3","3","lose","go","0"
"pit-trial","129","995110","0.0-15.0","battery-v0.2","","""event"",""trial"",""time""
""fullscreenenter"",""1"",""6862""
","
","
","""event"",""trial"",""time""
""fullscreenenter"",""1"",""6862""
","
","","","-1","","","24","16219","6274","&#9730;","elianto","#3366ff99"," ","-1","0","0","[]","0","1","","","16219","12","1","1","win","go","0"
"pit-trial","130","999437","0.0-16.0","battery-v0.2","","""event"",""trial"",""time""
""fullscreenenter"",""1"",""6862""
","
","
","""event"",""trial"",""time""
""fullscreenenter"",""1"",""6862""
","
","","","1471.7000000476837","","","24","16219","6274","&#9728;","elianto","#f73b6a7A","-1"," ","0","-10","[2322.7000000476837]","1","1","","","16219","13","0","4","lose","no-go","0"
"pit-trial","131","1004293","0.0-17.0","battery-v0.2","","""event"",""trial"",""time""
""fullscreenenter"",""1"",""6862""
","
","
","""event"",""trial"",""time""
""fullscreenenter"",""1"",""6862""
","
","","","-1","","","24","16219","6274","&#9730;","elianto","#3366ff99"," ","-1","0","0","[]","0","1","","","16219","14","1","1","win","go","0"
"pit-trial","132","1007916","0.0-18.0","battery-v0.2","","""event"",""trial"",""time""
""fullscreenenter"",""1"",""6862""
","
","
","""event"",""trial"",""time""
""fullscreenenter"",""1"",""6862""
","
","","","766.6999998092651","","","24","16219","6274","&#9733;","elianto","#3366ff99","-1"," ","0","+10","[1617.7999999523163]","1","1","","","16219","15","2","2","win","no-go","1"
"pit-trial","133","1011921","0.0-19.0","battery-v0.2","","""event"",""trial"",""time""
""fullscreenenter"",""1"",""6862""
","
","
","""event"",""trial"",""time""
""fullscreenenter"",""1"",""6862""
","
","","","1149","","","24","16219","6274","&#9752;","elianto","#f73b6a7A"," "," ","1","-10","[2000.2000000476837]","1","1","","","16219","16","3","3","lose","go","1"
"pit-trial","134","1016778","0.0-20.0","battery-v0.2","","""event"",""trial"",""time""
""fullscreenenter"",""1"",""6862""
","
","
","""event"",""trial"",""time""
""fullscreenenter"",""1"",""6862""
","
","","","-1","","","24","16219","6274","&#9728;","elianto","#f73b6a7A","-1","-1","1","0","[]","0","1","","","16219","17","0","4","lose","no-go","0"
"pit-trial","135","1020380","0.0-21.0","battery-v0.2","","""event"",""trial"",""time""
""fullscreenenter"",""1"",""6862""
","
","
","""event"",""trial"",""time""
""fullscreenenter"",""1"",""6862""
","
","","","746.5999999046326","","","24","16219","6274","&#9733;","elianto","#3366ff99","-1"," ","0","0","[1598.5]","1","1","","","16219","18","2","2","win","no-go","0"
"pit-trial","136","1025235","0.0-22.0","battery-v0.2","","""event"",""trial"",""time""
""fullscreenenter"",""1"",""6862""
","
","
","""event"",""trial"",""time""
""fullscreenenter"",""1"",""6862""
","
","","","-1","","","24","16219","6274","&#9730;","elianto","#3366ff99"," ","-1","0","0","[]","0","1","","","16219","19","1","1","win","go","0"
"pit-trial","137","1029215","0.0-23.0","battery-v0.2","","""event"",""trial"",""time""
""fullscreenenter"",""1"",""6862""
","
","
","""event"",""trial"",""time""
""fullscreenenter"",""1"",""6862""
","
","","","1124.2999999523163","","","24","16219","6274","&#9752;","elianto","#f73b6a7A"," "," ","1","-10","[1975.5]","1","1","","","16219","20","3","3","lose","go","1"
"pit-instructions","138","1043327","0.0-24.0","battery-v0.2","","""event"",""trial"",""time""
""fullscreenenter"",""1"",""6862""
","
","
","""event"",""trial"",""time""
""fullscreenenter"",""1"",""6862""
","
","","[{""page_index"":0,""viewing_time"":6509.5},{""page_index"":1,""viewing_time"":7599.700000047684}]","14109.799999952316","","","","","","","","","","","","","","","","","","","","","","","",""
"pit-trial","139","1047063","0.0-25.0","battery-v0.2","","""event"",""trial"",""time""
""fullscreenenter"",""1"",""6862""
","
","
","""event"",""trial"",""time""
""fullscreenenter"",""1"",""6862""
","
","","","878.2000000476837","","","24","16219","6274","m","elianto","#f73b6a7A"," "," ","1","0","[1730.0999999046326]","1","2","","","16219","21","0","3","lose","go","0"
"pit-trial","140","1051318","0.0-26.0","battery-v0.2","","""event"",""trial"",""time""
""fullscreenenter"",""1"",""6862""
","
","
","""event"",""trial"",""time""
""fullscreenenter"",""1"",""6862""
","
","","","1400.7999999523163","","","24","16219","6274","r","elianto","#3366ff99","-1"," ","0","0","[2250.800000190735]","1","2","","","16219","22","1","2","win","no-go","0"
"pit-trial","141","1055020","0.0-27.0","battery-v0.2","","""event"",""trial"",""time""
""fullscreenenter"",""1"",""6862""
","
","
","""event"",""trial"",""time""
""fullscreenenter"",""1"",""6862""
","
","","","846.5999999046326","","","24","16219","6274","y","elianto","#f73b6a7A"," "," ","1","0","[1697.1999998092651]","1","2","","","16219","23","2","3","lose","go","0"
"pit-trial","142","1059197","0.0-28.0","battery-v0.2","","""event"",""trial"",""time""
""fullscreenenter"",""1"",""6862""
","
","
","""event"",""trial"",""time""
""fullscreenenter"",""1"",""6862""
","
","","","1320.5999999046326","","","24","16219","6274","h","elianto","#f73b6a7A","-1"," ","0","-10","[2172.4000000953674]","1","2","","","16219","24","3","4","lose","no-go","0"
"pit-trial","143","1062709","0.0-29.0","battery-v0.2","","""event"",""trial"",""time""
""fullscreenenter"",""1"",""6862""
","
","
","""event"",""trial"",""time""
""fullscreenenter"",""1"",""6862""
","
","","","656.3999998569489","","","24","16219","6274","m","elianto","#f73b6a7A"," "," ","1","-10","[1506.7000000476837]","1","2","","","16219","25","0","3","lose","go","1"
"pit-trial","144","1066625","0.0-30.0","battery-v0.2","","""event"",""trial"",""time""
""fullscreenenter"",""1"",""6862""
","
","
","""event"",""trial"",""time""
""fullscreenenter"",""1"",""6862""
","
","","","1060.9000000953674","","","24","16219","6274","r","elianto","#3366ff99","-1"," ","0","0","[1912.1000001430511]","1","2","","","16219","26","1","2","win","no-go","0"
"pit-trial","145","1071483","0.0-31.0","battery-v0.2","","""event"",""trial"",""time""
""fullscreenenter"",""1"",""6862""
","
","
","""event"",""trial"",""time""
""fullscreenenter"",""1"",""6862""
","
","","","-1","","","24","16219","6274","h","elianto","#f73b6a7A","-1","-1","1","0","[]","0","2","","","16219","27","3","4","lose","no-go","0"
"pit-trial","146","1075138","0.0-32.0","battery-v0.2","","""event"",""trial"",""time""
""fullscreenenter"",""1"",""6862""
","
","
","""event"",""trial"",""time""
""fullscreenenter"",""1"",""6862""
","
","","","801.1999998092651","","","24","16219","6274","y","elianto","#f73b6a7A"," "," ","1","0","[1651.4000000953674]","1","2","","","16219","28","2","3","lose","go","0"
"pit-trial","147","1078556","0.0-33.0","battery-v0.2","","""event"",""trial"",""time""
""fullscreenenter"",""1"",""6862""
","
","
","""event"",""trial"",""time""
""fullscreenenter"",""1"",""6862""
","
","","","562.4000000953674","","","24","16219","6274","m","elianto","#f73b6a7A"," "," ","1","-10","[1413.6999998092651]","1","2","","","16219","29","0","3","lose","go","1"
"pit-trial","148","1083412","0.0-34.0","battery-v0.2","","""event"",""trial"",""time""
""fullscreenenter"",""1"",""6862""
","
","
","""event"",""trial"",""time""
""fullscreenenter"",""1"",""6862""
","
","","","-1","","","24","16219","6274","r","elianto","#3366ff99","-1","-1","1","+10","[]","0","2","","","16219","30","1","2","win","no-go","0"
"pit-trial","149","1088268","0.0-35.0","battery-v0.2","","""event"",""trial"",""time""
""fullscreenenter"",""1"",""6862""
","
","
","""event"",""trial"",""time""
""fullscreenenter"",""1"",""6862""
","
","","","-1","","","24","16219","6274","y","elianto","#f73b6a7A"," ","-1","0","0","[]","0","2","","","16219","31","2","3","lose","go","1"
"pit-trial","150","1093124","0.0-36.0","battery-v0.2","","""event"",""trial"",""time""
""fullscreenenter"",""1"",""6862""
","
","
","""event"",""trial"",""time""
""fullscreenenter"",""1"",""6862""
","
","","","-1","","","24","16219","6274","h","elianto","#f73b6a7A","-1","-1","1","0","[]","0","2","","","16219","32","3","4","lose","no-go","0"
"pit-trial","151","1097980","0.0-37.0","battery-v0.2","","""event"",""trial"",""time""
""fullscreenenter"",""1"",""6862""
","
","
","""event"",""trial"",""time""
""fullscreenenter"",""1"",""6862""
","
","","","-1","","","24","16219","6274","y","elianto","#f73b6a7A"," ","-1","0","0","[]","0","2","","","16219","33","2","3","lose","go","1"
"pit-trial","152","1102836","0.0-38.0","battery-v0.2","","""event"",""trial"",""time""
""fullscreenenter"",""1"",""6862""
","
","
","""event"",""trial"",""time""
""fullscreenenter"",""1"",""6862""
","
","","","-1","","","24","16219","6274","h","elianto","#f73b6a7A","-1","-1","1","0","[]","0","2","","","16219","34","3","4","lose","no-go","0"
"pit-trial","153","1107692","0.0-39.0","battery-v0.2","","""event"",""trial"",""time""
""fullscreenenter"",""1"",""6862""
","
","
","""event"",""trial"",""time""
""fullscreenenter"",""1"",""6862""
","
","","","-1","","","24","16219","6274","r","elianto","#3366ff99","-1","-1","1","+10","[]","0","2","","","16219","35","1","2","win","no-go","0"
"pit-trial","154","1111448","0.0-40.0","battery-v0.2","","""event"",""trial"",""time""
""fullscreenenter"",""1"",""6862""
","
","
","""event"",""trial"",""time""
""fullscreenenter"",""1"",""6862""
","
","","","899.2000000476837","","","24","16219","6274","m","elianto","#f73b6a7A"," "," ","1","0","[1750.4000000953674]","1","2","","","16219","36","0","3","lose","go","0"
"pit-trial","155","1116304","0.0-41.0","battery-v0.2","","""event"",""trial"",""time""
""fullscreenenter"",""1"",""6862""
","
","
","""event"",""trial"",""time""
""fullscreenenter"",""1"",""6862""
","
","","","-1","","","24","16219","6274","r","elianto","#3366ff99","-1","-1","1","+10","[]","0","2","","","16219","37","1","2","win","no-go","0"
"pit-trial","156","1120210","0.0-42.0","battery-v0.2","","""event"",""trial"",""time""
""fullscreenenter"",""1"",""6862""
","
","
","""event"",""trial"",""time""
""fullscreenenter"",""1"",""6862""
","
","","","1049.8999998569489","","","24","16219","6274","m","elianto","#f73b6a7A"," "," ","1","0","[1901.2000000476837]","1","2","","","16219","38","0","3","lose","go","0"
"pit-trial","157","1125066","0.0-43.0","battery-v0.2","","""event"",""trial"",""time""
""fullscreenenter"",""1"",""6862""
","
","
","""event"",""trial"",""time""
""fullscreenenter"",""1"",""6862""
","
","","","-1","","","24","16219","6274","h","elianto","#f73b6a7A","-1","-1","1","-10","[]","0","2","","","16219","39","3","4","lose","no-go","1"
"pit-trial","158","1129921","0.0-44.0","battery-v0.2","","""event"",""trial"",""time""
""fullscreenenter"",""1"",""6862""
","
","
","""event"",""trial"",""time""
""fullscreenenter"",""1"",""6862""
","
","","","-1","","","24","16219","6274","y","elianto","#f73b6a7A"," ","-1","0","-10","[]","0","2","","","16219","40","2","3","lose","go","0"
"pit-trial","159","1134776","0.0-45.0","battery-v0.2","","""event"",""trial"",""time""
""fullscreenenter"",""1"",""6862""
","
","
","""event"",""trial"",""time""
""fullscreenenter"",""1"",""6862""
","
","","","-1","","","24","16219","6274","y","elianto","#f73b6a7A"," ","-1","0","-10","[]","0","2","","","16219","41","2","3","lose","go","0"
"pit-trial","160","1139632","0.0-46.0","battery-v0.2","","""event"",""trial"",""time""
""fullscreenenter"",""1"",""6862""
","
","
","""event"",""trial"",""time""
""fullscreenenter"",""1"",""6862""
","
","","","-1","","","24","16219","6274","h","elianto","#f73b6a7A","-1","-1","1","0","[]","0","2","","","16219","42","3","4","lose","no-go","0"
"pit-trial","161","1144489","0.0-47.0","battery-v0.2","","""event"",""trial"",""time""
""fullscreenenter"",""1"",""6862""
","
","
","""event"",""trial"",""time""
""fullscreenenter"",""1"",""6862""
","
","","","-1","","","24","16219","6274","r","elianto","#3366ff99","-1","-1","1","+10","[]","0","2","","","16219","43","1","2","win","no-go","0"
"pit-trial","162","1148551","0.0-48.0","battery-v0.2","","""event"",""trial"",""time""
""fullscreenenter"",""1"",""6862""
","
","
","""event"",""trial"",""time""
""fullscreenenter"",""1"",""6862""
","
","","","1206.1000001430511","","","24","16219","6274","m","elianto","#f73b6a7A"," "," ","1","0","[2057.800000190735]","1","2","","","16219","44","0","3","lose","go","0"
"pit-trial","163","1153407","0.0-49.0","battery-v0.2","","""event"",""trial"",""time""
""fullscreenenter"",""1"",""6862""
","
","
","""event"",""trial"",""time""
""fullscreenenter"",""1"",""6862""
","
","","","-1","","","24","16219","6274","h","elianto","#f73b6a7A","-1","-1","1","0","[]","0","2","","","16219","45","3","4","lose","no-go","0"
"pit-trial","164","1156955","0.0-50.0","battery-v0.2","","""event"",""trial"",""time""
""fullscreenenter"",""1"",""6862""
","
","
","""event"",""trial"",""time""
""fullscreenenter"",""1"",""6862""
","
","","","692.2999999523163","","","24","16219","6274","m","elianto","#f73b6a7A"," "," ","1","0","[1543.6999998092651]","1","2","","","16219","46","0","3","lose","go","0"
"pit-trial","165","1161810","0.0-51.0","battery-v0.2","","""event"",""trial"",""time""
""fullscreenenter"",""1"",""6862""
","
","
","""event"",""trial"",""time""
""fullscreenenter"",""1"",""6862""
","
","","","-1","","","24","16219","6274","r","elianto","#3366ff99","-1","-1","1","0","[]","0","2","","","16219","47","1","2","win","no-go","1"
"pit-trial","166","1166667","0.0-52.0","battery-v0.2","","""event"",""trial"",""time""
""fullscreenenter"",""1"",""6862""
","
","
","""event"",""trial"",""time""
""fullscreenenter"",""1"",""6862""
","
","","","-1","","","24","16219","6274","y","elianto","#f73b6a7A"," ","-1","0","-10","[]","0","2","","","16219","48","2","3","lose","go","0"
"pit-trial","167","1171522","0.0-53.0","battery-v0.2","","""event"",""trial"",""time""
""fullscreenenter"",""1"",""6862""
","
","
","""event"",""trial"",""time""
""fullscreenenter"",""1"",""6862""
","
","","","-1","","","24","16219","6274","r","elianto","#3366ff99","-1","-1","1","0","[]","0","2","","","16219","49","1","2","win","no-go","1"
"pit-trial","168","1175125","0.0-54.0","battery-v0.2","","""event"",""trial"",""time""
""fullscreenenter"",""1"",""6862""
","
","
","""event"",""trial"",""time""
""fullscreenenter"",""1"",""6862""
","
","","","745.6999998092651","","","24","16219","6274","m","elianto","#f73b6a7A"," "," ","1","0","[1597.3000001907349]","1","2","","","16219","50","0","3","lose","go","0"
"pit-trial","169","1179981","0.0-55.0","battery-v0.2","","""event"",""trial"",""time""
""fullscreenenter"",""1"",""6862""
","
","
","""event"",""trial"",""time""
""fullscreenenter"",""1"",""6862""
","
","","","-1","","","24","16219","6274","h","elianto","#f73b6a7A","-1","-1","1","-10","[]","0","2","","","16219","51","3","4","lose","no-go","1"
"pit-trial","170","1184837","0.0-56.0","battery-v0.2","","""event"",""trial"",""time""
""fullscreenenter"",""1"",""6862""
","
","
","""event"",""trial"",""time""
""fullscreenenter"",""1"",""6862""
","
","","","-1","","","24","16219","6274","y","elianto","#f73b6a7A"," ","-1","0","-10","[]","0","2","","","16219","52","2","3","lose","go","0"
"pit-trial","171","1189693","0.0-57.0","battery-v0.2","","""event"",""trial"",""time""
""fullscreenenter"",""1"",""6862""
","
","
","""event"",""trial"",""time""
""fullscreenenter"",""1"",""6862""
","
","","","-1","","","24","16219","6274","y","elianto","#f73b6a7A"," ","-1","0","-10","[]","0","2","","","16219","53","2","3","lose","go","0"
"pit-trial","172","1193139","0.0-58.0","battery-v0.2","","""event"",""trial"",""time""
""fullscreenenter"",""1"",""6862""
","
","
","""event"",""trial"",""time""
""fullscreenenter"",""1"",""6862""
","
","","","591.2999999523163","","","24","16219","6274","m","elianto","#f73b6a7A"," "," ","1","0","[1442.2999999523163]","1","2","","","16219","54","0","3","lose","go","0"
"pit-trial","173","1197996","0.0-59.0","battery-v0.2","","""event"",""trial"",""time""
""fullscreenenter"",""1"",""6862""
","
","
","""event"",""trial"",""time""
""fullscreenenter"",""1"",""6862""
","
","","","-1","","","24","16219","6274","h","elianto","#f73b6a7A","-1","-1","1","0","[]","0","2","","","16219","55","3","4","lose","no-go","0"
"pit-trial","174","1202852","0.0-60.0","battery-v0.2","","""event"",""trial"",""time""
""fullscreenenter"",""1"",""6862""
","
","
","""event"",""trial"",""time""
""fullscreenenter"",""1"",""6862""
","
","","","-1","","","24","16219","6274","r","elianto","#3366ff99","-1","-1","1","+10","[]","0","2","","","16219","56","1","2","win","no-go","0"
"pit-trial","175","1207708","0.0-61.0","battery-v0.2","","""event"",""trial"",""time""
""fullscreenenter"",""1"",""6862""
","
","
","""event"",""trial"",""time""
""fullscreenenter"",""1"",""6862""
","
","","","-1","","","24","16219","6274","y","elianto","#f73b6a7A"," ","-1","0","-10","[]","0","2","","","16219","57","2","3","lose","go","0"
"pit-trial","176","1212564","0.0-62.0","battery-v0.2","","""event"",""trial"",""time""
""fullscreenenter"",""1"",""6862""
","
","
","""event"",""trial"",""time""
""fullscreenenter"",""1"",""6862""
","
","","","-1","","","24","16219","6274","h","elianto","#f73b6a7A","-1","-1","1","0","[]","0","2","","","16219","58","3","4","lose","no-go","0"
"pit-trial","177","1217421","0.0-63.0","battery-v0.2","","""event"",""trial"",""time""
""fullscreenenter"",""1"",""6862""
","
","
","""event"",""trial"",""time""
""fullscreenenter"",""1"",""6862""
","
","","","-1","","","24","16219","6274","z","elianto","#3366ff99"," ","-1","0","0","[]","0","2","","","16219","59","4","1","win","go","0"
"pit-trial","178","1221014","0.0-64.0","battery-v0.2","","""event"",""trial"",""time""
""fullscreenenter"",""1"",""6862""
","
","
","""event"",""trial"",""time""
""fullscreenenter"",""1"",""6862""
","
","","","736.9000000953674","","","24","16219","6274","m","elianto","#f73b6a7A"," "," ","1","0","[1588.1000001430511]","1","2","","","16219","60","0","3","lose","go","0"
"pit-trial","179","1224406","0.0-65.0","battery-v0.2","","""event"",""trial"",""time""
""fullscreenenter"",""1"",""6862""
","
","
","""event"",""trial"",""time""
""fullscreenenter"",""1"",""6862""
","
","","","536.4000000953674","","","24","16219","6274","z","elianto","#3366ff99"," "," ","1","+10","[1387.5]","1","2","","","16219","61","4","1","win","go","0"
"pit-trial","180","1228238","0.0-66.0","battery-v0.2","","""event"",""trial"",""time""
""fullscreenenter"",""1"",""6862""
","
","
","""event"",""trial"",""time""
""fullscreenenter"",""1"",""6862""
","
","","","975.4000000953674","","","24","16219","6274","y","elianto","#f73b6a7A"," "," ","1","0","[1827.2999999523163]","1","2","","","16219","62","2","3","lose","go","0"
"pit-trial","181","1233094","0.0-67.0","battery-v0.2","","""event"",""trial"",""time""
""fullscreenenter"",""1"",""6862""
","
","
","""event"",""trial"",""time""
""fullscreenenter"",""1"",""6862""
","
","","","-1","","","24","16219","6274","r","elianto","#3366ff99","-1","-1","1","+10","[]","0","2","","","16219","63","1","2","win","no-go","0"
"pit-trial","182","1237950","0.0-68.0","battery-v0.2","","""event"",""trial"",""time""
""fullscreenenter"",""1"",""6862""
","
","
","""event"",""trial"",""time""
""fullscreenenter"",""1"",""6862""
","
","","","-1","","","24","16219","6274","h","elianto","#f73b6a7A","-1","-1","1","0","[]","0","2","","","16219","64","3","4","lose","no-go","0"
"pit-trial","183","1242806","0.0-69.0","battery-v0.2","","""event"",""trial"",""time""
""fullscreenenter"",""1"",""6862""
","
","
","""event"",""trial"",""time""
""fullscreenenter"",""1"",""6862""
","
","","","-1","","","24","16219","6274","c","elianto","#3366ff99","-1","-1","1","+10","[]","0","2","","","16219","65","5","2","win","no-go","0"
"pit-trial","184","1246567","0.0-70.0","battery-v0.2","","""event"",""trial"",""time""
""fullscreenenter"",""1"",""6862""
","
","
","""event"",""trial"",""time""
""fullscreenenter"",""1"",""6862""
","
","","","905.9000000953674","","","24","16219","6274","z","elianto","#3366ff99"," "," ","1","+10","[1757]","1","2","","","16219","66","4","1","win","go","0"
"pit-trial","185","1251424","0.0-71.0","battery-v0.2","","""event"",""trial"",""time""
""fullscreenenter"",""1"",""6862""
","
","
","""event"",""trial"",""time""
""fullscreenenter"",""1"",""6862""
","
","","","-1","","","24","16219","6274","r","elianto","#3366ff99","-1","-1","1","0","[]","0","2","","","16219","67","1","2","win","no-go","1"
"pit-trial","186","1256280","0.0-72.0","battery-v0.2","","""event"",""trial"",""time""
""fullscreenenter"",""1"",""6862""
","
","
","""event"",""trial"",""time""
""fullscreenenter"",""1"",""6862""
","
","","","-1","","","24","16219","6274","h","elianto","#f73b6a7A","-1","-1","1","0","[]","0","2","","","16219","68","3","4","lose","no-go","0"
"pit-trial","187","1260069","0.0-73.0","battery-v0.2","","""event"",""trial"",""time""
""fullscreenenter"",""1"",""6862""
","
","
","""event"",""trial"",""time""
""fullscreenenter"",""1"",""6862""
","
","","","933.0999999046326","","","24","16219","6274","y","elianto","#f73b6a7A"," "," ","1","0","[1784]","1","2","","","16219","69","2","3","lose","go","0"
"pit-trial","188","1264920","0.0-74.0","battery-v0.2","","""event"",""trial"",""time""
""fullscreenenter"",""1"",""6862""
","
","
","""event"",""trial"",""time""
""fullscreenenter"",""1"",""6862""
","
","","","-1","","","24","16219","6274","r","elianto","#3366ff99","-1","-1","1","0","[]","0","2","","","16219","70","1","2","win","no-go","1"
"pit-trial","189","1269286","0.0-75.0","battery-v0.2","","""event"",""trial"",""time""
""fullscreenenter"",""1"",""6862""
","
","
","""event"",""trial"",""time""
""fullscreenenter"",""1"",""6862""
","
","","","1512.2999999523163","","","24","16219","6274","c","elianto","#3366ff99","-1"," ","0","0","[2364.2999999523163]","1","2","","","16219","71","5","2","win","no-go","0"
"pit-trial","190","1273386","0.0-76.0","battery-v0.2","","""event"",""trial"",""time""
""fullscreenenter"",""1"",""6862""
","
","
","""event"",""trial"",""time""
""fullscreenenter"",""1"",""6862""
","
","","","1247","","","24","16219","6274","z","elianto","#3366ff99"," "," ","1","+10","[2097.2999999523163]","1","2","","","16219","72","4","1","win","go","0"
"pit-trial","191","1276949","0.0-77.0","battery-v0.2","","""event"",""trial"",""time""
""fullscreenenter"",""1"",""6862""
","
","
","""event"",""trial"",""time""
""fullscreenenter"",""1"",""6862""
","
","","","711.2000000476837","","","24","16219","6274","r","elianto","#3366ff99","-1"," ","0","0","[1561.8999998569489]","1","2","","","16219","73","1","2","win","no-go","0"
"pit-trial","192","1280433","0.0-78.0","battery-v0.2","","""event"",""trial"",""time""
""fullscreenenter"",""1"",""6862""
","
","
","""event"",""trial"",""time""
""fullscreenenter"",""1"",""6862""
","
","","","630.2000000476837","","","24","16219","6274","c","elianto","#3366ff99","-1"," ","0","0","[1481.1000001430511]","1","2","","","16219","74","5","2","win","no-go","0"
"pit-trial","193","1283931","0.0-79.0","battery-v0.2","","""event"",""trial"",""time""
""fullscreenenter"",""1"",""6862""
","
","
","""event"",""trial"",""time""
""fullscreenenter"",""1"",""6862""
","
","","","643.2000000476837","","","24","16219","6274","z","elianto","#3366ff99"," "," ","1","0","[1493.5]","1","2","","","16219","75","4","1","win","go","1"
"pit-trial","194","1288787","0.0-80.0","battery-v0.2","","""event"",""trial"",""time""
""fullscreenenter"",""1"",""6862""
","
","
","""event"",""trial"",""time""
""fullscreenenter"",""1"",""6862""
","
","","","-1","","","24","16219","6274","h","elianto","#f73b6a7A","-1","-1","1","0","[]","0","2","","","16219","76","3","4","lose","no-go","0"
"pit-trial","195","1293642","0.0-81.0","battery-v0.2","","""event"",""trial"",""time""
""fullscreenenter"",""1"",""6862""
","
","
","""event"",""trial"",""time""
""fullscreenenter"",""1"",""6862""
","
","","","-1","","","24","16219","6274","h","elianto","#f73b6a7A","-1","-1","1","-10","[]","0","2","","","16219","77","3","4","lose","no-go","1"
"pit-trial","196","1297305","0.0-82.0","battery-v0.2","","""event"",""trial"",""time""
""fullscreenenter"",""1"",""6862""
","
","
","""event"",""trial"",""time""
""fullscreenenter"",""1"",""6862""
","
","","","807.2999999523163","","","24","16219","6274","z","elianto","#3366ff99"," "," ","1","+10","[1658.8999998569489]","1","2","","","16219","78","4","1","win","go","0"
"pit-trial","197","1301557","0.0-83.0","battery-v0.2","","""event"",""trial"",""time""
""fullscreenenter"",""1"",""6862""
","
","
","""event"",""trial"",""time""
""fullscreenenter"",""1"",""6862""
","
","","","1396.5999999046326","","","24","16219","6274","c","elianto","#3366ff99","-1"," ","0","+10","[2248]","1","2","","","16219","79","5","2","win","no-go","1"
"pit-trial","198","1305037","0.0-84.0","battery-v0.2","","""event"",""trial"",""time""
""fullscreenenter"",""1"",""6862""
","
","
","""event"",""trial"",""time""
""fullscreenenter"",""1"",""6862""
","
","","","624.6999998092651","","","24","16219","6274","z","elianto","#3366ff99"," "," ","1","+10","[1476]","1","2","","","16219","80","4","1","win","go","0"
"pit-trial","199","1309892","0.0-85.0","battery-v0.2","","""event"",""trial"",""time""
""fullscreenenter"",""1"",""6862""
","
","
","""event"",""trial"",""time""
""fullscreenenter"",""1"",""6862""
","
","","","-1","","","24","16219","6274","t","elianto","#f73b6a7A","-1","-1","1","-10","[]","0","2","","","16219","81","7","4","lose","no-go","1"
"pit-trial","200","1314749","0.0-86.0","battery-v0.2","","""event"",""trial"",""time""
""fullscreenenter"",""1"",""6862""
","
","
","""event"",""trial"",""time""
""fullscreenenter"",""1"",""6862""
","
","","","-1","","","24","16219","6274","h","elianto","#f73b6a7A","-1","-1","1","0","[]","0","2","","","16219","82","3","4","lose","no-go","0"
"pit-trial","201","1318492","0.0-87.0","battery-v0.2","","""event"",""trial"",""time""
""fullscreenenter"",""1"",""6862""
","
","
","""event"",""trial"",""time""
""fullscreenenter"",""1"",""6862""
","
","","","887.8999998569489","","","24","16219","6274","c","elianto","#3366ff99","-1"," ","0","0","[1739]","1","2","","","16219","83","5","2","win","no-go","0"
"pit-trial","202","1322150","0.0-88.0","battery-v0.2","","""event"",""trial"",""time""
""fullscreenenter"",""1"",""6862""
","
","
","""event"",""trial"",""time""
""fullscreenenter"",""1"",""6862""
","
","","","802.1000001430511","","","24","16219","6274","z","elianto","#3366ff99"," "," ","1","+10","[1653.1999998092651]","1","2","","","16219","84","4","1","win","go","0"
"pit-trial","203","1325727","0.0-89.0","battery-v0.2","","""event"",""trial"",""time""
""fullscreenenter"",""1"",""6862""
","
","
","""event"",""trial"",""time""
""fullscreenenter"",""1"",""6862""
","
","","","720.0999999046326","","","24","16219","6274","z","elianto","#3366ff99"," "," ","1","+10","[1571.2999999523163]","1","2","","","16219","85","4","1","win","go","0"
"pit-trial","204","1330250","0.0-90.0","battery-v0.2","","""event"",""trial"",""time""
""fullscreenenter"",""1"",""6862""
","
","
","""event"",""trial"",""time""
""fullscreenenter"",""1"",""6862""
","
","","","1669","","","24","16219","6274","b","elianto","#f73b6a7A"," "," ","1","0","[2519.2999999523163]","1","2","","","16219","86","6","3","lose","go","0"
"pit-trial","205","1335107","0.0-91.0","battery-v0.2","","""event"",""trial"",""time""
""fullscreenenter"",""1"",""6862""
","
","
","""event"",""trial"",""time""
""fullscreenenter"",""1"",""6862""
","
","","","-1","","","24","16219","6274","c","elianto","#3366ff99","-1","-1","1","+10","[]","0","2","","","16219","87","5","2","win","no-go","0"
"pit-trial","206","1338797","0.0-92.0","battery-v0.2","","""event"",""trial"",""time""
""fullscreenenter"",""1"",""6862""
","
","
","""event"",""trial"",""time""
""fullscreenenter"",""1"",""6862""
","
","","","834.3999998569489","","","24","16219","6274","t","elianto","#f73b6a7A","-1"," ","0","0","[1686.0999999046326]","1","2","","","16219","88","7","4","lose","no-go","1"
"pit-trial","207","1343653","0.0-93.0","battery-v0.2","","""event"",""trial"",""time""
""fullscreenenter"",""1"",""6862""
","
","
","""event"",""trial"",""time""
""fullscreenenter"",""1"",""6862""
","
","","","-1","","","24","16219","6274","c","elianto","#3366ff99","-1","-1","1","+10","[]","0","2","","","16219","89","5","2","win","no-go","0"
"pit-trial","208","1347866","0.0-94.0","battery-v0.2","","""event"",""trial"",""time""
""fullscreenenter"",""1"",""6862""
","
","
","""event"",""trial"",""time""
""fullscreenenter"",""1"",""6862""
","
","","","1356.0999999046326","","","24","16219","6274","b","elianto","#f73b6a7A"," "," ","1","0","[2208.0999999046326]","1","2","","","16219","90","6","3","lose","go","0"
"pit-trial","209","1351303","0.0-95.0","battery-v0.2","","""event"",""trial"",""time""
""fullscreenenter"",""1"",""6862""
","
","
","""event"",""trial"",""time""
""fullscreenenter"",""1"",""6862""
","
","","","581.7000000476837","","","24","16219","6274","t","elianto","#f73b6a7A","-1"," ","0","-10","[1432.1999998092651]","1","2","","","16219","91","7","4","lose","no-go","0"
"pit-trial","210","1355290","0.0-96.0","battery-v0.2","","""event"",""trial"",""time""
""fullscreenenter"",""1"",""6862""
","
","
","""event"",""trial"",""time""
""fullscreenenter"",""1"",""6862""
","
","","","1131.4000000953674","","","24","16219","6274","z","elianto","#3366ff99"," "," ","1","+10","[1982.7000000476837]","1","2","","","16219","92","4","1","win","go","0"
"pit-trial","211","1359731","0.0-97.0","battery-v0.2","","""event"",""trial"",""time""
""fullscreenenter"",""1"",""6862""
","
","
","""event"",""trial"",""time""
""fullscreenenter"",""1"",""6862""
","
","","","1585.4000000953674","","","24","16219","6274","f","elianto","#3366ff99"," "," ","1","+10","[2436.4000000953674]","1","2","","","16219","93","8","1","win","go","0"
"pit-trial","212","1363372","0.0-98.0","battery-v0.2","","""event"",""trial"",""time""
""fullscreenenter"",""1"",""6862""
","
","
","""event"",""trial"",""time""
""fullscreenenter"",""1"",""6862""
","
","","","785.7999999523163","","","24","16219","6274","t","elianto","#f73b6a7A","-1"," ","0","-10","[1636.6999998092651]","1","2","","","16219","94","7","4","lose","no-go","0"
"pit-trial","213","1368229","0.0-99.0","battery-v0.2","","""event"",""trial"",""time""
""fullscreenenter"",""1"",""6862""
","
","
","""event"",""trial"",""time""
""fullscreenenter"",""1"",""6862""
","
","","","-1","","","24","16219","6274","c","elianto","#3366ff99","-1","-1","1","+10","[]","0","2","","","16219","95","5","2","win","no-go","0"
"pit-trial","214","1373085","0.0-100.0","battery-v0.2","","""event"",""trial"",""time""
""fullscreenenter"",""1"",""6862""
","
","
","""event"",""trial"",""time""
""fullscreenenter"",""1"",""6862""
","
","","","-1","","","24","16219","6274","b","elianto","#f73b6a7A"," ","-1","0","-10","[3149.7999999523163]","1","2","","","16219","96","6","3","lose","go","0"
"pit-trial","215","1376677","0.0-101.0","battery-v0.2","","""event"",""trial"",""time""
""fullscreenenter"",""1"",""6862""
","
","
","""event"",""trial"",""time""
""fullscreenenter"",""1"",""6862""
","
","","","735.7999999523163","","","24","16219","6274","b","elianto","#f73b6a7A"," "," ","1","-10","[1587.2000000476837]","1","2","","","16219","97","6","3","lose","go","1"
"pit-trial","216","1380302","0.0-102.0","battery-v0.2","","""event"",""trial"",""time""
""fullscreenenter"",""1"",""6862""
","
","
","""event"",""trial"",""time""
""fullscreenenter"",""1"",""6862""
","
","","","770","","","24","16219","6274","t","elianto","#f73b6a7A","-1"," ","0","-10","[1620.0999999046326]","1","2","","","16219","98","7","4","lose","no-go","0"
"pit-trial","217","1383852","0.0-103.0","battery-v0.2","","""event"",""trial"",""time""
""fullscreenenter"",""1"",""6862""
","
","
","""event"",""trial"",""time""
""fullscreenenter"",""1"",""6862""
","
","","","693.8999998569489","","","24","16219","6274","c","elianto","#3366ff99","-1"," ","0","0","[1545.7999999523163]","1","2","","","16219","99","5","2","win","no-go","0"
"pit-trial","218","1387815","0.0-104.0","battery-v0.2","","""event"",""trial"",""time""
""fullscreenenter"",""1"",""6862""
","
","
","""event"",""trial"",""time""
""fullscreenenter"",""1"",""6862""
","
","","","1107.2000000476837","","","24","16219","6274","f","elianto","#3366ff99"," "," ","1","0","[1958.1000001430511]","1","2","","","16219","100","8","1","win","go","1"
"pit-trial","219","1391634","0.0-105.0","battery-v0.2","","""event"",""trial"",""time""
""fullscreenenter"",""1"",""6862""
","
","
","""event"",""trial"",""time""
""fullscreenenter"",""1"",""6862""
","
","","","964.0999999046326","","","24","16219","6274","t","elianto","#f73b6a7A","-1"," ","0","-10","[1814.3000001907349]","1","2","","","16219","101","7","4","lose","no-go","0"
"pit-trial","220","1395687","0.0-106.0","battery-v0.2","","""event"",""trial"",""time""
""fullscreenenter"",""1"",""6862""
","
","
","""event"",""trial"",""time""
""fullscreenenter"",""1"",""6862""
","
","","","1197","","","24","16219","6274","f","elianto","#3366ff99"," "," ","1","+10","[2048.199999809265]","1","2","","","16219","102","8","1","win","go","0"
"pit-trial","221","1399506","0.0-107.0","battery-v0.2","","""event"",""trial"",""time""
""fullscreenenter"",""1"",""6862""
","
","
","""event"",""trial"",""time""
""fullscreenenter"",""1"",""6862""
","
","","","963.5","","","24","16219","6274","n","elianto","#3366ff99"," "," ","1","+10","[1814.7999999523163]","1","2","","","16219","103","9","1","win","go","0"
"pit-trial","222","1403723","0.0-108.0","battery-v0.2","","""event"",""trial"",""time""
""fullscreenenter"",""1"",""6862""
","
","
","""event"",""trial"",""time""
""fullscreenenter"",""1"",""6862""
","
","","","1361","","","24","16219","6274","c","elianto","#3366ff99","-1"," ","0","+10","[2212.5]","1","2","","","16219","104","5","2","win","no-go","1"
"pit-trial","223","1407724","0.0-109.0","battery-v0.2","","""event"",""trial"",""time""
""fullscreenenter"",""1"",""6862""
","
","
","""event"",""trial"",""time""
""fullscreenenter"",""1"",""6862""
","
","","","1144.0999999046326","","","24","16219","6274","z","elianto","#3366ff99"," "," ","1","+10","[1995.2999999523163]","1","2","","","16219","105","4","1","win","go","0"
"pit-trial","224","1412232","0.0-110.0","battery-v0.2","","""event"",""trial"",""time""
""fullscreenenter"",""1"",""6862""
","
","
","""event"",""trial"",""time""
""fullscreenenter"",""1"",""6862""
","
","","","1652.7000000476837","","","24","16219","6274","n","elianto","#3366ff99"," "," ","1","+10","[2503.7000000476837]","1","2","","","16219","106","9","1","win","go","0"
"pit-trial","225","1416229","0.0-111.0","battery-v0.2","","""event"",""trial"",""time""
""fullscreenenter"",""1"",""6862""
","
","
","""event"",""trial"",""time""
""fullscreenenter"",""1"",""6862""
","
","","","1141.0999999046326","","","24","16219","6274","b","elianto","#f73b6a7A"," "," ","1","-10","[1991.5999999046326]","1","2","","","16219","107","6","3","lose","go","1"
"pit-trial","226","1419812","0.0-112.0","battery-v0.2","","""event"",""trial"",""time""
""fullscreenenter"",""1"",""6862""
","
","
","""event"",""trial"",""time""
""fullscreenenter"",""1"",""6862""
","
","","","727.7999999523163","","","24","16219","6274","f","elianto","#3366ff99"," "," ","1","+10","[1578.4000000953674]","1","2","","","16219","108","8","1","win","go","0"
"pit-trial","227","1424668","0.0-113.0","battery-v0.2","","""event"",""trial"",""time""
""fullscreenenter"",""1"",""6862""
","
","
","""event"",""trial"",""time""
""fullscreenenter"",""1"",""6862""
","
","","","-1","","","24","16219","6274","b","elianto","#f73b6a7A"," ","-1","0","-10","[]","0","2","","","16219","109","6","3","lose","go","0"
"pit-trial","228","1428303","0.0-114.0","battery-v0.2","","""event"",""trial"",""time""
""fullscreenenter"",""1"",""6862""
","
","
","""event"",""trial"",""time""
""fullscreenenter"",""1"",""6862""
","
","","","779.5999999046326","","","24","16219","6274","f","elianto","#3366ff99"," "," ","1","+10","[1630.8000001907349]","1","2","","","16219","110","8","1","win","go","0"
"pit-trial","229","1432050","0.0-115.0","battery-v0.2","","""event"",""trial"",""time""
""fullscreenenter"",""1"",""6862""
","
","
","""event"",""trial"",""time""
""fullscreenenter"",""1"",""6862""
","
","","","889.5","","","24","16219","6274","n","elianto","#3366ff99"," "," ","1","+10","[1741.3000001907349]","1","2","","","16219","111","9","1","win","go","0"
"pit-trial","230","1436157","0.0-116.0","battery-v0.2","","""event"",""trial"",""time""
""fullscreenenter"",""1"",""6862""
","
","
","""event"",""trial"",""time""
""fullscreenenter"",""1"",""6862""
","
","","","1251.5999999046326","","","24","16219","6274","c","elianto","#3366ff99","-1"," ","0","0","[2102.2000000476837]","1","2","","","16219","112","5","2","win","no-go","0"
"pit-trial","231","1439775","0.0-117.0","battery-v0.2","","""event"",""trial"",""time""
""fullscreenenter"",""1"",""6862""
","
","
","""event"",""trial"",""time""
""fullscreenenter"",""1"",""6862""
","
","","","762","","","24","16219","6274","c","elianto","#3366ff99","-1"," ","0","0","[1613.1000001430511]","1","2","","","16219","113","5","2","win","no-go","0"
"pit-trial","232","1443591","0.0-118.0","battery-v0.2","","""event"",""trial"",""time""
""fullscreenenter"",""1"",""6862""
","
","
","""event"",""trial"",""time""
""fullscreenenter"",""1"",""6862""
","
","","","960.9000000953674","","","24","16219","6274","f","elianto","#3366ff99"," "," ","1","+10","[1812.2000000476837]","1","2","","","16219","114","8","1","win","go","0"
"pit-trial","233","1447296","0.0-119.0","battery-v0.2","","""event"",""trial"",""time""
""fullscreenenter"",""1"",""6862""
","
","
","""event"",""trial"",""time""
""fullscreenenter"",""1"",""6862""
","
","","","848.8999998569489","","","24","16219","6274","n","elianto","#3366ff99"," "," ","1","+10","[1700.2000000476837]","1","2","","","16219","115","9","1","win","go","0"
"pit-trial","234","1451568","0.0-120.0","battery-v0.2","","""event"",""trial"",""time""
""fullscreenenter"",""1"",""6862""
","
","
","""event"",""trial"",""time""
""fullscreenenter"",""1"",""6862""
","
","","","1416.1999998092651","","","24","16219","6274","b","elianto","#f73b6a7A"," "," ","1","0","[2267.2000000476837]","1","2","","","16219","116","6","3","lose","go","0"
"pit-trial","235","1455400","0.0-121.0","battery-v0.2","","""event"",""trial"",""time""
""fullscreenenter"",""1"",""6862""
","
","
","""event"",""trial"",""time""
""fullscreenenter"",""1"",""6862""
","
","","","976.1000001430511","","","24","16219","6274","n","elianto","#3366ff99"," "," ","1","+10","[1827.3000001907349]","1","2","","","16219","117","9","1","win","go","0"
"pit-trial","236","1459349","0.0-122.0","battery-v0.2","","""event"",""trial"",""time""
""fullscreenenter"",""1"",""6862""
","
","
","""event"",""trial"",""time""
""fullscreenenter"",""1"",""6862""
","
","","","1092.7999999523163","","","24","16219","6274","b","elianto","#f73b6a7A"," "," ","1","0","[1943.9000000953674]","1","2","","","16219","118","6","3","lose","go","0"
"pit-trial","237","1463411","0.0-123.0","battery-v0.2","","""event"",""trial"",""time""
""fullscreenenter"",""1"",""6862""
","
","
","""event"",""trial"",""time""
""fullscreenenter"",""1"",""6862""
","
","","","1207","","","24","16219","6274","f","elianto","#3366ff99"," "," ","1","+10","[2058]","1","2","","","16219","119","8","1","win","go","0"
"pit-trial","238","1467767","0.0-124.0","battery-v0.2","","""event"",""trial"",""time""
""fullscreenenter"",""1"",""6862""
","
","
","""event"",""trial"",""time""
""fullscreenenter"",""1"",""6862""
","
","","","1500.7000000476837","","","24","16219","6274","c","elianto","#3366ff99","-1"," ","0","0","[2350.7000000476837]","1","2","","","16219","120","5","2","win","no-go","0"
"pit-trial","239","1471562","0.0-125.0","battery-v0.2","","""event"",""trial"",""time""
""fullscreenenter"",""1"",""6862""
","
","
","""event"",""trial"",""time""
""fullscreenenter"",""1"",""6862""
","
","","","939.2000000476837","","","24","16219","6274","b","elianto","#f73b6a7A"," "," ","1","-10","[1789.8999998569489]","1","2","","","16219","121","6","3","lose","go","1"
"pit-trial","240","1476419","0.0-126.0","battery-v0.2","","""event"",""trial"",""time""
""fullscreenenter"",""1"",""6862""
","
","
","""event"",""trial"",""time""
""fullscreenenter"",""1"",""6862""
","
","","","-1","","","24","16219","6274","t","elianto","#f73b6a7A","-1","-1","1","0","[]","0","2","","","16219","122","7","4","lose","no-go","0"
"pit-trial","241","1480405","0.0-127.0","battery-v0.2","","""event"",""trial"",""time""
""fullscreenenter"",""1"",""6862""
","
","
","""event"",""trial"",""time""
""fullscreenenter"",""1"",""6862""
","
","","","1131.7999999523163","","","24","16219","6274","n","elianto","#3366ff99"," "," ","1","0","[1982.4000000953674]","1","2","","","16219","123","9","1","win","go","1"
"pit-trial","242","1484170","0.0-128.0","battery-v0.2","","""event"",""trial"",""time""
""fullscreenenter"",""1"",""6862""
","
","
","""event"",""trial"",""time""
""fullscreenenter"",""1"",""6862""
","
","","","907.3000001907349","","","24","16219","6274","f","elianto","#3366ff99"," "," ","1","+10","[1758.9000000953674]","1","2","","","16219","124","8","1","win","go","0"
"pit-trial","243","1488284","0.0-129.0","battery-v0.2","","""event"",""trial"",""time""
""fullscreenenter"",""1"",""6862""
","
","
","""event"",""trial"",""time""
""fullscreenenter"",""1"",""6862""
","
","","","1258.2000000476837","","","24","16219","6274","b","elianto","#f73b6a7A"," "," ","1","0","[2110]","1","2","","","16219","125","6","3","lose","go","0"
"pit-trial","244","1492477","0.0-130.0","battery-v0.2","","""event"",""trial"",""time""
""fullscreenenter"",""1"",""6862""
","
","
","""event"",""trial"",""time""
""fullscreenenter"",""1"",""6862""
","
","","","1336.5","","","24","16219","6274","n","elianto","#3366ff99"," "," ","1","+10","[2187.7999999523163]","1","2","","","16219","126","9","1","win","go","0"
"pit-trial","245","1496071","0.0-131.0","battery-v0.2","","""event"",""trial"",""time""
""fullscreenenter"",""1"",""6862""
","
","
","""event"",""trial"",""time""
""fullscreenenter"",""1"",""6862""
","
","","","738.7999999523163","","","24","16219","6274","f","elianto","#3366ff99"," "," ","1","0","[1589.2000000476837]","1","2","","","16219","127","8","1","win","go","1"
"pit-trial","246","1500928","0.0-132.0","battery-v0.2","","""event"",""trial"",""time""
""fullscreenenter"",""1"",""6862""
","
","
","""event"",""trial"",""time""
""fullscreenenter"",""1"",""6862""
","
","","","-1","","","24","16219","6274","t","elianto","#f73b6a7A","-1","-1","1","-10","[]","0","2","","","16219","128","7","4","lose","no-go","1"
"pit-trial","247","1504517","0.0-133.0","battery-v0.2","","""event"",""trial"",""time""
""fullscreenenter"",""1"",""6862""
","
","
","""event"",""trial"",""time""
""fullscreenenter"",""1"",""6862""
","
","","","733","","","24","16219","6274","f","elianto","#3366ff99"," "," ","1","+10","[1583.7999999523163]","1","2","","","16219","129","8","1","win","go","0"
"pit-trial","248","1508203","0.0-134.0","battery-v0.2","","""event"",""trial"",""time""
""fullscreenenter"",""1"",""6862""
","
","
","""event"",""trial"",""time""
""fullscreenenter"",""1"",""6862""
","
","","","830.0999999046326","","","24","16219","6274","n","elianto","#3366ff99"," "," ","1","+10","[1681.3999998569489]","1","2","","","16219","130","9","1","win","go","0"
"pit-trial","249","1512341","0.0-135.0","battery-v0.2","","""event"",""trial"",""time""
""fullscreenenter"",""1"",""6862""
","
","
","""event"",""trial"",""time""
""fullscreenenter"",""1"",""6862""
","
","","","1282.2000000476837","","","24","16219","6274","b","elianto","#f73b6a7A"," "," ","1","-10","[2133.7000000476837]","1","2","","","16219","131","6","3","lose","go","1"
"pit-trial","250","1517196","0.0-136.0","battery-v0.2","","""event"",""trial"",""time""
""fullscreenenter"",""1"",""6862""
","
","
","""event"",""trial"",""time""
""fullscreenenter"",""1"",""6862""
","
","","","-1","","","24","16219","6274","t","elianto","#f73b6a7A","-1","-1","1","0","[]","0","2","","","16219","132","7","4","lose","no-go","0"
"pit-trial","251","1521096","0.0-137.0","battery-v0.2","","""event"",""trial"",""time""
""fullscreenenter"",""1"",""6862""
","
","
","""event"",""trial"",""time""
""fullscreenenter"",""1"",""6862""
","
","","","1043.0999999046326","","","24","16219","6274","n","elianto","#3366ff99"," "," ","1","+10","[1893.7000000476837]","1","2","","","16219","133","9","1","win","go","0"
"pit-trial","252","1525124","0.0-138.0","battery-v0.2","","""event"",""trial"",""time""
""fullscreenenter"",""1"",""6862""
","
","
","""event"",""trial"",""time""
""fullscreenenter"",""1"",""6862""
","
","","","1173.5","","","24","16219","6274","f","elianto","#3366ff99"," "," ","1","+10","[2023.9000000953674]","1","2","","","16219","134","8","1","win","go","0"
"pit-trial","253","1529980","0.0-139.0","battery-v0.2","","""event"",""trial"",""time""
""fullscreenenter"",""1"",""6862""
","
","
","""event"",""trial"",""time""
""fullscreenenter"",""1"",""6862""
","
","","","-1","","","24","16219","6274","b","elianto","#f73b6a7A"," ","-1","0","-10","[]","0","2","","","16219","135","6","3","lose","go","0"
"pit-trial","254","1534836","0.0-140.0","battery-v0.2","","""event"",""trial"",""time""
""fullscreenenter"",""1"",""6862""
","
","
","""event"",""trial"",""time""
""fullscreenenter"",""1"",""6862""
","
","","","-1","","","24","16219","6274","t","elianto","#f73b6a7A","-1","-1","1","0","[]","0","2","","","16219","136","7","4","lose","no-go","0"
"pit-trial","255","1538643","0.0-141.0","battery-v0.2","","""event"",""trial"",""time""
""fullscreenenter"",""1"",""6862""
","
","
","""event"",""trial"",""time""
""fullscreenenter"",""1"",""6862""
","
","","","950.7999999523163","","","24","16219","6274","n","elianto","#3366ff99"," "," ","1","+10","[1801.5]","1","2","","","16219","137","9","1","win","go","0"
"pit-trial","256","1542494","0.0-142.0","battery-v0.2","","""event"",""trial"",""time""
""fullscreenenter"",""1"",""6862""
","
","
","""event"",""trial"",""time""
""fullscreenenter"",""1"",""6862""
","
","","","996.4000000953674","","","24","16219","6274","f","elianto","#3366ff99"," "," ","1","0","[1846.8999998569489]","1","2","","","16219","138","8","1","win","go","1"
"pit-trial","257","1547351","0.0-143.0","battery-v0.2","","""event"",""trial"",""time""
""fullscreenenter"",""1"",""6862""
","
","
","""event"",""trial"",""time""
""fullscreenenter"",""1"",""6862""
","
","","","-1","","","24","16219","6274","b","elianto","#f73b6a7A"," ","-1","0","-10","[]","0","2","","","16219","139","6","3","lose","go","0"
"pit-trial","258","1552208","0.0-144.0","battery-v0.2","","""event"",""trial"",""time""
""fullscreenenter"",""1"",""6862""
","
","
","""event"",""trial"",""time""
""fullscreenenter"",""1"",""6862""
","
","","","-1","","","24","16219","6274","t","elianto","#f73b6a7A","-1","-1","1","0","[]","0","2","","","16219","140","7","4","lose","no-go","0"
"pit-instructions","259","1651841","0.0-145.0","battery-v0.2","","""event"",""trial"",""time""
""fullscreenenter"",""1"",""6862""
","
","
","""event"",""trial"",""time""
""fullscreenenter"",""1"",""6862""
","
","","[{""page_index"":0,""viewing_time"":91417.20000004768},{""page_index"":1,""viewing_time"":8217}]","99634.70000004768","","","","","","","","","","","","","","","","","","","","","","","",""
"pit-trial","260","1655843","0.0-146.0","battery-v0.2","","""event"",""trial"",""time""
""fullscreenenter"",""1"",""6862""
","
","
","""event"",""trial"",""time""
""fullscreenenter"",""1"",""6862""
","
","","","1143.2999999523163","","","24","16219","6274","a","elianto","#f73b6a7A","-1"," ","0","0","[1994.5999999046326]","1","3","","","16219","141","2","4","lose","no-go","1"
"pit-trial","261","1659832","0.0-147.0","battery-v0.2","","""event"",""trial"",""time""
""fullscreenenter"",""1"",""6862""
","
","
","""event"",""trial"",""time""
""fullscreenenter"",""1"",""6862""
","
","","","1133.9000000953674","","","24","16219","6274","u","elianto","#f73b6a7A","-1"," ","0","-10","[1984.5]","1","3","","","16219","142","0","4","lose","no-go","0"
"pit-trial","262","1663422","0.0-148.0","battery-v0.2","","""event"",""trial"",""time""
""fullscreenenter"",""1"",""6862""
","
","
","""event"",""trial"",""time""
""fullscreenenter"",""1"",""6862""
","
","","","733.9000000953674","","","24","16219","6274","g","elianto","#f73b6a7A"," "," ","1","0","[1585]","1","3","","","16219","143","3","3","lose","go","0"
"pit-trial","263","1667400","0.0-149.0","battery-v0.2","","""event"",""trial"",""time""
""fullscreenenter"",""1"",""6862""
","
","
","""event"",""trial"",""time""
""fullscreenenter"",""1"",""6862""
","
","","","1122.7999999523163","","","24","16219","6274","l","elianto","#3366ff99"," "," ","1","+10","[1973.2000000476837]","1","3","","","16219","144","1","1","win","go","0"
"pit-trial","264","1671004","0.0-150.0","battery-v0.2","","""event"",""trial"",""time""
""fullscreenenter"",""1"",""6862""
","
","
","""event"",""trial"",""time""
""fullscreenenter"",""1"",""6862""
","
","","","748.8000001907349","","","24","16219","6274","l","elianto","#3366ff99"," "," ","1","+10","[1599.8000001907349]","1","3","","","16219","145","1","1","win","go","0"
"pit-trial","265","1674809","0.0-151.0","battery-v0.2","","""event"",""trial"",""time""
""fullscreenenter"",""1"",""6862""
","
","
","""event"",""trial"",""time""
""fullscreenenter"",""1"",""6862""
","
","","","948.5999999046326","","","24","16219","6274","g","elianto","#f73b6a7A"," "," ","1","0","[1799.9000000953674]","1","3","","","16219","146","3","3","lose","go","0"
