"trial_type","trial_index","time_elapsed","internal_node_id","task_version","subject_id","interactions","blur_events","focus_events","fullscreenenter_events","fullscreenexit_events","success","view_history","rt","responses","num_errors","age","subject","participantId","rune","rune_set","hex","correct","choice","accuracy","outcome","keys","total_keys","block","practice","value","sub","trial","stimulus","robot","valence","action","sham"
"pavlovia","0","10","0.0-0.0","battery-v0.2","","""event"",""trial"",""time""
""fullscreenenter"",""1"",""3178""
","
","
","""event"",""trial"",""time""
""fullscreenenter"",""1"",""3178""
","
","","","","","","","","","","","","","","","","","","","","","","","","","","",""
"fullscreen","1","4145","0.0-1.0","battery-v0.2","","""event"",""trial"",""time""
""fullscreenenter"",""1"",""3178""
","
","
","""event"",""trial"",""time""
""fullscreenenter"",""1"",""3178""
","
","true","","","","","","","","","","","","","","","","","","","","","","","","","",""
"pit-instructions","2","8693","0.0-2.0-0.0","battery-v0.2","","""event"",""trial"",""time""
""fullscreenenter"",""1"",""3178""
","
","
","""event"",""trial"",""time""
""fullscreenenter"",""1"",""3178""
","
","","[{""page_index"":0,""viewing_time"":4542.89999999851}]","4543.29999999702","","","","","","","","","","","","","","","","","","","","","","","",""
"pit-comprehension","3","12660","0.0-2.0-1.0-0.0","battery-v0.2","","""event"",""trial"",""time""
""fullscreenenter"",""1"",""3178""
","
","
","""event"",""trial"",""time""
""fullscreenenter"",""1"",""3178""
","
","","","3964.89999999851","[""shark""]","0","18","13365","5820","","","","","","","","","","","","","","","","","","",""
"pit-instructions","4","13875","0.0-2.0-1.0-1.0","battery-v0.2","","""event"",""trial"",""time""
""fullscreenenter"",""1"",""3178""
","
","
","""event"",""trial"",""time""
""fullscreenenter"",""1"",""3178""
","
","","[{""page_index"":0,""viewing_time"":1210.7000000029802}]","1211","","","","","","","","","","","","","","","","","","","","","","","",""
"pit-comprehension","5","16009","0.0-2.0-2.0-0.0","battery-v0.2","","""event"",""trial"",""time""
""fullscreenenter"",""1"",""3178""
","
","
","""event"",""trial"",""time""
""fullscreenenter"",""1"",""3178""
","
","","","2131.7999999970198","[""tiger""]","0","18","13365","5820","","","","","","","","","","","","","","","","","","",""
"pit-instructions","6","16558","0.0-2.0-2.0-1.0","battery-v0.2","","""event"",""trial"",""time""
""fullscreenenter"",""1"",""3178""
","
","
","""event"",""trial"",""time""
""fullscreenenter"",""1"",""3178""
","
","","[{""page_index"":0,""viewing_time"":546.8999999985099}]","547.1999999955297","","","","","","","","","","","","","","","","","","","","","","","",""
"pit-instructions","7","114064","0.0-2.0-3.0","battery-v0.2","","""event"",""trial"",""time""
""fullscreenenter"",""1"",""3178""
","
","
","""event"",""trial"",""time""
""fullscreenenter"",""1"",""3178""
","
","","[{""page_index"":0,""viewing_time"":8381.69999999553},{""page_index"":1,""viewing_time"":6916.80000000447},{""page_index"":2,""viewing_time"":6134.60000000149},{""page_index"":3,""viewing_time"":6549.0999999940395},{""page_index"":4,""viewing_time"":5385.5},{""page_index"":5,""viewing_time"":6398.80000000447},{""page_index"":6,""viewing_time"":6733.29999999702},{""page_index"":7,""viewing_time"":6766.39999999851},{""page_index"":8,""viewing_time"":7100.5},{""page_index"":9,""viewing_time"":11432.10000000149},{""page_index"":10,""viewing_time"":7083.80000000447},{""page_index"":11,""viewing_time"":6883.0999999940395},{""page_index"":12,""viewing_time"":6763.10000000149},{""page_index"":13,""viewing_time"":4976.89999999851}]","97506.19999999553","","","","","","","","","","","","","","","","","","","","","","","",""
"pit-trial","8","117032","0.0-2.0-4.0-0.0","battery-v0.2","","""event"",""trial"",""time""
""fullscreenenter"",""1"",""3178""
","
","
","""event"",""trial"",""time""
""fullscreenenter"",""1"",""3178""
","
","","","111.19999999552965","","","18","13365","5820","&#9784;","elianto","#FFFFF080"," "," ","1","&#10004","[962.6999999955297]","1","0","0","","","","","","","",""
"pit-trial","9","120688","0.0-2.0-4.1-0.1","battery-v0.2","","""event"",""trial"",""time""
""fullscreenenter"",""1"",""3178""
","
","
","""event"",""trial"",""time""
""fullscreenenter"",""1"",""3178""
","
","","","798.3000000044703","","","18","13365","5820","&#9784;","elianto","#FFFFF080"," "," ","1","&#10004","[775.7000000029802,1649.5]","2","0","0","","","","","","","",""
"pit-trial","10","124534","0.0-2.0-4.2-0.2","battery-v0.2","","""event"",""trial"",""time""
""fullscreenenter"",""1"",""3178""
","
","
","""event"",""trial"",""time""
""fullscreenenter"",""1"",""3178""
","
","","","989.0999999940395","","","18","13365","5820","&#9784;","elianto","#FFFFF080"," "," ","1","&#10004","[1840.5]","1","0","0","","","","","","","",""
"pit-trial","11","128171","0.0-2.0-4.3-0.3","battery-v0.2","","""event"",""trial"",""time""
""fullscreenenter"",""1"",""3178""
","
","
","""event"",""trial"",""time""
""fullscreenenter"",""1"",""3178""
","
","","","780.2000000029802","","","18","13365","5820","&#9784;","elianto","#FFFFF080"," "," ","1","&#10004","[1631.8000000044703]","1","0","0","","","","","","","",""
"pit-trial","12","131630","0.0-2.0-4.4-0.4","battery-v0.2","","""event"",""trial"",""time""
""fullscreenenter"",""1"",""3178""
","
","
","""event"",""trial"",""time""
""fullscreenenter"",""1"",""3178""
","
","","","600.3000000044703","","","18","13365","5820","&#9784;","elianto","#FFFFF080"," "," ","1","&#10004","[1452.1000000014901]","1","0","0","","","","","","","",""
"pit-instructions","13","153714","0.0-2.0-5.0","battery-v0.2","","""event"",""trial"",""time""
""fullscreenenter"",""1"",""3178""
","
","
","""event"",""trial"",""time""
""fullscreenenter"",""1"",""3178""
","
","","[{""page_index"":0,""viewing_time"":4890.5},{""page_index"":1,""viewing_time"":5400.69999999553},{""page_index"":2,""viewing_time"":5567.80000000447},{""page_index"":3,""viewing_time"":6220.79999999702}]","22080.09999999404","","","","","","","","","","","","","","","","","","","","","","","",""
"pit-trial","14","158569","0.0-2.0-6.0-0.0","battery-v0.2","","""event"",""trial"",""time""
""fullscreenenter"",""1"",""3178""
","
","
","""event"",""trial"",""time""
""fullscreenenter"",""1"",""3178""
","
","","","-1","","","18","13365","5820","&#9854;","elianto","#FFFFF080","-1","-1","1","&#10004","[]","0","0","1","","","","","","","",""
"pit-trial","15","163427","0.0-2.0-6.1-0.1","battery-v0.2","","""event"",""trial"",""time""
""fullscreenenter"",""1"",""3178""
","
","
","""event"",""trial"",""time""
""fullscreenenter"",""1"",""3178""
","
","","","-1","","","18","13365","5820","&#9854;","elianto","#FFFFF080","-1","-1","1","&#10004","[]","0","0","1","","","","","","","",""
"pit-trial","16","168285","0.0-2.0-6.2-0.2","battery-v0.2","","""event"",""trial"",""time""
""fullscreenenter"",""1"",""3178""
","
","
","""event"",""trial"",""time""
""fullscreenenter"",""1"",""3178""
","
","","","-1","","","18","13365","5820","&#9854;","elianto","#FFFFF080","-1","-1","1","&#10004","[]","0","0","1","","","","","","","",""
"pit-trial","17","173141","0.0-2.0-6.3-0.3","battery-v0.2","","""event"",""trial"",""time""
""fullscreenenter"",""1"",""3178""
","
","
","""event"",""trial"",""time""
""fullscreenenter"",""1"",""3178""
","
","","","-1","","","18","13365","5820","&#9854;","elianto","#FFFFF080","-1","-1","1","&#10004","[]","0","0","1","","","","","","","",""
"pit-trial","18","177994","0.0-2.0-6.4-0.4","battery-v0.2","","""event"",""trial"",""time""
""fullscreenenter"",""1"",""3178""
","
","
","""event"",""trial"",""time""
""fullscreenenter"",""1"",""3178""
","
","","","-1","","","18","13365","5820","&#9854;","elianto","#FFFFF080","-1","-1","1","&#10004","[]","0","0","1","","","","","","","",""
"pit-instructions","19","302303","0.0-2.0-7.0","battery-v0.2","","""event"",""trial"",""time""
""fullscreenenter"",""1"",""3178""
","
","
","""event"",""trial"",""time""
""fullscreenenter"",""1"",""3178""
","
","","[{""page_index"":0,""viewing_time"":5591.79999999702},{""page_index"":1,""viewing_time"":7768.39999999851},{""page_index"":2,""viewing_time"":6016.60000000149},{""page_index"":3,""viewing_time"":7183.89999999851},{""page_index"":4,""viewing_time"":6465.89999999851},{""page_index"":5,""viewing_time"":5683.4000000059605},{""page_index"":6,""viewing_time"":6450.0999999940395},{""page_index"":7,""viewing_time"":8416.80000000447},{""page_index"":8,""viewing_time"":7066},{""page_index"":9,""viewing_time"":6216},{""page_index"":10,""viewing_time"":6668.5},{""page_index"":11,""viewing_time"":5582.69999999553},{""page_index"":12,""viewing_time"":7533.70000000298},{""page_index"":13,""viewing_time"":8032.89999999851},{""page_index"":14,""viewing_time"":8367.60000000149},{""page_index"":15,""viewing_time"":6817.39999999851},{""page_index"":16,""viewing_time"":7999.70000000298},{""page_index"":17,""viewing_time"":6416.29999999702}]","124279","","","","","","","","","","","","","","","","","","","","","","","",""
"pit-trial","20","306139","0.0-2.0-8.0-0.0","battery-v0.2","","""event"",""trial"",""time""
""fullscreenenter"",""1"",""3178""
","
","
","""event"",""trial"",""time""
""fullscreenenter"",""1"",""3178""
","
","","","980","","","18","13365","5820","&#9776;","elianto","#3366ff99"," "," ","1","+10","[1831.3999999985099]","1","0","1","","","","","","","",""
"pit-trial","21","309864","0.0-2.0-8.0-1.0","battery-v0.2","","""event"",""trial"",""time""
""fullscreenenter"",""1"",""3178""
","
","
","""event"",""trial"",""time""
""fullscreenenter"",""1"",""3178""
","
","","","869","","","18","13365","5820","&#9776;","elianto","#3366ff99"," "," ","1","+10","[1719.7999999970198]","1","0","1","","","","","","","",""
"pit-trial","22","313280","0.0-2.0-8.0-2.0","battery-v0.2","","""event"",""trial"",""time""
""fullscreenenter"",""1"",""3178""
","
","
","""event"",""trial"",""time""
""fullscreenenter"",""1"",""3178""
","
","","","559.6000000014901","","","18","13365","5820","&#9776;","elianto","#3366ff99"," "," ","1","+10","[1410.8000000044703]","1","0","1","","","","","","","",""
"pit-trial","23","316801","0.0-2.0-8.0-3.0","battery-v0.2","","""event"",""trial"",""time""
""fullscreenenter"",""1"",""3178""
","
","
","""event"",""trial"",""time""
""fullscreenenter"",""1"",""3178""
","
","","","665","","","18","13365","5820","&#9776;","elianto","#3366ff99"," "," ","1","0","[1516]","1","0","1","","","","","","","",""
"pit-trial","24","320215","0.0-2.0-8.0-4.0","battery-v0.2","","""event"",""trial"",""time""
""fullscreenenter"",""1"",""3178""
","
","
","""event"",""trial"",""time""
""fullscreenenter"",""1"",""3178""
","
","","","558.8000000044703","","","18","13365","5820","&#9776;","elianto","#3366ff99"," "," ","1","+10","[1409.4000000059605]","1","0","1","","","","","","","",""
"pit-trial","25","323584","0.0-2.0-8.1-0.1","battery-v0.2","","""event"",""trial"",""time""
""fullscreenenter"",""1"",""3178""
","
","
","""event"",""trial"",""time""
""fullscreenenter"",""1"",""3178""
","
","","","512.7999999970198","","","18","13365","5820","&#9776;","elianto","#3366ff99"," "," ","1","+10","[1364.3999999985099]","1","0","1","","","","","","","",""
"pit-trial","26","327018","0.0-2.0-8.1-1.1","battery-v0.2","","""event"",""trial"",""time""
""fullscreenenter"",""1"",""3178""
","
","
","""event"",""trial"",""time""
""fullscreenenter"",""1"",""3178""
","
","","","578.5","","","18","13365","5820","&#9776;","elianto","#3366ff99"," "," ","1","+10","[1430.3999999985099]","1","0","1","","","","","","","",""
"pit-trial","27","331443","0.0-2.0-8.1-2.1","battery-v0.2","","""event"",""trial"",""time""
""fullscreenenter"",""1"",""3178""
","
","
","""event"",""trial"",""time""
""fullscreenenter"",""1"",""3178""
","
","","","1570","","","18","13365","5820","&#9776;","elianto","#3366ff99"," "," ","1","+10","[2420.10000000149]","1","0","1","","","","","","","",""
"pit-trial","28","335803","0.0-2.0-8.1-3.1","battery-v0.2","","""event"",""trial"",""time""
""fullscreenenter"",""1"",""3178""
","
","
","""event"",""trial"",""time""
""fullscreenenter"",""1"",""3178""
","
","","","1503","","","18","13365","5820","&#9776;","elianto","#3366ff99"," "," ","1","0","[2354]","1","0","1","","","","","","","",""
"pit-trial","29","339882","0.0-2.0-8.1-4.1","battery-v0.2","","""event"",""trial"",""time""
""fullscreenenter"",""1"",""3178""
","
","
","""event"",""trial"",""time""
""fullscreenenter"",""1"",""3178""
","
","","","1222.6999999955297","","","18","13365","5820","&#9776;","elianto","#3366ff99"," "," ","1","+10","[2073.10000000149]","1","0","1","","","","","","","",""
"pit-trial","30","343249","0.0-2.0-8.2-0.2","battery-v0.2","","""event"",""trial"",""time""
""fullscreenenter"",""1"",""3178""
","
","
","""event"",""trial"",""time""
""fullscreenenter"",""1"",""3178""
","
","","","509.6000000014901","","","18","13365","5820","&#9776;","elianto","#3366ff99"," "," ","1","+10","[1360.6000000014901]","1","0","1","","","","","","","",""
"pit-trial","31","346791","0.0-2.0-8.2-1.2","battery-v0.2","","""event"",""trial"",""time""
""fullscreenenter"",""1"",""3178""
","
","
","""event"",""trial"",""time""
""fullscreenenter"",""1"",""3178""
","
","","","685.2999999970198","","","18","13365","5820","&#9776;","elianto","#3366ff99"," "," ","1","+10","[1536.1999999955297]","1","0","1","","","","","","","",""
"pit-trial","32","350300","0.0-2.0-8.2-2.2","battery-v0.2","","""event"",""trial"",""time""
""fullscreenenter"",""1"",""3178""
","
","
","""event"",""trial"",""time""
""fullscreenenter"",""1"",""3178""
","
","","","651.1000000014901","","","18","13365","5820","&#9776;","elianto","#3366ff99"," "," ","1","+10","[1502.6999999955297]","1","0","1","","","","","","","",""
"pit-trial","33","353603","0.0-2.0-8.2-3.2","battery-v0.2","","""event"",""trial"",""time""
""fullscreenenter"",""1"",""3178""
","
","
","""event"",""trial"",""time""
""fullscreenenter"",""1"",""3178""
","
","","","448.79999999701977","","","18","13365","5820","&#9776;","elianto","#3366ff99"," "," ","1","0","[1298.8000000044703]","1","0","1","","","","","","","",""
"pit-trial","34","357116","0.0-2.0-8.2-4.2","battery-v0.2","","""event"",""trial"",""time""
""fullscreenenter"",""1"",""3178""
","
","
","""event"",""trial"",""time""
""fullscreenenter"",""1"",""3178""
","
","","","658.2000000029802","","","18","13365","5820","&#9776;","elianto","#3366ff99"," "," ","1","+10","[1508.6999999955297]","1","0","1","","","","","","","",""
"call-function","35","357119","0.0-2.0-9.0","battery-v0.2","","""event"",""trial"",""time""
""fullscreenenter"",""1"",""3178""
","
","
","""event"",""trial"",""time""
""fullscreenenter"",""1"",""3178""
","
","","","","","","","","","","","","","","","","","","","","","","","","","","",""
"pit-instructions","36","397952","0.0-2.0-10.0","battery-v0.2","","""event"",""trial"",""time""
""fullscreenenter"",""1"",""3178""
","
","
","""event"",""trial"",""time""
""fullscreenenter"",""1"",""3178""
","
","","[{""page_index"":0,""viewing_time"":7113.30000000447},{""page_index"":1,""viewing_time"":7450.79999999702},{""page_index"":2,""viewing_time"":9100.20000000298},{""page_index"":3,""viewing_time"":8766.39999999851},{""page_index"":4,""viewing_time"":8400.89999999851}]","40832.40000000596","","","","","","","","","","","","","","","","","","","","","","","",""
"pit-trial","37","401330","0.0-2.0-11.0-0.0","battery-v0.2","","""event"",""trial"",""time""
""fullscreenenter"",""1"",""3178""
","
","
","""event"",""trial"",""time""
""fullscreenenter"",""1"",""3178""
","
","","","522.8999999985099","","","18","13365","5820","&#9761;","elianto","#3366ff99","-1"," ","0","0","[1373.1000000014901]","1","0","2","","","","","","","",""
"pit-trial","38","404628","0.0-2.0-11.0-1.0","battery-v0.2","","""event"",""trial"",""time""
""fullscreenenter"",""1"",""3178""
","
","
","""event"",""trial"",""time""
""fullscreenenter"",""1"",""3178""
","
","","","440.6000000014901","","","18","13365","5820","&#9761;","elianto","#3366ff99","-1"," ","0","0","[1292.6000000014901]","1","0","2","","","","","","","",""
"pit-trial","39","409486","0.0-2.0-11.0-2.0","battery-v0.2","","""event"",""trial"",""time""
""fullscreenenter"",""1"",""3178""
","
","
","""event"",""trial"",""time""
""fullscreenenter"",""1"",""3178""
","
","","","-1","","","18","13365","5820","&#9761;","elianto","#3366ff99","-1","-1","1","+10","[]","0","0","2","","","","","","","",""
"pit-trial","40","414344","0.0-2.0-11.0-3.0","battery-v0.2","","""event"",""trial"",""time""
""fullscreenenter"",""1"",""3178""
","
","
","""event"",""trial"",""time""
""fullscreenenter"",""1"",""3178""
","
","","","-1","","","18","13365","5820","&#9761;","elianto","#3366ff99","-1","-1","1","0","[]","0","0","2","","","","","","","",""
"pit-trial","41","419200","0.0-2.0-11.0-4.0","battery-v0.2","","""event"",""trial"",""time""
""fullscreenenter"",""1"",""3178""
","
","
","""event"",""trial"",""time""
""fullscreenenter"",""1"",""3178""
","
","","","-1","","","18","13365","5820","&#9761;","elianto","#3366ff99","-1","-1","1","+10","[]","0","0","2","","","","","","","",""
"pit-trial","42","424058","0.0-2.0-11.1-0.1","battery-v0.2","","""event"",""trial"",""time""
""fullscreenenter"",""1"",""3178""
","
","
","""event"",""trial"",""time""
""fullscreenenter"",""1"",""3178""
","
","","","-1","","","18","13365","5820","&#9761;","elianto","#3366ff99","-1","-1","1","+10","[]","0","0","2","","","","","","","",""
"pit-trial","43","428913","0.0-2.0-11.1-1.1","battery-v0.2","","""event"",""trial"",""time""
""fullscreenenter"",""1"",""3178""
","
","
","""event"",""trial"",""time""
""fullscreenenter"",""1"",""3178""
","
","","","-1","","","18","13365","5820","&#9761;","elianto","#3366ff99","-1","-1","1","+10","[]","0","0","2","","","","","","","",""
"pit-trial","44","433768","0.0-2.0-11.1-2.1","battery-v0.2","","""event"",""trial"",""time""
""fullscreenenter"",""1"",""3178""
","
","
","""event"",""trial"",""time""
""fullscreenenter"",""1"",""3178""
","
","","","-1","","","18","13365","5820","&#9761;","elianto","#3366ff99","-1","-1","1","+10","[]","0","0","2","","","","","","","",""
"pit-trial","45","437826","0.0-2.0-11.1-3.1","battery-v0.2","","""event"",""trial"",""time""
""fullscreenenter"",""1"",""3178""
","
","
","""event"",""trial"",""time""
""fullscreenenter"",""1"",""3178""
","
","","","1201.6000000014901","","","18","13365","5820","&#9761;","elianto","#3366ff99","-1"," ","0","+10","[2052.60000000149]","1","0","2","","","","","","","",""
"pit-trial","46","442682","0.0-2.0-11.1-4.1","battery-v0.2","","""event"",""trial"",""time""
""fullscreenenter"",""1"",""3178""
","
","
","""event"",""trial"",""time""
""fullscreenenter"",""1"",""3178""
","
","","","-1","","","18","13365","5820","&#9761;","elianto","#3366ff99","-1","-1","1","+10","[]","0","0","2","","","","","","","",""
"pit-trial","47","447539","0.0-2.0-11.2-0.2","battery-v0.2","","""event"",""trial"",""time""
""fullscreenenter"",""1"",""3178""
","
","
","""event"",""trial"",""time""
""fullscreenenter"",""1"",""3178""
","
","","","-1","","","18","13365","5820","&#9761;","elianto","#3366ff99","-1","-1","1","+10","[]","0","0","2","","","","","","","",""
"pit-trial","48","452394","0.0-2.0-11.2-1.2","battery-v0.2","","""event"",""trial"",""time""
""fullscreenenter"",""1"",""3178""
","
","
","""event"",""trial"",""time""
""fullscreenenter"",""1"",""3178""
","
","","","-1","","","18","13365","5820","&#9761;","elianto","#3366ff99","-1","-1","1","+10","[]","0","0","2","","","","","","","",""
"pit-trial","49","455745","0.0-2.0-11.2-2.2","battery-v0.2","","""event"",""trial"",""time""
""fullscreenenter"",""1"",""3178""
","
","
","""event"",""trial"",""time""
""fullscreenenter"",""1"",""3178""
","
","","","493.3999999985099","","","18","13365","5820","&#9761;","elianto","#3366ff99","-1"," ","0","0","[1345.1999999955297]","1","0","2","","","","","","","",""
"pit-trial","50","460602","0.0-2.0-11.2-3.2","battery-v0.2","","""event"",""trial"",""time""
""fullscreenenter"",""1"",""3178""
","
","
","""event"",""trial"",""time""
""fullscreenenter"",""1"",""3178""
","
","","","-1","","","18","13365","5820","&#9761;","elianto","#3366ff99","-1","-1","1","0","[]","0","0","2","","","","","","","",""
"pit-trial","51","465461","0.0-2.0-11.2-4.2","battery-v0.2","","""event"",""trial"",""time""
""fullscreenenter"",""1"",""3178""
","
","
","""event"",""trial"",""time""
""fullscreenenter"",""1"",""3178""
","
","","","-1","","","18","13365","5820","&#9761;","elianto","#3366ff99","-1","-1","1","+10","[]","0","0","2","","","","","","","",""
"pit-trial","52","470319","0.0-2.0-11.3-0.3","battery-v0.2","","""event"",""trial"",""time""
""fullscreenenter"",""1"",""3178""
","
","
","""event"",""trial"",""time""
""fullscreenenter"",""1"",""3178""
","
","","","-1","","","18","13365","5820","&#9761;","elianto","#3366ff99","-1","-1","1","+10","[]","0","0","2","","","","","","","",""
"pit-trial","53","475177","0.0-2.0-11.3-1.3","battery-v0.2","","""event"",""trial"",""time""
""fullscreenenter"",""1"",""3178""
","
","
","""event"",""trial"",""time""
""fullscreenenter"",""1"",""3178""
","
","","","-1","","","18","13365","5820","&#9761;","elianto","#3366ff99","-1","-1","1","+10","[]","0","0","2","","","","","","","",""
"pit-trial","54","480034","0.0-2.0-11.3-2.3","battery-v0.2","","""event"",""trial"",""time""
""fullscreenenter"",""1"",""3178""
","
","
","""event"",""trial"",""time""
""fullscreenenter"",""1"",""3178""
","
","","","-1","","","18","13365","5820","&#9761;","elianto","#3366ff99","-1","-1","1","+10","[]","0","0","2","","","","","","","",""
"pit-trial","55","483626","0.0-2.0-11.3-3.3","battery-v0.2","","""event"",""trial"",""time""
""fullscreenenter"",""1"",""3178""
","
","
","""event"",""trial"",""time""
""fullscreenenter"",""1"",""3178""
","
","","","736.3000000044703","","","18","13365","5820","&#9761;","elianto","#3366ff99","-1"," ","0","+10","[1586.7000000029802]","1","0","2","","","","","","","",""
"pit-trial","56","488483","0.0-2.0-11.3-4.3","battery-v0.2","","""event"",""trial"",""time""
""fullscreenenter"",""1"",""3178""
","
","
","""event"",""trial"",""time""
""fullscreenenter"",""1"",""3178""
","
","","","-1","","","18","13365","5820","&#9761;","elianto","#3366ff99","-1","-1","1","+10","[]","0","0","2","","","","","","","",""
"call-function","57","488486","0.0-2.0-12.0","battery-v0.2","","""event"",""trial"",""time""
""fullscreenenter"",""1"",""3178""
","
","
","""event"",""trial"",""time""
""fullscreenenter"",""1"",""3178""
","
","","","","","","","","","","","","","","","","","","","","","","","","","","",""
"pit-instructions","58","521484","0.0-2.0-13.0","battery-v0.2","","""event"",""trial"",""time""
""fullscreenenter"",""1"",""3178""
","
","
","""event"",""trial"",""time""
""fullscreenenter"",""1"",""3178""
","
","","[{""page_index"":0,""viewing_time"":4913.60000000149},{""page_index"":1,""viewing_time"":7401.39999999851},{""page_index"":2,""viewing_time"":4149.70000000298},{""page_index"":3,""viewing_time"":10800.59999999404},{""page_index"":4,""viewing_time"":5731.80000000447}]","32997.39999999851","","","","","","","","","","","","","","","","","","","","","","","",""
"pit-trial","59","524552","0.0-2.0-14.0-0.0","battery-v0.2","","""event"",""trial"",""time""
""fullscreenenter"",""1"",""3178""
","
","
","""event"",""trial"",""time""
""fullscreenenter"",""1"",""3178""
","
","","","212.89999999850988","","","18","13365","5820","&#9826;","elianto","#f73b6a7A","-1"," ","0","-10","[1063.8999999985099]","1","0","3","","","","","","","",""
"pit-trial","60","529409","0.0-2.0-14.0-1.0","battery-v0.2","","""event"",""trial"",""time""
""fullscreenenter"",""1"",""3178""
","
","
","""event"",""trial"",""time""
""fullscreenenter"",""1"",""3178""
","
","","","-1","","","18","13365","5820","&#9826;","elianto","#f73b6a7A","-1","-1","1","0","[]","0","0","3","","","","","","","",""
"pit-trial","61","534267","0.0-2.0-14.0-2.0","battery-v0.2","","""event"",""trial"",""time""
""fullscreenenter"",""1"",""3178""
","
","
","""event"",""trial"",""time""
""fullscreenenter"",""1"",""3178""
","
","","","-1","","","18","13365","5820","&#9826;","elianto","#f73b6a7A","-1","-1","1","0","[]","0","0","3","","","","","","","",""
"pit-trial","62","539124","0.0-2.0-14.0-3.0","battery-v0.2","","""event"",""trial"",""time""
""fullscreenenter"",""1"",""3178""
","
","
","""event"",""trial"",""time""
""fullscreenenter"",""1"",""3178""
","
","","","-1","","","18","13365","5820","&#9826;","elianto","#f73b6a7A","-1","-1","1","-10","[]","0","0","3","","","","","","","",""
"pit-trial","63","543981","0.0-2.0-14.0-4.0","battery-v0.2","","""event"",""trial"",""time""
""fullscreenenter"",""1"",""3178""
","
","
","""event"",""trial"",""time""
""fullscreenenter"",""1"",""3178""
","
","","","-1","","","18","13365","5820","&#9826;","elianto","#f73b6a7A","-1","-1","1","0","[]","0","0","3","","","","","","","",""
"pit-trial","64","548838","0.0-2.0-14.1-0.1","battery-v0.2","","""event"",""trial"",""time""
""fullscreenenter"",""1"",""3178""
","
","
","""event"",""trial"",""time""
""fullscreenenter"",""1"",""3178""
","
","","","-1","","","18","13365","5820","&#9826;","elianto","#f73b6a7A","-1","-1","1","0","[]","0","0","3","","","","","","","",""
"pit-trial","65","552105","0.0-2.0-14.1-1.1","battery-v0.2","","""event"",""trial"",""time""
""fullscreenenter"",""1"",""3178""
","
","
","""event"",""trial"",""time""
""fullscreenenter"",""1"",""3178""
","
","","","411.1000000014901","","","18","13365","5820","&#9826;","elianto","#f73b6a7A","-1"," ","0","-10","[1262.2000000029802]","1","0","3","","","","","","","",""
"pit-trial","66","555616","0.0-2.0-14.1-2.1","battery-v0.2","","""event"",""trial"",""time""
""fullscreenenter"",""1"",""3178""
","
","
","""event"",""trial"",""time""
""fullscreenenter"",""1"",""3178""
","
","","","656.5","","","18","13365","5820","&#9826;","elianto","#f73b6a7A","-1"," ","0","-10","[1507.1000000014901]","1","0","3","","","","","","","",""
"pit-trial","67","560472","0.0-2.0-14.1-3.1","battery-v0.2","","""event"",""trial"",""time""
""fullscreenenter"",""1"",""3178""
","
","
","""event"",""trial"",""time""
""fullscreenenter"",""1"",""3178""
","
","","","-1","","","18","13365","5820","&#9826;","elianto","#f73b6a7A","-1","-1","1","-10","[]","0","0","3","","","","","","","",""
"pit-trial","68","565330","0.0-2.0-14.1-4.1","battery-v0.2","","""event"",""trial"",""time""
""fullscreenenter"",""1"",""3178""
","
","
","""event"",""trial"",""time""
""fullscreenenter"",""1"",""3178""
","
","","","-1","","","18","13365","5820","&#9826;","elianto","#f73b6a7A","-1","-1","1","0","[]","0","0","3","","","","","","","",""
"pit-trial","69","570186","0.0-2.0-14.2-0.2","battery-v0.2","","""event"",""trial"",""time""
""fullscreenenter"",""1"",""3178""
","
","
","""event"",""trial"",""time""
""fullscreenenter"",""1"",""3178""
","
","","","-1","","","18","13365","5820","&#9826;","elianto","#f73b6a7A","-1","-1","1","0","[]","0","0","3","","","","","","","",""
"pit-trial","70","575042","0.0-2.0-14.2-1.2","battery-v0.2","","""event"",""trial"",""time""
""fullscreenenter"",""1"",""3178""
","
","
","""event"",""trial"",""time""
""fullscreenenter"",""1"",""3178""
","
","","","-1","","","18","13365","5820","&#9826;","elianto","#f73b6a7A","-1","-1","1","0","[]","0","0","3","","","","","","","",""
"pit-trial","71","579899","0.0-2.0-14.2-2.2","battery-v0.2","","""event"",""trial"",""time""
""fullscreenenter"",""1"",""3178""
","
","
","""event"",""trial"",""time""
""fullscreenenter"",""1"",""3178""
","
","","","-1","","","18","13365","5820","&#9826;","elianto","#f73b6a7A","-1","-1","1","0","[]","0","0","3","","","","","","","",""
"pit-trial","72","583381","0.0-2.0-14.2-3.2","battery-v0.2","","""event"",""trial"",""time""
""fullscreenenter"",""1"",""3178""
","
","
","""event"",""trial"",""time""
""fullscreenenter"",""1"",""3178""
","
","","","625.1999999955297","","","18","13365","5820","&#9826;","elianto","#f73b6a7A","-1"," ","0","0","[1475.8000000044703]","1","0","3","","","","","","","",""
"pit-trial","73","588237","0.0-2.0-14.2-4.2","battery-v0.2","","""event"",""trial"",""time""
""fullscreenenter"",""1"",""3178""
","
","
","""event"",""trial"",""time""
""fullscreenenter"",""1"",""3178""
","
","","","-1","","","18","13365","5820","&#9826;","elianto","#f73b6a7A","-1","-1","1","0","[]","0","0","3","","","","","","","",""
"pit-trial","74","593096","0.0-2.0-14.3-0.3","battery-v0.2","","""event"",""trial"",""time""
""fullscreenenter"",""1"",""3178""
","
","
","""event"",""trial"",""time""
""fullscreenenter"",""1"",""3178""
","
","","","-1","","","18","13365","5820","&#9826;","elianto","#f73b6a7A","-1","-1","1","0","[]","0","0","3","","","","","","","",""
"pit-trial","75","597953","0.0-2.0-14.3-1.3","battery-v0.2","","""event"",""trial"",""time""
""fullscreenenter"",""1"",""3178""
","
","
","""event"",""trial"",""time""
""fullscreenenter"",""1"",""3178""
","
","","","-1","","","18","13365","5820","&#9826;","elianto","#f73b6a7A","-1","-1","1","0","[]","0","0","3","","","","","","","",""
"pit-trial","76","602808","0.0-2.0-14.3-2.3","battery-v0.2","","""event"",""trial"",""time""
""fullscreenenter"",""1"",""3178""
","
","
","""event"",""trial"",""time""
""fullscreenenter"",""1"",""3178""
","
","","","-1","","","18","13365","5820","&#9826;","elianto","#f73b6a7A","-1","-1","1","0","[]","0","0","3","","","","","","","",""
"pit-trial","77","606731","0.0-2.0-14.3-3.3","battery-v0.2","","""event"",""trial"",""time""
""fullscreenenter"",""1"",""3178""
","
","
","""event"",""trial"",""time""
""fullscreenenter"",""1"",""3178""
","
","","","1067","","","18","13365","5820","&#9826;","elianto","#f73b6a7A","-1"," ","0","0","[1917.6999999955297]","1","0","3","","","","","","","",""
"pit-trial","78","611587","0.0-2.0-14.3-4.3","battery-v0.2","","""event"",""trial"",""time""
""fullscreenenter"",""1"",""3178""
","
","
","""event"",""trial"",""time""
""fullscreenenter"",""1"",""3178""
","
","","","-1","","","18","13365","5820","&#9826;","elianto","#f73b6a7A","-1","-1","1","0","[]","0","0","3","","","","","","","",""
"call-function","79","611590","0.0-2.0-15.0","battery-v0.2","","""event"",""trial"",""time""
""fullscreenenter"",""1"",""3178""
","
","
","""event"",""trial"",""time""
""fullscreenenter"",""1"",""3178""
","
","","","","","","","","","","","","","","","","","","","","","","","","","","",""
"pit-instructions","80","639634","0.0-2.0-16.0","battery-v0.2","","""event"",""trial"",""time""
""fullscreenenter"",""1"",""3178""
","
","
","""event"",""trial"",""time""
""fullscreenenter"",""1"",""3178""
","
","","[{""page_index"":0,""viewing_time"":6576},{""page_index"":1,""viewing_time"":8100.60000000149},{""page_index"":2,""viewing_time"":6933.79999999702},{""page_index"":3,""viewing_time"":6432.39999999851}]","28043","","","","","","","","","","","","","","","","","","","","","","","",""
"pit-trial","81","643018","0.0-2.0-17.0-0.0","battery-v0.2","","""event"",""trial"",""time""
""fullscreenenter"",""1"",""3178""
","
","
","""event"",""trial"",""time""
""fullscreenenter"",""1"",""3178""
","
","","","530.3000000044703","","","18","13365","5820","&#9789;","elianto","#f73b6a7A"," "," ","1","0","[1381]","1","0","4","","","","","","","",""
"pit-trial","82","646372","0.0-2.0-17.0-1.0","battery-v0.2","","""event"",""trial"",""time""
""fullscreenenter"",""1"",""3178""
","
","
","""event"",""trial"",""time""
""fullscreenenter"",""1"",""3178""
","
","","","497.19999999552965","","","18","13365","5820","&#9789;","elianto","#f73b6a7A"," "," ","1","0","[1348.6999999955297]","1","0","4","","","","","","","",""
"pit-trial","83","649653","0.0-2.0-17.0-2.0","battery-v0.2","","""event"",""trial"",""time""
""fullscreenenter"",""1"",""3178""
","
","
","""event"",""trial"",""time""
""fullscreenenter"",""1"",""3178""
","
","","","425.3999999985099","","","18","13365","5820","&#9789;","elianto","#f73b6a7A"," "," ","1","0","[1275.8999999985099]","1","0","4","","","","","","","",""
"pit-trial","84","652762","0.0-2.0-17.0-3.0","battery-v0.2","","""event"",""trial"",""time""
""fullscreenenter"",""1"",""3178""
","
","
","""event"",""trial"",""time""
""fullscreenenter"",""1"",""3178""
","
","","","251.29999999701977","","","18","13365","5820","&#9789;","elianto","#f73b6a7A"," "," ","1","-10","[1102.3999999985099]","1","0","4","","","","","","","",""
"pit-trial","85","656588","0.0-2.0-17.0-4.0","battery-v0.2","","""event"",""trial"",""time""
""fullscreenenter"",""1"",""3178""
","
","
","""event"",""trial"",""time""
""fullscreenenter"",""1"",""3178""
","
","","","967.5","","","18","13365","5820","&#9789;","elianto","#f73b6a7A"," "," ","1","0","[1818.7999999970198]","1","0","4","","","","","","","",""
"pit-trial","86","659975","0.0-2.0-17.1-0.1","battery-v0.2","","""event"",""trial"",""time""
""fullscreenenter"",""1"",""3178""
","
","
","""event"",""trial"",""time""
""fullscreenenter"",""1"",""3178""
","
","","","528.7000000029802","","","18","13365","5820","&#9789;","elianto","#f73b6a7A"," "," ","1","0","[1379.8000000044703]","1","0","4","","","","","","","",""
"pit-trial","87","664832","0.0-2.0-17.1-1.1","battery-v0.2","","""event"",""trial"",""time""
""fullscreenenter"",""1"",""3178""
","
","
","""event"",""trial"",""time""
""fullscreenenter"",""1"",""3178""
","
","","","-1","","","18","13365","5820","&#9789;","elianto","#f73b6a7A"," ","-1","0","-10","[]","0","0","4","","","","","","","",""
"pit-trial","88","668236","0.0-2.0-17.1-2.1","battery-v0.2","","""event"",""trial"",""time""
""fullscreenenter"",""1"",""3178""
","
","
","""event"",""trial"",""time""
""fullscreenenter"",""1"",""3178""
","
","","","547.4000000059605","","","18","13365","5820","&#9789;","elianto","#f73b6a7A"," "," ","1","0","[1398.8000000044703]","1","0","4","","","","","","","",""
"pit-trial","89","671547","0.0-2.0-17.1-3.1","battery-v0.2","","""event"",""trial"",""time""
""fullscreenenter"",""1"",""3178""
","
","
","""event"",""trial"",""time""
""fullscreenenter"",""1"",""3178""
","
","","","455.30000000447035","","","18","13365","5820","&#9789;","elianto","#f73b6a7A"," "," ","1","-10","[1305.8000000044703]","1","0","4","","","","","","","",""
"pit-trial","90","674874","0.0-2.0-17.1-4.1","battery-v0.2","","""event"",""trial"",""time""
""fullscreenenter"",""1"",""3178""
","
","
","""event"",""trial"",""time""
""fullscreenenter"",""1"",""3178""
","
","","","470.3999999985099","","","18","13365","5820","&#9789;","elianto","#f73b6a7A"," "," ","1","0","[1321.6999999955297]","1","0","4","","","","","","","",""
"pit-trial","91","678181","0.0-2.0-17.2-0.2","battery-v0.2","","""event"",""trial"",""time""
""fullscreenenter"",""1"",""3178""
","
","
","""event"",""trial"",""time""
""fullscreenenter"",""1"",""3178""
","
","","","450.20000000298023","","","18","13365","5820","&#9789;","elianto","#f73b6a7A"," "," ","1","0","[1301.7999999970198]","1","0","4","","","","","","","",""
"pit-trial","92","681561","0.0-2.0-17.2-1.2","battery-v0.2","","""event"",""trial"",""time""
""fullscreenenter"",""1"",""3178""
","
","
","""event"",""trial"",""time""
""fullscreenenter"",""1"",""3178""
","
","","","523.3999999985099","","","18","13365","5820","&#9789;","elianto","#f73b6a7A"," "," ","1","0","[1374.6000000014901]","1","0","4","","","","","","","",""
"pit-trial","93","686417","0.0-2.0-17.2-2.2","battery-v0.2","","""event"",""trial"",""time""
""fullscreenenter"",""1"",""3178""
","
","
","""event"",""trial"",""time""
""fullscreenenter"",""1"",""3178""
","
","","","-1","","","18","13365","5820","&#9789;","elianto","#f73b6a7A"," ","-1","0","-10","[]","0","0","4","","","","","","","",""
"pit-trial","94","691274","0.0-2.0-17.2-3.2","battery-v0.2","","""event"",""trial"",""time""
""fullscreenenter"",""1"",""3178""
","
","
","""event"",""trial"",""time""
""fullscreenenter"",""1"",""3178""
","
","","","-1","","","18","13365","5820","&#9789;","elianto","#f73b6a7A"," ","-1","0","0","[]","0","0","4","","","","","","","",""
"pit-trial","95","694563","0.0-2.0-17.2-4.2","battery-v0.2","","""event"",""trial"",""time""
""fullscreenenter"",""1"",""3178""
","
","
","""event"",""trial"",""time""
""fullscreenenter"",""1"",""3178""
","
","","","432.09999999403954","","","18","13365","5820","&#9789;","elianto","#f73b6a7A"," "," ","1","0","[1283.7999999970198]","1","0","4","","","","","","","",""
"pit-trial","96","697785","0.0-2.0-17.3-0.3","battery-v0.2","","""event"",""trial"",""time""
""fullscreenenter"",""1"",""3178""
","
","
","""event"",""trial"",""time""
""fullscreenenter"",""1"",""3178""
","
","","","366","","","18","13365","5820","&#9789;","elianto","#f73b6a7A"," "," ","1","0","[1217.3999999985099]","1","0","4","","","","","","","",""
"pit-trial","97","701064","0.0-2.0-17.3-1.3","battery-v0.2","","""event"",""trial"",""time""
""fullscreenenter"",""1"",""3178""
","
","
","""event"",""trial"",""time""
""fullscreenenter"",""1"",""3178""
","
","","","422.8999999985099","","","18","13365","5820","&#9789;","elianto","#f73b6a7A"," "," ","1","0","[1274.7999999970198]","1","0","4","","","","","","","",""
"pit-trial","98","704572","0.0-2.0-17.3-2.3","battery-v0.2","","""event"",""trial"",""time""
""fullscreenenter"",""1"",""3178""
","
","
","""event"",""trial"",""time""
""fullscreenenter"",""1"",""3178""
","
","","","650.6000000014901","","","18","13365","5820","&#9789;","elianto","#f73b6a7A"," "," ","1","0","[1502.7000000029802]","1","0","4","","","","","","","",""
"pit-trial","99","709429","0.0-2.0-17.3-3.3","battery-v0.2","","""event"",""trial"",""time""
""fullscreenenter"",""1"",""3178""
","
","
","""event"",""trial"",""time""
""fullscreenenter"",""1"",""3178""
","
","","","-1","","","18","13365","5820","&#9789;","elianto","#f73b6a7A"," ","-1","0","0","[]","0","0","4","","","","","","","",""
"pit-trial","100","713068","0.0-2.0-17.3-4.3","battery-v0.2","","""event"",""trial"",""time""
""fullscreenenter"",""1"",""3178""
","
","
","""event"",""trial"",""time""
""fullscreenenter"",""1"",""3178""
","
","","","781.3999999985099","","","18","13365","5820","&#9789;","elianto","#f73b6a7A"," "," ","1","0","[1633.2999999970198]","1","0","4","","","","","","","",""
"call-function","101","713072","0.0-2.0-18.0","battery-v0.2","","""event"",""trial"",""time""
""fullscreenenter"",""1"",""3178""
","
","
","""event"",""trial"",""time""
""fullscreenenter"",""1"",""3178""
","
","","","","","","","","","","","","","","","","","","","","","","","","","","",""
"pit-instructions","102","787084","0.0-2.0-19.0","battery-v0.2","","""event"",""trial"",""time""
""fullscreenenter"",""1"",""3178""
","
","
","""event"",""trial"",""time""
""fullscreenenter"",""1"",""3178""
","
","","[{""page_index"":0,""viewing_time"":7160.80000000447},{""page_index"":1,""viewing_time"":6817.69999999553},{""page_index"":2,""viewing_time"":14033.80000000447},{""page_index"":3,""viewing_time"":10566.79999999702},{""page_index"":4,""viewing_time"":8533.5},{""page_index"":5,""viewing_time"":8100},{""page_index"":6,""viewing_time"":8383.30000000447},{""page_index"":7,""viewing_time"":6432.19999999553},{""page_index"":8,""viewing_time"":3984.10000000149}]","74012.5","","","","","","","","","","","","","","","","","","","","","","","",""
"pit-comprehension","103","792034","0.0-2.0-20.0-0.0","battery-v0.2","","""event"",""trial"",""time""
""fullscreenenter"",""1"",""3178""
","
","
","""event"",""trial"",""time""
""fullscreenenter"",""1"",""3178""
","
","","","4947.20000000298","[""SPACE""]","0","18","13365","5820","","","","","","","","","","","","","","","","","","",""
"pit-instructions","104","795133","0.0-2.0-20.0-1.0","battery-v0.2","","""event"",""trial"",""time""
""fullscreenenter"",""1"",""3178""
","
","
","""event"",""trial"",""time""
""fullscreenenter"",""1"",""3178""
","
","","[{""page_index"":0,""viewing_time"":3083.6999999955297}]","3083.89999999851","","","","","","","","","","","","","","","","","","","","","","","",""
"pit-comprehension","105","800868","0.0-2.0-21.0-0.0","battery-v0.2","","""event"",""trial"",""time""
""fullscreenenter"",""1"",""3178""
","
","
","""event"",""trial"",""time""
""fullscreenenter"",""1"",""3178""
","
","","","5732","[""10""]","0","18","13365","5820","","","","","","","","","","","","","","","","","","",""
"pit-instructions","106","802517","0.0-2.0-21.0-1.0","battery-v0.2","","""event"",""trial"",""time""
""fullscreenenter"",""1"",""3178""
","
","
","""event"",""trial"",""time""
""fullscreenenter"",""1"",""3178""
","
","","[{""page_index"":0,""viewing_time"":1629.5999999940395}]","1629.8999999985099","","","","","","","","","","","","","","","","","","","","","","","",""
"pit-comprehension","107","809067","0.0-2.0-22.0-0.0","battery-v0.2","","""event"",""trial"",""time""
""fullscreenenter"",""1"",""3178""
","
","
","""event"",""trial"",""time""
""fullscreenenter"",""1"",""3178""
","
","","","6548","[""0""]","0","18","13365","5820","","","","","","","","","","","","","","","","","","",""
"pit-instructions","108","812300","0.0-2.0-22.0-1.0","battery-v0.2","","""event"",""trial"",""time""
""fullscreenenter"",""1"",""3178""
","
","
","""event"",""trial"",""time""
""fullscreenenter"",""1"",""3178""
","
","","[{""page_index"":0,""viewing_time"":3212.8000000044703}]","3213","","","","","","","","","","","","","","","","","","","","","","","",""
"pit-comprehension","109","821401","0.0-2.0-23.0-0.0","battery-v0.2","","""event"",""trial"",""time""
""fullscreenenter"",""1"",""3178""
","
","
","""event"",""trial"",""time""
""fullscreenenter"",""1"",""3178""
","
","","","9099.10000000149","[""True""]","0","18","13365","5820","","","","","","","","","","","","","","","","","","",""
"pit-instructions","110","823734","0.0-2.0-23.0-1.0","battery-v0.2","","""event"",""trial"",""time""
""fullscreenenter"",""1"",""3178""
","
","
","""event"",""trial"",""time""
""fullscreenenter"",""1"",""3178""
","
","","[{""page_index"":0,""viewing_time"":2312.10000000149}]","2312.4000000059605","","","","","","","","","","","","","","","","","","","","","","","",""
"pit-comprehension","111","831317","0.0-2.0-24.0-0.0","battery-v0.2","","""event"",""trial"",""time""
""fullscreenenter"",""1"",""3178""
","
","
","""event"",""trial"",""time""
""fullscreenenter"",""1"",""3178""
","
","","","7581.70000000298","[""True""]","0","18","13365","5820","","","","","","","","","","","","","","","","","","",""
"pit-instructions","112","834217","0.0-2.0-24.0-1.0","battery-v0.2","","""event"",""trial"",""time""
""fullscreenenter"",""1"",""3178""
","
","
","""event"",""trial"",""time""
""fullscreenenter"",""1"",""3178""
","
","","[{""page_index"":0,""viewing_time"":2885}]","2885.1999999955297","","","","","","","","","","","","","","","","","","","","","","","",""
"pit-comprehension","113","840751","0.0-2.0-25.0-0.0","battery-v0.2","","""event"",""trial"",""time""
""fullscreenenter"",""1"",""3178""
","
","
","""event"",""trial"",""time""
""fullscreenenter"",""1"",""3178""
","
","","","6531.79999999702","[""True""]","0","18","13365","5820","","","","","","","","","","","","","","","","","","",""
"pit-instructions","114","842967","0.0-2.0-25.0-1.0","battery-v0.2","","""event"",""trial"",""time""
""fullscreenenter"",""1"",""3178""
","
","
","""event"",""trial"",""time""
""fullscreenenter"",""1"",""3178""
","
","","[{""page_index"":0,""viewing_time"":2194.39999999851}]","2194.7999999970198","","","","","","","","","","","","","","","","","","","","","","","",""
"pit-comprehension","115","847820","0.0-2.0-26.0-0.0","battery-v0.2","","""event"",""trial"",""time""
""fullscreenenter"",""1"",""3178""
","
","
","""event"",""trial"",""time""
""fullscreenenter"",""1"",""3178""
","
","","","4850.10000000149","[""False""]","0","18","13365","5820","","","","","","","","","","","","","","","","","","",""
"pit-instructions","116","849350","0.0-2.0-26.0-1.0","battery-v0.2","","""event"",""trial"",""time""
""fullscreenenter"",""1"",""3178""
","
","
","""event"",""trial"",""time""
""fullscreenenter"",""1"",""3178""
","
","","[{""page_index"":0,""viewing_time"":1506.7000000029802}]","1507","","","","","","","","","","","","","","","","","","","","","","","",""
"pit-instructions","117","867617","0.0-3.0","battery-v0.2","","""event"",""trial"",""time""
""fullscreenenter"",""1"",""3178""
","
","
","""event"",""trial"",""time""
""fullscreenenter"",""1"",""3178""
","
","","[{""page_index"":0,""viewing_time"":4283},{""page_index"":1,""viewing_time"":5916.29999999702},{""page_index"":2,""viewing_time"":8066.60000000149}]","18266.09999999404","","","","","","","","","","","","","","","","","","","","","","","",""
"pit-trial","118","871449","0.0-4.0","battery-v0.2","","""event"",""trial"",""time""
""fullscreenenter"",""1"",""3178""
","
","
","""event"",""trial"",""time""
""fullscreenenter"",""1"",""3178""
","
","","","975.1000000014901","","","18","13365","5820","&#9730;","elianto","#3366ff99"," "," ","1","+10","[1826.8999999985099]","1","1","","","13365","1","1","1","win","go","0"
"pit-trial","119","876307","0.0-5.0","battery-v0.2","","""event"",""trial"",""time""
""fullscreenenter"",""1"",""3178""
","
","
","""event"",""trial"",""time""
""fullscreenenter"",""1"",""3178""
","
","","","-1","","","18","13365","5820","&#9752;","elianto","#f73b6a7A"," ","-1","0","0","[]","0","1","","","13365","2","3","3","lose","go","1"
"pit-trial","120","881164","0.0-6.0","battery-v0.2","","""event"",""trial"",""time""
""fullscreenenter"",""1"",""3178""
","
","
","""event"",""trial"",""time""
""fullscreenenter"",""1"",""3178""
","
","","","-1","","","18","13365","5820","&#9728;","elianto","#f73b6a7A","-1","-1","1","0","[]","0","1","","","13365","3","0","4","lose","no-go","0"
"pit-trial","121","884919","0.0-7.0","battery-v0.2","","""event"",""trial"",""time""
""fullscreenenter"",""1"",""3178""
","
","
","""event"",""trial"",""time""
""fullscreenenter"",""1"",""3178""
","
","","","898.1000000014901","","","18","13365","5820","&#9733;","elianto","#3366ff99","-1"," ","0","0","[1749.6999999955297]","1","1","","","13365","4","2","2","win","no-go","0"
"pit-trial","122","889776","0.0-8.0","battery-v0.2","","""event"",""trial"",""time""
""fullscreenenter"",""1"",""3178""
","
","
","""event"",""trial"",""time""
""fullscreenenter"",""1"",""3178""
","
","","","-1","","","18","13365","5820","&#9733;","elianto","#3366ff99","-1","-1","1","0","[]","0","1","","","13365","5","2","2","win","no-go","1"
"pit-trial","123","894633","0.0-9.0","battery-v0.2","","""event"",""trial"",""time""
""fullscreenenter"",""1"",""3178""
","
","
","""event"",""trial"",""time""
""fullscreenenter"",""1"",""3178""
","
","","","-1","","","18","13365","5820","&#9752;","elianto","#f73b6a7A"," ","-1","0","0","[]","0","1","","","13365","6","3","3","lose","go","1"
"pit-trial","124","898245","0.0-10.0","battery-v0.2","","""event"",""trial"",""time""
""fullscreenenter"",""1"",""3178""
","
","
","""event"",""trial"",""time""
""fullscreenenter"",""1"",""3178""
","
","","","738.8999999985099","","","18","13365","5820","&#9730;","elianto","#3366ff99"," "," ","1","+10","[1590]","1","1","","","13365","7","1","1","win","go","0"
"pit-trial","125","903103","0.0-11.0","battery-v0.2","","""event"",""trial"",""time""
""fullscreenenter"",""1"",""3178""
","
","
","""event"",""trial"",""time""
""fullscreenenter"",""1"",""3178""
","
","","","-1","","","18","13365","5820","&#9728;","elianto","#f73b6a7A","-1","-1","1","0","[]","0","1","","","13365","8","0","4","lose","no-go","0"
"pit-trial","126","907412","0.0-12.0","battery-v0.2","","""event"",""trial"",""time""
""fullscreenenter"",""1"",""3178""
","
","
","""event"",""trial"",""time""
""fullscreenenter"",""1"",""3178""
","
","","","1453.1000000014901","","","18","13365","5820","&#9733;","elianto","#3366ff99","-1"," ","0","0","[2303.60000000149]","1","1","","","13365","9","2","2","win","no-go","0"
"pit-trial","127","912269","0.0-13.0","battery-v0.2","","""event"",""trial"",""time""
""fullscreenenter"",""1"",""3178""
","
","
","""event"",""trial"",""time""
""fullscreenenter"",""1"",""3178""
","
","","","-1","","","18","13365","5820","&#9752;","elianto","#f73b6a7A"," ","-1","0","-10","[]","0","1","","","13365","10","3","3","lose","go","0"
"pit-trial","128","916132","0.0-14.0","battery-v0.2","","""event"",""trial"",""time""
""fullscreenenter"",""1"",""3178""
","
","
","""event"",""trial"",""time""
""fullscreenenter"",""1"",""3178""
","
","","","1006.8000000044703","","","18","13365","5820","&#9730;","elianto","#3366ff99"," "," ","1","+10","[1858.1000000014901]","1","1","","","13365","11","1","1","win","go","0"
"pit-trial","129","920990","0.0-15.0","battery-v0.2","","""event"",""trial"",""time""
""fullscreenenter"",""1"",""3178""
","
","
","""event"",""trial"",""time""
""fullscreenenter"",""1"",""3178""
","
","","","-1","","","18","13365","5820","&#9728;","elianto","#f73b6a7A","-1","-1","1","0","[]","0","1","","","13365","12","0","4","lose","no-go","0"
"pit-trial","130","925846","0.0-16.0","battery-v0.2","","""event"",""trial"",""time""
""fullscreenenter"",""1"",""3178""
","
","
","""event"",""trial"",""time""
""fullscreenenter"",""1"",""3178""
","
","","","-1","","","18","13365","5820","&#9752;","elianto","#f73b6a7A"," ","-1","0","-10","[]","0","1","","","13365","13","3","3","lose","go","0"
"pit-trial","131","929477","0.0-17.0","battery-v0.2","","""event"",""trial"",""time""
""fullscreenenter"",""1"",""3178""
","
","
","""event"",""trial"",""time""
""fullscreenenter"",""1"",""3178""
","
","","","776.3999999985099","","","18","13365","5820","&#9730;","elianto","#3366ff99"," "," ","1","+10","[1627.3999999985099]","1","1","","","13365","14","1","1","win","go","0"
"pit-trial","132","933609","0.0-18.0","battery-v0.2","","""event"",""trial"",""time""
""fullscreenenter"",""1"",""3178""
","
","
","""event"",""trial"",""time""
""fullscreenenter"",""1"",""3178""
","
","","","1274.8999999985099","","","18","13365","5820","&#9733;","elianto","#3366ff99","-1"," ","0","0","[2126.2000000029802]","1","1","","","13365","15","2","2","win","no-go","0"
"pit-trial","133","938466","0.0-19.0","battery-v0.2","","""event"",""trial"",""time""
""fullscreenenter"",""1"",""3178""
","
","
","""event"",""trial"",""time""
""fullscreenenter"",""1"",""3178""
","
","","","-1","","","18","13365","5820","&#9728;","elianto","#f73b6a7A","-1","-1","1","0","[]","0","1","","","13365","16","0","4","lose","no-go","0"
"pit-trial","134","942365","0.0-20.0","battery-v0.2","","""event"",""trial"",""time""
""fullscreenenter"",""1"",""3178""
","
","
","""event"",""trial"",""time""
""fullscreenenter"",""1"",""3178""
","
","","","1042.0999999940395","","","18","13365","5820","&#9733;","elianto","#3366ff99","-1"," ","0","0","[1893.3999999985099]","1","1","","","13365","17","2","2","win","no-go","0"
"pit-trial","135","947222","0.0-21.0","battery-v0.2","","""event"",""trial"",""time""
""fullscreenenter"",""1"",""3178""
","
","
","""event"",""trial"",""time""
""fullscreenenter"",""1"",""3178""
","
","","","-1","","","18","13365","5820","&#9728;","elianto","#f73b6a7A","-1","-1","1","-10","[]","0","1","","","13365","18","0","4","lose","no-go","1"
"pit-trial","136","952078","0.0-22.0","battery-v0.2","","""event"",""trial"",""time""
""fullscreenenter"",""1"",""3178""
","
","
","""event"",""trial"",""time""
""fullscreenenter"",""1"",""3178""
","
","","","-1","","","18","13365","5820","&#9752;","elianto","#f73b6a7A"," ","-1","0","-10","[]","0","1","","","13365","19","3","3","lose","go","0"
"pit-trial","137","955702","0.0-23.0","battery-v0.2","","""event"",""trial"",""time""
""fullscreenenter"",""1"",""3178""
","
","
","""event"",""trial"",""time""
""fullscreenenter"",""1"",""3178""
","
","","","767.8999999985099","","","18","13365","5820","&#9730;","elianto","#3366ff99"," "," ","1","+10","[1619.7999999970198]","1","1","","","13365","20","1","1","win","go","0"
"pit-instructions","138","969734","0.0-24.0","battery-v0.2","","""event"",""trial"",""time""
""fullscreenenter"",""1"",""3178""
","
","
","""event"",""trial"",""time""
""fullscreenenter"",""1"",""3178""
","
","","[{""page_index"":0,""viewing_time"":6079.5},{""page_index"":1,""viewing_time"":7950.10000000149}]","14029.80000000447","","","","","","","","","","","","","","","","","","","","","","","",""
"pit-trial","139","974590","0.0-25.0","battery-v0.2","","""event"",""trial"",""time""
""fullscreenenter"",""1"",""3178""
","
","
","""event"",""trial"",""time""
""fullscreenenter"",""1"",""3178""
","
","","","-1","","","18","13365","5820","j","elianto","#f73b6a7A","-1","-1","1","-10","[]","0","2","","","13365","21","0","4","lose","no-go","1"
"pit-trial","140","979445","0.0-26.0","battery-v0.2","","""event"",""trial"",""time""
""fullscreenenter"",""1"",""3178""
","
","
","""event"",""trial"",""time""
""fullscreenenter"",""1"",""3178""
","
","","","-1","","","18","13365","5820","w","elianto","#f73b6a7A"," ","-1","0","-10","[]","0","2","","","13365","22","3","3","lose","go","0"
"pit-trial","141","983241","0.0-27.0","battery-v0.2","","""event"",""trial"",""time""
""fullscreenenter"",""1"",""3178""
","
","
","""event"",""trial"",""time""
""fullscreenenter"",""1"",""3178""
","
","","","940.1999999955297","","","18","13365","5820","d","elianto","#3366ff99"," "," ","1","+10","[1791.8999999985099]","1","2","","","13365","23","1","1","win","go","0"
"pit-trial","142","988098","0.0-28.0","battery-v0.2","","""event"",""trial"",""time""
""fullscreenenter"",""1"",""3178""
","
","
","""event"",""trial"",""time""
""fullscreenenter"",""1"",""3178""
","
","","","-1","","","18","13365","5820","e","elianto","#f73b6a7A","-1","-1","1","0","[]","0","2","","","13365","24","2","4","lose","no-go","0"
"pit-trial","143","992068","0.0-29.0","battery-v0.2","","""event"",""trial"",""time""
""fullscreenenter"",""1"",""3178""
","
","
","""event"",""trial"",""time""
""fullscreenenter"",""1"",""3178""
","
","","","1112.7000000029802","","","18","13365","5820","e","elianto","#f73b6a7A","-1"," ","0","-10","[1964.3999999985099]","1","2","","","13365","25","2","4","lose","no-go","0"
"pit-trial","144","996925","0.0-30.0","battery-v0.2","","""event"",""trial"",""time""
""fullscreenenter"",""1"",""3178""
","
","
","""event"",""trial"",""time""
""fullscreenenter"",""1"",""3178""
","
","","","-1","","","18","13365","5820","j","elianto","#f73b6a7A","-1","-1","1","0","[]","0","2","","","13365","26","0","4","lose","no-go","0"
"pit-trial","145","1001782","0.0-31.0","battery-v0.2","","""event"",""trial"",""time""
""fullscreenenter"",""1"",""3178""
","
","
","""event"",""trial"",""time""
""fullscreenenter"",""1"",""3178""
","
","","","-1","","","18","13365","5820","w","elianto","#f73b6a7A"," ","-1","0","-10","[]","0","2","","","13365","27","3","3","lose","go","0"
"pit-trial","146","1005702","0.0-32.0","battery-v0.2","","""event"",""trial"",""time""
""fullscreenenter"",""1"",""3178""
","
","
","""event"",""trial"",""time""
""fullscreenenter"",""1"",""3178""
","
","","","1064.7000000029802","","","18","13365","5820","d","elianto","#3366ff99"," "," ","1","0","[1916.1000000014901]","1","2","","","13365","28","1","1","win","go","1"
"pit-trial","147","1010559","0.0-33.0","battery-v0.2","","""event"",""trial"",""time""
""fullscreenenter"",""1"",""3178""
","
","
","""event"",""trial"",""time""
""fullscreenenter"",""1"",""3178""
","
","","","-1","","","18","13365","5820","j","elianto","#f73b6a7A","-1","-1","1","-10","[]","0","2","","","13365","29","0","4","lose","no-go","1"
"pit-trial","148","1015416","0.0-34.0","battery-v0.2","","""event"",""trial"",""time""
""fullscreenenter"",""1"",""3178""
","
","
","""event"",""trial"",""time""
""fullscreenenter"",""1"",""3178""
","
","","","-1","","","18","13365","5820","e","elianto","#f73b6a7A","-1","-1","1","0","[]","0","2","","","13365","30","2","4","lose","no-go","0"
"pit-trial","149","1020274","0.0-35.0","battery-v0.2","","""event"",""trial"",""time""
""fullscreenenter"",""1"",""3178""
","
","
","""event"",""trial"",""time""
""fullscreenenter"",""1"",""3178""
","
","","","-1","","","18","13365","5820","w","elianto","#f73b6a7A"," ","-1","0","-10","[]","0","2","","","13365","31","3","3","lose","go","0"
"pit-trial","150","1024260","0.0-36.0","battery-v0.2","","""event"",""trial"",""time""
""fullscreenenter"",""1"",""3178""
","
","
","""event"",""trial"",""time""
""fullscreenenter"",""1"",""3178""
","
","","","1128","","","18","13365","5820","d","elianto","#3366ff99"," "," ","1","0","[1979.2000000029802]","1","2","","","13365","32","1","1","win","go","1"
"pit-trial","151","1029047","0.0-37.0","battery-v0.2","","""event"",""trial"",""time""
""fullscreenenter"",""1"",""3178""
","
","
","""event"",""trial"",""time""
""fullscreenenter"",""1"",""3178""
","
","","","1931.1000000014901","","","18","13365","5820","j","elianto","#f73b6a7A","-1"," ","0","-10","[2782.8000000044703]","1","2","","","13365","33","0","4","lose","no-go","0"
"pit-trial","152","1033902","0.0-38.0","battery-v0.2","","""event"",""trial"",""time""
""fullscreenenter"",""1"",""3178""
","
","
","""event"",""trial"",""time""
""fullscreenenter"",""1"",""3178""
","
","","","-1","","","18","13365","5820","e","elianto","#f73b6a7A","-1","-1","1","0","[]","0","2","","","13365","34","2","4","lose","no-go","0"
"pit-trial","153","1037995","0.0-39.0","battery-v0.2","","""event"",""trial"",""time""
""fullscreenenter"",""1"",""3178""
","
","
","""event"",""trial"",""time""
""fullscreenenter"",""1"",""3178""
","
","","","1237.2999999970198","","","18","13365","5820","d","elianto","#3366ff99"," "," ","1","+10","[2087.60000000149]","1","2","","","13365","35","1","1","win","go","0"
"pit-trial","154","1042852","0.0-40.0","battery-v0.2","","""event"",""trial"",""time""
""fullscreenenter"",""1"",""3178""
","
","
","""event"",""trial"",""time""
""fullscreenenter"",""1"",""3178""
","
","","","-1","","","18","13365","5820","w","elianto","#f73b6a7A"," ","-1","0","-10","[]","0","2","","","13365","36","3","3","lose","go","0"
"pit-trial","155","1047710","0.0-41.0","battery-v0.2","","""event"",""trial"",""time""
""fullscreenenter"",""1"",""3178""
","
","
","""event"",""trial"",""time""
""fullscreenenter"",""1"",""3178""
","
","","","-1","","","18","13365","5820","j","elianto","#f73b6a7A","-1","-1","1","0","[]","0","2","","","13365","37","0","4","lose","no-go","0"
"pit-trial","156","1052566","0.0-42.0","battery-v0.2","","""event"",""trial"",""time""
""fullscreenenter"",""1"",""3178""
","
","
","""event"",""trial"",""time""
""fullscreenenter"",""1"",""3178""
","
","","","-1","","","18","13365","5820","e","elianto","#f73b6a7A","-1","-1","1","0","[]","0","2","","","13365","38","2","4","lose","no-go","0"
"pit-trial","157","1056369","0.0-43.0","battery-v0.2","","""event"",""trial"",""time""
""fullscreenenter"",""1"",""3178""
","
","
","""event"",""trial"",""time""
""fullscreenenter"",""1"",""3178""
","
","","","947.5","","","18","13365","5820","d","elianto","#3366ff99"," "," ","1","+10","[1799.2000000029802]","1","2","","","13365","39","1","1","win","go","0"
"pit-trial","158","1061226","0.0-44.0","battery-v0.2","","""event"",""trial"",""time""
""fullscreenenter"",""1"",""3178""
","
","
","""event"",""trial"",""time""
""fullscreenenter"",""1"",""3178""
","
","","","-1","","","18","13365","5820","w","elianto","#f73b6a7A"," ","-1","0","0","[]","0","2","","","13365","40","3","3","lose","go","1"
"pit-trial","159","1066082","0.0-45.0","battery-v0.2","","""event"",""trial"",""time""
""fullscreenenter"",""1"",""3178""
","
","
","""event"",""trial"",""time""
""fullscreenenter"",""1"",""3178""
","
","","","-1","","","18","13365","5820","j","elianto","#f73b6a7A","-1","-1","1","0","[]","0","2","","","13365","41","0","4","lose","no-go","0"
"pit-trial","160","1070456","0.0-46.0","battery-v0.2","","""event"",""trial"",""time""
""fullscreenenter"",""1"",""3178""
","
","
","""event"",""trial"",""time""
""fullscreenenter"",""1"",""3178""
","
","","","1516.5999999940395","","","18","13365","5820","d","elianto","#3366ff99"," "," ","1","+10","[2367.7000000029802]","1","2","","","13365","42","1","1","win","go","0"
"pit-trial","161","1075311","0.0-47.0","battery-v0.2","","""event"",""trial"",""time""
""fullscreenenter"",""1"",""3178""
","
","
","""event"",""trial"",""time""
""fullscreenenter"",""1"",""3178""
","
","","","-1","","","18","13365","5820","w","elianto","#f73b6a7A"," ","-1","0","-10","[]","0","2","","","13365","43","3","3","lose","go","0"
"pit-trial","162","1080168","0.0-48.0","battery-v0.2","","""event"",""trial"",""time""
""fullscreenenter"",""1"",""3178""
","
","
","""event"",""trial"",""time""
""fullscreenenter"",""1"",""3178""
","
","","","-1","","","18","13365","5820","e","elianto","#f73b6a7A","-1","-1","1","0","[]","0","2","","","13365","44","2","4","lose","no-go","0"
"pit-trial","163","1085024","0.0-49.0","battery-v0.2","","""event"",""trial"",""time""
""fullscreenenter"",""1"",""3178""
","
","
","""event"",""trial"",""time""
""fullscreenenter"",""1"",""3178""
","
","","","-1","","","18","13365","5820","e","elianto","#f73b6a7A","-1","-1","1","0","[]","0","2","","","13365","45","2","4","lose","no-go","0"
"pit-trial","164","1089881","0.0-50.0","battery-v0.2","","""event"",""trial"",""time""
""fullscreenenter"",""1"",""3178""
","
","
","""event"",""trial"",""time""
""fullscreenenter"",""1"",""3178""
","
","","","-1","","","18","13365","5820","j","elianto","#f73b6a7A","-1","-1","1","0","[]","0","2","","","13365","46","0","4","lose","no-go","0"
"pit-trial","165","1094281","0.0-51.0","battery-v0.2","","""event"",""trial"",""time""
""fullscreenenter"",""1"",""3178""
","
","
","""event"",""trial"",""time""
""fullscreenenter"",""1"",""3178""
","
","","","1541.6999999955297","","","18","13365","5820","s","elianto","#3366ff99","-1"," ","0","0","[2393.0999999940395]","1","2","","","13365","47","4","2","win","no-go","0"
"pit-trial","166","1099138","0.0-52.0","battery-v0.2","","""event"",""trial"",""time""
""fullscreenenter"",""1"",""3178""
","
","
","""event"",""trial"",""time""
""fullscreenenter"",""1"",""3178""
","
","","","-1","","","18","13365","5820","w","elianto","#f73b6a7A"," ","-1","0","-10","[]","0","2","","","13365","48","3","3","lose","go","0"
"pit-trial","167","1103071","0.0-53.0","battery-v0.2","","""event"",""trial"",""time""
""fullscreenenter"",""1"",""3178""
","
","
","""event"",""trial"",""time""
""fullscreenenter"",""1"",""3178""
","
","","","1075.7999999970198","","","18","13365","5820","d","elianto","#3366ff99"," "," ","1","+10","[1926.6999999955297]","1","2","","","13365","49","1","1","win","go","0"
"pit-trial","168","1107575","0.0-54.0","battery-v0.2","","""event"",""trial"",""time""
""fullscreenenter"",""1"",""3178""
","
","
","""event"",""trial"",""time""
""fullscreenenter"",""1"",""3178""
","
","","","1648.2999999970198","","","18","13365","5820","s","elianto","#3366ff99","-1"," ","0","0","[2498.7999999970198]","1","2","","","13365","50","4","2","win","no-go","0"
"pit-trial","169","1112433","0.0-55.0","battery-v0.2","","""event"",""trial"",""time""
""fullscreenenter"",""1"",""3178""
","
","
","""event"",""trial"",""time""
""fullscreenenter"",""1"",""3178""
","
","","","-1","","","18","13365","5820","j","elianto","#f73b6a7A","-1","-1","1","0","[]","0","2","","","13365","51","0","4","lose","no-go","0"
"pit-trial","170","1117290","0.0-56.0","battery-v0.2","","""event"",""trial"",""time""
""fullscreenenter"",""1"",""3178""
","
","
","""event"",""trial"",""time""
""fullscreenenter"",""1"",""3178""
","
","","","-1","","","18","13365","5820","w","elianto","#f73b6a7A"," ","-1","0","-10","[]","0","2","","","13365","52","3","3","lose","go","0"
"pit-trial","171","1122147","0.0-57.0","battery-v0.2","","""event"",""trial"",""time""
""fullscreenenter"",""1"",""3178""
","
","
","""event"",""trial"",""time""
""fullscreenenter"",""1"",""3178""
","
","","","-1","","","18","13365","5820","e","elianto","#f73b6a7A","-1","-1","1","0","[]","0","2","","","13365","53","2","4","lose","no-go","0"
"pit-trial","172","1127003","0.0-58.0","battery-v0.2","","""event"",""trial"",""time""
""fullscreenenter"",""1"",""3178""
","
","
","""event"",""trial"",""time""
""fullscreenenter"",""1"",""3178""
","
","","","-1","","","18","13365","5820","j","elianto","#f73b6a7A","-1","-1","1","0","[]","0","2","","","13365","54","0","4","lose","no-go","0"
"pit-trial","173","1131482","0.0-59.0","battery-v0.2","","""event"",""trial"",""time""
""fullscreenenter"",""1"",""3178""
","
","
","""event"",""trial"",""time""
""fullscreenenter"",""1"",""3178""
","
","","","1623.5","","","18","13365","5820","s","elianto","#3366ff99","-1"," ","0","0","[2473.5]","1","2","","","13365","55","4","2","win","no-go","0"
"pit-trial","174","1135647","0.0-60.0","battery-v0.2","","""event"",""trial"",""time""
""fullscreenenter"",""1"",""3178""
","
","
","""event"",""trial"",""time""
""fullscreenenter"",""1"",""3178""
","
","","","1307.7000000029802","","","18","13365","5820","d","elianto","#3366ff99"," "," ","1","+10","[2158.7000000029802]","1","2","","","13365","56","1","1","win","go","0"
"pit-trial","175","1140504","0.0-61.0","battery-v0.2","","""event"",""trial"",""time""
""fullscreenenter"",""1"",""3178""
","
","
","""event"",""trial"",""time""
""fullscreenenter"",""1"",""3178""
","
","","","-1","","","18","13365","5820","w","elianto","#f73b6a7A"," ","-1","0","-10","[]","0","2","","","13365","57","3","3","lose","go","0"
"pit-trial","176","1145361","0.0-62.0","battery-v0.2","","""event"",""trial"",""time""
""fullscreenenter"",""1"",""3178""
","
","
","""event"",""trial"",""time""
""fullscreenenter"",""1"",""3178""
","
","","","-1","","","18","13365","5820","s","elianto","#3366ff99","-1","-1","1","0","[2895.5999999940395]","1","2","","","13365","58","4","2","win","no-go","1"
"pit-trial","177","1149358","0.0-63.0","battery-v0.2","","""event"",""trial"",""time""
""fullscreenenter"",""1"",""3178""
","
","
","""event"",""trial"",""time""
""fullscreenenter"",""1"",""3178""
","
","","","1139.6999999955297","","","18","13365","5820","d","elianto","#3366ff99"," "," ","1","+10","[1991.2999999970198]","1","2","","","13365","59","1","1","win","go","0"
"pit-trial","178","1154216","0.0-64.0","battery-v0.2","","""event"",""trial"",""time""
""fullscreenenter"",""1"",""3178""
","
","
","""event"",""trial"",""time""
""fullscreenenter"",""1"",""3178""
","
","","","-1","","","18","13365","5820","j","elianto","#f73b6a7A","-1","-1","1","0","[]","0","2","","","13365","60","0","4","lose","no-go","0"
"pit-trial","179","1159072","0.0-65.0","battery-v0.2","","""event"",""trial"",""time""
""fullscreenenter"",""1"",""3178""
","
","
","""event"",""trial"",""time""
""fullscreenenter"",""1"",""3178""
","
","","","-1","","","18","13365","5820","e","elianto","#f73b6a7A","-1","-1","1","0","[]","0","2","","","13365","61","2","4","lose","no-go","0"
"pit-trial","180","1163928","0.0-66.0","battery-v0.2","","""event"",""trial"",""time""
""fullscreenenter"",""1"",""3178""
","
","
","""event"",""trial"",""time""
""fullscreenenter"",""1"",""3178""
","
","","","-1","","","18","13365","5820","s","elianto","#3366ff99","-1","-1","1","+10","[]","0","2","","","13365","62","4","2","win","no-go","0"
"pit-trial","181","1167680","0.0-67.0","battery-v0.2","","""event"",""trial"",""time""
""fullscreenenter"",""1"",""3178""
","
","
","""event"",""trial"",""time""
""fullscreenenter"",""1"",""3178""
","
","","","895.4000000059605","","","18","13365","5820","d","elianto","#3366ff99"," "," ","1","+10","[1747.1000000014901]","1","2","","","13365","63","1","1","win","go","0"
"pit-trial","182","1172539","0.0-68.0","battery-v0.2","","""event"",""trial"",""time""
""fullscreenenter"",""1"",""3178""
","
","
","""event"",""trial"",""time""
""fullscreenenter"",""1"",""3178""
","
","","","-1","","","18","13365","5820","w","elianto","#f73b6a7A"," ","-1","0","-10","[]","0","2","","","13365","64","3","3","lose","go","0"
"pit-trial","183","1176594","0.0-69.0","battery-v0.2","","""event"",""trial"",""time""
""fullscreenenter"",""1"",""3178""
","
","
","""event"",""trial"",""time""
""fullscreenenter"",""1"",""3178""
","
","","","1199.5","","","18","13365","5820","d","elianto","#3366ff99"," "," ","1","+10","[2050.8000000044703]","1","2","","","13365","65","1","1","win","go","0"
"pit-trial","184","1181449","0.0-70.0","battery-v0.2","","""event"",""trial"",""time""
""fullscreenenter"",""1"",""3178""
","
","
","""event"",""trial"",""time""
""fullscreenenter"",""1"",""3178""
","
","","","-1","","","18","13365","5820","e","elianto","#f73b6a7A","-1","-1","1","0","[]","0","2","","","13365","66","2","4","lose","no-go","0"
"pit-trial","185","1185260","0.0-71.0","battery-v0.2","","""event"",""trial"",""time""
""fullscreenenter"",""1"",""3178""
","
","
","""event"",""trial"",""time""
""fullscreenenter"",""1"",""3178""
","
","","","955.8000000044703","","","18","13365","5820","w","elianto","#f73b6a7A"," "," ","1","0","[1807.3000000044703]","1","2","","","13365","67","3","3","lose","go","0"
"pit-trial","186","1190117","0.0-72.0","battery-v0.2","","""event"",""trial"",""time""
""fullscreenenter"",""1"",""3178""
","
","
","""event"",""trial"",""time""
""fullscreenenter"",""1"",""3178""
","
","","","-1","","","18","13365","5820","s","elianto","#3366ff99","-1","-1","1","+10","[]","0","2","","","13365","68","4","2","win","no-go","0"
"pit-trial","187","1194364","0.0-73.0","battery-v0.2","","""event"",""trial"",""time""
""fullscreenenter"",""1"",""3178""
","
","
","""event"",""trial"",""time""
""fullscreenenter"",""1"",""3178""
","
","","","1388.7999999970198","","","18","13365","5820","d","elianto","#3366ff99"," "," ","1","+10","[2239.3000000044703]","1","2","","","13365","69","1","1","win","go","0"
"pit-trial","188","1199222","0.0-74.0","battery-v0.2","","""event"",""trial"",""time""
""fullscreenenter"",""1"",""3178""
","
","
","""event"",""trial"",""time""
""fullscreenenter"",""1"",""3178""
","
","","","-1","","","18","13365","5820","s","elianto","#3366ff99","-1","-1","1","0","[]","0","2","","","13365","70","4","2","win","no-go","1"
"pit-trial","189","1204080","0.0-75.0","battery-v0.2","","""event"",""trial"",""time""
""fullscreenenter"",""1"",""3178""
","
","
","""event"",""trial"",""time""
""fullscreenenter"",""1"",""3178""
","
","","","-1","","","18","13365","5820","w","elianto","#f73b6a7A"," ","-1","0","-10","[]","0","2","","","13365","71","3","3","lose","go","0"
"pit-trial","190","1208681","0.0-76.0","battery-v0.2","","""event"",""trial"",""time""
""fullscreenenter"",""1"",""3178""
","
","
","""event"",""trial"",""time""
""fullscreenenter"",""1"",""3178""
","
","","","1745.2000000029802","","","18","13365","5820","p","elianto","#3366ff99"," "," ","1","+10","[2596.2999999970198]","1","2","","","13365","72","5","1","win","go","0"
"pit-trial","191","1213079","0.0-77.0","battery-v0.2","","""event"",""trial"",""time""
""fullscreenenter"",""1"",""3178""
","
","
","""event"",""trial"",""time""
""fullscreenenter"",""1"",""3178""
","
","","","1541.1000000014901","","","18","13365","5820","p","elianto","#3366ff99"," "," ","1","+10","[2392.5]","1","2","","","13365","73","5","1","win","go","0"
"pit-trial","192","1217937","0.0-78.0","battery-v0.2","","""event"",""trial"",""time""
""fullscreenenter"",""1"",""3178""
","
","
","""event"",""trial"",""time""
""fullscreenenter"",""1"",""3178""
","
","","","-1","","","18","13365","5820","s","elianto","#3366ff99","-1","-1","1","+10","[]","0","2","","","13365","74","4","2","win","no-go","0"
"pit-trial","193","1222659","0.0-79.0","battery-v0.2","","""event"",""trial"",""time""
""fullscreenenter"",""1"",""3178""
","
","
","""event"",""trial"",""time""
""fullscreenenter"",""1"",""3178""
","
","","","1865.4000000059605","","","18","13365","5820","w","elianto","#f73b6a7A"," "," ","1","0","[2716]","1","2","","","13365","75","3","3","lose","go","0"
"pit-trial","194","1227204","0.0-80.0","battery-v0.2","","""event"",""trial"",""time""
""fullscreenenter"",""1"",""3178""
","
","
","""event"",""trial"",""time""
""fullscreenenter"",""1"",""3178""
","
","","","1688.6000000014901","","","18","13365","5820","d","elianto","#3366ff99"," "," ","1","0","[2540.39999999851]","1","2","","","13365","76","1","1","win","go","1"
"pit-trial","195","1232059","0.0-81.0","battery-v0.2","","""event"",""trial"",""time""
""fullscreenenter"",""1"",""3178""
","
","
","""event"",""trial"",""time""
""fullscreenenter"",""1"",""3178""
","
","","","-1","","","18","13365","5820","s","elianto","#3366ff99","-1","-1","1","+10","[]","0","2","","","13365","77","4","2","win","no-go","0"
"pit-trial","196","1236151","0.0-82.0","battery-v0.2","","""event"",""trial"",""time""
""fullscreenenter"",""1"",""3178""
","
","
","""event"",""trial"",""time""
""fullscreenenter"",""1"",""3178""
","
","","","1238.0999999940395","","","18","13365","5820","p","elianto","#3366ff99"," "," ","1","+10","[2089]","1","2","","","13365","78","5","1","win","go","0"
"pit-trial","197","1240893","0.0-83.0","battery-v0.2","","""event"",""trial"",""time""
""fullscreenenter"",""1"",""3178""
","
","
","""event"",""trial"",""time""
""fullscreenenter"",""1"",""3178""
","
","","","1884.2999999970198","","","18","13365","5820","w","elianto","#f73b6a7A"," "," ","1","0","[2735.39999999851]","1","2","","","13365","79","3","3","lose","go","0"
"pit-trial","198","1245280","0.0-84.0","battery-v0.2","","""event"",""trial"",""time""
""fullscreenenter"",""1"",""3178""
","
","
","""event"",""trial"",""time""
""fullscreenenter"",""1"",""3178""
","
","","","1529.7000000029802","","","18","13365","5820","g","elianto","#f73b6a7A","-1"," ","0","-10","[2381.60000000149]","1","2","","","13365","80","6","4","lose","no-go","0"
"pit-trial","199","1250138","0.0-85.0","battery-v0.2","","""event"",""trial"",""time""
""fullscreenenter"",""1"",""3178""
","
","
","""event"",""trial"",""time""
""fullscreenenter"",""1"",""3178""
","
","","","-1","","","18","13365","5820","p","elianto","#3366ff99"," ","-1","0","0","[2999.7999999970198]","1","2","","","13365","81","5","1","win","go","0"
"pit-trial","200","1254997","0.0-86.0","battery-v0.2","","""event"",""trial"",""time""
""fullscreenenter"",""1"",""3178""
","
","
","""event"",""trial"",""time""
""fullscreenenter"",""1"",""3178""
","
","","","-1","","","18","13365","5820","g","elianto","#f73b6a7A","-1","-1","1","0","[]","0","2","","","13365","82","6","4","lose","no-go","0"
"pit-trial","201","1259854","0.0-87.0","battery-v0.2","","""event"",""trial"",""time""
""fullscreenenter"",""1"",""3178""
","
","
","""event"",""trial"",""time""
""fullscreenenter"",""1"",""3178""
","
","","","-1","","","18","13365","5820","s","elianto","#3366ff99","-1","-1","1","+10","[]","0","2","","","13365","83","4","2","win","no-go","0"
"pit-trial","202","1264711","0.0-88.0","battery-v0.2","","""event"",""trial"",""time""
""fullscreenenter"",""1"",""3178""
","
","
","""event"",""trial"",""time""
""fullscreenenter"",""1"",""3178""
","
","","","-1","","","18","13365","5820","a","elianto","#f73b6a7A"," ","-1","0","-10","[2936.5]","1","2","","","13365","84","7","3","lose","go","0"
"pit-trial","203","1269567","0.0-89.0","battery-v0.2","","""event"",""trial"",""time""
""fullscreenenter"",""1"",""3178""
","
","
","""event"",""trial"",""time""
""fullscreenenter"",""1"",""3178""
","
","","","-1","","","18","13365","5820","g","elianto","#f73b6a7A","-1","-1","1","0","[]","0","2","","","13365","85","6","4","lose","no-go","0"
"pit-trial","204","1274425","0.0-90.0","battery-v0.2","","""event"",""trial"",""time""
""fullscreenenter"",""1"",""3178""
","
","
","""event"",""trial"",""time""
""fullscreenenter"",""1"",""3178""
","
","","","-1","","","18","13365","5820","p","elianto","#3366ff99"," ","-1","0","0","[2980.8000000044703]","1","2","","","13365","86","5","1","win","go","0"
"pit-trial","205","1279283","0.0-91.0","battery-v0.2","","""event"",""trial"",""time""
""fullscreenenter"",""1"",""3178""
","
","
","""event"",""trial"",""time""
""fullscreenenter"",""1"",""3178""
","
","","","-1","","","18","13365","5820","s","elianto","#3366ff99","-1","-1","1","+10","[]","0","2","","","13365","87","4","2","win","no-go","0"
"pit-trial","206","1284139","0.0-92.0","battery-v0.2","","""event"",""trial"",""time""
""fullscreenenter"",""1"",""3178""
","
","
","""event"",""trial"",""time""
""fullscreenenter"",""1"",""3178""
","
","","","-1","","","18","13365","5820","a","elianto","#f73b6a7A"," ","-1","0","0","[]","0","2","","","13365","88","7","3","lose","go","1"
"pit-trial","207","1288997","0.0-93.0","battery-v0.2","","""event"",""trial"",""time""
""fullscreenenter"",""1"",""3178""
","
","
","""event"",""trial"",""time""
""fullscreenenter"",""1"",""3178""
","
","","","-1","","","18","13365","5820","s","elianto","#3366ff99","-1","-1","1","0","[]","0","2","","","13365","89","4","2","win","no-go","1"
"pit-trial","208","1293854","0.0-94.0","battery-v0.2","","""event"",""trial"",""time""
""fullscreenenter"",""1"",""3178""
","
","
","""event"",""trial"",""time""
""fullscreenenter"",""1"",""3178""
","
","","","-1","","","18","13365","5820","p","elianto","#3366ff99"," ","-1","0","0","[]","0","2","","","13365","90","5","1","win","go","0"
"pit-trial","209","1298711","0.0-95.0","battery-v0.2","","""event"",""trial"",""time""
""fullscreenenter"",""1"",""3178""
","
","
","""event"",""trial"",""time""
""fullscreenenter"",""1"",""3178""
","
","","","-1","","","18","13365","5820","g","elianto","#f73b6a7A","-1","-1","1","0","[]","0","2","","","13365","91","6","4","lose","no-go","0"
"pit-trial","210","1303569","0.0-96.0","battery-v0.2","","""event"",""trial"",""time""
""fullscreenenter"",""1"",""3178""
","
","
","""event"",""trial"",""time""
""fullscreenenter"",""1"",""3178""
","
","","","-1","","","18","13365","5820","a","elianto","#f73b6a7A"," ","-1","0","-10","[]","0","2","","","13365","92","7","3","lose","go","0"
"pit-trial","211","1308426","0.0-97.0","battery-v0.2","","""event"",""trial"",""time""
""fullscreenenter"",""1"",""3178""
","
","
","""event"",""trial"",""time""
""fullscreenenter"",""1"",""3178""
","
","","","-1","","","18","13365","5820","g","elianto","#f73b6a7A","-1","-1","1","0","[]","0","2","","","13365","93","6","4","lose","no-go","0"
"pit-trial","212","1313284","0.0-98.0","battery-v0.2","","""event"",""trial"",""time""
""fullscreenenter"",""1"",""3178""
","
","
","""event"",""trial"",""time""
""fullscreenenter"",""1"",""3178""
","
","","","-1","","","18","13365","5820","l","elianto","#3366ff99","-1","-1","1","0","[]","0","2","","","13365","94","8","2","win","no-go","1"
"pit-trial","213","1318142","0.0-99.0","battery-v0.2","","""event"",""trial"",""time""
""fullscreenenter"",""1"",""3178""
","
","
","""event"",""trial"",""time""
""fullscreenenter"",""1"",""3178""
","
","","","-1","","","18","13365","5820","a","elianto","#f73b6a7A"," ","-1","0","0","[]","0","2","","","13365","95","7","3","lose","go","1"
"pit-trial","214","1323000","0.0-100.0","battery-v0.2","","""event"",""trial"",""time""
""fullscreenenter"",""1"",""3178""
","
","
","""event"",""trial"",""time""
""fullscreenenter"",""1"",""3178""
","
","","","-1","","","18","13365","5820","p","elianto","#3366ff99"," ","-1","0","0","[]","0","2","","","13365","96","5","1","win","go","0"
"pit-trial","215","1327123","0.0-101.0","battery-v0.2","","""event"",""trial"",""time""
""fullscreenenter"",""1"",""3178""
","
","
","""event"",""trial"",""time""
""fullscreenenter"",""1"",""3178""
","
","","","1266.3000000044703","","","18","13365","5820","l","elianto","#3366ff99","-1"," ","0","0","[2117.7000000029802]","1","2","","","13365","97","8","2","win","no-go","0"
"pit-trial","216","1331980","0.0-102.0","battery-v0.2","","""event"",""trial"",""time""
""fullscreenenter"",""1"",""3178""
","
","
","""event"",""trial"",""time""
""fullscreenenter"",""1"",""3178""
","
","","","-1","","","18","13365","5820","p","elianto","#3366ff99"," ","-1","0","+10","[]","0","2","","","13365","98","5","1","win","go","1"
"pit-trial","217","1336838","0.0-103.0","battery-v0.2","","""event"",""trial"",""time""
""fullscreenenter"",""1"",""3178""
","
","
","""event"",""trial"",""time""
""fullscreenenter"",""1"",""3178""
","
","","","-1","","","18","13365","5820","a","elianto","#f73b6a7A"," ","-1","0","-10","[]","0","2","","","13365","99","7","3","lose","go","0"
"pit-trial","218","1341695","0.0-104.0","battery-v0.2","","""event"",""trial"",""time""
""fullscreenenter"",""1"",""3178""
","
","
","""event"",""trial"",""time""
""fullscreenenter"",""1"",""3178""
","
","","","-1","","","18","13365","5820","g","elianto","#f73b6a7A","-1","-1","1","0","[]","0","2","","","13365","100","6","4","lose","no-go","0"
"pit-trial","219","1346551","0.0-105.0","battery-v0.2","","""event"",""trial"",""time""
""fullscreenenter"",""1"",""3178""
","
","
","""event"",""trial"",""time""
""fullscreenenter"",""1"",""3178""
","
","","","-1","","","18","13365","5820","l","elianto","#3366ff99","-1","-1","1","+10","[2896.7999999970198]","1","2","","","13365","101","8","2","win","no-go","0"
"pit-trial","220","1351406","0.0-106.0","battery-v0.2","","""event"",""trial"",""time""
""fullscreenenter"",""1"",""3178""
","
","
","""event"",""trial"",""time""
""fullscreenenter"",""1"",""3178""
","
","","","-1","","","18","13365","5820","g","elianto","#f73b6a7A","-1","-1","1","0","[]","0","2","","","13365","102","6","4","lose","no-go","0"
"pit-trial","221","1355983","0.0-107.0","battery-v0.2","","""event"",""trial"",""time""
""fullscreenenter"",""1"",""3178""
","
","
","""event"",""trial"",""time""
""fullscreenenter"",""1"",""3178""
","
","","","1719.7999999970198","","","18","13365","5820","u","elianto","#3366ff99","-1"," ","0","0","[2571.0999999940395]","1","2","","","13365","103","9","2","win","no-go","0"
"pit-trial","222","1360840","0.0-108.0","battery-v0.2","","""event"",""trial"",""time""
""fullscreenenter"",""1"",""3178""
","
","
","""event"",""trial"",""time""
""fullscreenenter"",""1"",""3178""
","
","","","-1","","","18","13365","5820","p","elianto","#3366ff99"," ","-1","0","+10","[]","0","2","","","13365","104","5","1","win","go","1"
"pit-trial","223","1365698","0.0-109.0","battery-v0.2","","""event"",""trial"",""time""
""fullscreenenter"",""1"",""3178""
","
","
","""event"",""trial"",""time""
""fullscreenenter"",""1"",""3178""
","
","","","-1","","","18","13365","5820","u","elianto","#3366ff99","-1","-1","1","+10","[]","0","2","","","13365","105","9","2","win","no-go","0"
"pit-trial","224","1370557","0.0-110.0","battery-v0.2","","""event"",""trial"",""time""
""fullscreenenter"",""1"",""3178""
","
","
","""event"",""trial"",""time""
""fullscreenenter"",""1"",""3178""
","
","","","-1","","","18","13365","5820","g","elianto","#f73b6a7A","-1","-1","1","0","[]","0","2","","","13365","106","6","4","lose","no-go","0"
"pit-trial","225","1375416","0.0-111.0","battery-v0.2","","""event"",""trial"",""time""
""fullscreenenter"",""1"",""3178""
","
","
","""event"",""trial"",""time""
""fullscreenenter"",""1"",""3178""
","
","","","-1","","","18","13365","5820","l","elianto","#3366ff99","-1","-1","1","+10","[2902.7000000029802]","1","2","","","13365","107","8","2","win","no-go","0"
"pit-trial","226","1380273","0.0-112.0","battery-v0.2","","""event"",""trial"",""time""
""fullscreenenter"",""1"",""3178""
","
","
","""event"",""trial"",""time""
""fullscreenenter"",""1"",""3178""
","
","","","-1","","","18","13365","5820","p","elianto","#3366ff99"," ","-1","0","0","[]","0","2","","","13365","108","5","1","win","go","0"
"pit-trial","227","1385130","0.0-113.0","battery-v0.2","","""event"",""trial"",""time""
""fullscreenenter"",""1"",""3178""
","
","
","""event"",""trial"",""time""
""fullscreenenter"",""1"",""3178""
","
","","","-1","","","18","13365","5820","u","elianto","#3366ff99","-1","-1","1","0","[]","0","2","","","13365","109","9","2","win","no-go","1"
"pit-trial","228","1389986","0.0-114.0","battery-v0.2","","""event"",""trial"",""time""
""fullscreenenter"",""1"",""3178""
","
","
","""event"",""trial"",""time""
""fullscreenenter"",""1"",""3178""
","
","","","-1","","","18","13365","5820","g","elianto","#f73b6a7A","-1","-1","1","0","[]","0","2","","","13365","110","6","4","lose","no-go","0"
"pit-trial","229","1394843","0.0-115.0","battery-v0.2","","""event"",""trial"",""time""
""fullscreenenter"",""1"",""3178""
","
","
","""event"",""trial"",""time""
""fullscreenenter"",""1"",""3178""
","
","","","-1","","","18","13365","5820","p","elianto","#3366ff99"," ","-1","0","0","[]","0","2","","","13365","111","5","1","win","go","0"
"pit-trial","230","1399493","0.0-116.0","battery-v0.2","","""event"",""trial"",""time""
""fullscreenenter"",""1"",""3178""
","
","
","""event"",""trial"",""time""
""fullscreenenter"",""1"",""3178""
","
","","","1794.7999999970198","","","18","13365","5820","l","elianto","#3366ff99","-1"," ","0","0","[2646.5]","1","2","","","13365","112","8","2","win","no-go","0"
"pit-trial","231","1404350","0.0-117.0","battery-v0.2","","""event"",""trial"",""time""
""fullscreenenter"",""1"",""3178""
","
","
","""event"",""trial"",""time""
""fullscreenenter"",""1"",""3178""
","
","","","-1","","","18","13365","5820","a","elianto","#f73b6a7A"," ","-1","0","-10","[]","0","2","","","13365","113","7","3","lose","go","0"
"pit-trial","232","1409208","0.0-118.0","battery-v0.2","","""event"",""trial"",""time""
""fullscreenenter"",""1"",""3178""
","
","
","""event"",""trial"",""time""
""fullscreenenter"",""1"",""3178""
","
","","","-1","","","18","13365","5820","l","elianto","#3366ff99","-1","-1","1","+10","[2949.5]","1","2","","","13365","114","8","2","win","no-go","0"
"pit-trial","233","1414066","0.0-119.0","battery-v0.2","","""event"",""trial"",""time""
""fullscreenenter"",""1"",""3178""
","
","
","""event"",""trial"",""time""
""fullscreenenter"",""1"",""3178""
","
","","","-1","","","18","13365","5820","p","elianto","#3366ff99"," ","-1","0","0","[]","0","2","","","13365","115","5","1","win","go","0"
"pit-trial","234","1418923","0.0-120.0","battery-v0.2","","""event"",""trial"",""time""
""fullscreenenter"",""1"",""3178""
","
","
","""event"",""trial"",""time""
""fullscreenenter"",""1"",""3178""
","
","","","-1","","","18","13365","5820","u","elianto","#3366ff99","-1","-1","1","0","[]","0","2","","","13365","116","9","2","win","no-go","1"
"pit-trial","235","1423780","0.0-121.0","battery-v0.2","","""event"",""trial"",""time""
""fullscreenenter"",""1"",""3178""
","
","
","""event"",""trial"",""time""
""fullscreenenter"",""1"",""3178""
","
","","","-1","","","18","13365","5820","g","elianto","#f73b6a7A","-1","-1","1","0","[]","0","2","","","13365","117","6","4","lose","no-go","0"
"pit-trial","236","1428637","0.0-122.0","battery-v0.2","","""event"",""trial"",""time""
""fullscreenenter"",""1"",""3178""
","
","
","""event"",""trial"",""time""
""fullscreenenter"",""1"",""3178""
","
","","","-1","","","18","13365","5820","u","elianto","#3366ff99","-1","-1","1","+10","[]","0","2","","","13365","118","9","2","win","no-go","0"
"pit-trial","237","1433223","0.0-123.0","battery-v0.2","","""event"",""trial"",""time""
""fullscreenenter"",""1"",""3178""
","
","
","""event"",""trial"",""time""
""fullscreenenter"",""1"",""3178""
","
","","","1729","","","18","13365","5820","l","elianto","#3366ff99","-1"," ","0","0","[2580.2000000029802]","1","2","","","13365","119","8","2","win","no-go","0"
"pit-trial","238","1438081","0.0-124.0","battery-v0.2","","""event"",""trial"",""time""
""fullscreenenter"",""1"",""3178""
","
","
","""event"",""trial"",""time""
""fullscreenenter"",""1"",""3178""
","
","","","-1","","","18","13365","5820","p","elianto","#3366ff99"," ","-1","0","0","[2868.1999999955297]","1","2","","","13365","120","5","1","win","go","0"
"pit-trial","239","1442674","0.0-125.0","battery-v0.2","","""event"",""trial"",""time""
""fullscreenenter"",""1"",""3178""
","
","
","""event"",""trial"",""time""
""fullscreenenter"",""1"",""3178""
","
","","","1735.7999999970198","","","18","13365","5820","a","elianto","#f73b6a7A"," "," ","1","-10","[2587.1999999955297]","1","2","","","13365","121","7","3","lose","go","1"
"pit-trial","240","1447531","0.0-126.0","battery-v0.2","","""event"",""trial"",""time""
""fullscreenenter"",""1"",""3178""
","
","
","""event"",""trial"",""time""
""fullscreenenter"",""1"",""3178""
","
","","","-1","","","18","13365","5820","l","elianto","#3366ff99","-1","-1","1","0","[3096.39999999851]","1","2","","","13365","122","8","2","win","no-go","1"
"pit-trial","241","1452389","0.0-127.0","battery-v0.2","","""event"",""trial"",""time""
""fullscreenenter"",""1"",""3178""
","
","
","""event"",""trial"",""time""
""fullscreenenter"",""1"",""3178""
","
","","","-1","","","18","13365","5820","u","elianto","#3366ff99","-1","-1","1","0","[]","0","2","","","13365","123","9","2","win","no-go","1"
"pit-trial","242","1457030","0.0-128.0","battery-v0.2","","""event"",""trial"",""time""
""fullscreenenter"",""1"",""3178""
","
","
","""event"",""trial"",""time""
""fullscreenenter"",""1"",""3178""
","
","","","1785.3000000044703","","","18","13365","5820","p","elianto","#3366ff99"," "," ","1","+10","[2636.3000000044703]","1","2","","","13365","124","5","1","win","go","0"
"pit-trial","243","1461887","0.0-129.0","battery-v0.2","","""event"",""trial"",""time""
""fullscreenenter"",""1"",""3178""
","
","
","""event"",""trial"",""time""
""fullscreenenter"",""1"",""3178""
","
","","","-1","","","18","13365","5820","a","elianto","#f73b6a7A"," ","-1","0","-10","[]","0","2","","","13365","125","7","3","lose","go","0"
"pit-trial","244","1466744","0.0-130.0","battery-v0.2","","""event"",""trial"",""time""
""fullscreenenter"",""1"",""3178""
","
","
","""event"",""trial"",""time""
""fullscreenenter"",""1"",""3178""
","
","","","-1","","","18","13365","5820","l","elianto","#3366ff99","-1","-1","1","0","[]","0","2","","","13365","126","8","2","win","no-go","1"
"pit-trial","245","1471602","0.0-131.0","battery-v0.2","","""event"",""trial"",""time""
""fullscreenenter"",""1"",""3178""
","
","
","""event"",""trial"",""time""
""fullscreenenter"",""1"",""3178""
","
","","","-1","","","18","13365","5820","u","elianto","#3366ff99","-1","-1","1","+10","[]","0","2","","","13365","127","9","2","win","no-go","0"
"pit-trial","246","1476460","0.0-132.0","battery-v0.2","","""event"",""trial"",""time""
""fullscreenenter"",""1"",""3178""
","
","
","""event"",""trial"",""time""
""fullscreenenter"",""1"",""3178""
","
","","","-1","","","18","13365","5820","g","elianto","#f73b6a7A","-1","-1","1","0","[]","0","2","","","13365","128","6","4","lose","no-go","0"
"pit-trial","247","1481320","0.0-133.0","battery-v0.2","","""event"",""trial"",""time""
""fullscreenenter"",""1"",""3178""
","
","
","""event"",""trial"",""time""
""fullscreenenter"",""1"",""3178""
","
","","","-1","","","18","13365","5820","g","elianto","#f73b6a7A","-1","-1","1","0","[]","0","2","","","13365","129","6","4","lose","no-go","0"
"pit-trial","248","1485694","0.0-134.0","battery-v0.2","","""event"",""trial"",""time""
""fullscreenenter"",""1"",""3178""
","
","
","""event"",""trial"",""time""
""fullscreenenter"",""1"",""3178""
","
","","","1510.3999999985099","","","18","13365","5820","a","elianto","#f73b6a7A"," "," ","1","0","[2361.5]","1","2","","","13365","130","7","3","lose","go","0"
"pit-trial","249","1490558","0.0-135.0","battery-v0.2","","""event"",""trial"",""time""
""fullscreenenter"",""1"",""3178""
","
","
","""event"",""trial"",""time""
""fullscreenenter"",""1"",""3178""
","
","","","-1","","","18","13365","5820","l","elianto","#3366ff99","-1","-1","1","+10","[]","0","2","","","13365","131","8","2","win","no-go","0"
"pit-trial","250","1495419","0.0-136.0","battery-v0.2","","""event"",""trial"",""time""
""fullscreenenter"",""1"",""3178""
","
","
","""event"",""trial"",""time""
""fullscreenenter"",""1"",""3178""
","
","","","-1","","","18","13365","5820","u","elianto","#3366ff99","-1","-1","1","0","[]","0","2","","","13365","132","9","2","win","no-go","1"
"pit-trial","251","1500281","0.0-137.0","battery-v0.2","","""event"",""trial"",""time""
""fullscreenenter"",""1"",""3178""
","
","
","""event"",""trial"",""time""
""fullscreenenter"",""1"",""3178""
","
","","","-1","","","18","13365","5820","g","elianto","#f73b6a7A","-1","-1","1","0","[]","0","2","","","13365","133","6","4","lose","no-go","0"
"pit-trial","252","1505116","0.0-138.0","battery-v0.2","","""event"",""trial"",""time""
""fullscreenenter"",""1"",""3178""
","
","
","""event"",""trial"",""time""
""fullscreenenter"",""1"",""3178""
","
","","","1975.7999999970198","","","18","13365","5820","l","elianto","#3366ff99","-1"," ","0","0","[2827.5]","1","2","","","13365","134","8","2","win","no-go","0"
"pit-trial","253","1509975","0.0-139.0","battery-v0.2","","""event"",""trial"",""time""
""fullscreenenter"",""1"",""3178""
","
","
","""event"",""trial"",""time""
""fullscreenenter"",""1"",""3178""
","
","","","-1","","","18","13365","5820","u","elianto","#3366ff99","-1","-1","1","+10","[]","0","2","","","13365","135","9","2","win","no-go","0"
"pit-trial","254","1514086","0.0-140.0","battery-v0.2","","""event"",""trial"",""time""
""fullscreenenter"",""1"",""3178""
","
","
","""event"",""trial"",""time""
""fullscreenenter"",""1"",""3178""
","
","","","1252.5","","","18","13365","5820","a","elianto","#f73b6a7A"," "," ","1","0","[2104]","1","2","","","13365","136","7","3","lose","go","0"
"pit-trial","255","1518944","0.0-141.0","battery-v0.2","","""event"",""trial"",""time""
""fullscreenenter"",""1"",""3178""
","
","
","""event"",""trial"",""time""
""fullscreenenter"",""1"",""3178""
","
","","","-1","","","18","13365","5820","u","elianto","#3366ff99","-1","-1","1","+10","[]","0","2","","","13365","137","9","2","win","no-go","0"
"pit-trial","256","1523802","0.0-142.0","battery-v0.2","","""event"",""trial"",""time""
""fullscreenenter"",""1"",""3178""
","
","
","""event"",""trial"",""time""
""fullscreenenter"",""1"",""3178""
","
","","","-1","","","18","13365","5820","l","elianto","#3366ff99","-1","-1","1","+10","[]","0","2","","","13365","138","8","2","win","no-go","0"
"pit-trial","257","1528026","0.0-143.0","battery-v0.2","","""event"",""trial"",""time""
""fullscreenenter"",""1"",""3178""
","
","
","""event"",""trial"",""time""
""fullscreenenter"",""1"",""3178""
","
","","","1366.5","","","18","13365","5820","a","elianto","#f73b6a7A"," "," ","1","-10","[2217.2000000029802]","1","2","","","13365","139","7","3","lose","go","1"
"pit-trial","258","1532884","0.0-144.0","battery-v0.2","","""event"",""trial"",""time""
""fullscreenenter"",""1"",""3178""
","
","
","""event"",""trial"",""time""
""fullscreenenter"",""1"",""3178""
","
","","","-1","","","18","13365","5820","g","elianto","#f73b6a7A","-1","-1","1","0","[]","0","2","","","13365","140","6","4","lose","no-go","0"
"pit-instructions","259","1548984","0.0-145.0","battery-v0.2","","""event"",""trial"",""time""
""fullscreenenter"",""1"",""3178""
","
","
","""event"",""trial"",""time""
""fullscreenenter"",""1"",""3178""
","
","","[{""page_index"":0,""viewing_time"":6228.19999999553},{""page_index"":1,""viewing_time"":9867.60000000149}]","16096.29999999702","","","","","","","","","","","","","","","","","","","","","","","",""
"pit-trial","260","1552398","0.0-146.0","battery-v0.2","","""event"",""trial"",""time""
""fullscreenenter"",""1"",""3178""
","
","
","""event"",""trial"",""time""
""fullscreenenter"",""1"",""3178""
","
","","","555.4000000059605","","","18","13365","5820","f","elianto","#3366ff99","-1"," ","0","0","[1407.6000000014901]","1","3","","","13365","141","1","2","win","no-go","0"
"pit-trial","261","1557256","0.0-147.0","battery-v0.2","","""event"",""trial"",""time""
""fullscreenenter"",""1"",""3178""
","
","
","""event"",""trial"",""time""
""fullscreenenter"",""1"",""3178""
","
","","","-1","","","18","13365","5820","n","elianto","#f73b6a7A"," ","-1","0","-10","[]","0","3","","","13365","142","0","3","lose","go","0"
"pit-trial","262","1562114","0.0-148.0","battery-v0.2","","""event"",""trial"",""time""
""fullscreenenter"",""1"",""3178""
","
","
","""event"",""trial"",""time""
""fullscreenenter"",""1"",""3178""
","
","","","-1","","","18","13365","5820","t","elianto","#f73b6a7A"," ","-1","0","0","[]","0","3","","","13365","143","2","3","lose","go","1"
"pit-trial","263","1566971","0.0-149.0","battery-v0.2","","""event"",""trial"",""time""
""fullscreenenter"",""1"",""3178""
","
","
","""event"",""trial"",""time""
""fullscreenenter"",""1"",""3178""
","
","","","-1","","","18","13365","5820","b","elianto","#f73b6a7A","-1","-1","1","0","[]","0","3","","","13365","144","3","4","lose","no-go","0"
"pit-trial","264","1571828","0.0-150.0","battery-v0.2","","""event"",""trial"",""time""
""fullscreenenter"",""1"",""3178""
","
","
","""event"",""trial"",""time""
""fullscreenenter"",""1"",""3178""
","
","","","-1","","","18","13365","5820","t","elianto","#f73b6a7A"," ","-1","0","-10","[]","0","3","","","13365","145","2","3","lose","go","0"
"pit-trial","265","1576364","0.0-151.0","battery-v0.2","","""event"",""trial"",""time""
""fullscreenenter"",""1"",""3178""
","
","
","""event"",""trial"",""time""
""fullscreenenter"",""1"",""3178""
","
","","","1678.5","","","18","13365","5820","n","elianto","#f73b6a7A"," "," ","1","0","[2529.89999999851]","1","3","","","13365","146","0","3","lose","go","0"
"pit-trial","266","1581222","0.0-152.0","battery-v0.2","","""event"",""trial"",""time""
""fullscreenenter"",""1"",""3178""
","
","
","""event"",""trial"",""time""
""fullscreenenter"",""1"",""3178""
","
","","","-1","","","18","13365","5820","f","elianto","#3366ff99","-1","-1","1","0","[]","0","3","","","13365","147","1","2","win","no-go","1"
"pit-trial","267","1586078","0.0-153.0","battery-v0.2","","""event"",""trial"",""time""
""fullscreenenter"",""1"",""3178""
","
","
","""event"",""trial"",""time""
""fullscreenenter"",""1"",""3178""
","
","","","-1","","","18","13365","5820","b","elianto","#f73b6a7A","-1","-1","1","0","[]","0","3","","","13365","148","3","4","lose","no-go","0"
"pit-trial","268","1590936","0.0-154.0","battery-v0.2","","""event"",""trial"",""time""
""fullscreenenter"",""1"",""3178""
","
","
","""event"",""trial"",""time""
""fullscreenenter"",""1"",""3178""
","
","","","-1","","","18","13365","5820","n","elianto","#f73b6a7A"," ","-1","0","0","[2881.9000000059605]","1","3","","","13365","149","0","3","lose","go","1"
