"trial_type","trial_index","time_elapsed","internal_node_id","task_version","subject_id","interactions","blur_events","focus_events","fullscreenenter_events","fullscreenexit_events","success","view_history","rt","responses","num_errors","age","subject","participantId","rune","rune_set","hex","correct","choice","accuracy","outcome","keys","total_keys","block","practice","value","sub","trial","stimulus","robot","valence","action","sham"
"pavlovia","0","7","0.0-0.0","battery-v0.2","","""event"",""trial"",""time""
""focus"",""0"",""0""
""fullscreenenter"",""1"",""2140""
","
","""event"",""trial"",""time""
""focus"",""0"",""0""
","""event"",""trial"",""time""
""fullscreenenter"",""1"",""2140""
","
","","","","","","","","","","","","","","","","","","","","","","","","","","",""
"fullscreen","1","2920","0.0-1.0","battery-v0.2","","""event"",""trial"",""time""
""focus"",""0"",""0""
""fullscreenenter"",""1"",""2140""
","
","""event"",""trial"",""time""
""focus"",""0"",""0""
","""event"",""trial"",""time""
""fullscreenenter"",""1"",""2140""
","
","true","","","","","","","","","","","","","","","","","","","","","","","","","",""
"pit-instructions","2","6843","0.0-2.0-0.0","battery-v0.2","","""event"",""trial"",""time""
""focus"",""0"",""0""
""fullscreenenter"",""1"",""2140""
","
","""event"",""trial"",""time""
""focus"",""0"",""0""
","""event"",""trial"",""time""
""fullscreenenter"",""1"",""2140""
","
","","[{""page_index"":0,""viewing_time"":3913}]","3914","","","","","","","","","","","","","","","","","","","","","","","",""
"pit-comprehension","3","9845","0.0-2.0-1.0-0.0","battery-v0.2","","""event"",""trial"",""time""
""focus"",""0"",""0""
""fullscreenenter"",""1"",""2140""
","
","""event"",""trial"",""time""
""focus"",""0"",""0""
","""event"",""trial"",""time""
""fullscreenenter"",""1"",""2140""
","
","","","2996","[""shark""]","0","24","6102","837","","","","","","","","","","","","","","","","","","",""
"pit-instructions","4","11755","0.0-2.0-1.0-1.0","battery-v0.2","","""event"",""trial"",""time""
""focus"",""0"",""0""
""fullscreenenter"",""1"",""2140""
","
","""event"",""trial"",""time""
""focus"",""0"",""0""
","""event"",""trial"",""time""
""fullscreenenter"",""1"",""2140""
","
","","[{""page_index"":0,""viewing_time"":1905}]","1906","","","","","","","","","","","","","","","","","","","","","","","",""
"pit-comprehension","5","14708","0.0-2.0-2.0-0.0","battery-v0.2","","""event"",""trial"",""time""
""focus"",""0"",""0""
""fullscreenenter"",""1"",""2140""
","
","""event"",""trial"",""time""
""focus"",""0"",""0""
","""event"",""trial"",""time""
""fullscreenenter"",""1"",""2140""
","
","","","2947","[""tiger""]","0","24","6102","837","","","","","","","","","","","","","","","","","","",""
"pit-instructions","6","16196","0.0-2.0-2.0-1.0","battery-v0.2","","""event"",""trial"",""time""
""focus"",""0"",""0""
""fullscreenenter"",""1"",""2140""
","
","""event"",""trial"",""time""
""focus"",""0"",""0""
","""event"",""trial"",""time""
""fullscreenenter"",""1"",""2140""
","
","","[{""page_index"":0,""viewing_time"":1485}]","1486","","","","","","","","","","","","","","","","","","","","","","","",""
"pit-instructions","7","112276","0.0-2.0-3.0","battery-v0.2","","""event"",""trial"",""time""
""focus"",""0"",""0""
""fullscreenenter"",""1"",""2140""
","
","""event"",""trial"",""time""
""focus"",""0"",""0""
","""event"",""trial"",""time""
""fullscreenenter"",""1"",""2140""
","
","","[{""page_index"":0,""viewing_time"":10485},{""page_index"":1,""viewing_time"":8122},{""page_index"":2,""viewing_time"":6624},{""page_index"":3,""viewing_time"":5210},{""page_index"":4,""viewing_time"":5845},{""page_index"":5,""viewing_time"":5691},{""page_index"":6,""viewing_time"":6813},{""page_index"":7,""viewing_time"":6621},{""page_index"":8,""viewing_time"":6108},{""page_index"":9,""viewing_time"":7577},{""page_index"":10,""viewing_time"":7913},{""page_index"":11,""viewing_time"":7475},{""page_index"":12,""viewing_time"":6892},{""page_index"":13,""viewing_time"":4696}]","96073","","","","","","","","","","","","","","","","","","","","","","","",""
"pit-trial","8","115881","0.0-2.0-4.0-0.0","battery-v0.2","","""event"",""trial"",""time""
""focus"",""0"",""0""
""fullscreenenter"",""1"",""2140""
","
","""event"",""trial"",""time""
""focus"",""0"",""0""
","""event"",""trial"",""time""
""fullscreenenter"",""1"",""2140""
","
","","","744","","","24","6102","837","&#9784;","elianto","#FFFFF080"," "," ","1","&#10004","[1598]","1","0","0","","","","","","","",""
"pit-trial","9","119281","0.0-2.0-4.1-0.1","battery-v0.2","","""event"",""trial"",""time""
""focus"",""0"",""0""
""fullscreenenter"",""1"",""2140""
","
","""event"",""trial"",""time""
""focus"",""0"",""0""
","""event"",""trial"",""time""
""fullscreenenter"",""1"",""2140""
","
","","","534","","","24","6102","837","&#9784;","elianto","#FFFFF080"," "," ","1","&#10004","[1388]","1","0","0","","","","","","","",""
"pit-trial","10","122829","0.0-2.0-4.2-0.2","battery-v0.2","","""event"",""trial"",""time""
""focus"",""0"",""0""
""fullscreenenter"",""1"",""2140""
","
","""event"",""trial"",""time""
""focus"",""0"",""0""
","""event"",""trial"",""time""
""fullscreenenter"",""1"",""2140""
","
","","","688","","","24","6102","837","&#9784;","elianto","#FFFFF080"," "," ","1","&#10004","[1541]","1","0","0","","","","","","","",""
"pit-trial","11","126443","0.0-2.0-4.3-0.3","battery-v0.2","","""event"",""trial"",""time""
""focus"",""0"",""0""
""fullscreenenter"",""1"",""2140""
","
","""event"",""trial"",""time""
""focus"",""0"",""0""
","""event"",""trial"",""time""
""fullscreenenter"",""1"",""2140""
","
","","","754","","","24","6102","837","&#9784;","elianto","#FFFFF080"," "," ","1","&#10004","[1607]","1","0","0","","","","","","","",""
"pit-trial","12","129792","0.0-2.0-4.4-0.4","battery-v0.2","","""event"",""trial"",""time""
""focus"",""0"",""0""
""fullscreenenter"",""1"",""2140""
","
","""event"",""trial"",""time""
""focus"",""0"",""0""
","""event"",""trial"",""time""
""fullscreenenter"",""1"",""2140""
","
","","","489","","","24","6102","837","&#9784;","elianto","#FFFFF080"," "," ","1","&#10004","[1339]","1","0","0","","","","","","","",""
"pit-instructions","13","151105","0.0-2.0-5.0","battery-v0.2","","""event"",""trial"",""time""
""focus"",""0"",""0""
""fullscreenenter"",""1"",""2140""
","
","""event"",""trial"",""time""
""focus"",""0"",""0""
","""event"",""trial"",""time""
""fullscreenenter"",""1"",""2140""
","
","","[{""page_index"":0,""viewing_time"":4994},{""page_index"":1,""viewing_time"":6295},{""page_index"":2,""viewing_time"":4648},{""page_index"":3,""viewing_time"":5369}]","21307","","","","","","","","","","","","","","","","","","","","","","","",""
"pit-trial","14","155969","0.0-2.0-6.0-0.0","battery-v0.2","","""event"",""trial"",""time""
""focus"",""0"",""0""
""fullscreenenter"",""1"",""2140""
","
","""event"",""trial"",""time""
""focus"",""0"",""0""
","""event"",""trial"",""time""
""fullscreenenter"",""1"",""2140""
","
","","","-1","","","24","6102","837","&#9854;","elianto","#FFFFF080","-1","-1","1","&#10004","[]","0","0","1","","","","","","","",""
"pit-trial","15","160828","0.0-2.0-6.1-0.1","battery-v0.2","","""event"",""trial"",""time""
""focus"",""0"",""0""
""fullscreenenter"",""1"",""2140""
","
","""event"",""trial"",""time""
""focus"",""0"",""0""
","""event"",""trial"",""time""
""fullscreenenter"",""1"",""2140""
","
","","","-1","","","24","6102","837","&#9854;","elianto","#FFFFF080","-1","-1","1","&#10004","[]","0","0","1","","","","","","","",""
"pit-trial","16","165694","0.0-2.0-6.2-0.2","battery-v0.2","","""event"",""trial"",""time""
""focus"",""0"",""0""
""fullscreenenter"",""1"",""2140""
","
","""event"",""trial"",""time""
""focus"",""0"",""0""
","""event"",""trial"",""time""
""fullscreenenter"",""1"",""2140""
","
","","","-1","","","24","6102","837","&#9854;","elianto","#FFFFF080","-1","-1","1","&#10004","[]","0","0","1","","","","","","","",""
"pit-trial","17","170549","0.0-2.0-6.3-0.3","battery-v0.2","","""event"",""trial"",""time""
""focus"",""0"",""0""
""fullscreenenter"",""1"",""2140""
","
","""event"",""trial"",""time""
""focus"",""0"",""0""
","""event"",""trial"",""time""
""fullscreenenter"",""1"",""2140""
","
","","","-1","","","24","6102","837","&#9854;","elianto","#FFFFF080","-1","-1","1","&#10004","[]","0","0","1","","","","","","","",""
"pit-trial","18","175409","0.0-2.0-6.4-0.4","battery-v0.2","","""event"",""trial"",""time""
""focus"",""0"",""0""
""fullscreenenter"",""1"",""2140""
","
","""event"",""trial"",""time""
""focus"",""0"",""0""
","""event"",""trial"",""time""
""fullscreenenter"",""1"",""2140""
","
","","","-1","","","24","6102","837","&#9854;","elianto","#FFFFF080","-1","-1","1","&#10004","[]","0","0","1","","","","","","","",""
"pit-instructions","19","292875","0.0-2.0-7.0","battery-v0.2","","""event"",""trial"",""time""
""focus"",""0"",""0""
""fullscreenenter"",""1"",""2140""
","
","""event"",""trial"",""time""
""focus"",""0"",""0""
","""event"",""trial"",""time""
""fullscreenenter"",""1"",""2140""
","
","","[{""page_index"":0,""viewing_time"":6242},{""page_index"":1,""viewing_time"":7105},{""page_index"":2,""viewing_time"":5870},{""page_index"":3,""viewing_time"":5896},{""page_index"":4,""viewing_time"":5667},{""page_index"":5,""viewing_time"":5426},{""page_index"":6,""viewing_time"":4068},{""page_index"":7,""viewing_time"":8951},{""page_index"":8,""viewing_time"":7566},{""page_index"":9,""viewing_time"":5514},{""page_index"":10,""viewing_time"":6603},{""page_index"":11,""viewing_time"":4654},{""page_index"":12,""viewing_time"":6529},{""page_index"":13,""viewing_time"":8837},{""page_index"":14,""viewing_time"":7292},{""page_index"":15,""viewing_time"":7167},{""page_index"":16,""viewing_time"":6998},{""page_index"":17,""viewing_time"":7074}]","117461","","","","","","","","","","","","","","","","","","","","","","","",""
"pit-trial","20","297734","0.0-2.0-8.0-0.0","battery-v0.2","","""event"",""trial"",""time""
""focus"",""0"",""0""
""fullscreenenter"",""1"",""2140""
","
","""event"",""trial"",""time""
""focus"",""0"",""0""
","""event"",""trial"",""time""
""fullscreenenter"",""1"",""2140""
","
","","","-1","","","24","6102","837","&#9776;","elianto","#3366ff99"," ","-1","0","0","[]","0","0","1","","","","","","","",""
"pit-trial","21","301208","0.0-2.0-8.0-1.0","battery-v0.2","","""event"",""trial"",""time""
""focus"",""0"",""0""
""fullscreenenter"",""1"",""2140""
","
","""event"",""trial"",""time""
""focus"",""0"",""0""
","""event"",""trial"",""time""
""fullscreenenter"",""1"",""2140""
","
","","","615","","","24","6102","837","&#9776;","elianto","#3366ff99"," "," ","1","+10","[1469]","1","0","1","","","","","","","",""
"pit-trial","22","304525","0.0-2.0-8.0-2.0","battery-v0.2","","""event"",""trial"",""time""
""focus"",""0"",""0""
""fullscreenenter"",""1"",""2140""
","
","""event"",""trial"",""time""
""focus"",""0"",""0""
","""event"",""trial"",""time""
""fullscreenenter"",""1"",""2140""
","
","","","453","","","24","6102","837","&#9776;","elianto","#3366ff99"," "," ","1","+10","[1308]","1","0","1","","","","","","","",""
"pit-trial","23","307985","0.0-2.0-8.0-3.0","battery-v0.2","","""event"",""trial"",""time""
""focus"",""0"",""0""
""fullscreenenter"",""1"",""2140""
","
","""event"",""trial"",""time""
""focus"",""0"",""0""
","""event"",""trial"",""time""
""fullscreenenter"",""1"",""2140""
","
","","","600","","","24","6102","837","&#9776;","elianto","#3366ff99"," "," ","1","0","[1453]","1","0","1","","","","","","","",""
"pit-trial","24","311264","0.0-2.0-8.0-4.0","battery-v0.2","","""event"",""trial"",""time""
""focus"",""0"",""0""
""fullscreenenter"",""1"",""2140""
","
","""event"",""trial"",""time""
""focus"",""0"",""0""
","""event"",""trial"",""time""
""fullscreenenter"",""1"",""2140""
","
","","","417","","","24","6102","837","&#9776;","elianto","#3366ff99"," "," ","1","+10","[1269]","1","0","1","","","","","","","",""
"pit-trial","25","314620","0.0-2.0-8.1-0.1","battery-v0.2","","""event"",""trial"",""time""
""focus"",""0"",""0""
""fullscreenenter"",""1"",""2140""
","
","""event"",""trial"",""time""
""focus"",""0"",""0""
","""event"",""trial"",""time""
""fullscreenenter"",""1"",""2140""
","
","","","493","","","24","6102","837","&#9776;","elianto","#3366ff99"," "," ","1","+10","[1347]","1","0","1","","","","","","","",""
"pit-trial","26","317864","0.0-2.0-8.1-1.1","battery-v0.2","","""event"",""trial"",""time""
""focus"",""0"",""0""
""fullscreenenter"",""1"",""2140""
","
","""event"",""trial"",""time""
""focus"",""0"",""0""
","""event"",""trial"",""time""
""fullscreenenter"",""1"",""2140""
","
","","","384","","","24","6102","837","&#9776;","elianto","#3366ff99"," "," ","1","+10","[1236]","1","0","1","","","","","","","",""
"pit-trial","27","320817","0.0-2.0-8.1-2.1","battery-v0.2","","""event"",""trial"",""time""
""focus"",""0"",""0""
""fullscreenenter"",""1"",""2140""
","
","""event"",""trial"",""time""
""focus"",""0"",""0""
","""event"",""trial"",""time""
""fullscreenenter"",""1"",""2140""
","
","","","91","","","24","6102","837","&#9776;","elianto","#3366ff99"," "," ","1","+10","[945]","1","0","1","","","","","","","",""
"pit-trial","28","324066","0.0-2.0-8.1-3.1","battery-v0.2","","""event"",""trial"",""time""
""focus"",""0"",""0""
""fullscreenenter"",""1"",""2140""
","
","""event"",""trial"",""time""
""focus"",""0"",""0""
","""event"",""trial"",""time""
""fullscreenenter"",""1"",""2140""
","
","","","392","","","24","6102","837","&#9776;","elianto","#3366ff99"," "," ","1","0","[1242]","1","0","1","","","","","","","",""
"pit-trial","29","327604","0.0-2.0-8.1-4.1","battery-v0.2","","""event"",""trial"",""time""
""focus"",""0"",""0""
""fullscreenenter"",""1"",""2140""
","
","""event"",""trial"",""time""
""focus"",""0"",""0""
","""event"",""trial"",""time""
""fullscreenenter"",""1"",""2140""
","
","","","679","","","24","6102","837","&#9776;","elianto","#3366ff99"," "," ","1","+10","[1530]","1","0","1","","","","","","","",""
"pit-trial","30","331265","0.0-2.0-8.2-0.2","battery-v0.2","","""event"",""trial"",""time""
""focus"",""0"",""0""
""fullscreenenter"",""1"",""2140""
","
","""event"",""trial"",""time""
""focus"",""0"",""0""
","""event"",""trial"",""time""
""fullscreenenter"",""1"",""2140""
","
","","","803","","","24","6102","837","&#9776;","elianto","#3366ff99"," "," ","1","+10","[1657]","1","0","1","","","","","","","",""
"pit-trial","31","334744","0.0-2.0-8.2-1.2","battery-v0.2","","""event"",""trial"",""time""
""focus"",""0"",""0""
""fullscreenenter"",""1"",""2140""
","
","""event"",""trial"",""time""
""focus"",""0"",""0""
","""event"",""trial"",""time""
""fullscreenenter"",""1"",""2140""
","
","","","619","","","24","6102","837","&#9776;","elianto","#3366ff99"," "," ","1","+10","[1470]","1","0","1","","","","","","","",""
"pit-trial","32","338421","0.0-2.0-8.2-2.2","battery-v0.2","","""event"",""trial"",""time""
""focus"",""0"",""0""
""fullscreenenter"",""1"",""2140""
","
","""event"",""trial"",""time""
""focus"",""0"",""0""
","""event"",""trial"",""time""
""fullscreenenter"",""1"",""2140""
","
","","","816","","","24","6102","837","&#9776;","elianto","#3366ff99"," "," ","1","+10","[1668]","1","0","1","","","","","","","",""
"pit-trial","33","342044","0.0-2.0-8.2-3.2","battery-v0.2","","""event"",""trial"",""time""
""focus"",""0"",""0""
""fullscreenenter"",""1"",""2140""
","
","""event"",""trial"",""time""
""focus"",""0"",""0""
","""event"",""trial"",""time""
""fullscreenenter"",""1"",""2140""
","
","","","762","","","24","6102","837","&#9776;","elianto","#3366ff99"," "," ","1","0","[1614]","1","0","1","","","","","","","",""
"pit-trial","34","345635","0.0-2.0-8.2-4.2","battery-v0.2","","""event"",""trial"",""time""
""focus"",""0"",""0""
""fullscreenenter"",""1"",""2140""
","
","""event"",""trial"",""time""
""focus"",""0"",""0""
","""event"",""trial"",""time""
""fullscreenenter"",""1"",""2140""
","
","","","732","","","24","6102","837","&#9776;","elianto","#3366ff99"," "," ","1","+10","[1584]","1","0","1","","","","","","","",""
"call-function","35","345638","0.0-2.0-9.0","battery-v0.2","","""event"",""trial"",""time""
""focus"",""0"",""0""
""fullscreenenter"",""1"",""2140""
","
","""event"",""trial"",""time""
""focus"",""0"",""0""
","""event"",""trial"",""time""
""fullscreenenter"",""1"",""2140""
","
","","","","","","","","","","","","","","","","","","","","","","","","","","",""
"pit-instructions","36","383517","0.0-2.0-10.0","battery-v0.2","","""event"",""trial"",""time""
""focus"",""0"",""0""
""fullscreenenter"",""1"",""2140""
","
","""event"",""trial"",""time""
""focus"",""0"",""0""
","""event"",""trial"",""time""
""fullscreenenter"",""1"",""2140""
","
","","[{""page_index"":0,""viewing_time"":5969},{""page_index"":1,""viewing_time"":6764},{""page_index"":2,""viewing_time"":9198},{""page_index"":3,""viewing_time"":8638},{""page_index"":4,""viewing_time"":7309}]","37878","","","","","","","","","","","","","","","","","","","","","","","",""
"pit-trial","37","388375","0.0-2.0-11.0-0.0","battery-v0.2","","""event"",""trial"",""time""
""focus"",""0"",""0""
""fullscreenenter"",""1"",""2140""
","
","""event"",""trial"",""time""
""focus"",""0"",""0""
","""event"",""trial"",""time""
""fullscreenenter"",""1"",""2140""
","
","","","-1","","","24","6102","837","&#9761;","elianto","#3366ff99","-1","-1","1","+10","[]","0","0","2","","","","","","","",""
"pit-trial","38","393236","0.0-2.0-11.0-1.0","battery-v0.2","","""event"",""trial"",""time""
""focus"",""0"",""0""
""fullscreenenter"",""1"",""2140""
","
","""event"",""trial"",""time""
""focus"",""0"",""0""
","""event"",""trial"",""time""
""fullscreenenter"",""1"",""2140""
","
","","","-1","","","24","6102","837","&#9761;","elianto","#3366ff99","-1","-1","1","+10","[]","0","0","2","","","","","","","",""
"pit-trial","39","398095","0.0-2.0-11.0-2.0","battery-v0.2","","""event"",""trial"",""time""
""focus"",""0"",""0""
""fullscreenenter"",""1"",""2140""
","
","""event"",""trial"",""time""
""focus"",""0"",""0""
","""event"",""trial"",""time""
""fullscreenenter"",""1"",""2140""
","
","","","-1","","","24","6102","837","&#9761;","elianto","#3366ff99","-1","-1","1","+10","[]","0","0","2","","","","","","","",""
"pit-trial","40","402954","0.0-2.0-11.0-3.0","battery-v0.2","","""event"",""trial"",""time""
""focus"",""0"",""0""
""fullscreenenter"",""1"",""2140""
","
","""event"",""trial"",""time""
""focus"",""0"",""0""
","""event"",""trial"",""time""
""fullscreenenter"",""1"",""2140""
","
","","","-1","","","24","6102","837","&#9761;","elianto","#3366ff99","-1","-1","1","0","[]","0","0","2","","","","","","","",""
"pit-trial","41","407810","0.0-2.0-11.0-4.0","battery-v0.2","","""event"",""trial"",""time""
""focus"",""0"",""0""
""fullscreenenter"",""1"",""2140""
","
","""event"",""trial"",""time""
""focus"",""0"",""0""
","""event"",""trial"",""time""
""fullscreenenter"",""1"",""2140""
","
","","","-1","","","24","6102","837","&#9761;","elianto","#3366ff99","-1","-1","1","+10","[]","0","0","2","","","","","","","",""
"pit-trial","42","412672","0.0-2.0-11.1-0.1","battery-v0.2","","""event"",""trial"",""time""
""focus"",""0"",""0""
""fullscreenenter"",""1"",""2140""
","
","""event"",""trial"",""time""
""focus"",""0"",""0""
","""event"",""trial"",""time""
""fullscreenenter"",""1"",""2140""
","
","","","-1","","","24","6102","837","&#9761;","elianto","#3366ff99","-1","-1","1","+10","[]","0","0","2","","","","","","","",""
"pit-trial","43","417536","0.0-2.0-11.1-1.1","battery-v0.2","","""event"",""trial"",""time""
""focus"",""0"",""0""
""fullscreenenter"",""1"",""2140""
","
","""event"",""trial"",""time""
""focus"",""0"",""0""
","""event"",""trial"",""time""
""fullscreenenter"",""1"",""2140""
","
","","","-1","","","24","6102","837","&#9761;","elianto","#3366ff99","-1","-1","1","+10","[]","0","0","2","","","","","","","",""
"pit-trial","44","422396","0.0-2.0-11.1-2.1","battery-v0.2","","""event"",""trial"",""time""
""focus"",""0"",""0""
""fullscreenenter"",""1"",""2140""
","
","""event"",""trial"",""time""
""focus"",""0"",""0""
","""event"",""trial"",""time""
""fullscreenenter"",""1"",""2140""
","
","","","-1","","","24","6102","837","&#9761;","elianto","#3366ff99","-1","-1","1","+10","[]","0","0","2","","","","","","","",""
"pit-trial","45","427256","0.0-2.0-11.1-3.1","battery-v0.2","","""event"",""trial"",""time""
""focus"",""0"",""0""
""fullscreenenter"",""1"",""2140""
","
","""event"",""trial"",""time""
""focus"",""0"",""0""
","""event"",""trial"",""time""
""fullscreenenter"",""1"",""2140""
","
","","","-1","","","24","6102","837","&#9761;","elianto","#3366ff99","-1","-1","1","0","[]","0","0","2","","","","","","","",""
"pit-trial","46","432116","0.0-2.0-11.1-4.1","battery-v0.2","","""event"",""trial"",""time""
""focus"",""0"",""0""
""fullscreenenter"",""1"",""2140""
","
","""event"",""trial"",""time""
""focus"",""0"",""0""
","""event"",""trial"",""time""
""fullscreenenter"",""1"",""2140""
","
","","","-1","","","24","6102","837","&#9761;","elianto","#3366ff99","-1","-1","1","+10","[]","0","0","2","","","","","","","",""
"pit-trial","47","436973","0.0-2.0-11.2-0.2","battery-v0.2","","""event"",""trial"",""time""
""focus"",""0"",""0""
""fullscreenenter"",""1"",""2140""
","
","""event"",""trial"",""time""
""focus"",""0"",""0""
","""event"",""trial"",""time""
""fullscreenenter"",""1"",""2140""
","
","","","-1","","","24","6102","837","&#9761;","elianto","#3366ff99","-1","-1","1","+10","[]","0","0","2","","","","","","","",""
"pit-trial","48","441836","0.0-2.0-11.2-1.2","battery-v0.2","","""event"",""trial"",""time""
""focus"",""0"",""0""
""fullscreenenter"",""1"",""2140""
","
","""event"",""trial"",""time""
""focus"",""0"",""0""
","""event"",""trial"",""time""
""fullscreenenter"",""1"",""2140""
","
","","","-1","","","24","6102","837","&#9761;","elianto","#3366ff99","-1","-1","1","+10","[]","0","0","2","","","","","","","",""
"pit-trial","49","446699","0.0-2.0-11.2-2.2","battery-v0.2","","""event"",""trial"",""time""
""focus"",""0"",""0""
""fullscreenenter"",""1"",""2140""
","
","""event"",""trial"",""time""
""focus"",""0"",""0""
","""event"",""trial"",""time""
""fullscreenenter"",""1"",""2140""
","
","","","-1","","","24","6102","837","&#9761;","elianto","#3366ff99","-1","-1","1","+10","[]","0","0","2","","","","","","","",""
"pit-trial","50","451556","0.0-2.0-11.2-3.2","battery-v0.2","","""event"",""trial"",""time""
""focus"",""0"",""0""
""fullscreenenter"",""1"",""2140""
","
","""event"",""trial"",""time""
""focus"",""0"",""0""
","""event"",""trial"",""time""
""fullscreenenter"",""1"",""2140""
","
","","","-1","","","24","6102","837","&#9761;","elianto","#3366ff99","-1","-1","1","0","[]","0","0","2","","","","","","","",""
"pit-trial","51","456416","0.0-2.0-11.2-4.2","battery-v0.2","","""event"",""trial"",""time""
""focus"",""0"",""0""
""fullscreenenter"",""1"",""2140""
","
","""event"",""trial"",""time""
""focus"",""0"",""0""
","""event"",""trial"",""time""
""fullscreenenter"",""1"",""2140""
","
","","","-1","","","24","6102","837","&#9761;","elianto","#3366ff99","-1","-1","1","+10","[]","0","0","2","","","","","","","",""
"pit-trial","52","461277","0.0-2.0-11.3-0.3","battery-v0.2","","""event"",""trial"",""time""
""focus"",""0"",""0""
""fullscreenenter"",""1"",""2140""
","
","""event"",""trial"",""time""
""focus"",""0"",""0""
","""event"",""trial"",""time""
""fullscreenenter"",""1"",""2140""
","
","","","-1","","","24","6102","837","&#9761;","elianto","#3366ff99","-1","-1","1","+10","[]","0","0","2","","","","","","","",""
"pit-trial","53","466136","0.0-2.0-11.3-1.3","battery-v0.2","","""event"",""trial"",""time""
""focus"",""0"",""0""
""fullscreenenter"",""1"",""2140""
","
","""event"",""trial"",""time""
""focus"",""0"",""0""
","""event"",""trial"",""time""
""fullscreenenter"",""1"",""2140""
","
","","","-1","","","24","6102","837","&#9761;","elianto","#3366ff99","-1","-1","1","+10","[]","0","0","2","","","","","","","",""
"pit-trial","54","470995","0.0-2.0-11.3-2.3","battery-v0.2","","""event"",""trial"",""time""
""focus"",""0"",""0""
""fullscreenenter"",""1"",""2140""
","
","""event"",""trial"",""time""
""focus"",""0"",""0""
","""event"",""trial"",""time""
""fullscreenenter"",""1"",""2140""
","
","","","-1","","","24","6102","837","&#9761;","elianto","#3366ff99","-1","-1","1","+10","[]","0","0","2","","","","","","","",""
"pit-trial","55","475856","0.0-2.0-11.3-3.3","battery-v0.2","","""event"",""trial"",""time""
""focus"",""0"",""0""
""fullscreenenter"",""1"",""2140""
","
","""event"",""trial"",""time""
""focus"",""0"",""0""
","""event"",""trial"",""time""
""fullscreenenter"",""1"",""2140""
","
","","","-1","","","24","6102","837","&#9761;","elianto","#3366ff99","-1","-1","1","0","[]","0","0","2","","","","","","","",""
"pit-trial","56","480718","0.0-2.0-11.3-4.3","battery-v0.2","","""event"",""trial"",""time""
""focus"",""0"",""0""
""fullscreenenter"",""1"",""2140""
","
","""event"",""trial"",""time""
""focus"",""0"",""0""
","""event"",""trial"",""time""
""fullscreenenter"",""1"",""2140""
","
","","","-1","","","24","6102","837","&#9761;","elianto","#3366ff99","-1","-1","1","+10","[]","0","0","2","","","","","","","",""
"call-function","57","480719","0.0-2.0-12.0","battery-v0.2","","""event"",""trial"",""time""
""focus"",""0"",""0""
""fullscreenenter"",""1"",""2140""
","
","""event"",""trial"",""time""
""focus"",""0"",""0""
","""event"",""trial"",""time""
""fullscreenenter"",""1"",""2140""
","
","","","","","","","","","","","","","","","","","","","","","","","","","","",""
"pit-instructions","58","521214","0.0-2.0-13.0","battery-v0.2","","""event"",""trial"",""time""
""focus"",""0"",""0""
""fullscreenenter"",""1"",""2140""
","
","""event"",""trial"",""time""
""focus"",""0"",""0""
","""event"",""trial"",""time""
""fullscreenenter"",""1"",""2140""
","
","","[{""page_index"":0,""viewing_time"":9010},{""page_index"":1,""viewing_time"":9006},{""page_index"":2,""viewing_time"":7145},{""page_index"":3,""viewing_time"":10910},{""page_index"":4,""viewing_time"":4422}]","40493","","","","","","","","","","","","","","","","","","","","","","","",""
"pit-trial","59","524219","0.0-2.0-14.0-0.0","battery-v0.2","","""event"",""trial"",""time""
""focus"",""0"",""0""
""fullscreenenter"",""1"",""2140""
","
","""event"",""trial"",""time""
""focus"",""0"",""0""
","""event"",""trial"",""time""
""fullscreenenter"",""1"",""2140""
","
","","","148","","","24","6102","837","&#9826;","elianto","#f73b6a7A","-1"," ","0","-10","[999]","1","0","3","","","","","","","",""
"pit-trial","60","527834","0.0-2.0-14.0-1.0","battery-v0.2","","""event"",""trial"",""time""
""focus"",""0"",""0""
""fullscreenenter"",""1"",""2140""
","
","""event"",""trial"",""time""
""focus"",""0"",""0""
","""event"",""trial"",""time""
""fullscreenenter"",""1"",""2140""
","
","","","755","","","24","6102","837","&#9826;","elianto","#f73b6a7A","-1"," ","0","-10","[322,810,1606]","3","0","3","","","","","","","",""
"pit-trial","61","532692","0.0-2.0-14.0-2.0","battery-v0.2","","""event"",""trial"",""time""
""focus"",""0"",""0""
""fullscreenenter"",""1"",""2140""
","
","""event"",""trial"",""time""
""focus"",""0"",""0""
","""event"",""trial"",""time""
""fullscreenenter"",""1"",""2140""
","
","","","-1","","","24","6102","837","&#9826;","elianto","#f73b6a7A","-1","-1","1","0","[]","0","0","3","","","","","","","",""
"pit-trial","62","537554","0.0-2.0-14.0-3.0","battery-v0.2","","""event"",""trial"",""time""
""focus"",""0"",""0""
""fullscreenenter"",""1"",""2140""
","
","""event"",""trial"",""time""
""focus"",""0"",""0""
","""event"",""trial"",""time""
""fullscreenenter"",""1"",""2140""
","
","","","-1","","","24","6102","837","&#9826;","elianto","#f73b6a7A","-1","-1","1","-10","[]","0","0","3","","","","","","","",""
"pit-trial","63","542413","0.0-2.0-14.0-4.0","battery-v0.2","","""event"",""trial"",""time""
""focus"",""0"",""0""
""fullscreenenter"",""1"",""2140""
","
","""event"",""trial"",""time""
""focus"",""0"",""0""
","""event"",""trial"",""time""
""fullscreenenter"",""1"",""2140""
","
","","","-1","","","24","6102","837","&#9826;","elianto","#f73b6a7A","-1","-1","1","0","[]","0","0","3","","","","","","","",""
"pit-trial","64","547272","0.0-2.0-14.1-0.1","battery-v0.2","","""event"",""trial"",""time""
""focus"",""0"",""0""
""fullscreenenter"",""1"",""2140""
","
","""event"",""trial"",""time""
""focus"",""0"",""0""
","""event"",""trial"",""time""
""fullscreenenter"",""1"",""2140""
","
","","","-1","","","24","6102","837","&#9826;","elianto","#f73b6a7A","-1","-1","1","0","[]","0","0","3","","","","","","","",""
"pit-trial","65","552135","0.0-2.0-14.1-1.1","battery-v0.2","","""event"",""trial"",""time""
""focus"",""0"",""0""
""fullscreenenter"",""1"",""2140""
","
","""event"",""trial"",""time""
""focus"",""0"",""0""
","""event"",""trial"",""time""
""fullscreenenter"",""1"",""2140""
","
","","","-1","","","24","6102","837","&#9826;","elianto","#f73b6a7A","-1","-1","1","0","[]","0","0","3","","","","","","","",""
"pit-trial","66","556997","0.0-2.0-14.1-2.1","battery-v0.2","","""event"",""trial"",""time""
""focus"",""0"",""0""
""fullscreenenter"",""1"",""2140""
","
","""event"",""trial"",""time""
""focus"",""0"",""0""
","""event"",""trial"",""time""
""fullscreenenter"",""1"",""2140""
","
","","","-1","","","24","6102","837","&#9826;","elianto","#f73b6a7A","-1","-1","1","0","[]","0","0","3","","","","","","","",""
"pit-trial","67","561854","0.0-2.0-14.1-3.1","battery-v0.2","","""event"",""trial"",""time""
""focus"",""0"",""0""
""fullscreenenter"",""1"",""2140""
","
","""event"",""trial"",""time""
""focus"",""0"",""0""
","""event"",""trial"",""time""
""fullscreenenter"",""1"",""2140""
","
","","","-1","","","24","6102","837","&#9826;","elianto","#f73b6a7A","-1","-1","1","-10","[]","0","0","3","","","","","","","",""
"pit-trial","68","566710","0.0-2.0-14.1-4.1","battery-v0.2","","""event"",""trial"",""time""
""focus"",""0"",""0""
""fullscreenenter"",""1"",""2140""
","
","""event"",""trial"",""time""
""focus"",""0"",""0""
","""event"",""trial"",""time""
""fullscreenenter"",""1"",""2140""
","
","","","-1","","","24","6102","837","&#9826;","elianto","#f73b6a7A","-1","-1","1","0","[]","0","0","3","","","","","","","",""
"pit-trial","69","571573","0.0-2.0-14.2-0.2","battery-v0.2","","""event"",""trial"",""time""
""focus"",""0"",""0""
""fullscreenenter"",""1"",""2140""
","
","""event"",""trial"",""time""
""focus"",""0"",""0""
","""event"",""trial"",""time""
""fullscreenenter"",""1"",""2140""
","
","","","-1","","","24","6102","837","&#9826;","elianto","#f73b6a7A","-1","-1","1","0","[]","0","0","3","","","","","","","",""
"pit-trial","70","576433","0.0-2.0-14.2-1.2","battery-v0.2","","""event"",""trial"",""time""
""focus"",""0"",""0""
""fullscreenenter"",""1"",""2140""
","
","""event"",""trial"",""time""
""focus"",""0"",""0""
","""event"",""trial"",""time""
""fullscreenenter"",""1"",""2140""
","
","","","-1","","","24","6102","837","&#9826;","elianto","#f73b6a7A","-1","-1","1","0","[]","0","0","3","","","","","","","",""
"pit-trial","71","581291","0.0-2.0-14.2-2.2","battery-v0.2","","""event"",""trial"",""time""
""focus"",""0"",""0""
""fullscreenenter"",""1"",""2140""
","
","""event"",""trial"",""time""
""focus"",""0"",""0""
","""event"",""trial"",""time""
""fullscreenenter"",""1"",""2140""
","
","","","-1","","","24","6102","837","&#9826;","elianto","#f73b6a7A","-1","-1","1","0","[]","0","0","3","","","","","","","",""
"pit-trial","72","586152","0.0-2.0-14.2-3.2","battery-v0.2","","""event"",""trial"",""time""
""focus"",""0"",""0""
""fullscreenenter"",""1"",""2140""
","
","""event"",""trial"",""time""
""focus"",""0"",""0""
","""event"",""trial"",""time""
""fullscreenenter"",""1"",""2140""
","
","","","-1","","","24","6102","837","&#9826;","elianto","#f73b6a7A","-1","-1","1","-10","[]","0","0","3","","","","","","","",""
"pit-trial","73","591015","0.0-2.0-14.2-4.2","battery-v0.2","","""event"",""trial"",""time""
""focus"",""0"",""0""
""fullscreenenter"",""1"",""2140""
","
","""event"",""trial"",""time""
""focus"",""0"",""0""
","""event"",""trial"",""time""
""fullscreenenter"",""1"",""2140""
","
","","","-1","","","24","6102","837","&#9826;","elianto","#f73b6a7A","-1","-1","1","0","[]","0","0","3","","","","","","","",""
"pit-trial","74","595876","0.0-2.0-14.3-0.3","battery-v0.2","","""event"",""trial"",""time""
""focus"",""0"",""0""
""fullscreenenter"",""1"",""2140""
","
","""event"",""trial"",""time""
""focus"",""0"",""0""
","""event"",""trial"",""time""
""fullscreenenter"",""1"",""2140""
","
","","","-1","","","24","6102","837","&#9826;","elianto","#f73b6a7A","-1","-1","1","0","[]","0","0","3","","","","","","","",""
"pit-trial","75","600737","0.0-2.0-14.3-1.3","battery-v0.2","","""event"",""trial"",""time""
""focus"",""0"",""0""
""fullscreenenter"",""1"",""2140""
","
","""event"",""trial"",""time""
""focus"",""0"",""0""
","""event"",""trial"",""time""
""fullscreenenter"",""1"",""2140""
","
","","","-1","","","24","6102","837","&#9826;","elianto","#f73b6a7A","-1","-1","1","0","[]","0","0","3","","","","","","","",""
"pit-trial","76","605597","0.0-2.0-14.3-2.3","battery-v0.2","","""event"",""trial"",""time""
""focus"",""0"",""0""
""fullscreenenter"",""1"",""2140""
","
","""event"",""trial"",""time""
""focus"",""0"",""0""
","""event"",""trial"",""time""
""fullscreenenter"",""1"",""2140""
","
","","","-1","","","24","6102","837","&#9826;","elianto","#f73b6a7A","-1","-1","1","0","[]","0","0","3","","","","","","","",""
"pit-trial","77","610453","0.0-2.0-14.3-3.3","battery-v0.2","","""event"",""trial"",""time""
""focus"",""0"",""0""
""fullscreenenter"",""1"",""2140""
","
","""event"",""trial"",""time""
""focus"",""0"",""0""
","""event"",""trial"",""time""
""fullscreenenter"",""1"",""2140""
","
","","","-1","","","24","6102","837","&#9826;","elianto","#f73b6a7A","-1","-1","1","-10","[]","0","0","3","","","","","","","",""
"pit-trial","78","615310","0.0-2.0-14.3-4.3","battery-v0.2","","""event"",""trial"",""time""
""focus"",""0"",""0""
""fullscreenenter"",""1"",""2140""
","
","""event"",""trial"",""time""
""focus"",""0"",""0""
","""event"",""trial"",""time""
""fullscreenenter"",""1"",""2140""
","
","","","-1","","","24","6102","837","&#9826;","elianto","#f73b6a7A","-1","-1","1","0","[]","0","0","3","","","","","","","",""
"call-function","79","615312","0.0-2.0-15.0","battery-v0.2","","""event"",""trial"",""time""
""focus"",""0"",""0""
""fullscreenenter"",""1"",""2140""
","
","""event"",""trial"",""time""
""focus"",""0"",""0""
","""event"",""trial"",""time""
""fullscreenenter"",""1"",""2140""
","
","","","","","","","","","","","","","","","","","","","","","","","","","","",""
"pit-instructions","80","639675","0.0-2.0-16.0","battery-v0.2","","""event"",""trial"",""time""
""focus"",""0"",""0""
""fullscreenenter"",""1"",""2140""
","
","""event"",""trial"",""time""
""focus"",""0"",""0""
","""event"",""trial"",""time""
""fullscreenenter"",""1"",""2140""
","
","","[{""page_index"":0,""viewing_time"":6406},{""page_index"":1,""viewing_time"":8469},{""page_index"":2,""viewing_time"":4473},{""page_index"":3,""viewing_time"":5013}]","24362","","","","","","","","","","","","","","","","","","","","","","","",""
"pit-trial","81","642957","0.0-2.0-17.0-0.0","battery-v0.2","","""event"",""trial"",""time""
""focus"",""0"",""0""
""fullscreenenter"",""1"",""2140""
","
","""event"",""trial"",""time""
""focus"",""0"",""0""
","""event"",""trial"",""time""
""fullscreenenter"",""1"",""2140""
","
","","","422","","","24","6102","837","&#9789;","elianto","#f73b6a7A"," "," ","1","0","[1273]","1","0","4","","","","","","","",""
"pit-trial","82","646133","0.0-2.0-17.0-1.0","battery-v0.2","","""event"",""trial"",""time""
""focus"",""0"",""0""
""fullscreenenter"",""1"",""2140""
","
","""event"",""trial"",""time""
""focus"",""0"",""0""
","""event"",""trial"",""time""
""fullscreenenter"",""1"",""2140""
","
","","","317","","","24","6102","837","&#9789;","elianto","#f73b6a7A"," "," ","1","0","[1168]","1","0","4","","","","","","","",""
"pit-trial","83","649112","0.0-2.0-17.0-2.0","battery-v0.2","","""event"",""trial"",""time""
""focus"",""0"",""0""
""fullscreenenter"",""1"",""2140""
","
","""event"",""trial"",""time""
""focus"",""0"",""0""
","""event"",""trial"",""time""
""fullscreenenter"",""1"",""2140""
","
","","","120","","","24","6102","837","&#9789;","elianto","#f73b6a7A"," "," ","1","0","[973]","1","0","4","","","","","","","",""
"pit-trial","84","652293","0.0-2.0-17.0-3.0","battery-v0.2","","""event"",""trial"",""time""
""focus"",""0"",""0""
""fullscreenenter"",""1"",""2140""
","
","""event"",""trial"",""time""
""focus"",""0"",""0""
","""event"",""trial"",""time""
""fullscreenenter"",""1"",""2140""
","
","","","320","","","24","6102","837","&#9789;","elianto","#f73b6a7A"," "," ","1","-10","[1171]","1","0","4","","","","","","","",""
"pit-trial","85","655818","0.0-2.0-17.0-4.0","battery-v0.2","","""event"",""trial"",""time""
""focus"",""0"",""0""
""fullscreenenter"",""1"",""2140""
","
","""event"",""trial"",""time""
""focus"",""0"",""0""
","""event"",""trial"",""time""
""fullscreenenter"",""1"",""2140""
","
","","","663","","","24","6102","837","&#9789;","elianto","#f73b6a7A"," "," ","1","0","[1515]","1","0","4","","","","","","","",""
"pit-trial","86","659102","0.0-2.0-17.1-0.1","battery-v0.2","","""event"",""trial"",""time""
""focus"",""0"",""0""
""fullscreenenter"",""1"",""2140""
","
","""event"",""trial"",""time""
""focus"",""0"",""0""
","""event"",""trial"",""time""
""fullscreenenter"",""1"",""2140""
","
","","","425","","","24","6102","837","&#9789;","elianto","#f73b6a7A"," "," ","1","0","[1276]","1","0","4","","","","","","","",""
"pit-trial","87","662288","0.0-2.0-17.1-1.1","battery-v0.2","","""event"",""trial"",""time""
""focus"",""0"",""0""
""fullscreenenter"",""1"",""2140""
","
","""event"",""trial"",""time""
""focus"",""0"",""0""
","""event"",""trial"",""time""
""fullscreenenter"",""1"",""2140""
","
","","","328","","","24","6102","837","&#9789;","elianto","#f73b6a7A"," "," ","1","0","[1181]","1","0","4","","","","","","","",""
"pit-trial","88","665462","0.0-2.0-17.1-2.1","battery-v0.2","","""event"",""trial"",""time""
""focus"",""0"",""0""
""fullscreenenter"",""1"",""2140""
","
","""event"",""trial"",""time""
""focus"",""0"",""0""
","""event"",""trial"",""time""
""fullscreenenter"",""1"",""2140""
","
","","","318","","","24","6102","837","&#9789;","elianto","#f73b6a7A"," "," ","1","0","[1168]","1","0","4","","","","","","","",""
"pit-trial","89","668445","0.0-2.0-17.1-3.1","battery-v0.2","","""event"",""trial"",""time""
""focus"",""0"",""0""
""fullscreenenter"",""1"",""2140""
","
","""event"",""trial"",""time""
""focus"",""0"",""0""
","""event"",""trial"",""time""
""fullscreenenter"",""1"",""2140""
","
","","","126","","","24","6102","837","&#9789;","elianto","#f73b6a7A"," "," ","1","-10","[978]","1","0","4","","","","","","","",""
"pit-trial","90","671650","0.0-2.0-17.1-4.1","battery-v0.2","","""event"",""trial"",""time""
""focus"",""0"",""0""
""fullscreenenter"",""1"",""2140""
","
","""event"",""trial"",""time""
""focus"",""0"",""0""
","""event"",""trial"",""time""
""fullscreenenter"",""1"",""2140""
","
","","","348","","","24","6102","837","&#9789;","elianto","#f73b6a7A"," "," ","1","0","[1199]","1","0","4","","","","","","","",""
"pit-trial","91","674875","0.0-2.0-17.2-0.2","battery-v0.2","","""event"",""trial"",""time""
""focus"",""0"",""0""
""fullscreenenter"",""1"",""2140""
","
","""event"",""trial"",""time""
""focus"",""0"",""0""
","""event"",""trial"",""time""
""fullscreenenter"",""1"",""2140""
","
","","","366","","","24","6102","837","&#9789;","elianto","#f73b6a7A"," "," ","1","0","[1218]","1","0","4","","","","","","","",""
"pit-trial","92","678201","0.0-2.0-17.2-1.2","battery-v0.2","","""event"",""trial"",""time""
""focus"",""0"",""0""
""fullscreenenter"",""1"",""2140""
","
","""event"",""trial"",""time""
""focus"",""0"",""0""
","""event"",""trial"",""time""
""fullscreenenter"",""1"",""2140""
","
","","","470","","","24","6102","837","&#9789;","elianto","#f73b6a7A"," "," ","1","0","[1320]","1","0","4","","","","","","","",""
"pit-trial","93","681482","0.0-2.0-17.2-2.2","battery-v0.2","","""event"",""trial"",""time""
""focus"",""0"",""0""
""fullscreenenter"",""1"",""2140""
","
","""event"",""trial"",""time""
""focus"",""0"",""0""
","""event"",""trial"",""time""
""fullscreenenter"",""1"",""2140""
","
","","","418","","","24","6102","837","&#9789;","elianto","#f73b6a7A"," "," ","1","0","[1271]","1","0","4","","","","","","","",""
"pit-trial","94","684729","0.0-2.0-17.2-3.2","battery-v0.2","","""event"",""trial"",""time""
""focus"",""0"",""0""
""fullscreenenter"",""1"",""2140""
","
","""event"",""trial"",""time""
""focus"",""0"",""0""
","""event"",""trial"",""time""
""fullscreenenter"",""1"",""2140""
","
","","","386","","","24","6102","837","&#9789;","elianto","#f73b6a7A"," "," ","1","-10","[1238]","1","0","4","","","","","","","",""
"pit-trial","95","687995","0.0-2.0-17.2-4.2","battery-v0.2","","""event"",""trial"",""time""
""focus"",""0"",""0""
""fullscreenenter"",""1"",""2140""
","
","""event"",""trial"",""time""
""focus"",""0"",""0""
","""event"",""trial"",""time""
""fullscreenenter"",""1"",""2140""
","
","","","410","","","24","6102","837","&#9789;","elianto","#f73b6a7A"," "," ","1","0","[1260]","1","0","4","","","","","","","",""
"pit-trial","96","691341","0.0-2.0-17.3-0.3","battery-v0.2","","""event"",""trial"",""time""
""focus"",""0"",""0""
""fullscreenenter"",""1"",""2140""
","
","""event"",""trial"",""time""
""focus"",""0"",""0""
","""event"",""trial"",""time""
""fullscreenenter"",""1"",""2140""
","
","","","488","","","24","6102","837","&#9789;","elianto","#f73b6a7A"," "," ","1","0","[1336]","1","0","4","","","","","","","",""
"pit-trial","97","694617","0.0-2.0-17.3-1.3","battery-v0.2","","""event"",""trial"",""time""
""focus"",""0"",""0""
""fullscreenenter"",""1"",""2140""
","
","""event"",""trial"",""time""
""focus"",""0"",""0""
","""event"",""trial"",""time""
""fullscreenenter"",""1"",""2140""
","
","","","416","","","24","6102","837","&#9789;","elianto","#f73b6a7A"," "," ","1","0","[1268]","1","0","4","","","","","","","",""
"pit-trial","98","698000","0.0-2.0-17.3-2.3","battery-v0.2","","""event"",""trial"",""time""
""focus"",""0"",""0""
""fullscreenenter"",""1"",""2140""
","
","""event"",""trial"",""time""
""focus"",""0"",""0""
","""event"",""trial"",""time""
""fullscreenenter"",""1"",""2140""
","
","","","528","","","24","6102","837","&#9789;","elianto","#f73b6a7A"," "," ","1","0","[1378]","1","0","4","","","","","","","",""
"pit-trial","99","701263","0.0-2.0-17.3-3.3","battery-v0.2","","""event"",""trial"",""time""
""focus"",""0"",""0""
""fullscreenenter"",""1"",""2140""
","
","""event"",""trial"",""time""
""focus"",""0"",""0""
","""event"",""trial"",""time""
""fullscreenenter"",""1"",""2140""
","
","","","404","","","24","6102","837","&#9789;","elianto","#f73b6a7A"," "," ","1","-10","[1256]","1","0","4","","","","","","","",""
"pit-trial","100","704513","0.0-2.0-17.3-4.3","battery-v0.2","","""event"",""trial"",""time""
""focus"",""0"",""0""
""fullscreenenter"",""1"",""2140""
","
","""event"",""trial"",""time""
""focus"",""0"",""0""
","""event"",""trial"",""time""
""fullscreenenter"",""1"",""2140""
","
","","","392","","","24","6102","837","&#9789;","elianto","#f73b6a7A"," "," ","1","0","[1244]","1","0","4","","","","","","","",""
"call-function","101","704515","0.0-2.0-18.0","battery-v0.2","","""event"",""trial"",""time""
""focus"",""0"",""0""
""fullscreenenter"",""1"",""2140""
","
","""event"",""trial"",""time""
""focus"",""0"",""0""
","""event"",""trial"",""time""
""fullscreenenter"",""1"",""2140""
","
","","","","","","","","","","","","","","","","","","","","","","","","","","",""
"pit-instructions","102","762092","0.0-2.0-19.0","battery-v0.2","","""event"",""trial"",""time""
""focus"",""0"",""0""
""fullscreenenter"",""1"",""2140""
","
","""event"",""trial"",""time""
""focus"",""0"",""0""
","""event"",""trial"",""time""
""fullscreenenter"",""1"",""2140""
","
","","[{""page_index"":0,""viewing_time"":6421},{""page_index"":1,""viewing_time"":6792},{""page_index"":2,""viewing_time"":9767},{""page_index"":3,""viewing_time"":6828},{""page_index"":4,""viewing_time"":6185},{""page_index"":5,""viewing_time"":9107},{""page_index"":6,""viewing_time"":4030},{""page_index"":7,""viewing_time"":4122},{""page_index"":8,""viewing_time"":4323}]","57575","","","","","","","","","","","","","","","","","","","","","","","",""
"pit-comprehension","103","766392","0.0-2.0-20.0-0.0","battery-v0.2","","""event"",""trial"",""time""
""focus"",""0"",""0""
""fullscreenenter"",""1"",""2140""
","
","""event"",""trial"",""time""
""focus"",""0"",""0""
","""event"",""trial"",""time""
""fullscreenenter"",""1"",""2140""
","
","","","4296","[""SPACE""]","0","24","6102","837","","","","","","","","","","","","","","","","","","",""
"pit-instructions","104","769017","0.0-2.0-20.0-1.0","battery-v0.2","","""event"",""trial"",""time""
""focus"",""0"",""0""
""fullscreenenter"",""1"",""2140""
","
","""event"",""trial"",""time""
""focus"",""0"",""0""
","""event"",""trial"",""time""
""fullscreenenter"",""1"",""2140""
","
","","[{""page_index"":0,""viewing_time"":2610}]","2611","","","","","","","","","","","","","","","","","","","","","","","",""
"pit-comprehension","105","774660","0.0-2.0-21.0-0.0","battery-v0.2","","""event"",""trial"",""time""
""focus"",""0"",""0""
""fullscreenenter"",""1"",""2140""
","
","""event"",""trial"",""time""
""focus"",""0"",""0""
","""event"",""trial"",""time""
""fullscreenenter"",""1"",""2140""
","
","","","5639","[""10""]","0","24","6102","837","","","","","","","","","","","","","","","","","","",""
"pit-instructions","106","781279","0.0-2.0-21.0-1.0","battery-v0.2","","""event"",""trial"",""time""
""focus"",""0"",""0""
""fullscreenenter"",""1"",""2140""
","
","""event"",""trial"",""time""
""focus"",""0"",""0""
","""event"",""trial"",""time""
""fullscreenenter"",""1"",""2140""
","
","","[{""page_index"":0,""viewing_time"":6604}]","6605","","","","","","","","","","","","","","","","","","","","","","","",""
"pit-comprehension","107","787756","0.0-2.0-22.0-0.0","battery-v0.2","","""event"",""trial"",""time""
""focus"",""0"",""0""
""fullscreenenter"",""1"",""2140""
","
","""event"",""trial"",""time""
""focus"",""0"",""0""
","""event"",""trial"",""time""
""fullscreenenter"",""1"",""2140""
","
","","","6473","[""0""]","0","24","6102","837","","","","","","","","","","","","","","","","","","",""
"pit-instructions","108","793660","0.0-2.0-22.0-1.0","battery-v0.2","","""event"",""trial"",""time""
""focus"",""0"",""0""
""fullscreenenter"",""1"",""2140""
","
","""event"",""trial"",""time""
""focus"",""0"",""0""
","""event"",""trial"",""time""
""fullscreenenter"",""1"",""2140""
","
","","[{""page_index"":0,""viewing_time"":5889}]","5891","","","","","","","","","","","","","","","","","","","","","","","",""
"pit-comprehension","109","804677","0.0-2.0-23.0-0.0","battery-v0.2","","""event"",""trial"",""time""
""focus"",""0"",""0""
""fullscreenenter"",""1"",""2140""
","
","""event"",""trial"",""time""
""focus"",""0"",""0""
","""event"",""trial"",""time""
""fullscreenenter"",""1"",""2140""
","
","","","11012","[""True""]","0","24","6102","837","","","","","","","","","","","","","","","","","","",""
"pit-instructions","110","807712","0.0-2.0-23.0-1.0","battery-v0.2","","""event"",""trial"",""time""
""focus"",""0"",""0""
""fullscreenenter"",""1"",""2140""
","
","""event"",""trial"",""time""
""focus"",""0"",""0""
","""event"",""trial"",""time""
""fullscreenenter"",""1"",""2140""
","
","","[{""page_index"":0,""viewing_time"":3020}]","3021","","","","","","","","","","","","","","","","","","","","","","","",""
"pit-comprehension","111","816044","0.0-2.0-24.0-0.0","battery-v0.2","","""event"",""trial"",""time""
""focus"",""0"",""0""
""fullscreenenter"",""1"",""2140""
","
","""event"",""trial"",""time""
""focus"",""0"",""0""
","""event"",""trial"",""time""
""fullscreenenter"",""1"",""2140""
","
","","","8327","[""True""]","0","24","6102","837","","","","","","","","","","","","","","","","","","",""
"pit-instructions","112","817704","0.0-2.0-24.0-1.0","battery-v0.2","","""event"",""trial"",""time""
""focus"",""0"",""0""
""fullscreenenter"",""1"",""2140""
","
","""event"",""trial"",""time""
""focus"",""0"",""0""
","""event"",""trial"",""time""
""fullscreenenter"",""1"",""2140""
","
","","[{""page_index"":0,""viewing_time"":1647}]","1647","","","","","","","","","","","","","","","","","","","","","","","",""
"pit-comprehension","113","827016","0.0-2.0-25.0-0.0","battery-v0.2","","""event"",""trial"",""time""
""focus"",""0"",""0""
""fullscreenenter"",""1"",""2140""
","
","""event"",""trial"",""time""
""focus"",""0"",""0""
","""event"",""trial"",""time""
""fullscreenenter"",""1"",""2140""
","
","","","9307","[""True""]","0","24","6102","837","","","","","","","","","","","","","","","","","","",""
"pit-instructions","114","830024","0.0-2.0-25.0-1.0","battery-v0.2","","""event"",""trial"",""time""
""focus"",""0"",""0""
""fullscreenenter"",""1"",""2140""
","
","""event"",""trial"",""time""
""focus"",""0"",""0""
","""event"",""trial"",""time""
""fullscreenenter"",""1"",""2140""
","
","","[{""page_index"":0,""viewing_time"":2994}]","2994","","","","","","","","","","","","","","","","","","","","","","","",""
"pit-comprehension","115","835701","0.0-2.0-26.0-0.0","battery-v0.2","","""event"",""trial"",""time""
""focus"",""0"",""0""
""fullscreenenter"",""1"",""2140""
","
","""event"",""trial"",""time""
""focus"",""0"",""0""
","""event"",""trial"",""time""
""fullscreenenter"",""1"",""2140""
","
","","","5672","[""False""]","0","24","6102","837","","","","","","","","","","","","","","","","","","",""
"pit-instructions","116","837095","0.0-2.0-26.0-1.0","battery-v0.2","","""event"",""trial"",""time""
""focus"",""0"",""0""
""fullscreenenter"",""1"",""2140""
","
","""event"",""trial"",""time""
""focus"",""0"",""0""
","""event"",""trial"",""time""
""fullscreenenter"",""1"",""2140""
","
","","[{""page_index"":0,""viewing_time"":1379}]","1379","","","","","","","","","","","","","","","","","","","","","","","",""
"pit-instructions","117","857554","0.0-3.0","battery-v0.2","","""event"",""trial"",""time""
""focus"",""0"",""0""
""fullscreenenter"",""1"",""2140""
","
","""event"",""trial"",""time""
""focus"",""0"",""0""
","""event"",""trial"",""time""
""fullscreenenter"",""1"",""2140""
","
","","[{""page_index"":0,""viewing_time"":6509},{""page_index"":1,""viewing_time"":6716},{""page_index"":2,""viewing_time"":7229}]","20455","","","","","","","","","","","","","","","","","","","","","","","",""
"pit-trial","118","860967","0.0-4.0","battery-v0.2","","""event"",""trial"",""time""
""focus"",""0"",""0""
""fullscreenenter"",""1"",""2140""
","
","""event"",""trial"",""time""
""focus"",""0"",""0""
","""event"",""trial"",""time""
""fullscreenenter"",""1"",""2140""
","
","","","554","","","24","6102","837","&#9728;","elianto","#f73b6a7A","-1"," ","0","-10","[1407]","1","1","","","6102","1","0","4","lose","no-go","0"
"pit-trial","119","864448","0.0-5.0","battery-v0.2","","""event"",""trial"",""time""
""focus"",""0"",""0""
""fullscreenenter"",""1"",""2140""
","
","""event"",""trial"",""time""
""focus"",""0"",""0""
","""event"",""trial"",""time""
""fullscreenenter"",""1"",""2140""
","
","","","623","","","24","6102","837","&#9733;","elianto","#3366ff99","-1"," ","0","0","[1475]","1","1","","","6102","2","2","2","win","no-go","0"
"pit-trial","120","868057","0.0-6.0","battery-v0.2","","""event"",""trial"",""time""
""focus"",""0"",""0""
""fullscreenenter"",""1"",""2140""
","
","""event"",""trial"",""time""
""focus"",""0"",""0""
","""event"",""trial"",""time""
""fullscreenenter"",""1"",""2140""
","
","","","747","","","24","6102","837","&#9752;","elianto","#f73b6a7A"," "," ","1","-10","[1600]","1","1","","","6102","3","3","3","lose","go","1"
"pit-trial","121","871707","0.0-7.0","battery-v0.2","","""event"",""trial"",""time""
""focus"",""0"",""0""
""fullscreenenter"",""1"",""2140""
","
","""event"",""trial"",""time""
""focus"",""0"",""0""
","""event"",""trial"",""time""
""fullscreenenter"",""1"",""2140""
","
","","","791","","","24","6102","837","&#9730;","elianto","#3366ff99"," "," ","1","+10","[1643]","1","1","","","6102","4","1","1","win","go","0"
"pit-trial","122","875444","0.0-8.0","battery-v0.2","","""event"",""trial"",""time""
""focus"",""0"",""0""
""fullscreenenter"",""1"",""2140""
","
","""event"",""trial"",""time""
""focus"",""0"",""0""
","""event"",""trial"",""time""
""fullscreenenter"",""1"",""2140""
","
","","","875","","","24","6102","837","&#9733;","elianto","#3366ff99","-1"," ","0","0","[1726]","1","1","","","6102","5","2","2","win","no-go","0"
"pit-trial","123","880302","0.0-9.0","battery-v0.2","","""event"",""trial"",""time""
""focus"",""0"",""0""
""fullscreenenter"",""1"",""2140""
","
","""event"",""trial"",""time""
""focus"",""0"",""0""
","""event"",""trial"",""time""
""fullscreenenter"",""1"",""2140""
","
","","","-1","","","24","6102","837","&#9752;","elianto","#f73b6a7A"," ","-1","0","0","[]","0","1","","","6102","6","3","3","lose","go","1"
"pit-trial","124","884257","0.0-10.0","battery-v0.2","","""event"",""trial"",""time""
""focus"",""0"",""0""
""fullscreenenter"",""1"",""2140""
","
","""event"",""trial"",""time""
""focus"",""0"",""0""
","""event"",""trial"",""time""
""fullscreenenter"",""1"",""2140""
","
","","","1094","","","24","6102","837","&#9730;","elianto","#3366ff99"," "," ","1","+10","[1945]","1","1","","","6102","7","1","1","win","go","0"
"pit-trial","125","889113","0.0-11.0","battery-v0.2","","""event"",""trial"",""time""
""focus"",""0"",""0""
""fullscreenenter"",""1"",""2140""
","
","""event"",""trial"",""time""
""focus"",""0"",""0""
","""event"",""trial"",""time""
""fullscreenenter"",""1"",""2140""
","
","","","-1","","","24","6102","837","&#9728;","elianto","#f73b6a7A","-1","-1","1","-10","[3091]","1","1","","","6102","8","0","4","lose","no-go","1"
"pit-trial","126","892523","0.0-12.0","battery-v0.2","","""event"",""trial"",""time""
""focus"",""0"",""0""
""fullscreenenter"",""1"",""2140""
","
","""event"",""trial"",""time""
""focus"",""0"",""0""
","""event"",""trial"",""time""
""fullscreenenter"",""1"",""2140""
","
","","","549","","","24","6102","837","&#9730;","elianto","#3366ff99"," "," ","1","+10","[1401]","1","1","","","6102","9","1","1","win","go","0"
"pit-trial","127","897387","0.0-13.0","battery-v0.2","","""event"",""trial"",""time""
""focus"",""0"",""0""
""fullscreenenter"",""1"",""2140""
","
","""event"",""trial"",""time""
""focus"",""0"",""0""
","""event"",""trial"",""time""
""fullscreenenter"",""1"",""2140""
","
","","","-1","","","24","6102","837","&#9733;","elianto","#3366ff99","-1","-1","1","+10","[]","0","1","","","6102","10","2","2","win","no-go","0"
"pit-trial","128","901713","0.0-14.0","battery-v0.2","","""event"",""trial"",""time""
""focus"",""0"",""0""
""fullscreenenter"",""1"",""2140""
","
","""event"",""trial"",""time""
""focus"",""0"",""0""
","""event"",""trial"",""time""
""fullscreenenter"",""1"",""2140""
","
","","","1467","","","24","6102","837","&#9728;","elianto","#f73b6a7A","-1"," ","0","-10","[2317]","1","1","","","6102","11","0","4","lose","no-go","0"
"pit-trial","129","906572","0.0-15.0","battery-v0.2","","""event"",""trial"",""time""
""focus"",""0"",""0""
""fullscreenenter"",""1"",""2140""
","
","""event"",""trial"",""time""
""focus"",""0"",""0""
","""event"",""trial"",""time""
""fullscreenenter"",""1"",""2140""
","
","","","-1","","","24","6102","837","&#9752;","elianto","#f73b6a7A"," ","-1","0","0","[]","0","1","","","6102","12","3","3","lose","go","1"
"pit-trial","130","911434","0.0-16.0","battery-v0.2","","""event"",""trial"",""time""
""focus"",""0"",""0""
""fullscreenenter"",""1"",""2140""
","
","""event"",""trial"",""time""
""focus"",""0"",""0""
","""event"",""trial"",""time""
""fullscreenenter"",""1"",""2140""
","
","","","-1","","","24","6102","837","&#9733;","elianto","#3366ff99","-1","-1","1","+10","[]","0","1","","","6102","13","2","2","win","no-go","0"
"pit-trial","131","915043","0.0-17.0","battery-v0.2","","""event"",""trial"",""time""
""focus"",""0"",""0""
""fullscreenenter"",""1"",""2140""
","
","""event"",""trial"",""time""
""focus"",""0"",""0""
","""event"",""trial"",""time""
""fullscreenenter"",""1"",""2140""
","
","","","750","","","24","6102","837","&#9728;","elianto","#f73b6a7A","-1"," ","0","-10","[1600]","1","1","","","6102","14","0","4","lose","no-go","0"
"pit-trial","132","918569","0.0-18.0","battery-v0.2","","""event"",""trial"",""time""
""focus"",""0"",""0""
""fullscreenenter"",""1"",""2140""
","
","""event"",""trial"",""time""
""focus"",""0"",""0""
","""event"",""trial"",""time""
""fullscreenenter"",""1"",""2140""
","
","","","671","","","24","6102","837","&#9752;","elianto","#f73b6a7A"," "," ","1","0","[1522]","1","1","","","6102","15","3","3","lose","go","0"
"pit-trial","133","922286","0.0-19.0","battery-v0.2","","""event"",""trial"",""time""
""focus"",""0"",""0""
""fullscreenenter"",""1"",""2140""
","
","""event"",""trial"",""time""
""focus"",""0"",""0""
","""event"",""trial"",""time""
""fullscreenenter"",""1"",""2140""
","
","","","856","","","24","6102","837","&#9730;","elianto","#3366ff99"," "," ","1","+10","[1709]","1","1","","","6102","16","1","1","win","go","0"
"pit-trial","134","926188","0.0-20.0","battery-v0.2","","""event"",""trial"",""time""
""focus"",""0"",""0""
""fullscreenenter"",""1"",""2140""
","
","""event"",""trial"",""time""
""focus"",""0"",""0""
","""event"",""trial"",""time""
""fullscreenenter"",""1"",""2140""
","
","","","1042","","","24","6102","837","&#9730;","elianto","#3366ff99"," "," ","1","+10","[1893]","1","1","","","6102","17","1","1","win","go","0"
"pit-trial","135","931048","0.0-21.0","battery-v0.2","","""event"",""trial"",""time""
""focus"",""0"",""0""
""fullscreenenter"",""1"",""2140""
","
","""event"",""trial"",""time""
""focus"",""0"",""0""
","""event"",""trial"",""time""
""fullscreenenter"",""1"",""2140""
","
","","","-1","","","24","6102","837","&#9728;","elianto","#f73b6a7A","-1","-1","1","0","[]","0","1","","","6102","18","0","4","lose","no-go","0"
"pit-trial","136","934564","0.0-22.0","battery-v0.2","","""event"",""trial"",""time""
""focus"",""0"",""0""
""fullscreenenter"",""1"",""2140""
","
","""event"",""trial"",""time""
""focus"",""0"",""0""
","""event"",""trial"",""time""
""fullscreenenter"",""1"",""2140""
","
","","","657","","","24","6102","837","&#9752;","elianto","#f73b6a7A"," "," ","1","-10","[1508]","1","1","","","6102","19","3","3","lose","go","1"
"pit-trial","137","939418","0.0-23.0","battery-v0.2","","""event"",""trial"",""time""
""focus"",""0"",""0""
""fullscreenenter"",""1"",""2140""
","
","""event"",""trial"",""time""
""focus"",""0"",""0""
","""event"",""trial"",""time""
""fullscreenenter"",""1"",""2140""
","
","","","-1","","","24","6102","837","&#9733;","elianto","#3366ff99","-1","-1","1","+10","[]","0","1","","","6102","20","2","2","win","no-go","0"
"pit-instructions","138","952123","0.0-24.0","battery-v0.2","","""event"",""trial"",""time""
""focus"",""0"",""0""
""fullscreenenter"",""1"",""2140""
","
","""event"",""trial"",""time""
""focus"",""0"",""0""
","""event"",""trial"",""time""
""fullscreenenter"",""1"",""2140""
","
","","[{""page_index"":0,""viewing_time"":5971},{""page_index"":1,""viewing_time"":6732}]","12704","","","","","","","","","","","","","","","","","","","","","","","",""
"pit-trial","139","955593","0.0-25.0","battery-v0.2","","""event"",""trial"",""time""
""focus"",""0"",""0""
""fullscreenenter"",""1"",""2140""
","
","""event"",""trial"",""time""
""focus"",""0"",""0""
","""event"",""trial"",""time""
""fullscreenenter"",""1"",""2140""
","
","","","610","","","24","6102","837","t","elianto","#f73b6a7A"," "," ","1","0","[1461]","1","2","","","6102","21","2","3","lose","go","0"
"pit-trial","140","959237","0.0-26.0","battery-v0.2","","""event"",""trial"",""time""
""focus"",""0"",""0""
""fullscreenenter"",""1"",""2140""
","
","""event"",""trial"",""time""
""focus"",""0"",""0""
","""event"",""trial"",""time""
""fullscreenenter"",""1"",""2140""
","
","","","785","","","24","6102","837","b","elianto","#f73b6a7A","-1"," ","0","0","[1638]","1","2","","","6102","22","3","4","lose","no-go","1"
"pit-trial","141","962617","0.0-27.0","battery-v0.2","","""event"",""trial"",""time""
""focus"",""0"",""0""
""fullscreenenter"",""1"",""2140""
","
","""event"",""trial"",""time""
""focus"",""0"",""0""
","""event"",""trial"",""time""
""fullscreenenter"",""1"",""2140""
","
","","","526","","","24","6102","837","f","elianto","#3366ff99","-1"," ","0","0","[1376]","1","2","","","6102","23","1","2","win","no-go","0"
"pit-trial","142","967146","0.0-28.0","battery-v0.2","","""event"",""trial"",""time""
""focus"",""0"",""0""
""fullscreenenter"",""1"",""2140""
","
","""event"",""trial"",""time""
""focus"",""0"",""0""
","""event"",""trial"",""time""
""fullscreenenter"",""1"",""2140""
","
","","","1671","","","24","6102","837","n","elianto","#f73b6a7A"," "," ","1","0","[2525]","1","2","","","6102","24","0","3","lose","go","0"
"pit-trial","143","970834","0.0-29.0","battery-v0.2","","""event"",""trial"",""time""
""focus"",""0"",""0""
""fullscreenenter"",""1"",""2140""
","
","""event"",""trial"",""time""
""focus"",""0"",""0""
","""event"",""trial"",""time""
""fullscreenenter"",""1"",""2140""
","
","","","831","","","24","6102","837","f","elianto","#3366ff99","-1"," ","0","0","[1682]","1","2","","","6102","25","1","2","win","no-go","0"
"pit-trial","144","974502","0.0-30.0","battery-v0.2","","""event"",""trial"",""time""
""focus"",""0"",""0""
""fullscreenenter"",""1"",""2140""
","
","""event"",""trial"",""time""
""focus"",""0"",""0""
","""event"",""trial"",""time""
""fullscreenenter"",""1"",""2140""
","
","","","808","","","24","6102","837","n","elianto","#f73b6a7A"," "," ","1","0","[1660]","1","2","","","6102","26","0","3","lose","go","0"
"pit-trial","145","978415","0.0-31.0","battery-v0.2","","""event"",""trial"",""time""
""focus"",""0"",""0""
""fullscreenenter"",""1"",""2140""
","
","""event"",""trial"",""time""
""focus"",""0"",""0""
","""event"",""trial"",""time""
""fullscreenenter"",""1"",""2140""
","
","","","1053","","","24","6102","837","b","elianto","#f73b6a7A","-1"," ","0","-10","[1904]","1","2","","","6102","27","3","4","lose","no-go","0"
"pit-trial","146","982966","0.0-32.0","battery-v0.2","","""event"",""trial"",""time""
""focus"",""0"",""0""
""fullscreenenter"",""1"",""2140""
","
","""event"",""trial"",""time""
""focus"",""0"",""0""
","""event"",""trial"",""time""
""fullscreenenter"",""1"",""2140""
","
","","","1692","","","24","6102","837","t","elianto","#f73b6a7A"," "," ","1","0","[2546]","1","2","","","6102","28","2","3","lose","go","0"
"pit-trial","147","987826","0.0-33.0","battery-v0.2","","""event"",""trial"",""time""
""focus"",""0"",""0""
""fullscreenenter"",""1"",""2140""
","
","""event"",""trial"",""time""
""focus"",""0"",""0""
","""event"",""trial"",""time""
""fullscreenenter"",""1"",""2140""
","
","","","-1","","","24","6102","837","f","elianto","#3366ff99","-1","-1","1","+10","[]","0","2","","","6102","29","1","2","win","no-go","0"
"pit-trial","148","992684","0.0-34.0","battery-v0.2","","""event"",""trial"",""time""
""focus"",""0"",""0""
""fullscreenenter"",""1"",""2140""
","
","""event"",""trial"",""time""
""focus"",""0"",""0""
","""event"",""trial"",""time""
""fullscreenenter"",""1"",""2140""
","
","","","-1","","","24","6102","837","b","elianto","#f73b6a7A","-1","-1","1","0","[]","0","2","","","6102","30","3","4","lose","no-go","0"
"pit-trial","149","997033","0.0-35.0","battery-v0.2","","""event"",""trial"",""time""
""focus"",""0"",""0""
""fullscreenenter"",""1"",""2140""
","
","""event"",""trial"",""time""
""focus"",""0"",""0""
","""event"",""trial"",""time""
""fullscreenenter"",""1"",""2140""
","
","","","1491","","","24","6102","837","t","elianto","#f73b6a7A"," "," ","1","0","[2341]","1","2","","","6102","31","2","3","lose","go","0"
"pit-trial","150","1001894","0.0-36.0","battery-v0.2","","""event"",""trial"",""time""
""focus"",""0"",""0""
""fullscreenenter"",""1"",""2140""
","
","""event"",""trial"",""time""
""focus"",""0"",""0""
","""event"",""trial"",""time""
""fullscreenenter"",""1"",""2140""
","
","","","-1","","","24","6102","837","n","elianto","#f73b6a7A"," ","-1","0","-10","[]","0","2","","","6102","32","0","3","lose","go","0"
"pit-trial","151","1005665","0.0-37.0","battery-v0.2","","""event"",""trial"",""time""
""focus"",""0"",""0""
""fullscreenenter"",""1"",""2140""
","
","""event"",""trial"",""time""
""focus"",""0"",""0""
","""event"",""trial"",""time""
""fullscreenenter"",""1"",""2140""
","
","","","909","","","24","6102","837","n","elianto","#f73b6a7A"," "," ","1","0","[1761]","1","2","","","6102","33","0","3","lose","go","0"
"pit-trial","152","1009593","0.0-38.0","battery-v0.2","","""event"",""trial"",""time""
""focus"",""0"",""0""
""fullscreenenter"",""1"",""2140""
","
","""event"",""trial"",""time""
""focus"",""0"",""0""
","""event"",""trial"",""time""
""fullscreenenter"",""1"",""2140""
","
","","","1067","","","24","6102","837","t","elianto","#f73b6a7A"," "," ","1","0","[1918]","1","2","","","6102","34","2","3","lose","go","0"
"pit-trial","153","1014454","0.0-39.0","battery-v0.2","","""event"",""trial"",""time""
""focus"",""0"",""0""
""fullscreenenter"",""1"",""2140""
","
","""event"",""trial"",""time""
""focus"",""0"",""0""
","""event"",""trial"",""time""
""fullscreenenter"",""1"",""2140""
","
","","","-1","","","24","6102","837","b","elianto","#f73b6a7A","-1","-1","1","0","[]","0","2","","","6102","35","3","4","lose","no-go","0"
"pit-trial","154","1019314","0.0-40.0","battery-v0.2","","""event"",""trial"",""time""
""focus"",""0"",""0""
""fullscreenenter"",""1"",""2140""
","
","""event"",""trial"",""time""
""focus"",""0"",""0""
","""event"",""trial"",""time""
""fullscreenenter"",""1"",""2140""
","
","","","-1","","","24","6102","837","f","elianto","#3366ff99","-1","-1","1","+10","[]","0","2","","","6102","36","1","2","win","no-go","0"
"pit-trial","155","1024174","0.0-41.0","battery-v0.2","","""event"",""trial"",""time""
""focus"",""0"",""0""
""fullscreenenter"",""1"",""2140""
","
","""event"",""trial"",""time""
""focus"",""0"",""0""
","""event"",""trial"",""time""
""fullscreenenter"",""1"",""2140""
","
","","","-1","","","24","6102","837","f","elianto","#3366ff99","-1","-1","1","+10","[]","0","2","","","6102","37","1","2","win","no-go","0"
"pit-trial","156","1029034","0.0-42.0","battery-v0.2","","""event"",""trial"",""time""
""focus"",""0"",""0""
""fullscreenenter"",""1"",""2140""
","
","""event"",""trial"",""time""
""focus"",""0"",""0""
","""event"",""trial"",""time""
""fullscreenenter"",""1"",""2140""
","
","","","-1","","","24","6102","837","b","elianto","#f73b6a7A","-1","-1","1","0","[]","0","2","","","6102","38","3","4","lose","no-go","0"
"pit-trial","157","1033641","0.0-43.0","battery-v0.2","","""event"",""trial"",""time""
""focus"",""0"",""0""
""fullscreenenter"",""1"",""2140""
","
","""event"",""trial"",""time""
""focus"",""0"",""0""
","""event"",""trial"",""time""
""fullscreenenter"",""1"",""2140""
","
","","","1746","","","24","6102","837","t","elianto","#f73b6a7A"," "," ","1","0","[2599]","1","2","","","6102","39","2","3","lose","go","0"
"pit-trial","158","1037765","0.0-44.0","battery-v0.2","","""event"",""trial"",""time""
""focus"",""0"",""0""
""fullscreenenter"",""1"",""2140""
","
","""event"",""trial"",""time""
""focus"",""0"",""0""
","""event"",""trial"",""time""
""fullscreenenter"",""1"",""2140""
","
","","","1270","","","24","6102","837","n","elianto","#f73b6a7A"," "," ","1","-10","[2121]","1","2","","","6102","40","0","3","lose","go","1"
"pit-trial","159","1042624","0.0-45.0","battery-v0.2","","""event"",""trial"",""time""
""focus"",""0"",""0""
""fullscreenenter"",""1"",""2140""
","
","""event"",""trial"",""time""
""focus"",""0"",""0""
","""event"",""trial"",""time""
""fullscreenenter"",""1"",""2140""
","
","","","-1","","","24","6102","837","f","elianto","#3366ff99","-1","-1","1","+10","[]","0","2","","","6102","41","1","2","win","no-go","0"
"pit-trial","160","1047485","0.0-46.0","battery-v0.2","","""event"",""trial"",""time""
""focus"",""0"",""0""
""fullscreenenter"",""1"",""2140""
","
","""event"",""trial"",""time""
""focus"",""0"",""0""
","""event"",""trial"",""time""
""fullscreenenter"",""1"",""2140""
","
","","","-1","","","24","6102","837","b","elianto","#f73b6a7A","-1","-1","1","0","[]","0","2","","","6102","42","3","4","lose","no-go","0"
"pit-trial","161","1051424","0.0-47.0","battery-v0.2","","""event"",""trial"",""time""
""focus"",""0"",""0""
""fullscreenenter"",""1"",""2140""
","
","""event"",""trial"",""time""
""focus"",""0"",""0""
","""event"",""trial"",""time""
""fullscreenenter"",""1"",""2140""
","
","","","1081","","","24","6102","837","t","elianto","#f73b6a7A"," "," ","1","0","[1932]","1","2","","","6102","43","2","3","lose","go","0"
"pit-trial","162","1055337","0.0-48.0","battery-v0.2","","""event"",""trial"",""time""
""focus"",""0"",""0""
""fullscreenenter"",""1"",""2140""
","
","""event"",""trial"",""time""
""focus"",""0"",""0""
","""event"",""trial"",""time""
""fullscreenenter"",""1"",""2140""
","
","","","1055","","","24","6102","837","n","elianto","#f73b6a7A"," "," ","1","-10","[1907]","1","2","","","6102","44","0","3","lose","go","1"
"pit-trial","163","1060199","0.0-49.0","battery-v0.2","","""event"",""trial"",""time""
""focus"",""0"",""0""
""fullscreenenter"",""1"",""2140""
","
","""event"",""trial"",""time""
""focus"",""0"",""0""
","""event"",""trial"",""time""
""fullscreenenter"",""1"",""2140""
","
","","","-1","","","24","6102","837","f","elianto","#3366ff99","-1","-1","1","0","[]","0","2","","","6102","45","1","2","win","no-go","1"
"pit-trial","164","1064507","0.0-50.0","battery-v0.2","","""event"",""trial"",""time""
""focus"",""0"",""0""
""fullscreenenter"",""1"",""2140""
","
","""event"",""trial"",""time""
""focus"",""0"",""0""
","""event"",""trial"",""time""
""fullscreenenter"",""1"",""2140""
","
","","","1451","","","24","6102","837","t","elianto","#f73b6a7A"," "," ","1","0","[2303]","1","2","","","6102","46","2","3","lose","go","0"
"pit-trial","165","1069365","0.0-51.0","battery-v0.2","","""event"",""trial"",""time""
""focus"",""0"",""0""
""fullscreenenter"",""1"",""2140""
","
","""event"",""trial"",""time""
""focus"",""0"",""0""
","""event"",""trial"",""time""
""fullscreenenter"",""1"",""2140""
","
","","","-1","","","24","6102","837","n","elianto","#f73b6a7A"," ","-1","0","-10","[]","0","2","","","6102","47","0","3","lose","go","0"
"pit-trial","166","1074230","0.0-52.0","battery-v0.2","","""event"",""trial"",""time""
""focus"",""0"",""0""
""fullscreenenter"",""1"",""2140""
","
","""event"",""trial"",""time""
""focus"",""0"",""0""
","""event"",""trial"",""time""
""fullscreenenter"",""1"",""2140""
","
","","","-1","","","24","6102","837","b","elianto","#f73b6a7A","-1","-1","1","0","[]","0","2","","","6102","48","3","4","lose","no-go","0"
"pit-trial","167","1079087","0.0-53.0","battery-v0.2","","""event"",""trial"",""time""
""focus"",""0"",""0""
""fullscreenenter"",""1"",""2140""
","
","""event"",""trial"",""time""
""focus"",""0"",""0""
","""event"",""trial"",""time""
""fullscreenenter"",""1"",""2140""
","
","","","-1","","","24","6102","837","n","elianto","#f73b6a7A"," ","-1","0","-10","[]","0","2","","","6102","49","0","3","lose","go","0"
"pit-trial","168","1083945","0.0-54.0","battery-v0.2","","""event"",""trial"",""time""
""focus"",""0"",""0""
""fullscreenenter"",""1"",""2140""
","
","""event"",""trial"",""time""
""focus"",""0"",""0""
","""event"",""trial"",""time""
""fullscreenenter"",""1"",""2140""
","
","","","-1","","","24","6102","837","f","elianto","#3366ff99","-1","-1","1","0","[]","0","2","","","6102","50","1","2","win","no-go","1"
"pit-trial","169","1088806","0.0-55.0","battery-v0.2","","""event"",""trial"",""time""
""focus"",""0"",""0""
""fullscreenenter"",""1"",""2140""
","
","""event"",""trial"",""time""
""focus"",""0"",""0""
","""event"",""trial"",""time""
""fullscreenenter"",""1"",""2140""
","
","","","-1","","","24","6102","837","b","elianto","#f73b6a7A","-1","-1","1","-10","[]","0","2","","","6102","51","3","4","lose","no-go","1"
"pit-trial","170","1092730","0.0-56.0","battery-v0.2","","""event"",""trial"",""time""
""focus"",""0"",""0""
""fullscreenenter"",""1"",""2140""
","
","""event"",""trial"",""time""
""focus"",""0"",""0""
","""event"",""trial"",""time""
""fullscreenenter"",""1"",""2140""
","
","","","1062","","","24","6102","837","t","elianto","#f73b6a7A"," "," ","1","-10","[1914]","1","2","","","6102","52","2","3","lose","go","1"
"pit-trial","171","1097592","0.0-57.0","battery-v0.2","","""event"",""trial"",""time""
""focus"",""0"",""0""
""fullscreenenter"",""1"",""2140""
","
","""event"",""trial"",""time""
""focus"",""0"",""0""
","""event"",""trial"",""time""
""fullscreenenter"",""1"",""2140""
","
","","","-1","","","24","6102","837","f","elianto","#3366ff99","-1","-1","1","+10","[]","0","2","","","6102","53","1","2","win","no-go","0"
"pit-trial","172","1102449","0.0-58.0","battery-v0.2","","""event"",""trial"",""time""
""focus"",""0"",""0""
""fullscreenenter"",""1"",""2140""
","
","""event"",""trial"",""time""
""focus"",""0"",""0""
","""event"",""trial"",""time""
""fullscreenenter"",""1"",""2140""
","
","","","-1","","","24","6102","837","b","elianto","#f73b6a7A","-1","-1","1","0","[]","0","2","","","6102","54","3","4","lose","no-go","0"
"pit-trial","173","1106473","0.0-59.0","battery-v0.2","","""event"",""trial"",""time""
""focus"",""0"",""0""
""fullscreenenter"",""1"",""2140""
","
","""event"",""trial"",""time""
""focus"",""0"",""0""
","""event"",""trial"",""time""
""fullscreenenter"",""1"",""2140""
","
","","","1160","","","24","6102","837","t","elianto","#f73b6a7A"," "," ","1","-10","[2013]","1","2","","","6102","55","2","3","lose","go","1"
"pit-trial","174","1109944","0.0-60.0","battery-v0.2","","""event"",""trial"",""time""
""focus"",""0"",""0""
""fullscreenenter"",""1"",""2140""
","
","""event"",""trial"",""time""
""focus"",""0"",""0""
","""event"",""trial"",""time""
""fullscreenenter"",""1"",""2140""
","
","","","613","","","24","6102","837","n","elianto","#f73b6a7A"," "," ","1","0","[1465]","1","2","","","6102","56","0","3","lose","go","0"
"pit-trial","175","1114071","0.0-61.0","battery-v0.2","","""event"",""trial"",""time""
""focus"",""0"",""0""
""fullscreenenter"",""1"",""2140""
","
","""event"",""trial"",""time""
""focus"",""0"",""0""
","""event"",""trial"",""time""
""fullscreenenter"",""1"",""2140""
","
","","","1266","","","24","6102","837","t","elianto","#f73b6a7A"," "," ","1","0","[2117]","1","2","","","6102","57","2","3","lose","go","0"
"pit-trial","176","1117937","0.0-62.0","battery-v0.2","","""event"",""trial"",""time""
""focus"",""0"",""0""
""fullscreenenter"",""1"",""2140""
","
","""event"",""trial"",""time""
""focus"",""0"",""0""
","""event"",""trial"",""time""
""fullscreenenter"",""1"",""2140""
","
","","","1006","","","24","6102","837","c","elianto","#3366ff99"," "," ","1","+10","[1860]","1","2","","","6102","58","4","1","win","go","0"
"pit-trial","177","1121660","0.0-63.0","battery-v0.2","","""event"",""trial"",""time""
""focus"",""0"",""0""
""fullscreenenter"",""1"",""2140""
","
","""event"",""trial"",""time""
""focus"",""0"",""0""
","""event"",""trial"",""time""
""fullscreenenter"",""1"",""2140""
","
","","","865","","","24","6102","837","n","elianto","#f73b6a7A"," "," ","1","0","[1716]","1","2","","","6102","59","0","3","lose","go","0"
"pit-trial","178","1126519","0.0-64.0","battery-v0.2","","""event"",""trial"",""time""
""focus"",""0"",""0""
""fullscreenenter"",""1"",""2140""
","
","""event"",""trial"",""time""
""focus"",""0"",""0""
","""event"",""trial"",""time""
""fullscreenenter"",""1"",""2140""
","
","","","-1","","","24","6102","837","b","elianto","#f73b6a7A","-1","-1","1","0","[]","0","2","","","6102","60","3","4","lose","no-go","0"
"pit-trial","179","1130015","0.0-65.0","battery-v0.2","","""event"",""trial"",""time""
""focus"",""0"",""0""
""fullscreenenter"",""1"",""2140""
","
","""event"",""trial"",""time""
""focus"",""0"",""0""
","""event"",""trial"",""time""
""fullscreenenter"",""1"",""2140""
","
","","","635","","","24","6102","837","c","elianto","#3366ff99"," "," ","1","+10","[1488]","1","2","","","6102","61","4","1","win","go","0"
"pit-trial","180","1134877","0.0-66.0","battery-v0.2","","""event"",""trial"",""time""
""focus"",""0"",""0""
""fullscreenenter"",""1"",""2140""
","
","""event"",""trial"",""time""
""focus"",""0"",""0""
","""event"",""trial"",""time""
""fullscreenenter"",""1"",""2140""
","
","","","-1","","","24","6102","837","f","elianto","#3366ff99","-1","-1","1","0","[]","0","2","","","6102","62","1","2","win","no-go","1"
"pit-trial","181","1138967","0.0-67.0","battery-v0.2","","""event"",""trial"",""time""
""focus"",""0"",""0""
""fullscreenenter"",""1"",""2140""
","
","""event"",""trial"",""time""
""focus"",""0"",""0""
","""event"",""trial"",""time""
""fullscreenenter"",""1"",""2140""
","
","","","1230","","","24","6102","837","t","elianto","#f73b6a7A"," "," ","1","-10","[2082]","1","2","","","6102","63","2","3","lose","go","1"
"pit-trial","182","1143829","0.0-68.0","battery-v0.2","","""event"",""trial"",""time""
""focus"",""0"",""0""
""fullscreenenter"",""1"",""2140""
","
","""event"",""trial"",""time""
""focus"",""0"",""0""
","""event"",""trial"",""time""
""fullscreenenter"",""1"",""2140""
","
","","","-1","","","24","6102","837","b","elianto","#f73b6a7A","-1","-1","1","0","[]","0","2","","","6102","64","3","4","lose","no-go","0"
"pit-trial","183","1148683","0.0-69.0","battery-v0.2","","""event"",""trial"",""time""
""focus"",""0"",""0""
""fullscreenenter"",""1"",""2140""
","
","""event"",""trial"",""time""
""focus"",""0"",""0""
","""event"",""trial"",""time""
""fullscreenenter"",""1"",""2140""
","
","","","-1","","","24","6102","837","f","elianto","#3366ff99","-1","-1","1","+10","[]","0","2","","","6102","65","1","2","win","no-go","0"
"pit-trial","184","1152554","0.0-70.0","battery-v0.2","","""event"",""trial"",""time""
""focus"",""0"",""0""
""fullscreenenter"",""1"",""2140""
","
","""event"",""trial"",""time""
""focus"",""0"",""0""
","""event"",""trial"",""time""
""fullscreenenter"",""1"",""2140""
","
","","","1008","","","24","6102","837","c","elianto","#3366ff99"," "," ","1","+10","[1861]","1","2","","","6102","66","4","1","win","go","0"
"pit-trial","185","1156352","0.0-71.0","battery-v0.2","","""event"",""trial"",""time""
""focus"",""0"",""0""
""fullscreenenter"",""1"",""2140""
","
","""event"",""trial"",""time""
""focus"",""0"",""0""
","""event"",""trial"",""time""
""fullscreenenter"",""1"",""2140""
","
","","","942","","","24","6102","837","z","elianto","#3366ff99","-1"," ","0","0","[1794]","1","2","","","6102","67","5","2","win","no-go","0"
"pit-trial","186","1161215","0.0-72.0","battery-v0.2","","""event"",""trial"",""time""
""focus"",""0"",""0""
""fullscreenenter"",""1"",""2140""
","
","""event"",""trial"",""time""
""focus"",""0"",""0""
","""event"",""trial"",""time""
""fullscreenenter"",""1"",""2140""
","
","","","-1","","","24","6102","837","b","elianto","#f73b6a7A","-1","-1","1","0","[]","0","2","","","6102","68","3","4","lose","no-go","0"
"pit-trial","187","1164761","0.0-73.0","battery-v0.2","","""event"",""trial"",""time""
""focus"",""0"",""0""
""fullscreenenter"",""1"",""2140""
","
","""event"",""trial"",""time""
""focus"",""0"",""0""
","""event"",""trial"",""time""
""fullscreenenter"",""1"",""2140""
","
","","","690","","","24","6102","837","z","elianto","#3366ff99","-1"," ","0","0","[1541]","1","2","","","6102","69","5","2","win","no-go","0"
"pit-trial","188","1168848","0.0-74.0","battery-v0.2","","""event"",""trial"",""time""
""focus"",""0"",""0""
""fullscreenenter"",""1"",""2140""
","
","""event"",""trial"",""time""
""focus"",""0"",""0""
","""event"",""trial"",""time""
""fullscreenenter"",""1"",""2140""
","
","","","1233","","","24","6102","837","t","elianto","#f73b6a7A"," "," ","1","0","[2084]","1","2","","","6102","70","2","3","lose","go","0"
"pit-trial","189","1173711","0.0-75.0","battery-v0.2","","""event"",""trial"",""time""
""focus"",""0"",""0""
""fullscreenenter"",""1"",""2140""
","
","""event"",""trial"",""time""
""focus"",""0"",""0""
","""event"",""trial"",""time""
""fullscreenenter"",""1"",""2140""
","
","","","-1","","","24","6102","837","f","elianto","#3366ff99","-1","-1","1","+10","[]","0","2","","","6102","71","1","2","win","no-go","0"
"pit-trial","190","1177379","0.0-76.0","battery-v0.2","","""event"",""trial"",""time""
""focus"",""0"",""0""
""fullscreenenter"",""1"",""2140""
","
","""event"",""trial"",""time""
""focus"",""0"",""0""
","""event"",""trial"",""time""
""fullscreenenter"",""1"",""2140""
","
","","","809","","","24","6102","837","c","elianto","#3366ff99"," "," ","1","+10","[1659]","1","2","","","6102","72","4","1","win","go","0"
"pit-trial","191","1181943","0.0-77.0","battery-v0.2","","""event"",""trial"",""time""
""focus"",""0"",""0""
""fullscreenenter"",""1"",""2140""
","
","""event"",""trial"",""time""
""focus"",""0"",""0""
","""event"",""trial"",""time""
""fullscreenenter"",""1"",""2140""
","
","","","1701","","","24","6102","837","b","elianto","#f73b6a7A","-1"," ","0","-10","[2555]","1","2","","","6102","73","3","4","lose","no-go","0"
"pit-trial","192","1186807","0.0-78.0","battery-v0.2","","""event"",""trial"",""time""
""focus"",""0"",""0""
""fullscreenenter"",""1"",""2140""
","
","""event"",""trial"",""time""
""focus"",""0"",""0""
","""event"",""trial"",""time""
""fullscreenenter"",""1"",""2140""
","
","","","-1","","","24","6102","837","z","elianto","#3366ff99","-1","-1","1","+10","[]","0","2","","","6102","74","5","2","win","no-go","0"
"pit-trial","193","1191667","0.0-79.0","battery-v0.2","","""event"",""trial"",""time""
""focus"",""0"",""0""
""fullscreenenter"",""1"",""2140""
","
","""event"",""trial"",""time""
""focus"",""0"",""0""
","""event"",""trial"",""time""
""fullscreenenter"",""1"",""2140""
","
","","","-1","","","24","6102","837","f","elianto","#3366ff99","-1","-1","1","+10","[]","0","2","","","6102","75","1","2","win","no-go","0"
"pit-trial","194","1196525","0.0-80.0","battery-v0.2","","""event"",""trial"",""time""
""focus"",""0"",""0""
""fullscreenenter"",""1"",""2140""
","
","""event"",""trial"",""time""
""focus"",""0"",""0""
","""event"",""trial"",""time""
""fullscreenenter"",""1"",""2140""
","
","","","-1","","","24","6102","837","c","elianto","#3366ff99"," ","-1","0","0","[]","0","2","","","6102","76","4","1","win","go","0"
"pit-trial","195","1201385","0.0-81.0","battery-v0.2","","""event"",""trial"",""time""
""focus"",""0"",""0""
""fullscreenenter"",""1"",""2140""
","
","""event"",""trial"",""time""
""focus"",""0"",""0""
","""event"",""trial"",""time""
""fullscreenenter"",""1"",""2140""
","
","","","-1","","","24","6102","837","z","elianto","#3366ff99","-1","-1","1","+10","[]","0","2","","","6102","77","5","2","win","no-go","0"
"pit-trial","196","1206242","0.0-82.0","battery-v0.2","","""event"",""trial"",""time""
""focus"",""0"",""0""
""fullscreenenter"",""1"",""2140""
","
","""event"",""trial"",""time""
""focus"",""0"",""0""
","""event"",""trial"",""time""
""fullscreenenter"",""1"",""2140""
","
","","","-1","","","24","6102","837","b","elianto","#f73b6a7A","-1","-1","1","0","[]","0","2","","","6102","78","3","4","lose","no-go","0"
"pit-trial","197","1209861","0.0-83.0","battery-v0.2","","""event"",""trial"",""time""
""focus"",""0"",""0""
""fullscreenenter"",""1"",""2140""
","
","""event"",""trial"",""time""
""focus"",""0"",""0""
","""event"",""trial"",""time""
""fullscreenenter"",""1"",""2140""
","
","","","764","","","24","6102","837","c","elianto","#3366ff99"," "," ","1","+10","[1616]","1","2","","","6102","79","4","1","win","go","0"
"pit-trial","198","1213620","0.0-84.0","battery-v0.2","","""event"",""trial"",""time""
""focus"",""0"",""0""
""fullscreenenter"",""1"",""2140""
","
","""event"",""trial"",""time""
""focus"",""0"",""0""
","""event"",""trial"",""time""
""fullscreenenter"",""1"",""2140""
","
","","","897","","","24","6102","837","c","elianto","#3366ff99"," "," ","1","+10","[1750]","1","2","","","6102","80","4","1","win","go","0"
"pit-trial","199","1217177","0.0-85.0","battery-v0.2","","""event"",""trial"",""time""
""focus"",""0"",""0""
""fullscreenenter"",""1"",""2140""
","
","""event"",""trial"",""time""
""focus"",""0"",""0""
","""event"",""trial"",""time""
""fullscreenenter"",""1"",""2140""
","
","","","695","","","24","6102","837","c","elianto","#3366ff99"," "," ","1","0","[1548]","1","2","","","6102","81","4","1","win","go","1"
"pit-trial","200","1222037","0.0-86.0","battery-v0.2","","""event"",""trial"",""time""
""focus"",""0"",""0""
""fullscreenenter"",""1"",""2140""
","
","""event"",""trial"",""time""
""focus"",""0"",""0""
","""event"",""trial"",""time""
""fullscreenenter"",""1"",""2140""
","
","","","-1","","","24","6102","837","z","elianto","#3366ff99","-1","-1","1","+10","[]","0","2","","","6102","82","5","2","win","no-go","0"
"pit-trial","201","1226287","0.0-87.0","battery-v0.2","","""event"",""trial"",""time""
""focus"",""0"",""0""
""fullscreenenter"",""1"",""2140""
","
","""event"",""trial"",""time""
""focus"",""0"",""0""
","""event"",""trial"",""time""
""fullscreenenter"",""1"",""2140""
","
","","","1388","","","24","6102","837","y","elianto","#f73b6a7A","-1"," ","0","-10","[2240]","1","2","","","6102","83","7","4","lose","no-go","0"
"pit-trial","202","1231147","0.0-88.0","battery-v0.2","","""event"",""trial"",""time""
""focus"",""0"",""0""
""fullscreenenter"",""1"",""2140""
","
","""event"",""trial"",""time""
""focus"",""0"",""0""
","""event"",""trial"",""time""
""fullscreenenter"",""1"",""2140""
","
","","","-1","","","24","6102","837","b","elianto","#f73b6a7A","-1","-1","1","0","[]","0","2","","","6102","84","3","4","lose","no-go","0"
"pit-trial","203","1236012","0.0-89.0","battery-v0.2","","""event"",""trial"",""time""
""focus"",""0"",""0""
""fullscreenenter"",""1"",""2140""
","
","""event"",""trial"",""time""
""focus"",""0"",""0""
","""event"",""trial"",""time""
""fullscreenenter"",""1"",""2140""
","
","","","-1","","","24","6102","837","y","elianto","#f73b6a7A","-1","-1","1","0","[]","0","2","","","6102","85","7","4","lose","no-go","0"
"pit-trial","204","1240193","0.0-90.0","battery-v0.2","","""event"",""trial"",""time""
""focus"",""0"",""0""
""fullscreenenter"",""1"",""2140""
","
","""event"",""trial"",""time""
""focus"",""0"",""0""
","""event"",""trial"",""time""
""fullscreenenter"",""1"",""2140""
","
","","","1322","","","24","6102","837","h","elianto","#f73b6a7A"," "," ","1","-10","[2173]","1","2","","","6102","86","6","3","lose","go","1"
"pit-trial","205","1245057","0.0-91.0","battery-v0.2","","""event"",""trial"",""time""
""focus"",""0"",""0""
""fullscreenenter"",""1"",""2140""
","
","""event"",""trial"",""time""
""focus"",""0"",""0""
","""event"",""trial"",""time""
""fullscreenenter"",""1"",""2140""
","
","","","-1","","","24","6102","837","z","elianto","#3366ff99","-1","-1","1","+10","[]","0","2","","","6102","87","5","2","win","no-go","0"
"pit-trial","206","1248699","0.0-92.0","battery-v0.2","","""event"",""trial"",""time""
""focus"",""0"",""0""
""fullscreenenter"",""1"",""2140""
","
","""event"",""trial"",""time""
""focus"",""0"",""0""
","""event"",""trial"",""time""
""fullscreenenter"",""1"",""2140""
","
","","","782","","","24","6102","837","c","elianto","#3366ff99"," "," ","1","+10","[1632]","1","2","","","6102","88","4","1","win","go","0"
"pit-trial","207","1252203","0.0-93.0","battery-v0.2","","""event"",""trial"",""time""
""focus"",""0"",""0""
""fullscreenenter"",""1"",""2140""
","
","""event"",""trial"",""time""
""focus"",""0"",""0""
","""event"",""trial"",""time""
""fullscreenenter"",""1"",""2140""
","
","","","644","","","24","6102","837","c","elianto","#3366ff99"," "," ","1","+10","[1497]","1","2","","","6102","89","4","1","win","go","0"
"pit-trial","208","1257066","0.0-94.0","battery-v0.2","","""event"",""trial"",""time""
""focus"",""0"",""0""
""fullscreenenter"",""1"",""2140""
","
","""event"",""trial"",""time""
""focus"",""0"",""0""
","""event"",""trial"",""time""
""fullscreenenter"",""1"",""2140""
","
","","","-1","","","24","6102","837","h","elianto","#f73b6a7A"," ","-1","0","-10","[]","0","2","","","6102","90","6","3","lose","go","0"
"pit-trial","209","1261929","0.0-95.0","battery-v0.2","","""event"",""trial"",""time""
""focus"",""0"",""0""
""fullscreenenter"",""1"",""2140""
","
","""event"",""trial"",""time""
""focus"",""0"",""0""
","""event"",""trial"",""time""
""fullscreenenter"",""1"",""2140""
","
","","","-1","","","24","6102","837","y","elianto","#f73b6a7A","-1","-1","1","0","[]","0","2","","","6102","91","7","4","lose","no-go","0"
"pit-trial","210","1266786","0.0-96.0","battery-v0.2","","""event"",""trial"",""time""
""focus"",""0"",""0""
""fullscreenenter"",""1"",""2140""
","
","""event"",""trial"",""time""
""focus"",""0"",""0""
","""event"",""trial"",""time""
""fullscreenenter"",""1"",""2140""
","
","","","-1","","","24","6102","837","z","elianto","#3366ff99","-1","-1","1","+10","[]","0","2","","","6102","92","5","2","win","no-go","0"
"pit-trial","211","1270916","0.0-97.0","battery-v0.2","","""event"",""trial"",""time""
""focus"",""0"",""0""
""fullscreenenter"",""1"",""2140""
","
","""event"",""trial"",""time""
""focus"",""0"",""0""
","""event"",""trial"",""time""
""fullscreenenter"",""1"",""2140""
","
","","","1272","","","24","6102","837","r","elianto","#3366ff99"," "," ","1","0","[2124]","1","2","","","6102","93","8","1","win","go","1"
"pit-trial","212","1275773","0.0-98.0","battery-v0.2","","""event"",""trial"",""time""
""focus"",""0"",""0""
""fullscreenenter"",""1"",""2140""
","
","""event"",""trial"",""time""
""focus"",""0"",""0""
","""event"",""trial"",""time""
""fullscreenenter"",""1"",""2140""
","
","","","-1","","","24","6102","837","z","elianto","#3366ff99","-1","-1","1","+10","[]","0","2","","","6102","94","5","2","win","no-go","0"
"pit-trial","213","1279430","0.0-99.0","battery-v0.2","","""event"",""trial"",""time""
""focus"",""0"",""0""
""fullscreenenter"",""1"",""2140""
","
","""event"",""trial"",""time""
""focus"",""0"",""0""
","""event"",""trial"",""time""
""fullscreenenter"",""1"",""2140""
","
","","","796","","","24","6102","837","h","elianto","#f73b6a7A"," "," ","1","-10","[1647]","1","2","","","6102","95","6","3","lose","go","1"
"pit-trial","214","1284293","0.0-100.0","battery-v0.2","","""event"",""trial"",""time""
""focus"",""0"",""0""
""fullscreenenter"",""1"",""2140""
","
","""event"",""trial"",""time""
""focus"",""0"",""0""
","""event"",""trial"",""time""
""fullscreenenter"",""1"",""2140""
","
","","","-1","","","24","6102","837","y","elianto","#f73b6a7A","-1","-1","1","0","[]","0","2","","","6102","96","7","4","lose","no-go","0"
"pit-trial","215","1289151","0.0-101.0","battery-v0.2","","""event"",""trial"",""time""
""focus"",""0"",""0""
""fullscreenenter"",""1"",""2140""
","
","""event"",""trial"",""time""
""focus"",""0"",""0""
","""event"",""trial"",""time""
""fullscreenenter"",""1"",""2140""
","
","","","-1","","","24","6102","837","z","elianto","#3366ff99","-1","-1","1","+10","[]","0","2","","","6102","97","5","2","win","no-go","0"
"pit-trial","216","1294014","0.0-102.0","battery-v0.2","","""event"",""trial"",""time""
""focus"",""0"",""0""
""fullscreenenter"",""1"",""2140""
","
","""event"",""trial"",""time""
""focus"",""0"",""0""
","""event"",""trial"",""time""
""fullscreenenter"",""1"",""2140""
","
","","","-1","","","24","6102","837","r","elianto","#3366ff99"," ","-1","0","0","[]","0","2","","","6102","98","8","1","win","go","0"
"pit-trial","217","1298872","0.0-103.0","battery-v0.2","","""event"",""trial"",""time""
""focus"",""0"",""0""
""fullscreenenter"",""1"",""2140""
","
","""event"",""trial"",""time""
""focus"",""0"",""0""
","""event"",""trial"",""time""
""fullscreenenter"",""1"",""2140""
","
","","","-1","","","24","6102","837","y","elianto","#f73b6a7A","-1","-1","1","0","[]","0","2","","","6102","99","7","4","lose","no-go","0"
"pit-trial","218","1302967","0.0-104.0","battery-v0.2","","""event"",""trial"",""time""
""focus"",""0"",""0""
""fullscreenenter"",""1"",""2140""
","
","""event"",""trial"",""time""
""focus"",""0"",""0""
","""event"",""trial"",""time""
""fullscreenenter"",""1"",""2140""
","
","","","1238","","","24","6102","837","h","elianto","#f73b6a7A"," "," ","1","-10","[2089]","1","2","","","6102","100","6","3","lose","go","1"
"pit-trial","219","1307827","0.0-105.0","battery-v0.2","","""event"",""trial"",""time""
""focus"",""0"",""0""
""fullscreenenter"",""1"",""2140""
","
","""event"",""trial"",""time""
""focus"",""0"",""0""
","""event"",""trial"",""time""
""fullscreenenter"",""1"",""2140""
","
","","","-1","","","24","6102","837","y","elianto","#f73b6a7A","-1","-1","1","0","[]","0","2","","","6102","101","7","4","lose","no-go","0"
"pit-trial","220","1312691","0.0-106.0","battery-v0.2","","""event"",""trial"",""time""
""focus"",""0"",""0""
""fullscreenenter"",""1"",""2140""
","
","""event"",""trial"",""time""
""focus"",""0"",""0""
","""event"",""trial"",""time""
""fullscreenenter"",""1"",""2140""
","
","","","-1","","","24","6102","837","z","elianto","#3366ff99","-1","-1","1","+10","[]","0","2","","","6102","102","5","2","win","no-go","0"
"pit-trial","221","1316684","0.0-107.0","battery-v0.2","","""event"",""trial"",""time""
""focus"",""0"",""0""
""fullscreenenter"",""1"",""2140""
","
","""event"",""trial"",""time""
""focus"",""0"",""0""
","""event"",""trial"",""time""
""fullscreenenter"",""1"",""2140""
","
","","","1139","","","24","6102","837","m","elianto","#3366ff99"," "," ","1","+10","[1990]","1","2","","","6102","103","9","1","win","go","0"
"pit-trial","222","1321547","0.0-108.0","battery-v0.2","","""event"",""trial"",""time""
""focus"",""0"",""0""
""fullscreenenter"",""1"",""2140""
","
","""event"",""trial"",""time""
""focus"",""0"",""0""
","""event"",""trial"",""time""
""fullscreenenter"",""1"",""2140""
","
","","","-1","","","24","6102","837","r","elianto","#3366ff99"," ","-1","0","0","[]","0","2","","","6102","104","8","1","win","go","0"
"pit-trial","223","1326410","0.0-109.0","battery-v0.2","","""event"",""trial"",""time""
""focus"",""0"",""0""
""fullscreenenter"",""1"",""2140""
","
","""event"",""trial"",""time""
""focus"",""0"",""0""
","""event"",""trial"",""time""
""fullscreenenter"",""1"",""2140""
","
","","","-1","","","24","6102","837","r","elianto","#3366ff99"," ","-1","0","0","[]","0","2","","","6102","105","8","1","win","go","0"
"pit-trial","224","1330452","0.0-110.0","battery-v0.2","","""event"",""trial"",""time""
""focus"",""0"",""0""
""fullscreenenter"",""1"",""2140""
","
","""event"",""trial"",""time""
""focus"",""0"",""0""
","""event"",""trial"",""time""
""fullscreenenter"",""1"",""2140""
","
","","","1185","","","24","6102","837","h","elianto","#f73b6a7A"," "," ","1","0","[2035]","1","2","","","6102","106","6","3","lose","go","0"
"pit-trial","225","1334009","0.0-111.0","battery-v0.2","","""event"",""trial"",""time""
""focus"",""0"",""0""
""fullscreenenter"",""1"",""2140""
","
","""event"",""trial"",""time""
""focus"",""0"",""0""
","""event"",""trial"",""time""
""fullscreenenter"",""1"",""2140""
","
","","","695","","","24","6102","837","c","elianto","#3366ff99"," "," ","1","+10","[1547]","1","2","","","6102","107","4","1","win","go","0"
"pit-trial","226","1337579","0.0-112.0","battery-v0.2","","""event"",""trial"",""time""
""focus"",""0"",""0""
""fullscreenenter"",""1"",""2140""
","
","""event"",""trial"",""time""
""focus"",""0"",""0""
","""event"",""trial"",""time""
""fullscreenenter"",""1"",""2140""
","
","","","715","","","24","6102","837","m","elianto","#3366ff99"," "," ","1","+10","[1564]","1","2","","","6102","108","9","1","win","go","0"
"pit-trial","227","1341276","0.0-113.0","battery-v0.2","","""event"",""trial"",""time""
""focus"",""0"",""0""
""fullscreenenter"",""1"",""2140""
","
","""event"",""trial"",""time""
""focus"",""0"",""0""
","""event"",""trial"",""time""
""fullscreenenter"",""1"",""2140""
","
","","","835","","","24","6102","837","m","elianto","#3366ff99"," "," ","1","+10","[1687]","1","2","","","6102","109","9","1","win","go","0"
"pit-trial","228","1344821","0.0-114.0","battery-v0.2","","""event"",""trial"",""time""
""focus"",""0"",""0""
""fullscreenenter"",""1"",""2140""
","
","""event"",""trial"",""time""
""focus"",""0"",""0""
","""event"",""trial"",""time""
""fullscreenenter"",""1"",""2140""
","
","","","689","","","24","6102","837","r","elianto","#3366ff99"," "," ","1","+10","[1540]","1","2","","","6102","110","8","1","win","go","0"
"pit-trial","229","1348616","0.0-115.0","battery-v0.2","","""event"",""trial"",""time""
""focus"",""0"",""0""
""fullscreenenter"",""1"",""2140""
","
","""event"",""trial"",""time""
""focus"",""0"",""0""
","""event"",""trial"",""time""
""fullscreenenter"",""1"",""2140""
","
","","","939","","","24","6102","837","h","elianto","#f73b6a7A"," "," ","1","0","[1790]","1","2","","","6102","111","6","3","lose","go","0"
"pit-trial","230","1353476","0.0-116.0","battery-v0.2","","""event"",""trial"",""time""
""focus"",""0"",""0""
""fullscreenenter"",""1"",""2140""
","
","""event"",""trial"",""time""
""focus"",""0"",""0""
","""event"",""trial"",""time""
""fullscreenenter"",""1"",""2140""
","
","","","-1","","","24","6102","837","z","elianto","#3366ff99","-1","-1","1","0","[]","0","2","","","6102","112","5","2","win","no-go","1"
"pit-trial","231","1358334","0.0-117.0","battery-v0.2","","""event"",""trial"",""time""
""focus"",""0"",""0""
""fullscreenenter"",""1"",""2140""
","
","""event"",""trial"",""time""
""focus"",""0"",""0""
","""event"",""trial"",""time""
