"trial_type","trial_index","time_elapsed","internal_node_id","task_version","subject_id","interactions","blur_events","focus_events","fullscreenenter_events","fullscreenexit_events","success","view_history","rt","responses","num_errors","age","subject","participantId","rune","rune_set","hex","correct","choice","accuracy","outcome","keys","total_keys","block","practice","value","sub","trial","stimulus","robot","valence","action","sham"
"pavlovia","0","6","0.0-0.0","battery-v0.2","","""event"",""trial"",""time""
""fullscreenenter"",""1"",""2000""
","
","
","""event"",""trial"",""time""
""fullscreenenter"",""1"",""2000""
","
","","","","","","","","","","","","","","","","","","","","","","","","","","",""
"fullscreen","1","2997","0.0-1.0","battery-v0.2","","""event"",""trial"",""time""
""fullscreenenter"",""1"",""2000""
","
","
","""event"",""trial"",""time""
""fullscreenenter"",""1"",""2000""
","
","true","","","","","","","","","","","","","","","","","","","","","","","","","",""
"pit-instructions","2","6956","0.0-2.0-0.0","battery-v0.2","","""event"",""trial"",""time""
""fullscreenenter"",""1"",""2000""
","
","
","""event"",""trial"",""time""
""fullscreenenter"",""1"",""2000""
","
","","[{""page_index"":0,""viewing_time"":3956.5999999940395}]","3956.7999999821186","","","","","","","","","","","","","","","","","","","","","","","",""
"pit-comprehension","3","9438","0.0-2.0-1.0-0.0","battery-v0.2","","""event"",""trial"",""time""
""fullscreenenter"",""1"",""2000""
","
","
","""event"",""trial"",""time""
""fullscreenenter"",""1"",""2000""
","
","","","2480.5999999940395","[""shark""]","0","21","10101","4788","","","","","","","","","","","","","","","","","","",""
"pit-instructions","4","10493","0.0-2.0-1.0-1.0","battery-v0.2","","""event"",""trial"",""time""
""fullscreenenter"",""1"",""2000""
","
","
","""event"",""trial"",""time""
""fullscreenenter"",""1"",""2000""
","
","","[{""page_index"":0,""viewing_time"":1049.199999988079}]","1049.2999999821186","","","","","","","","","","","","","","","","","","","","","","","",""
"pit-comprehension","5","12964","0.0-2.0-2.0-0.0","battery-v0.2","","""event"",""trial"",""time""
""fullscreenenter"",""1"",""2000""
","
","
","""event"",""trial"",""time""
""fullscreenenter"",""1"",""2000""
","
","","","2470.0999999940395","[""tiger""]","0","21","10101","4788","","","","","","","","","","","","","","","","","","",""
"pit-instructions","6","13979","0.0-2.0-2.0-1.0","battery-v0.2","","""event"",""trial"",""time""
""fullscreenenter"",""1"",""2000""
","
","
","""event"",""trial"",""time""
""fullscreenenter"",""1"",""2000""
","
","","[{""page_index"":0,""viewing_time"":1013.0999999940395}]","1013.2999999821186","","","","","","","","","","","","","","","","","","","","","","","",""
"pit-instructions","7","141926","0.0-2.0-3.0","battery-v0.2","","""event"",""trial"",""time""
""fullscreenenter"",""1"",""2000""
","
","
","""event"",""trial"",""time""
""fullscreenenter"",""1"",""2000""
","
","","[{""page_index"":0,""viewing_time"":13333.300000011921},{""page_index"":1,""viewing_time"":6142.5999999940395},{""page_index"":2,""viewing_time"":8470.40000000596},{""page_index"":3,""viewing_time"":5644.799999982119},{""page_index"":4,""viewing_time"":9726.200000017881},{""page_index"":5,""viewing_time"":6318.0999999940395},{""page_index"":6,""viewing_time"":8251.09999999404},{""page_index"":7,""viewing_time"":7841.9000000059605},{""page_index"":8,""viewing_time"":6150.5999999940395},{""page_index"":9,""viewing_time"":7188.4000000059605},{""page_index"":8,""viewing_time"":495.80000001192093},{""page_index"":7,""viewing_time"":1515.199999988079},{""page_index"":6,""viewing_time"":3128.9000000059605},{""page_index"":7,""viewing_time"":3019},{""page_index"":8,""viewing_time"":3591.7999999821186},{""page_index"":9,""viewing_time"":8388.200000017881},{""page_index"":10,""viewing_time"":7163.4000000059605},{""page_index"":11,""viewing_time"":7245.399999976158},{""page_index"":12,""viewing_time"":8212.200000017881},{""page_index"":13,""viewing_time"":6116.799999982119}]","127944.30000001192","","","","","","","","","","","","","","","","","","","","","","","",""
"pit-trial","8","146792","0.0-2.0-4.0-0.0","battery-v0.2","","""event"",""trial"",""time""
""fullscreenenter"",""1"",""2000""
","
","
","""event"",""trial"",""time""
""fullscreenenter"",""1"",""2000""
","
","","","-1","","","21","10101","4788","&#9784;","elianto","#FFFFF080"," ","-1","0","&#10060","[3215.7999999821186]","1","0","0","","","","","","","",""
"pit-trial","9","150187","0.0-2.0-4.1-0.1","battery-v0.2","","""event"",""trial"",""time""
""fullscreenenter"",""1"",""2000""
","
","
","""event"",""trial"",""time""
""fullscreenenter"",""1"",""2000""
","
","","","539.5","","","21","10101","4788","&#9784;","elianto","#FFFFF080"," "," ","1","&#10004","[1390.5]","1","0","0","","","","","","","",""
"pit-trial","10","153662","0.0-2.0-4.2-0.2","battery-v0.2","","""event"",""trial"",""time""
""fullscreenenter"",""1"",""2000""
","
","
","""event"",""trial"",""time""
""fullscreenenter"",""1"",""2000""
","
","","","617.7999999821186","","","21","10101","4788","&#9784;","elianto","#FFFFF080"," "," ","1","&#10004","[1469.199999988079]","1","0","0","","","","","","","",""
"pit-trial","11","156979","0.0-2.0-4.3-0.3","battery-v0.2","","""event"",""trial"",""time""
""fullscreenenter"",""1"",""2000""
","
","
","""event"",""trial"",""time""
""fullscreenenter"",""1"",""2000""
","
","","","464.80000001192093","","","21","10101","4788","&#9784;","elianto","#FFFFF080"," "," ","1","&#10004","[1315.9000000059605]","1","0","0","","","","","","","",""
"pit-trial","12","160588","0.0-2.0-4.4-0.4","battery-v0.2","","""event"",""trial"",""time""
""fullscreenenter"",""1"",""2000""
","
","
","""event"",""trial"",""time""
""fullscreenenter"",""1"",""2000""
","
","","","749.5999999940395","","","21","10101","4788","&#9784;","elianto","#FFFFF080"," "," ","1","&#10004","[1600.800000011921]","1","0","0","","","","","","","",""
"pit-instructions","13","184173","0.0-2.0-5.0","battery-v0.2","","""event"",""trial"",""time""
""fullscreenenter"",""1"",""2000""
","
","
","""event"",""trial"",""time""
""fullscreenenter"",""1"",""2000""
","
","","[{""page_index"":0,""viewing_time"":5102.5999999940395},{""page_index"":1,""viewing_time"":5658.5},{""page_index"":2,""viewing_time"":5836.200000017881},{""page_index"":3,""viewing_time"":6993.5999999940395}]","23591.19999998808","","","","","","","","","","","","","","","","","","","","","","","",""
"pit-trial","14","189038","0.0-2.0-6.0-0.0","battery-v0.2","","""event"",""trial"",""time""
""fullscreenenter"",""1"",""2000""
","
","
","""event"",""trial"",""time""
""fullscreenenter"",""1"",""2000""
","
","","","-1","","","21","10101","4788","&#9854;","elianto","#FFFFF080","-1","-1","1","&#10004","[]","0","0","1","","","","","","","",""
"pit-trial","15","193912","0.0-2.0-6.1-0.1","battery-v0.2","","""event"",""trial"",""time""
""fullscreenenter"",""1"",""2000""
","
","
","""event"",""trial"",""time""
""fullscreenenter"",""1"",""2000""
","
","","","-1","","","21","10101","4788","&#9854;","elianto","#FFFFF080","-1","-1","1","&#10004","[]","0","0","1","","","","","","","",""
"pit-trial","16","198779","0.0-2.0-6.2-0.2","battery-v0.2","","""event"",""trial"",""time""
""fullscreenenter"",""1"",""2000""
","
","
","""event"",""trial"",""time""
""fullscreenenter"",""1"",""2000""
","
","","","-1","","","21","10101","4788","&#9854;","elianto","#FFFFF080","-1","-1","1","&#10004","[]","0","0","1","","","","","","","",""
"pit-trial","17","203648","0.0-2.0-6.3-0.3","battery-v0.2","","""event"",""trial"",""time""
""fullscreenenter"",""1"",""2000""
","
","
","""event"",""trial"",""time""
""fullscreenenter"",""1"",""2000""
","
","","","-1","","","21","10101","4788","&#9854;","elianto","#FFFFF080","-1","-1","1","&#10004","[]","0","0","1","","","","","","","",""
"pit-trial","18","208516","0.0-2.0-6.4-0.4","battery-v0.2","","""event"",""trial"",""time""
""fullscreenenter"",""1"",""2000""
","
","
","""event"",""trial"",""time""
""fullscreenenter"",""1"",""2000""
","
","","","-1","","","21","10101","4788","&#9854;","elianto","#FFFFF080","-1","-1","1","&#10004","[]","0","0","1","","","","","","","",""
"pit-instructions","19","327570","0.0-2.0-7.0","battery-v0.2","","""event"",""trial"",""time""
""fullscreenenter"",""1"",""2000""
","
","
","""event"",""trial"",""time""
""fullscreenenter"",""1"",""2000""
","
","","[{""page_index"":0,""viewing_time"":5761.800000011921},{""page_index"":1,""viewing_time"":6942.199999988079},{""page_index"":2,""viewing_time"":6142.0999999940395},{""page_index"":3,""viewing_time"":6511.5999999940395},{""page_index"":4,""viewing_time"":6167.9000000059605},{""page_index"":5,""viewing_time"":5949.0999999940395},{""page_index"":6,""viewing_time"":4676.700000017881},{""page_index"":7,""viewing_time"":7912.5},{""page_index"":8,""viewing_time"":6819.299999982119},{""page_index"":9,""viewing_time"":6929},{""page_index"":10,""viewing_time"":6089.700000017881},{""page_index"":11,""viewing_time"":4460.0999999940395},{""page_index"":12,""viewing_time"":8125.0999999940395},{""page_index"":13,""viewing_time"":7510.4000000059605},{""page_index"":14,""viewing_time"":7419.5},{""page_index"":15,""viewing_time"":6906.300000011921},{""page_index"":16,""viewing_time"":6853.5999999940395},{""page_index"":17,""viewing_time"":7869}]","119046","","","","","","","","","","","","","","","","","","","","","","","",""
"pit-trial","20","332426","0.0-2.0-8.0-0.0","battery-v0.2","","""event"",""trial"",""time""
""fullscreenenter"",""1"",""2000""
","
","
","""event"",""trial"",""time""
""fullscreenenter"",""1"",""2000""
","
","","","-1","","","21","10101","4788","&#9776;","elianto","#3366ff99"," ","-1","0","0","[]","0","0","1","","","","","","","",""
"pit-trial","21","337290","0.0-2.0-8.0-1.0","battery-v0.2","","""event"",""trial"",""time""
""fullscreenenter"",""1"",""2000""
","
","
","""event"",""trial"",""time""
""fullscreenenter"",""1"",""2000""
","
","","","-1","","","21","10101","4788","&#9776;","elianto","#3366ff99"," ","-1","0","0","[]","0","0","1","","","","","","","",""
"pit-trial","22","342161","0.0-2.0-8.0-2.0","battery-v0.2","","""event"",""trial"",""time""
""fullscreenenter"",""1"",""2000""
","
","
","""event"",""trial"",""time""
""fullscreenenter"",""1"",""2000""
","
","","","-1","","","21","10101","4788","&#9776;","elianto","#3366ff99"," ","-1","0","0","[]","0","0","1","","","","","","","",""
"pit-trial","23","345551","0.0-2.0-8.0-3.0","battery-v0.2","","""event"",""trial"",""time""
""fullscreenenter"",""1"",""2000""
","
","
","""event"",""trial"",""time""
""fullscreenenter"",""1"",""2000""
","
","","","537.1999999880791","","","21","10101","4788","&#9776;","elianto","#3366ff99"," "," ","1","0","[1388.800000011921]","1","0","1","","","","","","","",""
"pit-trial","24","349004","0.0-2.0-8.0-4.0","battery-v0.2","","""event"",""trial"",""time""
""fullscreenenter"",""1"",""2000""
","
","
","""event"",""trial"",""time""
""fullscreenenter"",""1"",""2000""
","
","","","585.8999999761581","","","21","10101","4788","&#9776;","elianto","#3366ff99"," "," ","1","+10","[1437.3999999761581]","1","0","1","","","","","","","",""
"pit-trial","25","352378","0.0-2.0-8.1-0.1","battery-v0.2","","""event"",""trial"",""time""
""fullscreenenter"",""1"",""2000""
","
","
","""event"",""trial"",""time""
""fullscreenenter"",""1"",""2000""
","
","","","519.7999999821186","","","21","10101","4788","&#9776;","elianto","#3366ff99"," "," ","1","+10","[1370.5]","1","0","1","","","","","","","",""
"pit-trial","26","355696","0.0-2.0-8.1-1.1","battery-v0.2","","""event"",""trial"",""time""
""fullscreenenter"",""1"",""2000""
","
","
","""event"",""trial"",""time""
""fullscreenenter"",""1"",""2000""
","
","","","450.19999998807907","","","21","10101","4788","&#9776;","elianto","#3366ff99"," "," ","1","+10","[1301.3999999761581]","1","0","1","","","","","","","",""
"pit-trial","27","358907","0.0-2.0-8.1-2.1","battery-v0.2","","""event"",""trial"",""time""
""fullscreenenter"",""1"",""2000""
","
","
","""event"",""trial"",""time""
""fullscreenenter"",""1"",""2000""
","
","","","358.80000001192093","","","21","10101","4788","&#9776;","elianto","#3366ff99"," "," ","1","+10","[1210.0999999940395]","1","0","1","","","","","","","",""
"pit-trial","28","362177","0.0-2.0-8.1-3.1","battery-v0.2","","""event"",""trial"",""time""
""fullscreenenter"",""1"",""2000""
","
","
","""event"",""trial"",""time""
""fullscreenenter"",""1"",""2000""
","
","","","417","","","21","10101","4788","&#9776;","elianto","#3366ff99"," "," ","1","0","[1267.5]","1","0","1","","","","","","","",""
"pit-trial","29","365462","0.0-2.0-8.1-4.1","battery-v0.2","","""event"",""trial"",""time""
""fullscreenenter"",""1"",""2000""
","
","
","""event"",""trial"",""time""
""fullscreenenter"",""1"",""2000""
","
","","","433.80000001192093","","","21","10101","4788","&#9776;","elianto","#3366ff99"," "," ","1","+10","[1284.0999999940395]","1","0","1","","","","","","","",""
"pit-trial","30","368512","0.0-2.0-8.2-0.2","battery-v0.2","","""event"",""trial"",""time""
""fullscreenenter"",""1"",""2000""
","
","
","""event"",""trial"",""time""
""fullscreenenter"",""1"",""2000""
","
","","","197.09999999403954","","","21","10101","4788","&#9776;","elianto","#3366ff99"," "," ","1","+10","[1047.699999988079]","1","0","1","","","","","","","",""
"pit-trial","31","371691","0.0-2.0-8.2-1.2","battery-v0.2","","""event"",""trial"",""time""
""fullscreenenter"",""1"",""2000""
","
","
","""event"",""trial"",""time""
""fullscreenenter"",""1"",""2000""
","
","","","327.19999998807907","","","21","10101","4788","&#9776;","elianto","#3366ff99"," "," ","1","+10","[1177.5]","1","0","1","","","","","","","",""
"pit-trial","32","374739","0.0-2.0-8.2-2.2","battery-v0.2","","""event"",""trial"",""time""
""fullscreenenter"",""1"",""2000""
","
","
","""event"",""trial"",""time""
""fullscreenenter"",""1"",""2000""
","
","","","195.5","","","21","10101","4788","&#9776;","elianto","#3366ff99"," "," ","1","+10","[1046.4000000059605]","1","0","1","","","","","","","",""
"pit-trial","33","377698","0.0-2.0-8.2-3.2","battery-v0.2","","""event"",""trial"",""time""
""fullscreenenter"",""1"",""2000""
","
","
","""event"",""trial"",""time""
""fullscreenenter"",""1"",""2000""
","
","","","107.60000002384186","","","21","10101","4788","&#9776;","elianto","#3366ff99"," "," ","1","0","[958.5,1444.0999999940395]","2","0","1","","","","","","","",""
"pit-trial","34","381004","0.0-2.0-8.2-4.2","battery-v0.2","","""event"",""trial"",""time""
""fullscreenenter"",""1"",""2000""
","
","
","""event"",""trial"",""time""
""fullscreenenter"",""1"",""2000""
","
","","","453","","","21","10101","4788","&#9776;","elianto","#3366ff99"," "," ","1","+10","[1303.4000000059605]","1","0","1","","","","","","","",""
"call-function","35","381004","0.0-2.0-9.0","battery-v0.2","","""event"",""trial"",""time""
""fullscreenenter"",""1"",""2000""
","
","
","""event"",""trial"",""time""
""fullscreenenter"",""1"",""2000""
","
","","","","","","","","","","","","","","","","","","","","","","","","","","",""
"pit-instructions","36","419798","0.0-2.0-10.0","battery-v0.2","","""event"",""trial"",""time""
""fullscreenenter"",""1"",""2000""
","
","
","""event"",""trial"",""time""
""fullscreenenter"",""1"",""2000""
","
","","[{""page_index"":0,""viewing_time"":6007.5999999940395},{""page_index"":1,""viewing_time"":7052.9000000059605},{""page_index"":2,""viewing_time"":9114.299999982119},{""page_index"":3,""viewing_time"":8291.40000000596},{""page_index"":4,""viewing_time"":8326.800000011921}]","38793.09999999404","","","","","","","","","","","","","","","","","","","","","","","",""
"pit-trial","37","424669","0.0-2.0-11.0-0.0","battery-v0.2","","""event"",""trial"",""time""
""fullscreenenter"",""1"",""2000""
","
","
","""event"",""trial"",""time""
""fullscreenenter"",""1"",""2000""
","
","","","-1","","","21","10101","4788","&#9761;","elianto","#3366ff99","-1","-1","1","+10","[]","0","0","2","","","","","","","",""
"pit-trial","38","429550","0.0-2.0-11.0-1.0","battery-v0.2","","""event"",""trial"",""time""
""fullscreenenter"",""1"",""2000""
","
","
","""event"",""trial"",""time""
""fullscreenenter"",""1"",""2000""
","
","","","-1","","","21","10101","4788","&#9761;","elianto","#3366ff99","-1","-1","1","+10","[]","0","0","2","","","","","","","",""
"pit-trial","39","434409","0.0-2.0-11.0-2.0","battery-v0.2","","""event"",""trial"",""time""
""fullscreenenter"",""1"",""2000""
","
","
","""event"",""trial"",""time""
""fullscreenenter"",""1"",""2000""
","
","","","-1","","","21","10101","4788","&#9761;","elianto","#3366ff99","-1","-1","1","+10","[]","0","0","2","","","","","","","",""
"pit-trial","40","439290","0.0-2.0-11.0-3.0","battery-v0.2","","""event"",""trial"",""time""
""fullscreenenter"",""1"",""2000""
","
","
","""event"",""trial"",""time""
""fullscreenenter"",""1"",""2000""
","
","","","-1","","","21","10101","4788","&#9761;","elianto","#3366ff99","-1","-1","1","0","[]","0","0","2","","","","","","","",""
"pit-trial","41","444160","0.0-2.0-11.0-4.0","battery-v0.2","","""event"",""trial"",""time""
""fullscreenenter"",""1"",""2000""
","
","
","""event"",""trial"",""time""
""fullscreenenter"",""1"",""2000""
","
","","","-1","","","21","10101","4788","&#9761;","elianto","#3366ff99","-1","-1","1","+10","[]","0","0","2","","","","","","","",""
"pit-trial","42","449026","0.0-2.0-11.1-0.1","battery-v0.2","","""event"",""trial"",""time""
""fullscreenenter"",""1"",""2000""
","
","
","""event"",""trial"",""time""
""fullscreenenter"",""1"",""2000""
","
","","","-1","","","21","10101","4788","&#9761;","elianto","#3366ff99","-1","-1","1","+10","[]","0","0","2","","","","","","","",""
"pit-trial","43","453878","0.0-2.0-11.1-1.1","battery-v0.2","","""event"",""trial"",""time""
""fullscreenenter"",""1"",""2000""
","
","
","""event"",""trial"",""time""
""fullscreenenter"",""1"",""2000""
","
","","","-1","","","21","10101","4788","&#9761;","elianto","#3366ff99","-1","-1","1","+10","[]","0","0","2","","","","","","","",""
"pit-trial","44","458731","0.0-2.0-11.1-2.1","battery-v0.2","","""event"",""trial"",""time""
""fullscreenenter"",""1"",""2000""
","
","
","""event"",""trial"",""time""
""fullscreenenter"",""1"",""2000""
","
","","","-1","","","21","10101","4788","&#9761;","elianto","#3366ff99","-1","-1","1","+10","[]","0","0","2","","","","","","","",""
"pit-trial","45","463583","0.0-2.0-11.1-3.1","battery-v0.2","","""event"",""trial"",""time""
""fullscreenenter"",""1"",""2000""
","
","
","""event"",""trial"",""time""
""fullscreenenter"",""1"",""2000""
","
","","","-1","","","21","10101","4788","&#9761;","elianto","#3366ff99","-1","-1","1","0","[]","0","0","2","","","","","","","",""
"pit-trial","46","468435","0.0-2.0-11.1-4.1","battery-v0.2","","""event"",""trial"",""time""
""fullscreenenter"",""1"",""2000""
","
","
","""event"",""trial"",""time""
""fullscreenenter"",""1"",""2000""
","
","","","-1","","","21","10101","4788","&#9761;","elianto","#3366ff99","-1","-1","1","+10","[]","0","0","2","","","","","","","",""
"pit-trial","47","473288","0.0-2.0-11.2-0.2","battery-v0.2","","""event"",""trial"",""time""
""fullscreenenter"",""1"",""2000""
","
","
","""event"",""trial"",""time""
""fullscreenenter"",""1"",""2000""
","
","","","-1","","","21","10101","4788","&#9761;","elianto","#3366ff99","-1","-1","1","+10","[]","0","0","2","","","","","","","",""
"pit-trial","48","478140","0.0-2.0-11.2-1.2","battery-v0.2","","""event"",""trial"",""time""
""fullscreenenter"",""1"",""2000""
","
","
","""event"",""trial"",""time""
""fullscreenenter"",""1"",""2000""
","
","","","-1","","","21","10101","4788","&#9761;","elianto","#3366ff99","-1","-1","1","+10","[]","0","0","2","","","","","","","",""
"pit-trial","49","482992","0.0-2.0-11.2-2.2","battery-v0.2","","""event"",""trial"",""time""
""fullscreenenter"",""1"",""2000""
","
","
","""event"",""trial"",""time""
""fullscreenenter"",""1"",""2000""
","
","","","-1","","","21","10101","4788","&#9761;","elianto","#3366ff99","-1","-1","1","+10","[]","0","0","2","","","","","","","",""
"pit-trial","50","487845","0.0-2.0-11.2-3.2","battery-v0.2","","""event"",""trial"",""time""
""fullscreenenter"",""1"",""2000""
","
","
","""event"",""trial"",""time""
""fullscreenenter"",""1"",""2000""
","
","","","-1","","","21","10101","4788","&#9761;","elianto","#3366ff99","-1","-1","1","0","[]","0","0","2","","","","","","","",""
"pit-trial","51","492698","0.0-2.0-11.2-4.2","battery-v0.2","","""event"",""trial"",""time""
""fullscreenenter"",""1"",""2000""
","
","
","""event"",""trial"",""time""
""fullscreenenter"",""1"",""2000""
","
","","","-1","","","21","10101","4788","&#9761;","elianto","#3366ff99","-1","-1","1","+10","[]","0","0","2","","","","","","","",""
"pit-trial","52","497551","0.0-2.0-11.3-0.3","battery-v0.2","","""event"",""trial"",""time""
""fullscreenenter"",""1"",""2000""
","
","
","""event"",""trial"",""time""
""fullscreenenter"",""1"",""2000""
","
","","","-1","","","21","10101","4788","&#9761;","elianto","#3366ff99","-1","-1","1","+10","[]","0","0","2","","","","","","","",""
"pit-trial","53","502404","0.0-2.0-11.3-1.3","battery-v0.2","","""event"",""trial"",""time""
""fullscreenenter"",""1"",""2000""
","
","
","""event"",""trial"",""time""
""fullscreenenter"",""1"",""2000""
","
","","","-1","","","21","10101","4788","&#9761;","elianto","#3366ff99","-1","-1","1","+10","[]","0","0","2","","","","","","","",""
"pit-trial","54","507256","0.0-2.0-11.3-2.3","battery-v0.2","","""event"",""trial"",""time""
""fullscreenenter"",""1"",""2000""
","
","
","""event"",""trial"",""time""
""fullscreenenter"",""1"",""2000""
","
","","","-1","","","21","10101","4788","&#9761;","elianto","#3366ff99","-1","-1","1","+10","[]","0","0","2","","","","","","","",""
"pit-trial","55","512109","0.0-2.0-11.3-3.3","battery-v0.2","","""event"",""trial"",""time""
""fullscreenenter"",""1"",""2000""
","
","
","""event"",""trial"",""time""
""fullscreenenter"",""1"",""2000""
","
","","","-1","","","21","10101","4788","&#9761;","elianto","#3366ff99","-1","-1","1","0","[]","0","0","2","","","","","","","",""
"pit-trial","56","516962","0.0-2.0-11.3-4.3","battery-v0.2","","""event"",""trial"",""time""
""fullscreenenter"",""1"",""2000""
","
","
","""event"",""trial"",""time""
""fullscreenenter"",""1"",""2000""
","
","","","-1","","","21","10101","4788","&#9761;","elianto","#3366ff99","-1","-1","1","+10","[]","0","0","2","","","","","","","",""
"call-function","57","516963","0.0-2.0-12.0","battery-v0.2","","""event"",""trial"",""time""
""fullscreenenter"",""1"",""2000""
","
","
","""event"",""trial"",""time""
""fullscreenenter"",""1"",""2000""
","
","","","","","","","","","","","","","","","","","","","","","","","","","","",""
"pit-instructions","58","550854","0.0-2.0-13.0","battery-v0.2","","""event"",""trial"",""time""
""fullscreenenter"",""1"",""2000""
","
","
","""event"",""trial"",""time""
""fullscreenenter"",""1"",""2000""
","
","","[{""page_index"":0,""viewing_time"":6029.9000000059605},{""page_index"":1,""viewing_time"":8775.09999999404},{""page_index"":2,""viewing_time"":3695.800000011921},{""page_index"":3,""viewing_time"":11280.899999976158},{""page_index"":4,""viewing_time"":4109.100000023842}]","33891","","","","","","","","","","","","","","","","","","","","","","","",""
"pit-trial","59","555711","0.0-2.0-14.0-0.0","battery-v0.2","","""event"",""trial"",""time""
""fullscreenenter"",""1"",""2000""
","
","
","""event"",""trial"",""time""
""fullscreenenter"",""1"",""2000""
","
","","","-1","","","21","10101","4788","&#9826;","elianto","#f73b6a7A","-1","-1","1","0","[]","0","0","3","","","","","","","",""
"pit-trial","60","560578","0.0-2.0-14.0-1.0","battery-v0.2","","""event"",""trial"",""time""
""fullscreenenter"",""1"",""2000""
","
","
","""event"",""trial"",""time""
""fullscreenenter"",""1"",""2000""
","
","","","-1","","","21","10101","4788","&#9826;","elianto","#f73b6a7A","-1","-1","1","0","[]","0","0","3","","","","","","","",""
"pit-trial","61","565436","0.0-2.0-14.0-2.0","battery-v0.2","","""event"",""trial"",""time""
""fullscreenenter"",""1"",""2000""
","
","
","""event"",""trial"",""time""
""fullscreenenter"",""1"",""2000""
","
","","","-1","","","21","10101","4788","&#9826;","elianto","#f73b6a7A","-1","-1","1","0","[]","0","0","3","","","","","","","",""
"pit-trial","62","570314","0.0-2.0-14.0-3.0","battery-v0.2","","""event"",""trial"",""time""
""fullscreenenter"",""1"",""2000""
","
","
","""event"",""trial"",""time""
""fullscreenenter"",""1"",""2000""
","
","","","-1","","","21","10101","4788","&#9826;","elianto","#f73b6a7A","-1","-1","1","-10","[]","0","0","3","","","","","","","",""
"pit-trial","63","575183","0.0-2.0-14.0-4.0","battery-v0.2","","""event"",""trial"",""time""
""fullscreenenter"",""1"",""2000""
""blur"",""64"",""576931""
""focus"",""64"",""577539""
","""event"",""trial"",""time""
""blur"",""64"",""576931""
","""event"",""trial"",""time""
""focus"",""64"",""577539""
","""event"",""trial"",""time""
""fullscreenenter"",""1"",""2000""
","
","","","-1","","","21","10101","4788","&#9826;","elianto","#f73b6a7A","-1","-1","1","0","[]","0","0","3","","","","","","","",""
"pit-trial","64","580057","0.0-2.0-14.1-0.1","battery-v0.2","","""event"",""trial"",""time""
""fullscreenenter"",""1"",""2000""
""blur"",""64"",""576931""
""focus"",""64"",""577539""
","""event"",""trial"",""time""
""blur"",""64"",""576931""
","""event"",""trial"",""time""
""focus"",""64"",""577539""
","""event"",""trial"",""time""
""fullscreenenter"",""1"",""2000""
","
","","","-1","","","21","10101","4788","&#9826;","elianto","#f73b6a7A","-1","-1","1","0","[]","0","0","3","","","","","","","",""
"pit-trial","65","584909","0.0-2.0-14.1-1.1","battery-v0.2","","""event"",""trial"",""time""
""fullscreenenter"",""1"",""2000""
""blur"",""64"",""576931""
""focus"",""64"",""577539""
","""event"",""trial"",""time""
""blur"",""64"",""576931""
","""event"",""trial"",""time""
""focus"",""64"",""577539""
","""event"",""trial"",""time""
""fullscreenenter"",""1"",""2000""
","
","","","-1","","","21","10101","4788","&#9826;","elianto","#f73b6a7A","-1","-1","1","0","[]","0","0","3","","","","","","","",""
"pit-trial","66","589762","0.0-2.0-14.1-2.1","battery-v0.2","","""event"",""trial"",""time""
""fullscreenenter"",""1"",""2000""
""blur"",""64"",""576931""
""focus"",""64"",""577539""
""blur"",""67"",""589951""
""focus"",""67"",""591180""
","""event"",""trial"",""time""
""blur"",""64"",""576931""
""blur"",""67"",""589951""
","""event"",""trial"",""time""
""focus"",""64"",""577539""
""focus"",""67"",""591180""
","""event"",""trial"",""time""
""fullscreenenter"",""1"",""2000""
","
","","","-1","","","21","10101","4788","&#9826;","elianto","#f73b6a7A","-1","-1","1","0","[]","0","0","3","","","","","","","",""
"pit-trial","67","594614","0.0-2.0-14.1-3.1","battery-v0.2","","""event"",""trial"",""time""
""fullscreenenter"",""1"",""2000""
""blur"",""64"",""576931""
""focus"",""64"",""577539""
""blur"",""67"",""589951""
""focus"",""67"",""591180""
","""event"",""trial"",""time""
""blur"",""64"",""576931""
""blur"",""67"",""589951""
","""event"",""trial"",""time""
""focus"",""64"",""577539""
""focus"",""67"",""591180""
","""event"",""trial"",""time""
""fullscreenenter"",""1"",""2000""
","
","","","-1","","","21","10101","4788","&#9826;","elianto","#f73b6a7A","-1","-1","1","-10","[]","0","0","3","","","","","","","",""
"pit-trial","68","599468","0.0-2.0-14.1-4.1","battery-v0.2","","""event"",""trial"",""time""
""fullscreenenter"",""1"",""2000""
""blur"",""64"",""576931""
""focus"",""64"",""577539""
""blur"",""67"",""589951""
""focus"",""67"",""591180""
","""event"",""trial"",""time""
""blur"",""64"",""576931""
""blur"",""67"",""589951""
","""event"",""trial"",""time""
""focus"",""64"",""577539""
""focus"",""67"",""591180""
","""event"",""trial"",""time""
""fullscreenenter"",""1"",""2000""
","
","","","-1","","","21","10101","4788","&#9826;","elianto","#f73b6a7A","-1","-1","1","0","[]","0","0","3","","","","","","","",""
"pit-trial","69","604320","0.0-2.0-14.2-0.2","battery-v0.2","","""event"",""trial"",""time""
""fullscreenenter"",""1"",""2000""
""blur"",""64"",""576931""
""focus"",""64"",""577539""
""blur"",""67"",""589951""
""focus"",""67"",""591180""
","""event"",""trial"",""time""
""blur"",""64"",""576931""
""blur"",""67"",""589951""
","""event"",""trial"",""time""
""focus"",""64"",""577539""
""focus"",""67"",""591180""
","""event"",""trial"",""time""
""fullscreenenter"",""1"",""2000""
","
","","","-1","","","21","10101","4788","&#9826;","elianto","#f73b6a7A","-1","-1","1","0","[]","0","0","3","","","","","","","",""
"pit-trial","70","609171","0.0-2.0-14.2-1.2","battery-v0.2","","""event"",""trial"",""time""
""fullscreenenter"",""1"",""2000""
""blur"",""64"",""576931""
""focus"",""64"",""577539""
""blur"",""67"",""589951""
""focus"",""67"",""591180""
","""event"",""trial"",""time""
""blur"",""64"",""576931""
""blur"",""67"",""589951""
","""event"",""trial"",""time""
""focus"",""64"",""577539""
""focus"",""67"",""591180""
","""event"",""trial"",""time""
""fullscreenenter"",""1"",""2000""
","
","","","-1","","","21","10101","4788","&#9826;","elianto","#f73b6a7A","-1","-1","1","0","[]","0","0","3","","","","","","","",""
"pit-trial","71","614023","0.0-2.0-14.2-2.2","battery-v0.2","","""event"",""trial"",""time""
""fullscreenenter"",""1"",""2000""
""blur"",""64"",""576931""
""focus"",""64"",""577539""
""blur"",""67"",""589951""
""focus"",""67"",""591180""
","""event"",""trial"",""time""
""blur"",""64"",""576931""
""blur"",""67"",""589951""
","""event"",""trial"",""time""
""focus"",""64"",""577539""
""focus"",""67"",""591180""
","""event"",""trial"",""time""
""fullscreenenter"",""1"",""2000""
","
","","","-1","","","21","10101","4788","&#9826;","elianto","#f73b6a7A","-1","-1","1","0","[]","0","0","3","","","","","","","",""
"pit-trial","72","618876","0.0-2.0-14.2-3.2","battery-v0.2","","""event"",""trial"",""time""
""fullscreenenter"",""1"",""2000""
""blur"",""64"",""576931""
""focus"",""64"",""577539""
""blur"",""67"",""589951""
""focus"",""67"",""591180""
","""event"",""trial"",""time""
""blur"",""64"",""576931""
""blur"",""67"",""589951""
","""event"",""trial"",""time""
""focus"",""64"",""577539""
""focus"",""67"",""591180""
","""event"",""trial"",""time""
""fullscreenenter"",""1"",""2000""
","
","","","-1","","","21","10101","4788","&#9826;","elianto","#f73b6a7A","-1","-1","1","-10","[]","0","0","3","","","","","","","",""
"pit-trial","73","623741","0.0-2.0-14.2-4.2","battery-v0.2","","""event"",""trial"",""time""
""fullscreenenter"",""1"",""2000""
""blur"",""64"",""576931""
""focus"",""64"",""577539""
""blur"",""67"",""589951""
""focus"",""67"",""591180""
","""event"",""trial"",""time""
""blur"",""64"",""576931""
""blur"",""67"",""589951""
","""event"",""trial"",""time""
""focus"",""64"",""577539""
""focus"",""67"",""591180""
","""event"",""trial"",""time""
""fullscreenenter"",""1"",""2000""
","
","","","-1","","","21","10101","4788","&#9826;","elianto","#f73b6a7A","-1","-1","1","0","[]","0","0","3","","","","","","","",""
"pit-trial","74","628595","0.0-2.0-14.3-0.3","battery-v0.2","","""event"",""trial"",""time""
""fullscreenenter"",""1"",""2000""
""blur"",""64"",""576931""
""focus"",""64"",""577539""
""blur"",""67"",""589951""
""focus"",""67"",""591180""
","""event"",""trial"",""time""
""blur"",""64"",""576931""
""blur"",""67"",""589951""
","""event"",""trial"",""time""
""focus"",""64"",""577539""
""focus"",""67"",""591180""
","""event"",""trial"",""time""
""fullscreenenter"",""1"",""2000""
","
","","","-1","","","21","10101","4788","&#9826;","elianto","#f73b6a7A","-1","-1","1","0","[]","0","0","3","","","","","","","",""
"pit-trial","75","633448","0.0-2.0-14.3-1.3","battery-v0.2","","""event"",""trial"",""time""
""fullscreenenter"",""1"",""2000""
""blur"",""64"",""576931""
""focus"",""64"",""577539""
""blur"",""67"",""589951""
""focus"",""67"",""591180""
","""event"",""trial"",""time""
""blur"",""64"",""576931""
""blur"",""67"",""589951""
","""event"",""trial"",""time""
""focus"",""64"",""577539""
""focus"",""67"",""591180""
","""event"",""trial"",""time""
""fullscreenenter"",""1"",""2000""
","
","","","-1","","","21","10101","4788","&#9826;","elianto","#f73b6a7A","-1","-1","1","0","[]","0","0","3","","","","","","","",""
"pit-trial","76","638300","0.0-2.0-14.3-2.3","battery-v0.2","","""event"",""trial"",""time""
""fullscreenenter"",""1"",""2000""
""blur"",""64"",""576931""
""focus"",""64"",""577539""
""blur"",""67"",""589951""
""focus"",""67"",""591180""
","""event"",""trial"",""time""
""blur"",""64"",""576931""
""blur"",""67"",""589951""
","""event"",""trial"",""time""
""focus"",""64"",""577539""
""focus"",""67"",""591180""
","""event"",""trial"",""time""
""fullscreenenter"",""1"",""2000""
","
","","","-1","","","21","10101","4788","&#9826;","elianto","#f73b6a7A","-1","-1","1","0","[]","0","0","3","","","","","","","",""
"pit-trial","77","643152","0.0-2.0-14.3-3.3","battery-v0.2","","""event"",""trial"",""time""
""fullscreenenter"",""1"",""2000""
""blur"",""64"",""576931""
""focus"",""64"",""577539""
""blur"",""67"",""589951""
""focus"",""67"",""591180""
","""event"",""trial"",""time""
""blur"",""64"",""576931""
""blur"",""67"",""589951""
","""event"",""trial"",""time""
""focus"",""64"",""577539""
""focus"",""67"",""591180""
","""event"",""trial"",""time""
""fullscreenenter"",""1"",""2000""
","
","","","-1","","","21","10101","4788","&#9826;","elianto","#f73b6a7A","-1","-1","1","-10","[]","0","0","3","","","","","","","",""
"pit-trial","78","648005","0.0-2.0-14.3-4.3","battery-v0.2","","""event"",""trial"",""time""
""fullscreenenter"",""1"",""2000""
""blur"",""64"",""576931""
""focus"",""64"",""577539""
""blur"",""67"",""589951""
""focus"",""67"",""591180""
","""event"",""trial"",""time""
""blur"",""64"",""576931""
""blur"",""67"",""589951""
","""event"",""trial"",""time""
""focus"",""64"",""577539""
""focus"",""67"",""591180""
","""event"",""trial"",""time""
""fullscreenenter"",""1"",""2000""
","
","","","-1","","","21","10101","4788","&#9826;","elianto","#f73b6a7A","-1","-1","1","0","[]","0","0","3","","","","","","","",""
"call-function","79","648005","0.0-2.0-15.0","battery-v0.2","","""event"",""trial"",""time""
""fullscreenenter"",""1"",""2000""
""blur"",""64"",""576931""
""focus"",""64"",""577539""
""blur"",""67"",""589951""
""focus"",""67"",""591180""
","""event"",""trial"",""time""
""blur"",""64"",""576931""
""blur"",""67"",""589951""
","""event"",""trial"",""time""
""focus"",""64"",""577539""
""focus"",""67"",""591180""
","""event"",""trial"",""time""
""fullscreenenter"",""1"",""2000""
","
","","","","","","","","","","","","","","","","","","","","","","","","","","",""
"pit-instructions","80","674047","0.0-2.0-16.0","battery-v0.2","","""event"",""trial"",""time""
""fullscreenenter"",""1"",""2000""
""blur"",""64"",""576931""
""focus"",""64"",""577539""
""blur"",""67"",""589951""
""focus"",""67"",""591180""
","""event"",""trial"",""time""
""blur"",""64"",""576931""
""blur"",""67"",""589951""
","""event"",""trial"",""time""
""focus"",""64"",""577539""
""focus"",""67"",""591180""
","""event"",""trial"",""time""
""fullscreenenter"",""1"",""2000""
","
","","[{""page_index"":0,""viewing_time"":7934.0999999940395},{""page_index"":1,""viewing_time"":8622.09999999404},{""page_index"":2,""viewing_time"":4287.200000017881},{""page_index"":3,""viewing_time"":5197.699999988079}]","26041.19999998808","","","","","","","","","","","","","","","","","","","","","","","",""
"pit-trial","81","677365","0.0-2.0-17.0-0.0","battery-v0.2","","""event"",""trial"",""time""
""fullscreenenter"",""1"",""2000""
""blur"",""64"",""576931""
""focus"",""64"",""577539""
""blur"",""67"",""589951""
""focus"",""67"",""591180""
","""event"",""trial"",""time""
""blur"",""64"",""576931""
""blur"",""67"",""589951""
","""event"",""trial"",""time""
""focus"",""64"",""577539""
""focus"",""67"",""591180""
","""event"",""trial"",""time""
""fullscreenenter"",""1"",""2000""
","
","","","445.90000000596046","","","21","10101","4788","&#9789;","elianto","#f73b6a7A"," "," ","1","0","[1307.2000000178814]","1","0","4","","","","","","","",""
"pit-trial","82","680614","0.0-2.0-17.0-1.0","battery-v0.2","","""event"",""trial"",""time""
""fullscreenenter"",""1"",""2000""
""blur"",""64"",""576931""
""focus"",""64"",""577539""
""blur"",""67"",""589951""
""focus"",""67"",""591180""
","""event"",""trial"",""time""
""blur"",""64"",""576931""
""blur"",""67"",""589951""
","""event"",""trial"",""time""
""focus"",""64"",""577539""
""focus"",""67"",""591180""
","""event"",""trial"",""time""
""fullscreenenter"",""1"",""2000""
","
","","","393.80000001192093","","","21","10101","4788","&#9789;","elianto","#f73b6a7A"," "," ","1","0","[1245]","1","0","4","","","","","","","",""
"pit-trial","83","683962","0.0-2.0-17.0-2.0","battery-v0.2","","""event"",""trial"",""time""
""fullscreenenter"",""1"",""2000""
""blur"",""64"",""576931""
""focus"",""64"",""577539""
""blur"",""67"",""589951""
""focus"",""67"",""591180""
","""event"",""trial"",""time""
""blur"",""64"",""576931""
""blur"",""67"",""589951""
","""event"",""trial"",""time""
""focus"",""64"",""577539""
""focus"",""67"",""591180""
","""event"",""trial"",""time""
""fullscreenenter"",""1"",""2000""
","
","","","489.80000001192093","","","21","10101","4788","&#9789;","elianto","#f73b6a7A"," "," ","1","0","[1340.9000000059605]","1","0","4","","","","","","","",""
"pit-trial","84","687295","0.0-2.0-17.0-3.0","battery-v0.2","","""event"",""trial"",""time""
""fullscreenenter"",""1"",""2000""
""blur"",""64"",""576931""
""focus"",""64"",""577539""
""blur"",""67"",""589951""
""focus"",""67"",""591180""
","""event"",""trial"",""time""
""blur"",""64"",""576931""
""blur"",""67"",""589951""
","""event"",""trial"",""time""
""focus"",""64"",""577539""
""focus"",""67"",""591180""
","""event"",""trial"",""time""
""fullscreenenter"",""1"",""2000""
","
","","","469.7999999821186","","","21","10101","4788","&#9789;","elianto","#f73b6a7A"," "," ","1","-10","[1320.7999999821186]","1","0","4","","","","","","","",""
"pit-trial","85","690541","0.0-2.0-17.0-4.0","battery-v0.2","","""event"",""trial"",""time""
""fullscreenenter"",""1"",""2000""
""blur"",""64"",""576931""
""focus"",""64"",""577539""
""blur"",""67"",""589951""
""focus"",""67"",""591180""
","""event"",""trial"",""time""
""blur"",""64"",""576931""
""blur"",""67"",""589951""
","""event"",""trial"",""time""
""focus"",""64"",""577539""
""focus"",""67"",""591180""
","""event"",""trial"",""time""
""fullscreenenter"",""1"",""2000""
","
","","","386.39999997615814","","","21","10101","4788","&#9789;","elianto","#f73b6a7A"," "," ","1","0","[1237.5]","1","0","4","","","","","","","",""
"pit-trial","86","693713","0.0-2.0-17.1-0.1","battery-v0.2","","""event"",""trial"",""time""
""fullscreenenter"",""1"",""2000""
""blur"",""64"",""576931""
""focus"",""64"",""577539""
""blur"",""67"",""589951""
""focus"",""67"",""591180""
","""event"",""trial"",""time""
""blur"",""64"",""576931""
""blur"",""67"",""589951""
","""event"",""trial"",""time""
""focus"",""64"",""577539""
""focus"",""67"",""591180""
","""event"",""trial"",""time""
""fullscreenenter"",""1"",""2000""
","
","","","313.2000000178814","","","21","10101","4788","&#9789;","elianto","#f73b6a7A"," "," ","1","0","[1164]","1","0","4","","","","","","","",""
"pit-trial","87","696753","0.0-2.0-17.1-1.1","battery-v0.2","","""event"",""trial"",""time""
""fullscreenenter"",""1"",""2000""
""blur"",""64"",""576931""
""focus"",""64"",""577539""
""blur"",""67"",""589951""
""focus"",""67"",""591180""
","""event"",""trial"",""time""
""blur"",""64"",""576931""
""blur"",""67"",""589951""
","""event"",""trial"",""time""
""focus"",""64"",""577539""
""focus"",""67"",""591180""
","""event"",""trial"",""time""
""fullscreenenter"",""1"",""2000""
","
","","","174.90000000596046","","","21","10101","4788","&#9789;","elianto","#f73b6a7A"," "," ","1","0","[1026]","1","0","4","","","","","","","",""
"pit-trial","88","699960","0.0-2.0-17.1-2.1","battery-v0.2","","""event"",""trial"",""time""
""fullscreenenter"",""1"",""2000""
""blur"",""64"",""576931""
""focus"",""64"",""577539""
""blur"",""67"",""589951""
""focus"",""67"",""591180""
","""event"",""trial"",""time""
""blur"",""64"",""576931""
""blur"",""67"",""589951""
","""event"",""trial"",""time""
""focus"",""64"",""577539""
""focus"",""67"",""591180""
","""event"",""trial"",""time""
""fullscreenenter"",""1"",""2000""
","
","","","348.59999999403954","","","21","10101","4788","&#9789;","elianto","#f73b6a7A"," "," ","1","0","[1200]","1","0","4","","","","","","","",""
"pit-trial","89","703246","0.0-2.0-17.1-3.1","battery-v0.2","","""event"",""trial"",""time""
""fullscreenenter"",""1"",""2000""
""blur"",""64"",""576931""
""focus"",""64"",""577539""
""blur"",""67"",""589951""
""focus"",""67"",""591180""
","""event"",""trial"",""time""
""blur"",""64"",""576931""
""blur"",""67"",""589951""
","""event"",""trial"",""time""
""focus"",""64"",""577539""
""focus"",""67"",""591180""
","""event"",""trial"",""time""
""fullscreenenter"",""1"",""2000""
","
","","","421.19999998807907","","","21","10101","4788","&#9789;","elianto","#f73b6a7A"," "," ","1","-10","[1272.2999999821186]","1","0","4","","","","","","","",""
"pit-trial","90","706290","0.0-2.0-17.1-4.1","battery-v0.2","","""event"",""trial"",""time""
""fullscreenenter"",""1"",""2000""
""blur"",""64"",""576931""
""focus"",""64"",""577539""
""blur"",""67"",""589951""
""focus"",""67"",""591180""
","""event"",""trial"",""time""
""blur"",""64"",""576931""
""blur"",""67"",""589951""
","""event"",""trial"",""time""
""focus"",""64"",""577539""
""focus"",""67"",""591180""
","""event"",""trial"",""time""
""fullscreenenter"",""1"",""2000""
","
","","","192","","","21","10101","4788","&#9789;","elianto","#f73b6a7A"," "," ","1","0","[1042.2000000178814]","1","0","4","","","","","","","",""
"pit-trial","91","709396","0.0-2.0-17.2-0.2","battery-v0.2","","""event"",""trial"",""time""
""fullscreenenter"",""1"",""2000""
""blur"",""64"",""576931""
""focus"",""64"",""577539""
""blur"",""67"",""589951""
""focus"",""67"",""591180""
","""event"",""trial"",""time""
""blur"",""64"",""576931""
""blur"",""67"",""589951""
","""event"",""trial"",""time""
""focus"",""64"",""577539""
""focus"",""67"",""591180""
","""event"",""trial"",""time""
""fullscreenenter"",""1"",""2000""
","
","","","252.7999999821186","","","21","10101","4788","&#9789;","elianto","#f73b6a7A"," "," ","1","0","[1103.5999999940395]","1","0","4","","","","","","","",""
"pit-trial","92","712539","0.0-2.0-17.2-1.2","battery-v0.2","","""event"",""trial"",""time""
""fullscreenenter"",""1"",""2000""
""blur"",""64"",""576931""
""focus"",""64"",""577539""
""blur"",""67"",""589951""
""focus"",""67"",""591180""
","""event"",""trial"",""time""
""blur"",""64"",""576931""
""blur"",""67"",""589951""
","""event"",""trial"",""time""
""focus"",""64"",""577539""
""focus"",""67"",""591180""
","""event"",""trial"",""time""
""fullscreenenter"",""1"",""2000""
","
","","","291.90000000596046","","","21","10101","4788","&#9789;","elianto","#f73b6a7A"," "," ","1","0","[1142.199999988079,2070.2999999821186]","2","0","4","","","","","","","",""
"pit-trial","93","715653","0.0-2.0-17.2-2.2","battery-v0.2","","""event"",""trial"",""time""
""fullscreenenter"",""1"",""2000""
""blur"",""64"",""576931""
""focus"",""64"",""577539""
""blur"",""67"",""589951""
""focus"",""67"",""591180""
","""event"",""trial"",""time""
""blur"",""64"",""576931""
""blur"",""67"",""589951""
","""event"",""trial"",""time""
""focus"",""64"",""577539""
""focus"",""67"",""591180""
","""event"",""trial"",""time""
""fullscreenenter"",""1"",""2000""
","
","","","261","","","21","10101","4788","&#9789;","elianto","#f73b6a7A"," "," ","1","0","[1111.699999988079]","1","0","4","","","","","","","",""
"pit-trial","94","719297","0.0-2.0-17.2-3.2","battery-v0.2","","""event"",""trial"",""time""
""fullscreenenter"",""1"",""2000""
""blur"",""64"",""576931""
""focus"",""64"",""577539""
""blur"",""67"",""589951""
""focus"",""67"",""591180""
","""event"",""trial"",""time""
""blur"",""64"",""576931""
""blur"",""67"",""589951""
","""event"",""trial"",""time""
""focus"",""64"",""577539""
""focus"",""67"",""591180""
","""event"",""trial"",""time""
""fullscreenenter"",""1"",""2000""
","
","","","792.5999999940395","","","21","10101","4788","&#9789;","elianto","#f73b6a7A"," "," ","1","-10","[1643.2999999821186]","1","0","4","","","","","","","",""
"pit-trial","95","722519","0.0-2.0-17.2-4.2","battery-v0.2","","""event"",""trial"",""time""
""fullscreenenter"",""1"",""2000""
""blur"",""64"",""576931""
""focus"",""64"",""577539""
""blur"",""67"",""589951""
""focus"",""67"",""591180""
","""event"",""trial"",""time""
""blur"",""64"",""576931""
""blur"",""67"",""589951""
","""event"",""trial"",""time""
""focus"",""64"",""577539""
""focus"",""67"",""591180""
","""event"",""trial"",""time""
""fullscreenenter"",""1"",""2000""
","
","","","369.80000001192093","","","21","10101","4788","&#9789;","elianto","#f73b6a7A"," "," ","1","0","[1220.5999999940395,1885.2999999821186]","2","0","4","","","","","","","",""
"pit-trial","96","725790","0.0-2.0-17.3-0.3","battery-v0.2","","""event"",""trial"",""time""
""fullscreenenter"",""1"",""2000""
""blur"",""64"",""576931""
""focus"",""64"",""577539""
""blur"",""67"",""589951""
""focus"",""67"",""591180""
","""event"",""trial"",""time""
""blur"",""64"",""576931""
""blur"",""67"",""589951""
","""event"",""trial"",""time""
""focus"",""64"",""577539""
""focus"",""67"",""591180""
","""event"",""trial"",""time""
""fullscreenenter"",""1"",""2000""
","
","","","418.5","","","21","10101","4788","&#9789;","elianto","#f73b6a7A"," "," ","1","0","[1268.800000011921]","1","0","4","","","","","","","",""
"pit-trial","97","729042","0.0-2.0-17.3-1.3","battery-v0.2","","""event"",""trial"",""time""
""fullscreenenter"",""1"",""2000""
""blur"",""64"",""576931""
""focus"",""64"",""577539""
""blur"",""67"",""589951""
""focus"",""67"",""591180""
","""event"",""trial"",""time""
""blur"",""64"",""576931""
""blur"",""67"",""589951""
","""event"",""trial"",""time""
""focus"",""64"",""577539""
""focus"",""67"",""591180""
","""event"",""trial"",""time""
""fullscreenenter"",""1"",""2000""
","
","","","392.5","","","21","10101","4788","&#9789;","elianto","#f73b6a7A"," "," ","1","0","[1242.9000000059605]","1","0","4","","","","","","","",""
"pit-trial","98","732423","0.0-2.0-17.3-2.3","battery-v0.2","","""event"",""trial"",""time""
""fullscreenenter"",""1"",""2000""
""blur"",""64"",""576931""
""focus"",""64"",""577539""
""blur"",""67"",""589951""
""focus"",""67"",""591180""
","""event"",""trial"",""time""
""blur"",""64"",""576931""
""blur"",""67"",""589951""
","""event"",""trial"",""time""
""focus"",""64"",""577539""
""focus"",""67"",""591180""
","""event"",""trial"",""time""
""fullscreenenter"",""1"",""2000""
","
","","","529.6000000238419","","","21","10101","4788","&#9789;","elianto","#f73b6a7A"," "," ","1","0","[1379.7000000178814]","1","0","4","","","","","","","",""
"pit-trial","99","735689","0.0-2.0-17.3-3.3","battery-v0.2","","""event"",""trial"",""time""
""fullscreenenter"",""1"",""2000""
""blur"",""64"",""576931""
""focus"",""64"",""577539""
""blur"",""67"",""589951""
""focus"",""67"",""591180""
","""event"",""trial"",""time""
""blur"",""64"",""576931""
""blur"",""67"",""589951""
","""event"",""trial"",""time""
""focus"",""64"",""577539""
""focus"",""67"",""591180""
","""event"",""trial"",""time""
""fullscreenenter"",""1"",""2000""
","
","","","413.09999999403954","","","21","10101","4788","&#9789;","elianto","#f73b6a7A"," "," ","1","-10","[1263.5]","1","0","4","","","","","","","",""
"pit-trial","100","738803","0.0-2.0-17.3-4.3","battery-v0.2","","""event"",""trial"",""time""
""fullscreenenter"",""1"",""2000""
""blur"",""64"",""576931""
""focus"",""64"",""577539""
""blur"",""67"",""589951""
""focus"",""67"",""591180""
","""event"",""trial"",""time""
""blur"",""64"",""576931""
""blur"",""67"",""589951""
","""event"",""trial"",""time""
""focus"",""64"",""577539""
""focus"",""67"",""591180""
","""event"",""trial"",""time""
""fullscreenenter"",""1"",""2000""
","
","","","262.80000001192093","","","21","10101","4788","&#9789;","elianto","#f73b6a7A"," "," ","1","0","[1112.800000011921]","1","0","4","","","","","","","",""
"call-function","101","738804","0.0-2.0-18.0","battery-v0.2","","""event"",""trial"",""time""
""fullscreenenter"",""1"",""2000""
""blur"",""64"",""576931""
""focus"",""64"",""577539""
""blur"",""67"",""589951""
""focus"",""67"",""591180""
","""event"",""trial"",""time""
""blur"",""64"",""576931""
""blur"",""67"",""589951""
","""event"",""trial"",""time""
""focus"",""64"",""577539""
""focus"",""67"",""591180""
","""event"",""trial"",""time""
""fullscreenenter"",""1"",""2000""
","
","","","","","","","","","","","","","","","","","","","","","","","","","","",""
"pit-instructions","102","801030","0.0-2.0-19.0","battery-v0.2","","""event"",""trial"",""time""
""fullscreenenter"",""1"",""2000""
""blur"",""64"",""576931""
""focus"",""64"",""577539""
""blur"",""67"",""589951""
""focus"",""67"",""591180""
","""event"",""trial"",""time""
""blur"",""64"",""576931""
""blur"",""67"",""589951""
","""event"",""trial"",""time""
""focus"",""64"",""577539""
""focus"",""67"",""591180""
","""event"",""trial"",""time""
""fullscreenenter"",""1"",""2000""
","
","","[{""page_index"":0,""viewing_time"":7023.699999988079},{""page_index"":1,""viewing_time"":6408.0999999940395},{""page_index"":2,""viewing_time"":9836.800000011921},{""page_index"":3,""viewing_time"":5553.0999999940395},{""page_index"":4,""viewing_time"":8217.300000011921},{""page_index"":5,""viewing_time"":8390.699999988079},{""page_index"":6,""viewing_time"":6610.0999999940395},{""page_index"":7,""viewing_time"":6087.4000000059605},{""page_index"":8,""viewing_time"":4098.5}]","62225.69999998808","","","","","","","","","","","","","","","","","","","","","","","",""
"pit-comprehension","103","805701","0.0-2.0-20.0-0.0","battery-v0.2","","""event"",""trial"",""time""
""fullscreenenter"",""1"",""2000""
""blur"",""64"",""576931""
""focus"",""64"",""577539""
""blur"",""67"",""589951""
""focus"",""67"",""591180""
","""event"",""trial"",""time""
""blur"",""64"",""576931""
""blur"",""67"",""589951""
","""event"",""trial"",""time""
""focus"",""64"",""577539""
""focus"",""67"",""591180""
","""event"",""trial"",""time""
""fullscreenenter"",""1"",""2000""
","
","","","4668.600000023842","[""SPACE""]","0","21","10101","4788","","","","","","","","","","","","","","","","","","",""
"pit-instructions","104","808803","0.0-2.0-20.0-1.0","battery-v0.2","","""event"",""trial"",""time""
""fullscreenenter"",""1"",""2000""
""blur"",""64"",""576931""
""focus"",""64"",""577539""
""blur"",""67"",""589951""
""focus"",""67"",""591180""
","""event"",""trial"",""time""
""blur"",""64"",""576931""
""blur"",""67"",""589951""
","""event"",""trial"",""time""
""focus"",""64"",""577539""
""focus"",""67"",""591180""
","""event"",""trial"",""time""
""fullscreenenter"",""1"",""2000""
","
","","[{""page_index"":0,""viewing_time"":3081.2999999821186}]","3081.5999999940395","","","","","","","","","","","","","","","","","","","","","","","",""
"pit-comprehension","105","815109","0.0-2.0-21.0-0.0","battery-v0.2","","""event"",""trial"",""time""
""fullscreenenter"",""1"",""2000""
""blur"",""64"",""576931""
""focus"",""64"",""577539""
""blur"",""67"",""589951""
""focus"",""67"",""591180""
","""event"",""trial"",""time""
""blur"",""64"",""576931""
""blur"",""67"",""589951""
","""event"",""trial"",""time""
""focus"",""64"",""577539""
""focus"",""67"",""591180""
","""event"",""trial"",""time""
""fullscreenenter"",""1"",""2000""
","
","","","6303.699999988079","[""10""]","0","21","10101","4788","","","","","","","","","","","","","","","","","","",""
"pit-instructions","106","816595","0.0-2.0-21.0-1.0","battery-v0.2","","""event"",""trial"",""time""
""fullscreenenter"",""1"",""2000""
""blur"",""64"",""576931""
""focus"",""64"",""577539""
""blur"",""67"",""589951""
""focus"",""67"",""591180""
","""event"",""trial"",""time""
""blur"",""64"",""576931""
""blur"",""67"",""589951""
","""event"",""trial"",""time""
""focus"",""64"",""577539""
""focus"",""67"",""591180""
","""event"",""trial"",""time""
""fullscreenenter"",""1"",""2000""
","
","","[{""page_index"":0,""viewing_time"":1468.2000000178814}]","1468.300000011921","","","","","","","","","","","","","","","","","","","","","","","",""
"pit-comprehension","107","823006","0.0-2.0-22.0-0.0","battery-v0.2","","""event"",""trial"",""time""
""fullscreenenter"",""1"",""2000""
""blur"",""64"",""576931""
""focus"",""64"",""577539""
""blur"",""67"",""589951""
""focus"",""67"",""591180""
","""event"",""trial"",""time""
""blur"",""64"",""576931""
""blur"",""67"",""589951""
","""event"",""trial"",""time""
""focus"",""64"",""577539""
""focus"",""67"",""591180""
","""event"",""trial"",""time""
""fullscreenenter"",""1"",""2000""
","
","","","6408.800000011921","[""0""]","0","21","10101","4788","","","","","","","","","","","","","","","","","","",""
"pit-instructions","108","827161","0.0-2.0-22.0-1.0","battery-v0.2","","""event"",""trial"",""time""
""fullscreenenter"",""1"",""2000""
""blur"",""64"",""576931""
""focus"",""64"",""577539""
""blur"",""67"",""589951""
""focus"",""67"",""591180""
","""event"",""trial"",""time""
""blur"",""64"",""576931""
""blur"",""67"",""589951""
","""event"",""trial"",""time""
""focus"",""64"",""577539""
""focus"",""67"",""591180""
","""event"",""trial"",""time""
""fullscreenenter"",""1"",""2000""
","
","","[{""page_index"":0,""viewing_time"":4135.5}]","4135.5999999940395","","","","","","","","","","","","","","","","","","","","","","","",""
"pit-comprehension","109","835625","0.0-2.0-23.0-0.0","battery-v0.2","","""event"",""trial"",""time""
""fullscreenenter"",""1"",""2000""
""blur"",""64"",""576931""
""focus"",""64"",""577539""
""blur"",""67"",""589951""
""focus"",""67"",""591180""
","""event"",""trial"",""time""
""blur"",""64"",""576931""
""blur"",""67"",""589951""
","""event"",""trial"",""time""
""focus"",""64"",""577539""
""focus"",""67"",""591180""
","""event"",""trial"",""time""
""fullscreenenter"",""1"",""2000""
","
","","","8462.200000017881","[""True""]","0","21","10101","4788","","","","","","","","","","","","","","","","","","",""
"pit-instructions","110","837089","0.0-2.0-23.0-1.0","battery-v0.2","","""event"",""trial"",""time""
""fullscreenenter"",""1"",""2000""
""blur"",""64"",""576931""
""focus"",""64"",""577539""
""blur"",""67"",""589951""
""focus"",""67"",""591180""
","""event"",""trial"",""time""
""blur"",""64"",""576931""
""blur"",""67"",""589951""
","""event"",""trial"",""time""
""focus"",""64"",""577539""
""focus"",""67"",""591180""
","""event"",""trial"",""time""
""fullscreenenter"",""1"",""2000""
","
","","[{""page_index"":0,""viewing_time"":1443.9000000059605}]","1444","","","","","","","","","","","","","","","","","","","","","","","",""
"pit-comprehension","111","844441","0.0-2.0-24.0-0.0","battery-v0.2","","""event"",""trial"",""time""
""fullscreenenter"",""1"",""2000""
""blur"",""64"",""576931""
""focus"",""64"",""577539""
""blur"",""67"",""589951""
""focus"",""67"",""591180""
","""event"",""trial"",""time""
""blur"",""64"",""576931""
""blur"",""67"",""589951""
","""event"",""trial"",""time""
""focus"",""64"",""577539""
""focus"",""67"",""591180""
","""event"",""trial"",""time""
""fullscreenenter"",""1"",""2000""
","
","","","7350.699999988079","[""True""]","0","21","10101","4788","","","","","","","","","","","","","","","","","","",""
"pit-instructions","112","846006","0.0-2.0-24.0-1.0","battery-v0.2","","""event"",""trial"",""time""
""fullscreenenter"",""1"",""2000""
""blur"",""64"",""576931""
""focus"",""64"",""577539""
""blur"",""67"",""589951""
""focus"",""67"",""591180""
","""event"",""trial"",""time""
""blur"",""64"",""576931""
""blur"",""67"",""589951""
","""event"",""trial"",""time""
""focus"",""64"",""577539""
""focus"",""67"",""591180""
","""event"",""trial"",""time""
""fullscreenenter"",""1"",""2000""
","
","","[{""page_index"":0,""viewing_time"":1544.699999988079}]","1544.9000000059605","","","","","","","","","","","","","","","","","","","","","","","",""
"pit-comprehension","113","852366","0.0-2.0-25.0-0.0","battery-v0.2","","""event"",""trial"",""time""
""fullscreenenter"",""1"",""2000""
""blur"",""64"",""576931""
""focus"",""64"",""577539""
""blur"",""67"",""589951""
""focus"",""67"",""591180""
","""event"",""trial"",""time""
""blur"",""64"",""576931""
""blur"",""67"",""589951""
","""event"",""trial"",""time""
""focus"",""64"",""577539""
""focus"",""67"",""591180""
","""event"",""trial"",""time""
""fullscreenenter"",""1"",""2000""
","
","","","6358.800000011921","[""True""]","0","21","10101","4788","","","","","","","","","","","","","","","","","","",""
"pit-instructions","114","853958","0.0-2.0-25.0-1.0","battery-v0.2","","""event"",""trial"",""time""
""fullscreenenter"",""1"",""2000""
""blur"",""64"",""576931""
""focus"",""64"",""577539""
""blur"",""67"",""589951""
""focus"",""67"",""591180""
","""event"",""trial"",""time""
""blur"",""64"",""576931""
""blur"",""67"",""589951""
","""event"",""trial"",""time""
""focus"",""64"",""577539""
""focus"",""67"",""591180""
","""event"",""trial"",""time""
""fullscreenenter"",""1"",""2000""
","
","","[{""page_index"":0,""viewing_time"":1569.699999988079}]","1570","","","","","","","","","","","","","","","","","","","","","","","",""
"pit-comprehension","115","858412","0.0-2.0-26.0-0.0","battery-v0.2","","""event"",""trial"",""time""
""fullscreenenter"",""1"",""2000""
""blur"",""64"",""576931""
""focus"",""64"",""577539""
""blur"",""67"",""589951""
""focus"",""67"",""591180""
","""event"",""trial"",""time""
""blur"",""64"",""576931""
""blur"",""67"",""589951""
","""event"",""trial"",""time""
""focus"",""64"",""577539""
""focus"",""67"",""591180""
","""event"",""trial"",""time""
""fullscreenenter"",""1"",""2000""
","
","","","4451.9000000059605","[""False""]","0","21","10101","4788","","","","","","","","","","","","","","","","","","",""
"pit-instructions","116","860043","0.0-2.0-26.0-1.0","battery-v0.2","","""event"",""trial"",""time""
""fullscreenenter"",""1"",""2000""
""blur"",""64"",""576931""
""focus"",""64"",""577539""
""blur"",""67"",""589951""
""focus"",""67"",""591180""
","""event"",""trial"",""time""
""blur"",""64"",""576931""
""blur"",""67"",""589951""
","""event"",""trial"",""time""
""focus"",""64"",""577539""
""focus"",""67"",""591180""
","""event"",""trial"",""time""
""fullscreenenter"",""1"",""2000""
","
","","[{""page_index"":0,""viewing_time"":1611}]","1611.199999988079","","","","","","","","","","","","","","","","","","","","","","","",""
"pit-instructions","117","877037","0.0-3.0","battery-v0.2","","""event"",""trial"",""time""
""fullscreenenter"",""1"",""2000""
""blur"",""64"",""576931""
""focus"",""64"",""577539""
""blur"",""67"",""589951""
""focus"",""67"",""591180""
","""event"",""trial"",""time""
""blur"",""64"",""576931""
""blur"",""67"",""589951""
","""event"",""trial"",""time""
""focus"",""64"",""577539""
""focus"",""67"",""591180""
","""event"",""trial"",""time""
""fullscreenenter"",""1"",""2000""
","
","","[{""page_index"":0,""viewing_time"":3862.4000000059605},{""page_index"":1,""viewing_time"":5240.200000017881},{""page_index"":2,""viewing_time"":7890.199999988079}]","16992.90000000596","","","","","","","","","","","","","","","","","","","","","","","",""
"pit-trial","118","881896","0.0-4.0","battery-v0.2","","""event"",""trial"",""time""
""fullscreenenter"",""1"",""2000""
""blur"",""64"",""576931""
""focus"",""64"",""577539""
""blur"",""67"",""589951""
""focus"",""67"",""591180""
","""event"",""trial"",""time""
""blur"",""64"",""576931""
""blur"",""67"",""589951""
","""event"",""trial"",""time""
""focus"",""64"",""577539""
""focus"",""67"",""591180""
","""event"",""trial"",""time""
""fullscreenenter"",""1"",""2000""
","
","","","-1","","","21","10101","4788","&#9733;","elianto","#3366ff99","-1","-1","1","0","[]","0","1","","","10101","1","2","2","win","no-go","1"
"pit-trial","119","886763","0.0-5.0","battery-v0.2","","""event"",""trial"",""time""
""fullscreenenter"",""1"",""2000""
""blur"",""64"",""576931""
""focus"",""64"",""577539""
""blur"",""67"",""589951""
""focus"",""67"",""591180""
","""event"",""trial"",""time""
""blur"",""64"",""576931""
""blur"",""67"",""589951""
","""event"",""trial"",""time""
""focus"",""64"",""577539""
""focus"",""67"",""591180""
","""event"",""trial"",""time""
""fullscreenenter"",""1"",""2000""
","
","","","-1","","","21","10101","4788","&#9728;","elianto","#f73b6a7A","-1","-1","1","0","[]","0","1","","","10101","2","0","4","lose","no-go","0"
"pit-trial","120","891630","0.0-6.0","battery-v0.2","","""event"",""trial"",""time""
""fullscreenenter"",""1"",""2000""
""blur"",""64"",""576931""
""focus"",""64"",""577539""
""blur"",""67"",""589951""
""focus"",""67"",""591180""
","""event"",""trial"",""time""
""blur"",""64"",""576931""
""blur"",""67"",""589951""
","""event"",""trial"",""time""
""focus"",""64"",""577539""
""focus"",""67"",""591180""
","""event"",""trial"",""time""
""fullscreenenter"",""1"",""2000""
","
","","","-1","","","21","10101","4788","&#9752;","elianto","#f73b6a7A"," ","-1","0","-10","[]","0","1","","","10101","3","3","3","lose","go","0"
"pit-trial","121","896493","0.0-7.0","battery-v0.2","","""event"",""trial"",""time""
""fullscreenenter"",""1"",""2000""
""blur"",""64"",""576931""
""focus"",""64"",""577539""
""blur"",""67"",""589951""
""focus"",""67"",""591180""
","""event"",""trial"",""time""
""blur"",""64"",""576931""
""blur"",""67"",""589951""
","""event"",""trial"",""time""
""focus"",""64"",""577539""
""focus"",""67"",""591180""
","""event"",""trial"",""time""
""fullscreenenter"",""1"",""2000""
","
","","","-1","","","21","10101","4788","&#9730;","elianto","#3366ff99"," ","-1","0","0","[]","0","1","","","10101","4","1","1","win","go","0"
"pit-trial","122","900357","0.0-8.0","battery-v0.2","","""event"",""trial"",""time""
""fullscreenenter"",""1"",""2000""
""blur"",""64"",""576931""
""focus"",""64"",""577539""
""blur"",""67"",""589951""
""focus"",""67"",""591180""
","""event"",""trial"",""time""
""blur"",""64"",""576931""
""blur"",""67"",""589951""
","""event"",""trial"",""time""
""focus"",""64"",""577539""
""focus"",""67"",""591180""
","""event"",""trial"",""time""
""fullscreenenter"",""1"",""2000""
","
","","","1005.3000000119209","","","21","10101","4788","&#9730;","elianto","#3366ff99"," "," ","1","+10","[1857.5]","1","1","","","10101","5","1","1","win","go","0"
"pit-trial","123","905224","0.0-9.0","battery-v0.2","","""event"",""trial"",""time""
""fullscreenenter"",""1"",""2000""
""blur"",""64"",""576931""
""focus"",""64"",""577539""
""blur"",""67"",""589951""
""focus"",""67"",""591180""
","""event"",""trial"",""time""
""blur"",""64"",""576931""
""blur"",""67"",""589951""
","""event"",""trial"",""time""
""focus"",""64"",""577539""
""focus"",""67"",""591180""
","""event"",""trial"",""time""
""fullscreenenter"",""1"",""2000""
","
","","","-1","","","21","10101","4788","&#9752;","elianto","#f73b6a7A"," ","-1","0","0","[]","0","1","","","10101","6","3","3","lose","go","1"
"pit-trial","124","909541","0.0-10.0","battery-v0.2","","""event"",""trial"",""time""
""fullscreenenter"",""1"",""2000""
""blur"",""64"",""576931""
""focus"",""64"",""577539""
""blur"",""67"",""589951""
""focus"",""67"",""591180""
","""event"",""trial"",""time""
""blur"",""64"",""576931""
""blur"",""67"",""589951""
","""event"",""trial"",""time""
""focus"",""64"",""577539""
""focus"",""67"",""591180""
","""event"",""trial"",""time""
""fullscreenenter"",""1"",""2000""
","
","","","1464.0999999940395","","","21","10101","4788","&#9728;","elianto","#f73b6a7A","-1"," ","0","0","[2314.899999976158]","1","1","","","10101","7","0","4","lose","no-go","1"
"pit-trial","125","914158","0.0-11.0","battery-v0.2","","""event"",""trial"",""time""
""fullscreenenter"",""1"",""2000""
""blur"",""64"",""576931""
""focus"",""64"",""577539""
""blur"",""67"",""589951""
""focus"",""67"",""591180""
","""event"",""trial"",""time""
""blur"",""64"",""576931""
""blur"",""67"",""589951""
","""event"",""trial"",""time""
""focus"",""64"",""577539""
""focus"",""67"",""591180""
","""event"",""trial"",""time""
""fullscreenenter"",""1"",""2000""
","
","","","1764.5999999940395","","","21","10101","4788","&#9733;","elianto","#3366ff99","-1"," ","0","0","[2615]","1","1","","","10101","8","2","2","win","no-go","0"
"pit-trial","126","919009","0.0-12.0","battery-v0.2","","""event"",""trial"",""time""
""fullscreenenter"",""1"",""2000""
""blur"",""64"",""576931""
""focus"",""64"",""577539""
""blur"",""67"",""589951""
""focus"",""67"",""591180""
","""event"",""trial"",""time""
""blur"",""64"",""576931""
""blur"",""67"",""589951""
","""event"",""trial"",""time""
""focus"",""64"",""577539""
""focus"",""67"",""591180""
","""event"",""trial"",""time""
""fullscreenenter"",""1"",""2000""
","
","","","-1","","","21","10101","4788","&#9733;","elianto","#3366ff99","-1","-1","1","0","[]","0","1","","","10101","9","2","2","win","no-go","1"
"pit-trial","127","922794","0.0-13.0","battery-v0.2","","""event"",""trial"",""time""
""fullscreenenter"",""1"",""2000""
""blur"",""64"",""576931""
""focus"",""64"",""577539""
""blur"",""67"",""589951""
""focus"",""67"",""591180""
","""event"",""trial"",""time""
""blur"",""64"",""576931""
""blur"",""67"",""589951""
","""event"",""trial"",""time""
""focus"",""64"",""577539""
""focus"",""67"",""591180""
","""event"",""trial"",""time""
""fullscreenenter"",""1"",""2000""
","
","","","931.9000000059605","","","21","10101","4788","&#9730;","elianto","#3366ff99"," "," ","1","+10","[1782.699999988079]","1","1","","","10101","10","1","1","win","go","0"
"pit-trial","128","927144","0.0-14.0","battery-v0.2","","""event"",""trial"",""time""
""fullscreenenter"",""1"",""2000""
""blur"",""64"",""576931""
""focus"",""64"",""577539""
""blur"",""67"",""589951""
""focus"",""67"",""591180""
","""event"",""trial"",""time""
""blur"",""64"",""576931""
""blur"",""67"",""589951""
","""event"",""trial"",""time""
""focus"",""64"",""577539""
""focus"",""67"",""591180""
","""event"",""trial"",""time""
""fullscreenenter"",""1"",""2000""
","
","","","1498.7000000178814","","","21","10101","4788","&#9752;","elianto","#f73b6a7A"," "," ","1","0","[2349.2000000178814]","1","1","","","10101","11","3","3","lose","go","0"
"pit-trial","129","931997","0.0-15.0","battery-v0.2","","""event"",""trial"",""time""
""fullscreenenter"",""1"",""2000""
""blur"",""64"",""576931""
""focus"",""64"",""577539""
""blur"",""67"",""589951""
""focus"",""67"",""591180""
","""event"",""trial"",""time""
""blur"",""64"",""576931""
""blur"",""67"",""589951""
","""event"",""trial"",""time""
""focus"",""64"",""577539""
""focus"",""67"",""591180""
","""event"",""trial"",""time""
""fullscreenenter"",""1"",""2000""
","
","","","-1","","","21","10101","4788","&#9728;","elianto","#f73b6a7A","-1","-1","1","-10","[2860.5]","1","1","","","10101","12","0","4","lose","no-go","1"
"pit-trial","130","935758","0.0-16.0","battery-v0.2","","""event"",""trial"",""time""
""fullscreenenter"",""1"",""2000""
""blur"",""64"",""576931""
""focus"",""64"",""577539""
""blur"",""67"",""589951""
""focus"",""67"",""591180""
","""event"",""trial"",""time""
""blur"",""64"",""576931""
""blur"",""67"",""589951""
","""event"",""trial"",""time""
""focus"",""64"",""577539""
""focus"",""67"",""591180""
","""event"",""trial"",""time""
""fullscreenenter"",""1"",""2000""
","
","","","908.0999999940395","","","21","10101","4788","&#9730;","elianto","#3366ff99"," "," ","1","+10","[1759.0999999940395]","1","1","","","10101","13","1","1","win","go","0"
"pit-trial","131","939885","0.0-17.0","battery-v0.2","","""event"",""trial"",""time""
""fullscreenenter"",""1"",""2000""
""blur"",""64"",""576931""
""focus"",""64"",""577539""
""blur"",""67"",""589951""
""focus"",""67"",""591180""
","""event"",""trial"",""time""
""blur"",""64"",""576931""
""blur"",""67"",""589951""
","""event"",""trial"",""time""
""focus"",""64"",""577539""
""focus"",""67"",""591180""
","""event"",""trial"",""time""
""fullscreenenter"",""1"",""2000""
","
","","","1273.7000000178814","","","21","10101","4788","&#9752;","elianto","#f73b6a7A"," "," ","1","-10","[2125.2000000178814]","1","1","","","10101","14","3","3","lose","go","1"
"pit-trial","132","944738","0.0-18.0","battery-v0.2","","""event"",""trial"",""time""
""fullscreenenter"",""1"",""2000""
""blur"",""64"",""576931""
""focus"",""64"",""577539""
""blur"",""67"",""589951""
""focus"",""67"",""591180""
","""event"",""trial"",""time""
""blur"",""64"",""576931""
""blur"",""67"",""589951""
","""event"",""trial"",""time""
""focus"",""64"",""577539""
""focus"",""67"",""591180""
","""event"",""trial"",""time""
""fullscreenenter"",""1"",""2000""
","
","","","-1","","","21","10101","4788","&#9728;","elianto","#f73b6a7A","-1","-1","1","-10","[]","0","1","","","10101","15","0","4","lose","no-go","1"
"pit-trial","133","948834","0.0-19.0","battery-v0.2","","""event"",""trial"",""time""
""fullscreenenter"",""1"",""2000""
""blur"",""64"",""576931""
""focus"",""64"",""577539""
""blur"",""67"",""589951""
""focus"",""67"",""591180""
","""event"",""trial"",""time""
""blur"",""64"",""576931""
""blur"",""67"",""589951""
","""event"",""trial"",""time""
""focus"",""64"",""577539""
""focus"",""67"",""591180""
","""event"",""trial"",""time""
""fullscreenenter"",""1"",""2000""
","
","","","1243.5999999940395","","","21","10101","4788","&#9733;","elianto","#3366ff99","-1"," ","0","+10","[2094.0999999940395]","1","1","","","10101","16","2","2","win","no-go","1"
"pit-trial","134","952292","0.0-20.0","battery-v0.2","","""event"",""trial"",""time""
""fullscreenenter"",""1"",""2000""
""blur"",""64"",""576931""
""focus"",""64"",""577539""
""blur"",""67"",""589951""
""focus"",""67"",""591180""
","""event"",""trial"",""time""
""blur"",""64"",""576931""
""blur"",""67"",""589951""
","""event"",""trial"",""time""
""focus"",""64"",""577539""
""focus"",""67"",""591180""
","""event"",""trial"",""time""
""fullscreenenter"",""1"",""2000""
","
","","","605.6999999880791","","","21","10101","4788","&#9733;","elianto","#3366ff99","-1"," ","0","0","[1456.300000011921]","1","1","","","10101","17","2","2","win","no-go","0"
"pit-trial","135","956231","0.0-21.0","battery-v0.2","","""event"",""trial"",""time""
""fullscreenenter"",""1"",""2000""
""blur"",""64"",""576931""
""focus"",""64"",""577539""
""blur"",""67"",""589951""
""focus"",""67"",""591180""
","""event"",""trial"",""time""
""blur"",""64"",""576931""
""blur"",""67"",""589951""
","""event"",""trial"",""time""
""focus"",""64"",""577539""
""focus"",""67"",""591180""
","""event"",""trial"",""time""
""fullscreenenter"",""1"",""2000""
","
","","","1086.9000000059605","","","21","10101","4788","&#9752;","elianto","#f73b6a7A"," "," ","1","-10","[1938]","1","1","","","10101","18","3","3","lose","go","1"
"pit-trial","136","961083","0.0-22.0","battery-v0.2","","""event"",""trial"",""time""
""fullscreenenter"",""1"",""2000""
""blur"",""64"",""576931""
""focus"",""64"",""577539""
""blur"",""67"",""589951""
""focus"",""67"",""591180""
","""event"",""trial"",""time""
""blur"",""64"",""576931""
""blur"",""67"",""589951""
","""event"",""trial"",""time""
""focus"",""64"",""577539""
""focus"",""67"",""591180""
","""event"",""trial"",""time""
""fullscreenenter"",""1"",""2000""
","
","","","-1","","","21","10101","4788","&#9728;","elianto","#f73b6a7A","-1","-1","1","0","[]","0","1","","","10101","19","0","4","lose","no-go","0"
"pit-trial","137","964938","0.0-23.0","battery-v0.2","","""event"",""trial"",""time""
""fullscreenenter"",""1"",""2000""
""blur"",""64"",""576931""
""focus"",""64"",""577539""
""blur"",""67"",""589951""
""focus"",""67"",""591180""
","""event"",""trial"",""time""
""blur"",""64"",""576931""
""blur"",""67"",""589951""
","""event"",""trial"",""time""
""focus"",""64"",""577539""
""focus"",""67"",""591180""
","""event"",""trial"",""time""
""fullscreenenter"",""1"",""2000""
","
","","","1003","","","21","10101","4788","&#9730;","elianto","#3366ff99"," "," ","1","+10","[1853]","1","1","","","10101","20","1","1","win","go","0"
"pit-instructions","138","978524","0.0-24.0","battery-v0.2","","""event"",""trial"",""time""
""fullscreenenter"",""1"",""2000""
""blur"",""64"",""576931""
""focus"",""64"",""577539""
""blur"",""67"",""589951""
""focus"",""67"",""591180""
","""event"",""trial"",""time""
""blur"",""64"",""576931""
""blur"",""67"",""589951""
","""event"",""trial"",""time""
""focus"",""64"",""577539""
""focus"",""67"",""591180""
","""event"",""trial"",""time""
""fullscreenenter"",""1"",""2000""
","
","","[{""page_index"":0,""viewing_time"":6640.0999999940395},{""page_index"":1,""viewing_time"":6944.9000000059605}]","13585.200000017881","","","","","","","","","","","","","","","","","","","","","","","",""
"pit-trial","139","983400","0.0-25.0","battery-v0.2","","""event"",""trial"",""time""
""fullscreenenter"",""1"",""2000""
""blur"",""64"",""576931""
""focus"",""64"",""577539""
""blur"",""67"",""589951""
""focus"",""67"",""591180""
","""event"",""trial"",""time""
""blur"",""64"",""576931""
""blur"",""67"",""589951""
","""event"",""trial"",""time""
""focus"",""64"",""577539""
""focus"",""67"",""591180""
","""event"",""trial"",""time""
""fullscreenenter"",""1"",""2000""
","
","","","-1","","","21","10101","4788","t","elianto","#f73b6a7A"," ","-1","0","-10","[]","0","2","","","10101","21","2","3","lose","go","0"
"pit-trial","140","988253","0.0-26.0","battery-v0.2","","""event"",""trial"",""time""
""fullscreenenter"",""1"",""2000""
""blur"",""64"",""576931""
""focus"",""64"",""577539""
""blur"",""67"",""589951""
""focus"",""67"",""591180""
","""event"",""trial"",""time""
""blur"",""64"",""576931""
""blur"",""67"",""589951""
","""event"",""trial"",""time""
""focus"",""64"",""577539""
""focus"",""67"",""591180""
","""event"",""trial"",""time""
""fullscreenenter"",""1"",""2000""
","
","","","-1","","","21","10101","4788","b","elianto","#f73b6a7A","-1","-1","1","0","[]","0","2","","","10101","22","3","4","lose","no-go","0"
"pit-trial","141","993120","0.0-27.0","battery-v0.2","","""event"",""trial"",""time""
""fullscreenenter"",""1"",""2000""
""blur"",""64"",""576931""
""focus"",""64"",""577539""
""blur"",""67"",""589951""
""focus"",""67"",""591180""
","""event"",""trial"",""time""
""blur"",""64"",""576931""
""blur"",""67"",""589951""
","""event"",""trial"",""time""
""focus"",""64"",""577539""
""focus"",""67"",""591180""
","""event"",""trial"",""time""
""fullscreenenter"",""1"",""2000""
","
","","","-1","","","21","10101","4788","n","elianto","#f73b6a7A"," ","-1","0","-10","[]","0","2","","","10101","23","0","3","lose","go","0"
"pit-trial","142","997980","0.0-28.0","battery-v0.2","","""event"",""trial"",""time""
""fullscreenenter"",""1"",""2000""
""blur"",""64"",""576931""
""focus"",""64"",""577539""
""blur"",""67"",""589951""
""focus"",""67"",""591180""
","""event"",""trial"",""time""
""blur"",""64"",""576931""
""blur"",""67"",""589951""
","""event"",""trial"",""time""
""focus"",""64"",""577539""
""focus"",""67"",""591180""
","""event"",""trial"",""time""
""fullscreenenter"",""1"",""2000""
","
","","","-1","","","21","10101","4788","f","elianto","#3366ff99","-1","-1","1","+10","[]","0","2","","","10101","24","1","2","win","no-go","0"
"pit-trial","143","1002191","0.0-29.0","battery-v0.2","","""event"",""trial"",""time""
""fullscreenenter"",""1"",""2000""
""blur"",""64"",""576931""
""focus"",""64"",""577539""
""blur"",""67"",""589951""
""focus"",""67"",""591180""
","""event"",""trial"",""time""
""blur"",""64"",""576931""
""blur"",""67"",""589951""
","""event"",""trial"",""time""
""focus"",""64"",""577539""
""focus"",""67"",""591180""
","""event"",""trial"",""time""
""fullscreenenter"",""1"",""2000""
","
","","","1352.0999999940395","","","21","10101","4788","n","elianto","#f73b6a7A"," "," ","1","0","[2204.5999999940395]","1","2","","","10101","25","0","3","lose","go","0"
"pit-trial","144","1007060","0.0-30.0","battery-v0.2","","""event"",""trial"",""time""
""fullscreenenter"",""1"",""2000""
""blur"",""64"",""576931""
""focus"",""64"",""577539""
""blur"",""67"",""589951""
""focus"",""67"",""591180""
","""event"",""trial"",""time""
""blur"",""64"",""576931""
""blur"",""67"",""589951""
","""event"",""trial"",""time""
""focus"",""64"",""577539""
""focus"",""67"",""591180""
","""event"",""trial"",""time""
""fullscreenenter"",""1"",""2000""
","
","","","-1","","","21","10101","4788","b","elianto","#f73b6a7A","-1","-1","1","-10","[]","0","2","","","10101","26","3","4","lose","no-go","1"
"pit-trial","145","1010630","0.0-31.0","battery-v0.2","","""event"",""trial"",""time""
""fullscreenenter"",""1"",""2000""
""blur"",""64"",""576931""
""focus"",""64"",""577539""
""blur"",""67"",""589951""
""focus"",""67"",""591180""
","""event"",""trial"",""time""
""blur"",""64"",""576931""
""blur"",""67"",""589951""
","""event"",""trial"",""time""
""focus"",""64"",""577539""
""focus"",""67"",""591180""
","""event"",""trial"",""time""
""fullscreenenter"",""1"",""2000""
","
","","","717.3000000119209","","","21","10101","4788","t","elianto","#f73b6a7A"," "," ","1","0","[1568.5999999940395]","1","2","","","10101","27","2","3","lose","go","0"
"pit-trial","146","1015482","0.0-32.0","battery-v0.2","","""event"",""trial"",""time""
""fullscreenenter"",""1"",""2000""
""blur"",""64"",""576931""
""focus"",""64"",""577539""
""blur"",""67"",""589951""
""focus"",""67"",""591180""
","""event"",""trial"",""time""
""blur"",""64"",""576931""
""blur"",""67"",""589951""
","""event"",""trial"",""time""
""focus"",""64"",""577539""
""focus"",""67"",""591180""
","""event"",""trial"",""time""
""fullscreenenter"",""1"",""2000""
","
","","","-1","","","21","10101","4788","f","elianto","#3366ff99","-1","-1","1","+10","[]","0","2","","","10101","28","1","2","win","no-go","0"
"pit-trial","147","1020334","0.0-33.0","battery-v0.2","","""event"",""trial"",""time""
""fullscreenenter"",""1"",""2000""
""blur"",""64"",""576931""
""focus"",""64"",""577539""
""blur"",""67"",""589951""
""focus"",""67"",""591180""
","""event"",""trial"",""time""
""blur"",""64"",""576931""
""blur"",""67"",""589951""
","""event"",""trial"",""time""
""focus"",""64"",""577539""
""focus"",""67"",""591180""
","""event"",""trial"",""time""
""fullscreenenter"",""1"",""2000""
","
","","","-1","","","21","10101","4788","f","elianto","#3366ff99","-1","-1","1","+10","[]","0","2","","","10101","29","1","2","win","no-go","0"
"pit-trial","148","1025186","0.0-34.0","battery-v0.2","","""event"",""trial"",""time""
""fullscreenenter"",""1"",""2000""
""blur"",""64"",""576931""
""focus"",""64"",""577539""
""blur"",""67"",""589951""
""focus"",""67"",""591180""
","""event"",""trial"",""time""
""blur"",""64"",""576931""
""blur"",""67"",""589951""
","""event"",""trial"",""time""
""focus"",""64"",""577539""
""focus"",""67"",""591180""
","""event"",""trial"",""time""
""fullscreenenter"",""1"",""2000""
","
","","","-1","","","21","10101","4788","b","elianto","#f73b6a7A","-1","-1","1","0","[]","0","2","","","10101","30","3","4","lose","no-go","0"
"pit-trial","149","1029082","0.0-35.0","battery-v0.2","","""event"",""trial"",""time""
""fullscreenenter"",""1"",""2000""
""blur"",""64"",""576931""
""focus"",""64"",""577539""
""blur"",""67"",""589951""
""focus"",""67"",""591180""
","""event"",""trial"",""time""
""blur"",""64"",""576931""
""blur"",""67"",""589951""
","""event"",""trial"",""time""
""focus"",""64"",""577539""
""focus"",""67"",""591180""
","""event"",""trial"",""time""
""fullscreenenter"",""1"",""2000""
","
","","","1043.9000000059605","","","21","10101","4788","t","elianto","#f73b6a7A"," "," ","1","0","[1894.1000000238419]","1","2","","","10101","31","2","3","lose","go","0"
"pit-trial","150","1032657","0.0-36.0","battery-v0.2","","""event"",""trial"",""time""
""fullscreenenter"",""1"",""2000""
""blur"",""64"",""576931""
""focus"",""64"",""577539""
""blur"",""67"",""589951""
""focus"",""67"",""591180""
","""event"",""trial"",""time""
""blur"",""64"",""576931""
""blur"",""67"",""589951""
","""event"",""trial"",""time""
""focus"",""64"",""577539""
""focus"",""67"",""591180""
","""event"",""trial"",""time""
""fullscreenenter"",""1"",""2000""
","
","","","723.6999999880791","","","21","10101","4788","n","elianto","#f73b6a7A"," "," ","1","0","[1574.300000011921]","1","2","","","10101","32","0","3","lose","go","0"
"pit-trial","151","1036516","0.0-37.0","battery-v0.2","","""event"",""trial"",""time""
""fullscreenenter"",""1"",""2000""
""blur"",""64"",""576931""
""focus"",""64"",""577539""
""blur"",""67"",""589951""
""focus"",""67"",""591180""
","""event"",""trial"",""time""
""blur"",""64"",""576931""
""blur"",""67"",""589951""
","""event"",""trial"",""time""
""focus"",""64"",""577539""
""focus"",""67"",""591180""
","""event"",""trial"",""time""
""fullscreenenter"",""1"",""2000""
","
","","","1006.1999999880791","","","21","10101","4788","n","elianto","#f73b6a7A"," "," ","1","0","[1857.0999999940395]","1","2","","","10101","33","0","3","lose","go","0"
"pit-trial","152","1041369","0.0-38.0","battery-v0.2","","""event"",""trial"",""time""
""fullscreenenter"",""1"",""2000""
""blur"",""64"",""576931""
""focus"",""64"",""577539""
""blur"",""67"",""589951""
""focus"",""67"",""591180""
","""event"",""trial"",""time""
""blur"",""64"",""576931""
""blur"",""67"",""589951""
","""event"",""trial"",""time""
""focus"",""64"",""577539""
""focus"",""67"",""591180""
","""event"",""trial"",""time""
""fullscreenenter"",""1"",""2000""
","
","","","-1","","","21","10101","4788","f","elianto","#3366ff99","-1","-1","1","0","[]","0","2","","","10101","34","1","2","win","no-go","1"
"pit-trial","153","1045049","0.0-39.0","battery-v0.2","","""event"",""trial"",""time""
""fullscreenenter"",""1"",""2000""
""blur"",""64"",""576931""
""focus"",""64"",""577539""
""blur"",""67"",""589951""
""focus"",""67"",""591180""
","""event"",""trial"",""time""
""blur"",""64"",""576931""
""blur"",""67"",""589951""
","""event"",""trial"",""time""
""focus"",""64"",""577539""
""focus"",""67"",""591180""
","""event"",""trial"",""time""
""fullscreenenter"",""1"",""2000""
","
","","","828.2000000178814","","","21","10101","4788","t","elianto","#f73b6a7A"," "," ","1","0","[1678.9000000059605]","1","2","","","10101","35","2","3","lose","go","0"
"pit-trial","154","1049902","0.0-40.0","battery-v0.2","","""event"",""trial"",""time""
""fullscreenenter"",""1"",""2000""
""blur"",""64"",""576931""
""focus"",""64"",""577539""
""blur"",""67"",""589951""
""focus"",""67"",""591180""
","""event"",""trial"",""time""
""blur"",""64"",""576931""
""blur"",""67"",""589951""
","""event"",""trial"",""time""
""focus"",""64"",""577539""
""focus"",""67"",""591180""
","""event"",""trial"",""time""
""fullscreenenter"",""1"",""2000""
","
","","","-1","","","21","10101","4788","b","elianto","#f73b6a7A","-1","-1","1","-10","[]","0","2","","","10101","36","3","4","lose","no-go","1"
"pit-trial","155","1054754","0.0-41.0","battery-v0.2","","""event"",""trial"",""time""
""fullscreenenter"",""1"",""2000""
""blur"",""64"",""576931""
""focus"",""64"",""577539""
""blur"",""67"",""589951""
""focus"",""67"",""591180""
","""event"",""trial"",""time""
""blur"",""64"",""576931""
""blur"",""67"",""589951""
","""event"",""trial"",""time""
""focus"",""64"",""577539""
""focus"",""67"",""591180""
","""event"",""trial"",""time""
""fullscreenenter"",""1"",""2000""
","
","","","-1","","","21","10101","4788","f","elianto","#3366ff99","-1","-1","1","+10","[]","0","2","","","10101","37","1","2","win","no-go","0"
"pit-trial","156","1058368","0.0-42.0","battery-v0.2","","""event"",""trial"",""time""
""fullscreenenter"",""1"",""2000""
""blur"",""64"",""576931""
""focus"",""64"",""577539""
""blur"",""67"",""589951""
""focus"",""67"",""591180""
","""event"",""trial"",""time""
""blur"",""64"",""576931""
""blur"",""67"",""589951""
","""event"",""trial"",""time""
""focus"",""64"",""577539""
""focus"",""67"",""591180""
","""event"",""trial"",""time""
""fullscreenenter"",""1"",""2000""
","
","","","761.7999999821186","","","21","10101","4788","t","elianto","#f73b6a7A"," "," ","1","0","[1612.199999988079]","1","2","","","10101","38","2","3","lose","go","0"
"pit-trial","157","1063220","0.0-43.0","battery-v0.2","","""event"",""trial"",""time""
""fullscreenenter"",""1"",""2000""
""blur"",""64"",""576931""
""focus"",""64"",""577539""
""blur"",""67"",""589951""
""focus"",""67"",""591180""
","""event"",""trial"",""time""
""blur"",""64"",""576931""
""blur"",""67"",""589951""
","""event"",""trial"",""time""
""focus"",""64"",""577539""
""focus"",""67"",""591180""
","""event"",""trial"",""time""
""fullscreenenter"",""1"",""2000""
","
","","","-1","","","21","10101","4788","b","elianto","#f73b6a7A","-1","-1","1","0","[]","0","2","","","10101","39","3","4","lose","no-go","0"
"pit-trial","158","1067168","0.0-44.0","battery-v0.2","","""event"",""trial"",""time""
""fullscreenenter"",""1"",""2000""
""blur"",""64"",""576931""
""focus"",""64"",""577539""
""blur"",""67"",""589951""
""focus"",""67"",""591180""
","""event"",""trial"",""time""
""blur"",""64"",""576931""
""blur"",""67"",""589951""
","""event"",""trial"",""time""
""focus"",""64"",""577539""
""focus"",""67"",""591180""
","""event"",""trial"",""time""
""fullscreenenter"",""1"",""2000""
","
","","","1096.9000000059605","","","21","10101","4788","n","elianto","#f73b6a7A"," "," ","1","0","[1947]","1","2","","","10101","40","0","3","lose","go","0"
"pit-trial","159","1070744","0.0-45.0","battery-v0.2","","""event"",""trial"",""time""
""fullscreenenter"",""1"",""2000""
""blur"",""64"",""576931""
""focus"",""64"",""577539""
""blur"",""67"",""589951""
""focus"",""67"",""591180""
","""event"",""trial"",""time""
""blur"",""64"",""576931""
""blur"",""67"",""589951""
","""event"",""trial"",""time""
""focus"",""64"",""577539""
""focus"",""67"",""591180""
","""event"",""trial"",""time""
""fullscreenenter"",""1"",""2000""
","
","","","722.6999999880791","","","21","10101","4788","t","elianto","#f73b6a7A"," "," ","1","0","[1573.5]","1","2","","","10101","41","2","3","lose","go","0"
"pit-trial","160","1075595","0.0-46.0","battery-v0.2","","""event"",""trial"",""time""
""fullscreenenter"",""1"",""2000""
""blur"",""64"",""576931""
""focus"",""64"",""577539""
""blur"",""67"",""589951""
""focus"",""67"",""591180""
","""event"",""trial"",""time""
""blur"",""64"",""576931""
""blur"",""67"",""589951""
","""event"",""trial"",""time""
""focus"",""64"",""577539""
""focus"",""67"",""591180""
","""event"",""trial"",""time""
""fullscreenenter"",""1"",""2000""
","
","","","-1","","","21","10101","4788","b","elianto","#f73b6a7A","-1","-1","1","0","[]","0","2","","","10101","42","3","4","lose","no-go","0"
"pit-trial","161","1080447","0.0-47.0","battery-v0.2","","""event"",""trial"",""time""
""fullscreenenter"",""1"",""2000""
""blur"",""64"",""576931""
""focus"",""64"",""577539""
""blur"",""67"",""589951""
""focus"",""67"",""591180""
","""event"",""trial"",""time""
""blur"",""64"",""576931""
""blur"",""67"",""589951""
","""event"",""trial"",""time""
""focus"",""64"",""577539""
""focus"",""67"",""591180""
","""event"",""trial"",""time""
""fullscreenenter"",""1"",""2000""
","
","","","-1","","","21","10101","4788","f","elianto","#3366ff99","-1","-1","1","+10","[]","0","2","","","10101","43","1","2","win","no-go","0"
"pit-trial","162","1083964","0.0-48.0","battery-v0.2","","""event"",""trial"",""time""
""fullscreenenter"",""1"",""2000""
""blur"",""64"",""576931""
""focus"",""64"",""577539""
""blur"",""67"",""589951""
""focus"",""67"",""591180""
","""event"",""trial"",""time""
""blur"",""64"",""576931""
""blur"",""67"",""589951""
","""event"",""trial"",""time""
""focus"",""64"",""577539""
""focus"",""67"",""591180""
","""event"",""trial"",""time""
""fullscreenenter"",""1"",""2000""
","
","","","663.5","","","21","10101","4788","n","elianto","#f73b6a7A"," "," ","1","0","[1514.0999999940395]","1","2","","","10101","44","0","3","lose","go","0"
"pit-trial","163","1088816","0.0-49.0","battery-v0.2","","""event"",""trial"",""time""
""fullscreenenter"",""1"",""2000""
""blur"",""64"",""576931""
""focus"",""64"",""577539""
""blur"",""67"",""589951""
""focus"",""67"",""591180""
","""event"",""trial"",""time""
""blur"",""64"",""576931""
""blur"",""67"",""589951""
","""event"",""trial"",""time""
""focus"",""64"",""577539""
""focus"",""67"",""591180""
","""event"",""trial"",""time""
""fullscreenenter"",""1"",""2000""
","
","","","-1","","","21","10101","4788","b","elianto","#f73b6a7A","-1","-1","1","-10","[]","0","2","","","10101","45","3","4","lose","no-go","1"
"pit-trial","164","1092465","0.0-50.0","battery-v0.2","","""event"",""trial"",""time""
""fullscreenenter"",""1"",""2000""
""blur"",""64"",""576931""
""focus"",""64"",""577539""
""blur"",""67"",""589951""
""focus"",""67"",""591180""
","""event"",""trial"",""time""
""blur"",""64"",""576931""
""blur"",""67"",""589951""
","""event"",""trial"",""time""
""focus"",""64"",""577539""
""focus"",""67"",""591180""
","""event"",""trial"",""time""
""fullscreenenter"",""1"",""2000""
","
","","","796","","","21","10101","4788","t","elianto","#f73b6a7A"," "," ","1","-10","[1646.800000011921]","1","2","","","10101","46","2","3","lose","go","1"
"pit-trial","165","1095978","0.0-51.0","battery-v0.2","","""event"",""trial"",""time""
""fullscreenenter"",""1"",""2000""
""blur"",""64"",""576931""
""focus"",""64"",""577539""
""blur"",""67"",""589951""
""focus"",""67"",""591180""
","""event"",""trial"",""time""
""blur"",""64"",""576931""
""blur"",""67"",""589951""
","""event"",""trial"",""time""
""focus"",""64"",""577539""
""focus"",""67"",""591180""
","""event"",""trial"",""time""
""fullscreenenter"",""1"",""2000""
","
","","","660.5999999940395","","","21","10101","4788","n","elianto","#f73b6a7A"," "," ","1","0","[1512.300000011921]","1","2","","","10101","47","0","3","lose","go","0"
"pit-trial","166","1100831","0.0-52.0","battery-v0.2","","""event"",""trial"",""time""
""fullscreenenter"",""1"",""2000""
""blur"",""64"",""576931""
""focus"",""64"",""577539""
""blur"",""67"",""589951""
""focus"",""67"",""591180""
","""event"",""trial"",""time""
""blur"",""64"",""576931""
""blur"",""67"",""589951""
","""event"",""trial"",""time""
""focus"",""64"",""577539""
""focus"",""67"",""591180""
","""event"",""trial"",""time""
""fullscreenenter"",""1"",""2000""
","
","","","-1","","","21","10101","4788","f","elianto","#3366ff99","-1","-1","1","+10","[]","0","2","","","10101","48","1","2","win","no-go","0"
"pit-trial","167","1105684","0.0-53.0","battery-v0.2","","""event"",""trial"",""time""
""fullscreenenter"",""1"",""2000""
""blur"",""64"",""576931""
""focus"",""64"",""577539""
""blur"",""67"",""589951""
""focus"",""67"",""591180""
","""event"",""trial"",""time""
""blur"",""64"",""576931""
""blur"",""67"",""589951""
","""event"",""trial"",""time""
""focus"",""64"",""577539""
""focus"",""67"",""591180""
","""event"",""trial"",""time""
""fullscreenenter"",""1"",""2000""
","
","","","-1","","","21","10101","4788","f","elianto","#3366ff99","-1","-1","1","+10","[]","0","2","","","10101","49","1","2","win","no-go","0"
"pit-trial","168","1110537","0.0-54.0","battery-v0.2","","""event"",""trial"",""time""
""fullscreenenter"",""1"",""2000""
""blur"",""64"",""576931""
""focus"",""64"",""577539""
""blur"",""67"",""589951""
""focus"",""67"",""591180""
","""event"",""trial"",""time""
""blur"",""64"",""576931""
""blur"",""67"",""589951""
","""event"",""trial"",""time""
""focus"",""64"",""577539""
""focus"",""67"",""591180""
","""event"",""trial"",""time""
""fullscreenenter"",""1"",""2000""
","
","","","-1","","","21","10101","4788","b","elianto","#f73b6a7A","-1","-1","1","0","[]","0","2","","","10101","50","3","4","lose","no-go","0"
"pit-trial","169","1114221","0.0-55.0","battery-v0.2","","""event"",""trial"",""time""
""fullscreenenter"",""1"",""2000""
""blur"",""64"",""576931""
""focus"",""64"",""577539""
""blur"",""67"",""589951""
""focus"",""67"",""591180""
","""event"",""trial"",""time""
""blur"",""64"",""576931""
""blur"",""67"",""589951""
","""event"",""trial"",""time""
""focus"",""64"",""577539""
""focus"",""67"",""591180""
","""event"",""trial"",""time""
""fullscreenenter"",""1"",""2000""
","
","","","831.5999999940395","","","21","10101","4788","t","elianto","#f73b6a7A"," "," ","1","0","[1682]","1","2","","","10101","51","2","3","lose","go","0"
"pit-trial","170","1117824","0.0-56.0","battery-v0.2","","""event"",""trial"",""time""
""fullscreenenter"",""1"",""2000""
""blur"",""64"",""576931""
""focus"",""64"",""577539""
""blur"",""67"",""589951""
""focus"",""67"",""591180""
","""event"",""trial"",""time""
""blur"",""64"",""576931""
""blur"",""67"",""589951""
","""event"",""trial"",""time""
""focus"",""64"",""577539""
""focus"",""67"",""591180""
","""event"",""trial"",""time""
""fullscreenenter"",""1"",""2000""
","
","","","752.1999999880791","","","21","10101","4788","n","elianto","#f73b6a7A"," "," ","1","0","[1602.5999999940395]","1","2","","","10101","52","0","3","lose","go","0"
"pit-trial","171","1121401","0.0-57.0","battery-v0.2","","""event"",""trial"",""time""
""fullscreenenter"",""1"",""2000""
""blur"",""64"",""576931""
""focus"",""64"",""577539""
""blur"",""67"",""589951""
""focus"",""67"",""591180""
","""event"",""trial"",""time""
""blur"",""64"",""576931""
""blur"",""67"",""589951""
","""event"",""trial"",""time""
""focus"",""64"",""577539""
""focus"",""67"",""591180""
","""event"",""trial"",""time""
""fullscreenenter"",""1"",""2000""
","
","","","724","","","21","10101","4788","n","elianto","#f73b6a7A"," "," ","1","0","[1574.800000011921]","1","2","","","10101","53","0","3","lose","go","0"
"pit-trial","172","1126254","0.0-58.0","battery-v0.2","","""event"",""trial"",""time""
""fullscreenenter"",""1"",""2000""
""blur"",""64"",""576931""
""focus"",""64"",""577539""
""blur"",""67"",""589951""
""focus"",""67"",""591180""
","""event"",""trial"",""time""
""blur"",""64"",""576931""
""blur"",""67"",""589951""
","""event"",""trial"",""time""
""focus"",""64"",""577539""
""focus"",""67"",""591180""
","""event"",""trial"",""time""
""fullscreenenter"",""1"",""2000""
","
","","","-1","","","21","10101","4788","b","elianto","#f73b6a7A","-1","-1","1","0","[]","0","2","","","10101","54","3","4","lose","no-go","0"
"pit-trial","173","1129918","0.0-59.0","battery-v0.2","","""event"",""trial"",""time""
""fullscreenenter"",""1"",""2000""
""blur"",""64"",""576931""
""focus"",""64"",""577539""
""blur"",""67"",""589951""
""focus"",""67"",""591180""
","""event"",""trial"",""time""
""blur"",""64"",""576931""
""blur"",""67"",""589951""
","""event"",""trial"",""time""
""focus"",""64"",""577539""
""focus"",""67"",""591180""
","""event"",""trial"",""time""
""fullscreenenter"",""1"",""2000""
","
","","","812.2999999821186","","","21","10101","4788","t","elianto","#f73b6a7A"," "," ","1","0","[1662.699999988079]","1","2","","","10101","55","2","3","lose","go","0"
"pit-trial","174","1134771","0.0-60.0","battery-v0.2","","""event"",""trial"",""time""
""fullscreenenter"",""1"",""2000""
""blur"",""64"",""576931""
""focus"",""64"",""577539""
""blur"",""67"",""589951""
""focus"",""67"",""591180""
","""event"",""trial"",""time""
""blur"",""64"",""576931""
""blur"",""67"",""589951""
","""event"",""trial"",""time""
""focus"",""64"",""577539""
""focus"",""67"",""591180""
","""event"",""trial"",""time""
""fullscreenenter"",""1"",""2000""
","
","","","-1","","","21","10101","4788","f","elianto","#3366ff99","-1","-1","1","+10","[]","0","2","","","10101","56","1","2","win","no-go","0"
"pit-trial","175","1139625","0.0-61.0","battery-v0.2","","""event"",""trial"",""time""
""fullscreenenter"",""1"",""2000""
""blur"",""64"",""576931""
""focus"",""64"",""577539""
""blur"",""67"",""589951""
""focus"",""67"",""591180""
","""event"",""trial"",""time""
""blur"",""64"",""576931""
""blur"",""67"",""589951""
","""event"",""trial"",""time""
""focus"",""64"",""577539""
""focus"",""67"",""591180""
","""event"",""trial"",""time""
""fullscreenenter"",""1"",""2000""
","
","","","-1","","","21","10101","4788","c","elianto","#3366ff99"," ","-1","0","+10","[]","0","2","","","10101","57","4","1","win","go","1"
"pit-trial","176","1144479","0.0-62.0","battery-v0.2","","""event"",""trial"",""time""
""fullscreenenter"",""1"",""2000""
""blur"",""64"",""576931""
""focus"",""64"",""577539""
""blur"",""67"",""589951""
""focus"",""67"",""591180""
","""event"",""trial"",""time""
""blur"",""64"",""576931""
""blur"",""67"",""589951""
","""event"",""trial"",""time""
""focus"",""64"",""577539""
""focus"",""67"",""591180""
","""event"",""trial"",""time""
""fullscreenenter"",""1"",""2000""
","
","","","-1","","","21","10101","4788","b","elianto","#f73b6a7A","-1","-1","1","-10","[]","0","2","","","10101","58","3","4","lose","no-go","1"
"pit-trial","177","1148060","0.0-63.0","battery-v0.2","","""event"",""trial"",""time""
""fullscreenenter"",""1"",""2000""
""blur"",""64"",""576931""
""focus"",""64"",""577539""
""blur"",""67"",""589951""
""focus"",""67"",""591180""
","""event"",""trial"",""time""
""blur"",""64"",""576931""
""blur"",""67"",""589951""
","""event"",""trial"",""time""
""focus"",""64"",""577539""
""focus"",""67"",""591180""
","""event"",""trial"",""time""
""fullscreenenter"",""1"",""2000""
","
","","","728.4000000059605","","","21","10101","4788","n","elianto","#f73b6a7A"," "," ","1","-10","[1578.4000000059605]","1","2","","","10101","59","0","3","lose","go","1"
"pit-trial","178","1151576","0.0-64.0","battery-v0.2","","""event"",""trial"",""time""
""fullscreenenter"",""1"",""2000""
""blur"",""64"",""576931""
""focus"",""64"",""577539""
""blur"",""67"",""589951""
