"trial_type","trial_index","time_elapsed","internal_node_id","task_version","subject_id","interactions","blur_events","focus_events","fullscreenenter_events","fullscreenexit_events","success","view_history","rt","responses","num_errors","age","subject","participantId","rune","rune_set","hex","correct","choice","accuracy","outcome","keys","total_keys","block","practice","value","sub","trial","stimulus","robot","valence","action","sham"
"pavlovia","0","16","0.0-0.0","battery-v0.2","","""event"",""trial"",""time""
""fullscreenenter"",""1"",""4397""
","
","
","""event"",""trial"",""time""
""fullscreenenter"",""1"",""4397""
","
","","","","","","","","","","","","","","","","","","","","","","","","","","",""
"fullscreen","1","5378","0.0-1.0","battery-v0.2","","""event"",""trial"",""time""
""fullscreenenter"",""1"",""4397""
","
","
","""event"",""trial"",""time""
""fullscreenenter"",""1"",""4397""
","
","true","","","","","","","","","","","","","","","","","","","","","","","","","",""
"pit-instructions","2","22449","0.0-2.0-0.0","battery-v0.2","","""event"",""trial"",""time""
""fullscreenenter"",""1"",""4397""
","
","
","""event"",""trial"",""time""
""fullscreenenter"",""1"",""4397""
","
","","[{""page_index"":0,""viewing_time"":17060.099999999627}]","17061","","","","","","","","","","","","","","","","","","","","","","","",""
"pit-comprehension","3","25240","0.0-2.0-1.0-0.0","battery-v0.2","","""event"",""trial"",""time""
""fullscreenenter"",""1"",""4397""
","
","
","""event"",""trial"",""time""
""fullscreenenter"",""1"",""4397""
","
","","","2775","[""shark""]","0","19","15445","5999","","","","","","","","","","","","","","","","","","",""
"pit-instructions","4","31995","0.0-2.0-1.0-1.0","battery-v0.2","","""event"",""trial"",""time""
""fullscreenenter"",""1"",""4397""
","
","
","""event"",""trial"",""time""
""fullscreenenter"",""1"",""4397""
","
","","[{""page_index"":0,""viewing_time"":6748.0999999996275}]","6749","","","","","","","","","","","","","","","","","","","","","","","",""
"pit-comprehension","5","34781","0.0-2.0-2.0-0.0","battery-v0.2","","""event"",""trial"",""time""
""fullscreenenter"",""1"",""4397""
","
","
","""event"",""trial"",""time""
""fullscreenenter"",""1"",""4397""
","
","","","2765.7000000011176","[""tiger""]","0","19","15445","5999","","","","","","","","","","","","","","","","","","",""
"pit-instructions","6","42355","0.0-2.0-2.0-1.0","battery-v0.2","","""event"",""trial"",""time""
""fullscreenenter"",""1"",""4397""
","
","
","""event"",""trial"",""time""
""fullscreenenter"",""1"",""4397""
","
","","[{""page_index"":0,""viewing_time"":7567.799999998882}]","7570","","","","","","","","","","","","","","","","","","","","","","","",""
"pit-instructions","7","221375","0.0-2.0-3.0","battery-v0.2","","""event"",""trial"",""time""
""fullscreenenter"",""1"",""4397""
","
","
","""event"",""trial"",""time""
""fullscreenenter"",""1"",""4397""
","
","","[{""page_index"":0,""viewing_time"":13465},{""page_index"":1,""viewing_time"":11175.700000001118},{""page_index"":2,""viewing_time"":41734.699999999255},{""page_index"":3,""viewing_time"":21690.099999999627},{""page_index"":4,""viewing_time"":9865.60000000149},{""page_index"":5,""viewing_time"":6214.89999999851},{""page_index"":4,""viewing_time"":895.1000000014901},{""page_index"":3,""viewing_time"":2900.0999999996275},{""page_index"":4,""viewing_time"":3590.7999999988824},{""page_index"":5,""viewing_time"":5557.9000000003725},{""page_index"":6,""viewing_time"":8897.599999999627},{""page_index"":7,""viewing_time"":9926.60000000149},{""page_index"":8,""viewing_time"":6080.89999999851},{""page_index"":9,""viewing_time"":9222.700000001118},{""page_index"":10,""viewing_time"":7210.199999999255},{""page_index"":11,""viewing_time"":6947.9000000003725},{""page_index"":12,""viewing_time"":7407.699999999255},{""page_index"":13,""viewing_time"":6228.10000000149}]","179012.90000000037","","","","","","","","","","","","","","","","","","","","","","","",""
"pit-trial","8","224966","0.0-2.0-4.0-0.0","battery-v0.2","","""event"",""trial"",""time""
""fullscreenenter"",""1"",""4397""
","
","
","""event"",""trial"",""time""
""fullscreenenter"",""1"",""4397""
","
","","","736.3000000007451","","","19","15445","5999","&#9784;","elianto","#FFFFF080"," "," ","1","&#10004","[1586.5999999996275]","1","0","0","","","","","","","",""
"pit-trial","9","228188","0.0-2.0-4.1-0.1","battery-v0.2","","""event"",""trial"",""time""
""fullscreenenter"",""1"",""4397""
","
","
","""event"",""trial"",""time""
""fullscreenenter"",""1"",""4397""
","
","","","362.7999999988824","","","19","15445","5999","&#9784;","elianto","#FFFFF080"," "," ","1","&#10004","[1212.800000000745]","1","0","0","","","","","","","",""
"pit-trial","10","231056","0.0-2.0-4.2-0.2","battery-v0.2","","""event"",""trial"",""time""
""fullscreenenter"",""1"",""4397""
","
","
","""event"",""trial"",""time""
""fullscreenenter"",""1"",""4397""
","
","","","12.900000000372529","","","19","15445","5999","&#9784;","elianto","#FFFFF080"," "," ","1","&#10004","[863.5999999996275]","1","0","0","","","","","","","",""
"pit-trial","11","234030","0.0-2.0-4.3-0.3","battery-v0.2","","""event"",""trial"",""time""
""fullscreenenter"",""1"",""4397""
","
","
","""event"",""trial"",""time""
""fullscreenenter"",""1"",""4397""
","
","","","118.09999999962747","","","19","15445","5999","&#9784;","elianto","#FFFFF080"," "," ","1","&#10004","[968.4000000003725]","1","0","0","","","","","","","",""
"pit-trial","12","237340","0.0-2.0-4.4-0.4","battery-v0.2","","""event"",""trial"",""time""
""fullscreenenter"",""1"",""4397""
","
","
","""event"",""trial"",""time""
""fullscreenenter"",""1"",""4397""
","
","","","450","","","19","15445","5999","&#9784;","elianto","#FFFFF080"," "," ","1","&#10004","[1302.8999999985099,2485.2999999988824]","2","0","0","","","","","","","",""
"pit-instructions","13","260765","0.0-2.0-5.0","battery-v0.2","","""event"",""trial"",""time""
""fullscreenenter"",""1"",""4397""
","
","
","""event"",""trial"",""time""
""fullscreenenter"",""1"",""4397""
","
","","[{""page_index"":0,""viewing_time"":6651.800000000745},{""page_index"":1,""viewing_time"":6260.0999999996275},{""page_index"":2,""viewing_time"":5385.699999999255},{""page_index"":3,""viewing_time"":5120.300000000745}]","23419.200000001118","","","","","","","","","","","","","","","","","","","","","","","",""
"pit-trial","14","265621","0.0-2.0-6.0-0.0","battery-v0.2","","""event"",""trial"",""time""
""fullscreenenter"",""1"",""4397""
","
","
","""event"",""trial"",""time""
""fullscreenenter"",""1"",""4397""
","
","","","-1","","","19","15445","5999","&#9854;","elianto","#FFFFF080","-1","-1","1","&#10004","[]","0","0","1","","","","","","","",""
"pit-trial","15","270479","0.0-2.0-6.1-0.1","battery-v0.2","","""event"",""trial"",""time""
""fullscreenenter"",""1"",""4397""
","
","
","""event"",""trial"",""time""
""fullscreenenter"",""1"",""4397""
","
","","","-1","","","19","15445","5999","&#9854;","elianto","#FFFFF080","-1","-1","1","&#10004","[]","0","0","1","","","","","","","",""
"pit-trial","16","275335","0.0-2.0-6.2-0.2","battery-v0.2","","""event"",""trial"",""time""
""fullscreenenter"",""1"",""4397""
","
","
","""event"",""trial"",""time""
""fullscreenenter"",""1"",""4397""
","
","","","-1","","","19","15445","5999","&#9854;","elianto","#FFFFF080","-1","-1","1","&#10004","[]","0","0","1","","","","","","","",""
"pit-trial","17","280192","0.0-2.0-6.3-0.3","battery-v0.2","","""event"",""trial"",""time""
""fullscreenenter"",""1"",""4397""
","
","
","""event"",""trial"",""time""
""fullscreenenter"",""1"",""4397""
","
","","","-1","","","19","15445","5999","&#9854;","elianto","#FFFFF080","-1","-1","1","&#10004","[]","0","0","1","","","","","","","",""
"pit-trial","18","285049","0.0-2.0-6.4-0.4","battery-v0.2","","""event"",""trial"",""time""
""fullscreenenter"",""1"",""4397""
","
","
","""event"",""trial"",""time""
""fullscreenenter"",""1"",""4397""
","
","","","-1","","","19","15445","5999","&#9854;","elianto","#FFFFF080","-1","-1","1","&#10004","[]","0","0","1","","","","","","","",""
"pit-instructions","19","427130","0.0-2.0-7.0","battery-v0.2","","""event"",""trial"",""time""
""fullscreenenter"",""1"",""4397""
","
","
","""event"",""trial"",""time""
""fullscreenenter"",""1"",""4397""
","
","","[{""page_index"":0,""viewing_time"":5724.200000001118},{""page_index"":1,""viewing_time"":10814},{""page_index"":2,""viewing_time"":5947.5},{""page_index"":3,""viewing_time"":7252},{""page_index"":4,""viewing_time"":5510.4000000003725},{""page_index"":5,""viewing_time"":7417.5},{""page_index"":6,""viewing_time"":12074.799999998882},{""page_index"":7,""viewing_time"":8298.099999999627},{""page_index"":8,""viewing_time"":7936.60000000149},{""page_index"":9,""viewing_time"":7227},{""page_index"":10,""viewing_time"":6953.0999999996275},{""page_index"":11,""viewing_time"":5932.0999999996275},{""page_index"":12,""viewing_time"":9835.5},{""page_index"":13,""viewing_time"":9845.699999999255},{""page_index"":14,""viewing_time"":7946.800000000745},{""page_index"":15,""viewing_time"":6709.5},{""page_index"":16,""viewing_time"":7125.5999999996275},{""page_index"":17,""viewing_time"":9522.599999999627}]","142073.80000000075","","","","","","","","","","","","","","","","","","","","","","","",""
"pit-trial","20","430801","0.0-2.0-8.0-0.0","battery-v0.2","","""event"",""trial"",""time""
""fullscreenenter"",""1"",""4397""
","
","
","""event"",""trial"",""time""
""fullscreenenter"",""1"",""4397""
","
","","","815.7999999988824","","","19","15445","5999","&#9776;","elianto","#3366ff99"," "," ","1","+10","[1666.199999999255]","1","0","1","","","","","","","",""
"pit-trial","21","434061","0.0-2.0-8.0-1.0","battery-v0.2","","""event"",""trial"",""time""
""fullscreenenter"",""1"",""4397""
","
","
","""event"",""trial"",""time""
""fullscreenenter"",""1"",""4397""
","
","","","405.5","","","19","15445","5999","&#9776;","elianto","#3366ff99"," "," ","1","+10","[1255.7999999988824]","1","0","1","","","","","","","",""
"pit-trial","22","437147","0.0-2.0-8.0-2.0","battery-v0.2","","""event"",""trial"",""time""
""fullscreenenter"",""1"",""4397""
","
","
","""event"",""trial"",""time""
""fullscreenenter"",""1"",""4397""
","
","","","231.09999999962747","","","19","15445","5999","&#9776;","elianto","#3366ff99"," "," ","1","+10","[1081.300000000745]","1","0","1","","","","","","","",""
"pit-trial","23","441547","0.0-2.0-8.0-3.0","battery-v0.2","","""event"",""trial"",""time""
""fullscreenenter"",""1"",""4397""
","
","
","""event"",""trial"",""time""
""fullscreenenter"",""1"",""4397""
","
","","","1546","","","19","15445","5999","&#9776;","elianto","#3366ff99"," "," ","1","0","[2396.199999999255]","1","0","1","","","","","","","",""
"pit-trial","24","444921","0.0-2.0-8.0-4.0","battery-v0.2","","""event"",""trial"",""time""
""fullscreenenter"",""1"",""4397""
","
","
","""event"",""trial"",""time""
""fullscreenenter"",""1"",""4397""
","
","","","518.6999999992549","","","19","15445","5999","&#9776;","elianto","#3366ff99"," "," ","1","+10","[1368.5999999996275]","1","0","1","","","","","","","",""
"pit-trial","25","448237","0.0-2.0-8.1-0.1","battery-v0.2","","""event"",""trial"",""time""
""fullscreenenter"",""1"",""4397""
","
","
","""event"",""trial"",""time""
""fullscreenenter"",""1"",""4397""
","
","","","457.59999999962747","","","19","15445","5999","&#9776;","elianto","#3366ff99"," "," ","1","+10","[1309.300000000745]","1","0","1","","","","","","","",""
"pit-trial","26","452693","0.0-2.0-8.1-1.1","battery-v0.2","","""event"",""trial"",""time""
""fullscreenenter"",""1"",""4397""
","
","
","""event"",""trial"",""time""
""fullscreenenter"",""1"",""4397""
","
","","","1599.3999999985099","","","19","15445","5999","&#9776;","elianto","#3366ff99"," "," ","1","+10","[2450.9000000003725]","1","0","1","","","","","","","",""
"pit-trial","27","456600","0.0-2.0-8.1-2.1","battery-v0.2","","""event"",""trial"",""time""
""fullscreenenter"",""1"",""4397""
","
","
","""event"",""trial"",""time""
""fullscreenenter"",""1"",""4397""
","
","","","1052.199999999255","","","19","15445","5999","&#9776;","elianto","#3366ff99"," "," ","1","+10","[1902.199999999255]","1","0","1","","","","","","","",""
"pit-trial","28","460140","0.0-2.0-8.1-3.1","battery-v0.2","","""event"",""trial"",""time""
""fullscreenenter"",""1"",""4397""
","
","
","""event"",""trial"",""time""
""fullscreenenter"",""1"",""4397""
","
","","","685.5","","","19","15445","5999","&#9776;","elianto","#3366ff99"," "," ","1","0","[1535.800000000745]","1","0","1","","","","","","","",""
"pit-trial","29","463408","0.0-2.0-8.1-4.1","battery-v0.2","","""event"",""trial"",""time""
""fullscreenenter"",""1"",""4397""
","
","
","""event"",""trial"",""time""
""fullscreenenter"",""1"",""4397""
","
","","","413.59999999962747","","","19","15445","5999","&#9776;","elianto","#3366ff99"," "," ","1","+10","[1263.7000000011176]","1","0","1","","","","","","","",""
"pit-trial","30","468265","0.0-2.0-8.2-0.2","battery-v0.2","","""event"",""trial"",""time""
""fullscreenenter"",""1"",""4397""
","
","
","""event"",""trial"",""time""
""fullscreenenter"",""1"",""4397""
","
","","","-1","","","19","15445","5999","&#9776;","elianto","#3366ff99"," ","-1","0","0","[]","0","0","1","","","","","","","",""
"pit-trial","31","471414","0.0-2.0-8.2-1.2","battery-v0.2","","""event"",""trial"",""time""
""fullscreenenter"",""1"",""4397""
","
","
","""event"",""trial"",""time""
""fullscreenenter"",""1"",""4397""
","
","","","294.69999999925494","","","19","15445","5999","&#9776;","elianto","#3366ff99"," "," ","1","+10","[1144.699999999255]","1","0","1","","","","","","","",""
"pit-trial","32","474526","0.0-2.0-8.2-2.2","battery-v0.2","","""event"",""trial"",""time""
""fullscreenenter"",""1"",""4397""
","
","
","""event"",""trial"",""time""
""fullscreenenter"",""1"",""4397""
","
","","","257.19999999925494","","","19","15445","5999","&#9776;","elianto","#3366ff99"," "," ","1","+10","[1107.5999999996275]","1","0","1","","","","","","","",""
"pit-trial","33","478008","0.0-2.0-8.2-3.2","battery-v0.2","","""event"",""trial"",""time""
""fullscreenenter"",""1"",""4397""
","
","
","""event"",""trial"",""time""
""fullscreenenter"",""1"",""4397""
","
","","","627.8000000007451","","","19","15445","5999","&#9776;","elianto","#3366ff99"," "," ","1","0","[797.1999999992549,1478]","2","0","1","","","","","","","",""
"pit-trial","34","481426","0.0-2.0-8.2-4.2","battery-v0.2","","""event"",""trial"",""time""
""fullscreenenter"",""1"",""4397""
","
","
","""event"",""trial"",""time""
""fullscreenenter"",""1"",""4397""
","
","","","563.4000000003725","","","19","15445","5999","&#9776;","elianto","#3366ff99"," "," ","1","+10","[1413.3999999985099]","1","0","1","","","","","","","",""
"call-function","35","481430","0.0-2.0-9.0","battery-v0.2","","""event"",""trial"",""time""
""fullscreenenter"",""1"",""4397""
","
","
","""event"",""trial"",""time""
""fullscreenenter"",""1"",""4397""
","
","","","","","","","","","","","","","","","","","","","","","","","","","","",""
"pit-instructions","36","523874","0.0-2.0-10.0","battery-v0.2","","""event"",""trial"",""time""
""fullscreenenter"",""1"",""4397""
","
","
","""event"",""trial"",""time""
""fullscreenenter"",""1"",""4397""
","
","","[{""page_index"":0,""viewing_time"":7301.299999998882},{""page_index"":1,""viewing_time"":7414.4000000003725},{""page_index"":2,""viewing_time"":10833.400000000373},{""page_index"":3,""viewing_time"":8883.699999999255},{""page_index"":4,""viewing_time"":8009.700000001118}]","42443.29999999888","","","","","","","","","","","","","","","","","","","","","","","",""
"pit-trial","37","528302","0.0-2.0-11.0-0.0","battery-v0.2","","""event"",""trial"",""time""
""fullscreenenter"",""1"",""4397""
","
","
","""event"",""trial"",""time""
""fullscreenenter"",""1"",""4397""
","
","","","1573.2999999988824","","","19","15445","5999","&#9761;","elianto","#3366ff99","-1"," ","0","0","[2423.5999999996275]","1","0","2","","","","","","","",""
"pit-trial","38","531404","0.0-2.0-11.0-1.0","battery-v0.2","","""event"",""trial"",""time""
""fullscreenenter"",""1"",""4397""
","
","
","""event"",""trial"",""time""
""fullscreenenter"",""1"",""4397""
","
","","","246.7999999988824","","","19","15445","5999","&#9761;","elianto","#3366ff99","-1"," ","0","0","[1097.699999999255]","1","0","2","","","","","","","",""
"pit-trial","39","534484","0.0-2.0-11.0-2.0","battery-v0.2","","""event"",""trial"",""time""
""fullscreenenter"",""1"",""4397""
","
","
","""event"",""trial"",""time""
""fullscreenenter"",""1"",""4397""
","
","","","225.89999999850988","","","19","15445","5999","&#9761;","elianto","#3366ff99","-1"," ","0","0","[1076]","1","0","2","","","","","","","",""
"pit-trial","40","539340","0.0-2.0-11.0-3.0","battery-v0.2","","""event"",""trial"",""time""
""fullscreenenter"",""1"",""4397""
","
","
","""event"",""trial"",""time""
""fullscreenenter"",""1"",""4397""
","
","","","-1","","","19","15445","5999","&#9761;","elianto","#3366ff99","-1","-1","1","0","[]","0","0","2","","","","","","","",""
"pit-trial","41","544195","0.0-2.0-11.0-4.0","battery-v0.2","","""event"",""trial"",""time""
""fullscreenenter"",""1"",""4397""
","
","
","""event"",""trial"",""time""
""fullscreenenter"",""1"",""4397""
","
","","","-1","","","19","15445","5999","&#9761;","elianto","#3366ff99","-1","-1","1","+10","[]","0","0","2","","","","","","","",""
"pit-trial","42","548065","0.0-2.0-11.1-0.1","battery-v0.2","","""event"",""trial"",""time""
""fullscreenenter"",""1"",""4397""
","
","
","""event"",""trial"",""time""
""fullscreenenter"",""1"",""4397""
","
","","","1014.7000000011176","","","19","15445","5999","&#9761;","elianto","#3366ff99","-1"," ","0","0","[1865.1000000014901]","1","0","2","","","","","","","",""
"pit-trial","43","551170","0.0-2.0-11.1-1.1","battery-v0.2","","""event"",""trial"",""time""
""fullscreenenter"",""1"",""4397""
","
","
","""event"",""trial"",""time""
""fullscreenenter"",""1"",""4397""
","
","","","247.59999999962747","","","19","15445","5999","&#9761;","elianto","#3366ff99","-1"," ","0","0","[1101.0999999996275]","1","0","2","","","","","","","",""
"pit-trial","44","554191","0.0-2.0-11.1-2.1","battery-v0.2","","""event"",""trial"",""time""
""fullscreenenter"",""1"",""4397""
","
","
","""event"",""trial"",""time""
""fullscreenenter"",""1"",""4397""
","
","","","166.40000000037253","","","19","15445","5999","&#9761;","elianto","#3366ff99","-1"," ","0","0","[1016.5]","1","0","2","","","","","","","",""
"pit-trial","45","557537","0.0-2.0-11.1-3.1","battery-v0.2","","""event"",""trial"",""time""
""fullscreenenter"",""1"",""4397""
","
","
","""event"",""trial"",""time""
""fullscreenenter"",""1"",""4397""
","
","","","491.90000000037253","","","19","15445","5999","&#9761;","elianto","#3366ff99","-1"," ","0","+10","[1342.199999999255]","1","0","2","","","","","","","",""
"pit-trial","46","562392","0.0-2.0-11.1-4.1","battery-v0.2","","""event"",""trial"",""time""
""fullscreenenter"",""1"",""4397""
","
","
","""event"",""trial"",""time""
""fullscreenenter"",""1"",""4397""
","
","","","-1","","","19","15445","5999","&#9761;","elianto","#3366ff99","-1","-1","1","+10","[3743.9000000003725]","1","0","2","","","","","","","",""
"pit-trial","47","565998","0.0-2.0-11.2-0.2","battery-v0.2","","""event"",""trial"",""time""
""fullscreenenter"",""1"",""4397""
","
","
","""event"",""trial"",""time""
""fullscreenenter"",""1"",""4397""
","
","","","749.2999999988824","","","19","15445","5999","&#9761;","elianto","#3366ff99","-1"," ","0","0","[1599.699999999255]","1","0","2","","","","","","","",""
"pit-trial","48","569340","0.0-2.0-11.2-1.2","battery-v0.2","","""event"",""trial"",""time""
""fullscreenenter"",""1"",""4397""
","
","
","""event"",""trial"",""time""
""fullscreenenter"",""1"",""4397""
","
","","","484.90000000037253","","","19","15445","5999","&#9761;","elianto","#3366ff99","-1"," ","0","0","[1338.2000000011176]","1","0","2","","","","","","","",""
"pit-trial","49","573171","0.0-2.0-11.2-2.2","battery-v0.2","","""event"",""trial"",""time""
""fullscreenenter"",""1"",""4397""
","
","
","""event"",""trial"",""time""
""fullscreenenter"",""1"",""4397""
","
","","","976.3999999985099","","","19","15445","5999","&#9761;","elianto","#3366ff99","-1"," ","0","0","[1827]","1","0","2","","","","","","","",""
"pit-trial","50","578027","0.0-2.0-11.2-3.2","battery-v0.2","","""event"",""trial"",""time""
""fullscreenenter"",""1"",""4397""
","
","
","""event"",""trial"",""time""
""fullscreenenter"",""1"",""4397""
","
","","","-1","","","19","15445","5999","&#9761;","elianto","#3366ff99","-1","-1","1","0","[2969.300000000745]","1","0","2","","","","","","","",""
"pit-trial","51","581499","0.0-2.0-11.2-4.2","battery-v0.2","","""event"",""trial"",""time""
""fullscreenenter"",""1"",""4397""
","
","
","""event"",""trial"",""time""
""fullscreenenter"",""1"",""4397""
","
","","","617.5","","","19","15445","5999","&#9761;","elianto","#3366ff99","-1"," ","0","0","[1467.9000000003725]","1","0","2","","","","","","","",""
"pit-trial","52","584814","0.0-2.0-11.3-0.3","battery-v0.2","","""event"",""trial"",""time""
""fullscreenenter"",""1"",""4397""
","
","
","""event"",""trial"",""time""
""fullscreenenter"",""1"",""4397""
","
","","","458.5","","","19","15445","5999","&#9761;","elianto","#3366ff99","-1"," ","0","0","[1310.199999999255]","1","0","2","","","","","","","",""
"pit-trial","53","587969","0.0-2.0-11.3-1.3","battery-v0.2","","""event"",""trial"",""time""
""fullscreenenter"",""1"",""4397""
","
","
","""event"",""trial"",""time""
""fullscreenenter"",""1"",""4397""
","
","","","299","","","19","15445","5999","&#9761;","elianto","#3366ff99","-1"," ","0","0","[1150.9000000003725]","1","0","2","","","","","","","",""
"pit-trial","54","592394","0.0-2.0-11.3-2.3","battery-v0.2","","""event"",""trial"",""time""
""fullscreenenter"",""1"",""4397""
","
","
","""event"",""trial"",""time""
""fullscreenenter"",""1"",""4397""
","
","","","1570.2999999988824","","","19","15445","5999","&#9761;","elianto","#3366ff99","-1"," ","0","0","[2420.4000000003725]","1","0","2","","","","","","","",""
"pit-trial","55","597249","0.0-2.0-11.3-3.3","battery-v0.2","","""event"",""trial"",""time""
""fullscreenenter"",""1"",""4397""
","
","
","""event"",""trial"",""time""
""fullscreenenter"",""1"",""4397""
","
","","","-1","","","19","15445","5999","&#9761;","elianto","#3366ff99","-1","-1","1","0","[]","0","0","2","","","","","","","",""
"pit-trial","56","602104","0.0-2.0-11.3-4.3","battery-v0.2","","""event"",""trial"",""time""
""fullscreenenter"",""1"",""4397""
","
","
","""event"",""trial"",""time""
""fullscreenenter"",""1"",""4397""
","
","","","-1","","","19","15445","5999","&#9761;","elianto","#3366ff99","-1","-1","1","+10","[]","0","0","2","","","","","","","",""
"call-function","57","602108","0.0-2.0-12.0","battery-v0.2","","""event"",""trial"",""time""
""fullscreenenter"",""1"",""4397""
","
","
","""event"",""trial"",""time""
""fullscreenenter"",""1"",""4397""
","
","","","","","","","","","","","","","","","","","","","","","","","","","","",""
"pit-instructions","58","640666","0.0-2.0-13.0","battery-v0.2","","""event"",""trial"",""time""
""fullscreenenter"",""1"",""4397""
","
","
","""event"",""trial"",""time""
""fullscreenenter"",""1"",""4397""
","
","","[{""page_index"":0,""viewing_time"":6796.300000000745},{""page_index"":1,""viewing_time"":8047.0999999996275},{""page_index"":2,""viewing_time"":4598.4000000003725},{""page_index"":3,""viewing_time"":11780.699999999255},{""page_index"":4,""viewing_time"":7334.300000000745}]","38557.70000000112","","","","","","","","","","","","","","","","","","","","","","","",""
"pit-trial","59","645521","0.0-2.0-14.0-0.0","battery-v0.2","","""event"",""trial"",""time""
""fullscreenenter"",""1"",""4397""
","
","
","""event"",""trial"",""time""
""fullscreenenter"",""1"",""4397""
","
","","","-1","","","19","15445","5999","&#9826;","elianto","#f73b6a7A","-1","-1","1","0","[]","0","0","3","","","","","","","",""
"pit-trial","60","650375","0.0-2.0-14.0-1.0","battery-v0.2","","""event"",""trial"",""time""
""fullscreenenter"",""1"",""4397""
","
","
","""event"",""trial"",""time""
""fullscreenenter"",""1"",""4397""
","
","","","-1","","","19","15445","5999","&#9826;","elianto","#f73b6a7A","-1","-1","1","0","[]","0","0","3","","","","","","","",""
"pit-trial","61","655230","0.0-2.0-14.0-2.0","battery-v0.2","","""event"",""trial"",""time""
""fullscreenenter"",""1"",""4397""
","
","
","""event"",""trial"",""time""
""fullscreenenter"",""1"",""4397""
","
","","","-1","","","19","15445","5999","&#9826;","elianto","#f73b6a7A","-1","-1","1","0","[]","0","0","3","","","","","","","",""
"pit-trial","62","660085","0.0-2.0-14.0-3.0","battery-v0.2","","""event"",""trial"",""time""
""fullscreenenter"",""1"",""4397""
","
","
","""event"",""trial"",""time""
""fullscreenenter"",""1"",""4397""
","
","","","-1","","","19","15445","5999","&#9826;","elianto","#f73b6a7A","-1","-1","1","-10","[]","0","0","3","","","","","","","",""
"pit-trial","63","664939","0.0-2.0-14.0-4.0","battery-v0.2","","""event"",""trial"",""time""
""fullscreenenter"",""1"",""4397""
","
","
","""event"",""trial"",""time""
""fullscreenenter"",""1"",""4397""
","
","","","-1","","","19","15445","5999","&#9826;","elianto","#f73b6a7A","-1","-1","1","0","[]","0","0","3","","","","","","","",""
"pit-trial","64","669795","0.0-2.0-14.1-0.1","battery-v0.2","","""event"",""trial"",""time""
""fullscreenenter"",""1"",""4397""
","
","
","""event"",""trial"",""time""
""fullscreenenter"",""1"",""4397""
","
","","","-1","","","19","15445","5999","&#9826;","elianto","#f73b6a7A","-1","-1","1","0","[]","0","0","3","","","","","","","",""
"pit-trial","65","674650","0.0-2.0-14.1-1.1","battery-v0.2","","""event"",""trial"",""time""
""fullscreenenter"",""1"",""4397""
","
","
","""event"",""trial"",""time""
""fullscreenenter"",""1"",""4397""
","
","","","-1","","","19","15445","5999","&#9826;","elianto","#f73b6a7A","-1","-1","1","0","[]","0","0","3","","","","","","","",""
"pit-trial","66","679505","0.0-2.0-14.1-2.1","battery-v0.2","","""event"",""trial"",""time""
""fullscreenenter"",""1"",""4397""
","
","
","""event"",""trial"",""time""
""fullscreenenter"",""1"",""4397""
","
","","","-1","","","19","15445","5999","&#9826;","elianto","#f73b6a7A","-1","-1","1","0","[]","0","0","3","","","","","","","",""
"pit-trial","67","684359","0.0-2.0-14.1-3.1","battery-v0.2","","""event"",""trial"",""time""
""fullscreenenter"",""1"",""4397""
","
","
","""event"",""trial"",""time""
""fullscreenenter"",""1"",""4397""
","
","","","-1","","","19","15445","5999","&#9826;","elianto","#f73b6a7A","-1","-1","1","-10","[]","0","0","3","","","","","","","",""
"pit-trial","68","689214","0.0-2.0-14.1-4.1","battery-v0.2","","""event"",""trial"",""time""
""fullscreenenter"",""1"",""4397""
","
","
","""event"",""trial"",""time""
""fullscreenenter"",""1"",""4397""
","
","","","-1","","","19","15445","5999","&#9826;","elianto","#f73b6a7A","-1","-1","1","0","[]","0","0","3","","","","","","","",""
"pit-trial","69","694069","0.0-2.0-14.2-0.2","battery-v0.2","","""event"",""trial"",""time""
""fullscreenenter"",""1"",""4397""
","
","
","""event"",""trial"",""time""
""fullscreenenter"",""1"",""4397""
","
","","","-1","","","19","15445","5999","&#9826;","elianto","#f73b6a7A","-1","-1","1","0","[]","0","0","3","","","","","","","",""
"pit-trial","70","698923","0.0-2.0-14.2-1.2","battery-v0.2","","""event"",""trial"",""time""
""fullscreenenter"",""1"",""4397""
","
","
","""event"",""trial"",""time""
""fullscreenenter"",""1"",""4397""
","
","","","-1","","","19","15445","5999","&#9826;","elianto","#f73b6a7A","-1","-1","1","0","[]","0","0","3","","","","","","","",""
"pit-trial","71","703778","0.0-2.0-14.2-2.2","battery-v0.2","","""event"",""trial"",""time""
""fullscreenenter"",""1"",""4397""
","
","
","""event"",""trial"",""time""
""fullscreenenter"",""1"",""4397""
","
","","","-1","","","19","15445","5999","&#9826;","elianto","#f73b6a7A","-1","-1","1","0","[]","0","0","3","","","","","","","",""
"pit-trial","72","708633","0.0-2.0-14.2-3.2","battery-v0.2","","""event"",""trial"",""time""
""fullscreenenter"",""1"",""4397""
","
","
","""event"",""trial"",""time""
""fullscreenenter"",""1"",""4397""
","
","","","-1","","","19","15445","5999","&#9826;","elianto","#f73b6a7A","-1","-1","1","-10","[]","0","0","3","","","","","","","",""
"pit-trial","73","713487","0.0-2.0-14.2-4.2","battery-v0.2","","""event"",""trial"",""time""
""fullscreenenter"",""1"",""4397""
","
","
","""event"",""trial"",""time""
""fullscreenenter"",""1"",""4397""
","
","","","-1","","","19","15445","5999","&#9826;","elianto","#f73b6a7A","-1","-1","1","0","[]","0","0","3","","","","","","","",""
"pit-trial","74","718343","0.0-2.0-14.3-0.3","battery-v0.2","","""event"",""trial"",""time""
""fullscreenenter"",""1"",""4397""
","
","
","""event"",""trial"",""time""
""fullscreenenter"",""1"",""4397""
","
","","","-1","","","19","15445","5999","&#9826;","elianto","#f73b6a7A","-1","-1","1","0","[]","0","0","3","","","","","","","",""
"pit-trial","75","723199","0.0-2.0-14.3-1.3","battery-v0.2","","""event"",""trial"",""time""
""fullscreenenter"",""1"",""4397""
","
","
","""event"",""trial"",""time""
""fullscreenenter"",""1"",""4397""
","
","","","-1","","","19","15445","5999","&#9826;","elianto","#f73b6a7A","-1","-1","1","0","[]","0","0","3","","","","","","","",""
"pit-trial","76","728053","0.0-2.0-14.3-2.3","battery-v0.2","","""event"",""trial"",""time""
""fullscreenenter"",""1"",""4397""
","
","
","""event"",""trial"",""time""
""fullscreenenter"",""1"",""4397""
","
","","","-1","","","19","15445","5999","&#9826;","elianto","#f73b6a7A","-1","-1","1","0","[]","0","0","3","","","","","","","",""
"pit-trial","77","732908","0.0-2.0-14.3-3.3","battery-v0.2","","""event"",""trial"",""time""
""fullscreenenter"",""1"",""4397""
","
","
","""event"",""trial"",""time""
""fullscreenenter"",""1"",""4397""
","
","","","-1","","","19","15445","5999","&#9826;","elianto","#f73b6a7A","-1","-1","1","-10","[]","0","0","3","","","","","","","",""
"pit-trial","78","737762","0.0-2.0-14.3-4.3","battery-v0.2","","""event"",""trial"",""time""
""fullscreenenter"",""1"",""4397""
","
","
","""event"",""trial"",""time""
""fullscreenenter"",""1"",""4397""
","
","","","-1","","","19","15445","5999","&#9826;","elianto","#f73b6a7A","-1","-1","1","0","[]","0","0","3","","","","","","","",""
"call-function","79","737766","0.0-2.0-15.0","battery-v0.2","","""event"",""trial"",""time""
""fullscreenenter"",""1"",""4397""
","
","
","""event"",""trial"",""time""
""fullscreenenter"",""1"",""4397""
","
","","","","","","","","","","","","","","","","","","","","","","","","","","",""
"pit-instructions","80","770387","0.0-2.0-16.0","battery-v0.2","","""event"",""trial"",""time""
""fullscreenenter"",""1"",""4397""
","
","
","""event"",""trial"",""time""
""fullscreenenter"",""1"",""4397""
","
","","[{""page_index"":0,""viewing_time"":7673.5},{""page_index"":1,""viewing_time"":10997.200000001118},{""page_index"":2,""viewing_time"":7012.799999998882},{""page_index"":3,""viewing_time"":6936.300000000745}]","32620.700000001118","","","","","","","","","","","","","","","","","","","","","","","",""
"pit-trial","81","774700","0.0-2.0-17.0-0.0","battery-v0.2","","""event"",""trial"",""time""
""fullscreenenter"",""1"",""4397""
","
","
","""event"",""trial"",""time""
""fullscreenenter"",""1"",""4397""
","
","","","1456.199999999255","","","19","15445","5999","&#9789;","elianto","#f73b6a7A"," "," ","1","0","[2307.5999999996275]","1","0","4","","","","","","","",""
"pit-trial","82","778054","0.0-2.0-17.0-1.0","battery-v0.2","","""event"",""trial"",""time""
""fullscreenenter"",""1"",""4397""
","
","
","""event"",""trial"",""time""
""fullscreenenter"",""1"",""4397""
","
","","","499.09999999962747","","","19","15445","5999","&#9789;","elianto","#f73b6a7A"," "," ","1","0","[1349.2999999988824]","1","0","4","","","","","","","",""
"pit-trial","83","782909","0.0-2.0-17.0-2.0","battery-v0.2","","""event"",""trial"",""time""
""fullscreenenter"",""1"",""4397""
","
","
","""event"",""trial"",""time""
""fullscreenenter"",""1"",""4397""
","
","","","-1","","","19","15445","5999","&#9789;","elianto","#f73b6a7A"," ","-1","0","-10","[]","0","0","4","","","","","","","",""
"pit-trial","84","787764","0.0-2.0-17.0-3.0","battery-v0.2","","""event"",""trial"",""time""
""fullscreenenter"",""1"",""4397""
","
","
","""event"",""trial"",""time""
""fullscreenenter"",""1"",""4397""
","
","","","-1","","","19","15445","5999","&#9789;","elianto","#f73b6a7A"," ","-1","0","0","[]","0","0","4","","","","","","","",""
"pit-trial","85","792618","0.0-2.0-17.0-4.0","battery-v0.2","","""event"",""trial"",""time""
""fullscreenenter"",""1"",""4397""
","
","
","""event"",""trial"",""time""
""fullscreenenter"",""1"",""4397""
","
","","","-1","","","19","15445","5999","&#9789;","elianto","#f73b6a7A"," ","-1","0","-10","[]","0","0","4","","","","","","","",""
"pit-trial","86","797475","0.0-2.0-17.1-0.1","battery-v0.2","","""event"",""trial"",""time""
""fullscreenenter"",""1"",""4397""
","
","
","""event"",""trial"",""time""
""fullscreenenter"",""1"",""4397""
","
","","","-1","","","19","15445","5999","&#9789;","elianto","#f73b6a7A"," ","-1","0","-10","[]","0","0","4","","","","","","","",""
"pit-trial","87","802330","0.0-2.0-17.1-1.1","battery-v0.2","","""event"",""trial"",""time""
""fullscreenenter"",""1"",""4397""
","
","
","""event"",""trial"",""time""
""fullscreenenter"",""1"",""4397""
","
","","","-1","","","19","15445","5999","&#9789;","elianto","#f73b6a7A"," ","-1","0","-10","[]","0","0","4","","","","","","","",""
"pit-trial","88","807184","0.0-2.0-17.1-2.1","battery-v0.2","","""event"",""trial"",""time""
""fullscreenenter"",""1"",""4397""
","
","
","""event"",""trial"",""time""
""fullscreenenter"",""1"",""4397""
","
","","","-1","","","19","15445","5999","&#9789;","elianto","#f73b6a7A"," ","-1","0","-10","[]","0","0","4","","","","","","","",""
"pit-trial","89","812037","0.0-2.0-17.1-3.1","battery-v0.2","","""event"",""trial"",""time""
""fullscreenenter"",""1"",""4397""
","
","
","""event"",""trial"",""time""
""fullscreenenter"",""1"",""4397""
","
","","","-1","","","19","15445","5999","&#9789;","elianto","#f73b6a7A"," ","-1","0","0","[]","0","0","4","","","","","","","",""
"pit-trial","90","816892","0.0-2.0-17.1-4.1","battery-v0.2","","""event"",""trial"",""time""
""fullscreenenter"",""1"",""4397""
","
","
","""event"",""trial"",""time""
""fullscreenenter"",""1"",""4397""
","
","","","-1","","","19","15445","5999","&#9789;","elianto","#f73b6a7A"," ","-1","0","-10","[]","0","0","4","","","","","","","",""
"pit-trial","91","821748","0.0-2.0-17.2-0.2","battery-v0.2","","""event"",""trial"",""time""
""fullscreenenter"",""1"",""4397""
","
","
","""event"",""trial"",""time""
""fullscreenenter"",""1"",""4397""
","
","","","-1","","","19","15445","5999","&#9789;","elianto","#f73b6a7A"," ","-1","0","-10","[]","0","0","4","","","","","","","",""
"pit-trial","92","825644","0.0-2.0-17.2-1.2","battery-v0.2","","""event"",""trial"",""time""
""fullscreenenter"",""1"",""4397""
","
","
","""event"",""trial"",""time""
""fullscreenenter"",""1"",""4397""
","
","","","1041.800000000745","","","19","15445","5999","&#9789;","elianto","#f73b6a7A"," "," ","1","0","[1892.2000000011176]","1","0","4","","","","","","","",""
"pit-trial","93","829413","0.0-2.0-17.2-2.2","battery-v0.2","","""event"",""trial"",""time""
""fullscreenenter"",""1"",""4397""
","
","
","""event"",""trial"",""time""
""fullscreenenter"",""1"",""4397""
","
","","","914.2999999988824","","","19","15445","5999","&#9789;","elianto","#f73b6a7A"," "," ","1","0","[1764.699999999255]","1","0","4","","","","","","","",""
"pit-trial","94","833996","0.0-2.0-17.2-3.2","battery-v0.2","","""event"",""trial"",""time""
""fullscreenenter"",""1"",""4397""
","
","
","""event"",""trial"",""time""
""fullscreenenter"",""1"",""4397""
","
","","","1728.0999999996275","","","19","15445","5999","&#9789;","elianto","#f73b6a7A"," "," ","1","-10","[2578]","1","0","4","","","","","","","",""
"pit-trial","95","838851","0.0-2.0-17.2-4.2","battery-v0.2","","""event"",""trial"",""time""
""fullscreenenter"",""1"",""4397""
","
","
","""event"",""trial"",""time""
""fullscreenenter"",""1"",""4397""
","
","","","-1","","","19","15445","5999","&#9789;","elianto","#f73b6a7A"," ","-1","0","-10","[]","0","0","4","","","","","","","",""
"pit-trial","96","843708","0.0-2.0-17.3-0.3","battery-v0.2","","""event"",""trial"",""time""
""fullscreenenter"",""1"",""4397""
","
","
","""event"",""trial"",""time""
""fullscreenenter"",""1"",""4397""
","
","","","-1","","","19","15445","5999","&#9789;","elianto","#f73b6a7A"," ","-1","0","-10","[]","0","0","4","","","","","","","",""
"pit-trial","97","848562","0.0-2.0-17.3-1.3","battery-v0.2","","""event"",""trial"",""time""
""fullscreenenter"",""1"",""4397""
","
","
","""event"",""trial"",""time""
""fullscreenenter"",""1"",""4397""
","
","","","-1","","","19","15445","5999","&#9789;","elianto","#f73b6a7A"," ","-1","0","-10","[]","0","0","4","","","","","","","",""
"pit-trial","98","853417","0.0-2.0-17.3-2.3","battery-v0.2","","""event"",""trial"",""time""
""fullscreenenter"",""1"",""4397""
","
","
","""event"",""trial"",""time""
""fullscreenenter"",""1"",""4397""
","
","","","-1","","","19","15445","5999","&#9789;","elianto","#f73b6a7A"," ","-1","0","-10","[]","0","0","4","","","","","","","",""
"pit-trial","99","858271","0.0-2.0-17.3-3.3","battery-v0.2","","""event"",""trial"",""time""
""fullscreenenter"",""1"",""4397""
","
","
","""event"",""trial"",""time""
""fullscreenenter"",""1"",""4397""
","
","","","-1","","","19","15445","5999","&#9789;","elianto","#f73b6a7A"," ","-1","0","0","[]","0","0","4","","","","","","","",""
"pit-trial","100","863126","0.0-2.0-17.3-4.3","battery-v0.2","","""event"",""trial"",""time""
""fullscreenenter"",""1"",""4397""
","
","
","""event"",""trial"",""time""
""fullscreenenter"",""1"",""4397""
","
","","","-1","","","19","15445","5999","&#9789;","elianto","#f73b6a7A"," ","-1","0","-10","[]","0","0","4","","","","","","","",""
"call-function","101","863129","0.0-2.0-18.0","battery-v0.2","","""event"",""trial"",""time""
""fullscreenenter"",""1"",""4397""
","
","
","""event"",""trial"",""time""
""fullscreenenter"",""1"",""4397""
","
","","","","","","","","","","","","","","","","","","","","","","","","","","",""
"pit-instructions","102","965568","0.0-2.0-19.0","battery-v0.2","","""event"",""trial"",""time""
""fullscreenenter"",""1"",""4397""
","
","
","""event"",""trial"",""time""
""fullscreenenter"",""1"",""4397""
","
","","[{""page_index"":0,""viewing_time"":26697.099999999627},{""page_index"":1,""viewing_time"":7246},{""page_index"":2,""viewing_time"":18218.700000001118},{""page_index"":3,""viewing_time"":9178},{""page_index"":4,""viewing_time"":9704.799999998882},{""page_index"":5,""viewing_time"":10069.200000001118},{""page_index"":6,""viewing_time"":9344.799999998882},{""page_index"":7,""viewing_time"":6656.4000000003725},{""page_index"":8,""viewing_time"":5320.700000001118}]","102436.90000000037","","","","","","","","","","","","","","","","","","","","","","","",""
"pit-comprehension","103","971299","0.0-2.0-20.0-0.0","battery-v0.2","","""event"",""trial"",""time""
""fullscreenenter"",""1"",""4397""
","
","
","""event"",""trial"",""time""
""fullscreenenter"",""1"",""4397""
","
","","","5724.0999999996275","[""SPACE""]","0","19","15445","5999","","","","","","","","","","","","","","","","","","",""
"pit-instructions","104","975635","0.0-2.0-20.0-1.0","battery-v0.2","","""event"",""trial"",""time""
""fullscreenenter"",""1"",""4397""
","
","
","""event"",""trial"",""time""
""fullscreenenter"",""1"",""4397""
","
","","[{""page_index"":0,""viewing_time"":4280.300000000745}]","4281","","","","","","","","","","","","","","","","","","","","","","","",""
"pit-comprehension","105","984803","0.0-2.0-21.0-0.0","battery-v0.2","","""event"",""trial"",""time""
""fullscreenenter"",""1"",""4397""
","
","
","""event"",""trial"",""time""
""fullscreenenter"",""1"",""4397""
","
","","","9157.10000000149","[""10""]","0","19","15445","5999","","","","","","","","","","","","","","","","","","",""
"pit-instructions","106","988910","0.0-2.0-21.0-1.0","battery-v0.2","","""event"",""trial"",""time""
""fullscreenenter"",""1"",""4397""
","
","
","""event"",""trial"",""time""
""fullscreenenter"",""1"",""4397""
","
","","[{""page_index"":0,""viewing_time"":4033.5}]","4035","","","","","","","","","","","","","","","","","","","","","","","",""
"pit-comprehension","107","995958","0.0-2.0-22.0-0.0","battery-v0.2","","""event"",""trial"",""time""
""fullscreenenter"",""1"",""4397""
","
","
","""event"",""trial"",""time""
""fullscreenenter"",""1"",""4397""
","
","","","7040.9000000003725","[""-10""]","1","19","15445","5999","","","","","","","","","","","","","","","","","","",""
"pit-instructions","108","1003313","0.0-2.0-22.0-1.0","battery-v0.2","","""event"",""trial"",""time""
""fullscreenenter"",""1"",""4397""
","
","
","""event"",""trial"",""time""
""fullscreenenter"",""1"",""4397""
","
","","[{""page_index"":0,""viewing_time"":7300.699999999255}]","7301.5999999996275","","","","","","","","","","","","","","","","","","","","","","","",""
"pit-instructions","109","1007728","0.0-2.0-22.0-2.0-0.0","battery-v0.2","","""event"",""trial"",""time""
""fullscreenenter"",""1"",""4397""
","
","
","""event"",""trial"",""time""
""fullscreenenter"",""1"",""4397""
","
","","[{""page_index"":0,""viewing_time"":4409.9000000003725}]","4410.5","","","","","","","","","","","","","","","","","","","","","","","",""
"pit-comprehension","110","1014397","0.0-2.0-22.1-0.1","battery-v0.2","","""event"",""trial"",""time""
""fullscreenenter"",""1"",""4397""
","
","
","""event"",""trial"",""time""
""fullscreenenter"",""1"",""4397""
","
","","","6659.700000001118","[""0""]","0","19","15445","5999","","","","","","","","","","","","","","","","","","",""
"pit-instructions","111","1018641","0.0-2.0-22.1-1.1","battery-v0.2","","""event"",""trial"",""time""
""fullscreenenter"",""1"",""4397""
","
","
","""event"",""trial"",""time""
""fullscreenenter"",""1"",""4397""
","
","","[{""page_index"":0,""viewing_time"":4181.199999999255}]","4181.799999998882","","","","","","","","","","","","","","","","","","","","","","","",""
"pit-comprehension","112","1029966","0.0-2.0-23.0-0.0","battery-v0.2","","""event"",""trial"",""time""
""fullscreenenter"",""1"",""4397""
","
","
","""event"",""trial"",""time""
""fullscreenenter"",""1"",""4397""
","
","","","11303.39999999851","[""True""]","0","19","15445","5999","","","","","","","","","","","","","","","","","","",""
"pit-instructions","113","1032002","0.0-2.0-23.0-1.0","battery-v0.2","","""event"",""trial"",""time""
""fullscreenenter"",""1"",""4397""
","
","
","""event"",""trial"",""time""
""fullscreenenter"",""1"",""4397""
","
","","[{""page_index"":0,""viewing_time"":1973.699999999255}]","1974.2999999988824","","","","","","","","","","","","","","","","","","","","","","","",""
"pit-comprehension","114","1063116","0.0-2.0-24.0-0.0","battery-v0.2","","""event"",""trial"",""time""
""fullscreenenter"",""1"",""4397""
","
","
","""event"",""trial"",""time""
""fullscreenenter"",""1"",""4397""
","
","","","31106.60000000149","[""True""]","0","19","15445","5999","","","","","","","","","","","","","","","","","","",""
"pit-instructions","115","1086430","0.0-2.0-24.0-1.0","battery-v0.2","","""event"",""trial"",""time""
""fullscreenenter"",""1"",""4397""
","
","
","""event"",""trial"",""time""
""fullscreenenter"",""1"",""4397""
","
","","[{""page_index"":0,""viewing_time"":23270.5}]","23272.400000000373","","","","","","","","","","","","","","","","","","","","","","","",""
"pit-comprehension","116","1093740","0.0-2.0-25.0-0.0","battery-v0.2","","""event"",""trial"",""time""
""fullscreenenter"",""1"",""4397""
","
","
","""event"",""trial"",""time""
""fullscreenenter"",""1"",""4397""
","
","","","7301.300000000745","[""True""]","0","19","15445","5999","","","","","","","","","","","","","","","","","","",""
"pit-instructions","117","1097783","0.0-2.0-25.0-1.0","battery-v0.2","","""event"",""trial"",""time""
""fullscreenenter"",""1"",""4397""
","
","
","""event"",""trial"",""time""
""fullscreenenter"",""1"",""4397""
","
","","[{""page_index"":0,""viewing_time"":3997.300000000745}]","3998.300000000745","","","","","","","","","","","","","","","","","","","","","","","",""
"pit-comprehension","118","1104442","0.0-2.0-26.0-0.0","battery-v0.2","","""event"",""trial"",""time""
""fullscreenenter"",""1"",""4397""
","
","
","""event"",""trial"",""time""
""fullscreenenter"",""1"",""4397""
","
","","","6651.5","[""True""]","1","19","15445","5999","","","","","","","","","","","","","","","","","","",""
"pit-instructions","119","1111342","0.0-2.0-26.0-1.0","battery-v0.2","","""event"",""trial"",""time""
""fullscreenenter"",""1"",""4397""
","
","
","""event"",""trial"",""time""
""fullscreenenter"",""1"",""4397""
","
","","[{""page_index"":0,""viewing_time"":6851.699999999255}]","6852.699999999255","","","","","","","","","","","","","","","","","","","","","","","",""
"pit-instructions","120","1112366","0.0-2.0-26.0-2.0-0.0","battery-v0.2","","""event"",""trial"",""time""
""fullscreenenter"",""1"",""4397""
","
","
","""event"",""trial"",""time""
""fullscreenenter"",""1"",""4397""
","
","","[{""page_index"":0,""viewing_time"":1019}]","1021.0999999996275","","","","","","","","","","","","","","","","","","","","","","","",""
"pit-comprehension","121","1116998","0.0-2.0-26.1-0.1","battery-v0.2","","""event"",""trial"",""time""
""fullscreenenter"",""1"",""4397""
","
","
","""event"",""trial"",""time""
""fullscreenenter"",""1"",""4397""
","
","","","4626.5999999996275","[""False""]","0","19","15445","5999","","","","","","","","","","","","","","","","","","",""
"pit-instructions","122","1118849","0.0-2.0-26.1-1.1","battery-v0.2","","""event"",""trial"",""time""
""fullscreenenter"",""1"",""4397""
","
","
","""event"",""trial"",""time""
""fullscreenenter"",""1"",""4397""
","
","","[{""page_index"":0,""viewing_time"":1806.2000000011176}]","1806.9000000003725","","","","","","","","","","","","","","","","","","","","","","","",""
"pit-instructions","123","1140124","0.0-3.0","battery-v0.2","","""event"",""trial"",""time""
""fullscreenenter"",""1"",""4397""
","
","
","""event"",""trial"",""time""
""fullscreenenter"",""1"",""4397""
","
","","[{""page_index"":0,""viewing_time"":6797},{""page_index"":1,""viewing_time"":6579.5},{""page_index"":2,""viewing_time"":7894}]","21271.400000000373","","","","","","","","","","","","","","","","","","","","","","","",""
"pit-trial","124","1144985","0.0-4.0","battery-v0.2","","""event"",""trial"",""time""
""fullscreenenter"",""1"",""4397""
","
","
","""event"",""trial"",""time""
""fullscreenenter"",""1"",""4397""
","
","","","-1","","","19","15445","5999","&#9752;","elianto","#f73b6a7A"," ","-1","0","0","[]","0","1","","","15445","1","3","3","lose","go","1"
"pit-trial","125","1149840","0.0-5.0","battery-v0.2","","""event"",""trial"",""time""
""fullscreenenter"",""1"",""4397""
","
","
","""event"",""trial"",""time""
""fullscreenenter"",""1"",""4397""
","
","","","-1","","","19","15445","5999","&#9728;","elianto","#f73b6a7A","-1","-1","1","0","[]","0","1","","","15445","2","0","4","lose","no-go","0"
"pit-trial","126","1153447","0.0-6.0","battery-v0.2","","""event"",""trial"",""time""
""fullscreenenter"",""1"",""4397""
","
","
","""event"",""trial"",""time""
""fullscreenenter"",""1"",""4397""
","
","","","752.1000000014901","","","19","15445","5999","&#9730;","elianto","#3366ff99"," "," ","1","+10","[1602.5]","1","1","","","15445","3","1","1","win","go","0"
"pit-trial","127","1156925","0.0-7.0","battery-v0.2","","""event"",""trial"",""time""
""fullscreenenter"",""1"",""4397""
","
","
","""event"",""trial"",""time""
""fullscreenenter"",""1"",""4397""
","
","","","623.4000000003725","","","19","15445","5999","&#9733;","elianto","#3366ff99","-1"," ","0","+10","[1474]","1","1","","","15445","4","2","2","win","no-go","1"
"pit-trial","128","1160371","0.0-8.0","battery-v0.2","","""event"",""trial"",""time""
""fullscreenenter"",""1"",""4397""
","
","
","""event"",""trial"",""time""
""fullscreenenter"",""1"",""4397""
","
","","","590.6999999992549","","","19","15445","5999","&#9733;","elianto","#3366ff99","-1"," ","0","0","[1440.800000000745]","1","1","","","15445","5","2","2","win","no-go","0"
"pit-trial","129","1163748","0.0-9.0","battery-v0.2","","""event"",""trial"",""time""
""fullscreenenter"",""1"",""4397""
","
","
","""event"",""trial"",""time""
""fullscreenenter"",""1"",""4397""
","
","","","522.6999999992549","","","19","15445","5999","&#9730;","elianto","#3366ff99"," "," ","1","+10","[1372.7999999988824]","1","1","","","15445","6","1","1","win","go","0"
"pit-trial","130","1168602","0.0-10.0","battery-v0.2","","""event"",""trial"",""time""
""fullscreenenter"",""1"",""4397""
","
","
","""event"",""trial"",""time""
""fullscreenenter"",""1"",""4397""
","
","","","-1","","","19","15445","5999","&#9752;","elianto","#f73b6a7A"," ","-1","0","-10","[]","0","1","","","15445","7","3","3","lose","go","0"
"pit-trial","131","1173457","0.0-11.0","battery-v0.2","","""event"",""trial"",""time""
""fullscreenenter"",""1"",""4397""
","
","
","""event"",""trial"",""time""
""fullscreenenter"",""1"",""4397""
","
","","","-1","","","19","15445","5999","&#9728;","elianto","#f73b6a7A","-1","-1","1","0","[]","0","1","","","15445","8","0","4","lose","no-go","0"
"pit-trial","132","1176850","0.0-12.0","battery-v0.2","","""event"",""trial"",""time""
""fullscreenenter"",""1"",""4397""
","
","
","""event"",""trial"",""time""
""fullscreenenter"",""1"",""4397""
","
","","","538.4000000003725","","","19","15445","5999","&#9730;","elianto","#3366ff99"," "," ","1","+10","[1388.5999999996275]","1","1","","","15445","9","1","1","win","go","0"
"pit-trial","133","1181705","0.0-13.0","battery-v0.2","","""event"",""trial"",""time""
""fullscreenenter"",""1"",""4397""
","
","
","""event"",""trial"",""time""
""fullscreenenter"",""1"",""4397""
","
","","","-1","","","19","15445","5999","&#9752;","elianto","#f73b6a7A"," ","-1","0","-10","[]","0","1","","","15445","10","3","3","lose","go","0"
"pit-trial","134","1185140","0.0-14.0","battery-v0.2","","""event"",""trial"",""time""
""fullscreenenter"",""1"",""4397""
","
","
","""event"",""trial"",""time""
""fullscreenenter"",""1"",""4397""
","
","","","580.3000000007451","","","19","15445","5999","&#9733;","elianto","#3366ff99","-1"," ","0","0","[1430.5]","1","1","","","15445","11","2","2","win","no-go","0"
"pit-trial","135","1189994","0.0-15.0","battery-v0.2","","""event"",""trial"",""time""
""fullscreenenter"",""1"",""4397""
","
","
","""event"",""trial"",""time""
""fullscreenenter"",""1"",""4397""
","
","","","-1","","","19","15445","5999","&#9728;","elianto","#f73b6a7A","-1","-1","1","0","[]","0","1","","","15445","12","0","4","lose","no-go","0"
"pit-trial","136","1193377","0.0-16.0","battery-v0.2","","""event"",""trial"",""time""
""fullscreenenter"",""1"",""4397""
","
","
","""event"",""trial"",""time""
""fullscreenenter"",""1"",""4397""
","
","","","528.0999999996275","","","19","15445","5999","&#9733;","elianto","#3366ff99","-1"," ","0","0","[1378.4000000003725]","1","1","","","15445","13","2","2","win","no-go","0"
"pit-trial","137","1196745","0.0-17.0","battery-v0.2","","""event"",""trial"",""time""
""fullscreenenter"",""1"",""4397""
","
","
","""event"",""trial"",""time""
""fullscreenenter"",""1"",""4397""
","
","","","513.1999999992549","","","19","15445","5999","&#9730;","elianto","#3366ff99"," "," ","1","+10","[1363.2000000011176]","1","1","","","15445","14","1","1","win","go","0"
"pit-trial","138","1201606","0.0-18.0","battery-v0.2","","""event"",""trial"",""time""
""fullscreenenter"",""1"",""4397""
","
","
","""event"",""trial"",""time""
""fullscreenenter"",""1"",""4397""
","
","","","-1","","","19","15445","5999","&#9728;","elianto","#f73b6a7A","-1","-1","1","0","[]","0","1","","","15445","15","0","4","lose","no-go","0"
"pit-trial","139","1205820","0.0-19.0","battery-v0.2","","""event"",""trial"",""time""
""fullscreenenter"",""1"",""4397""
","
","
","""event"",""trial"",""time""
""fullscreenenter"",""1"",""4397""
","
","","","1360.0999999996275","","","19","15445","5999","&#9752;","elianto","#f73b6a7A"," "," ","1","-10","[2210]","1","1","","","15445","16","3","3","lose","go","1"
"pit-trial","140","1208857","0.0-20.0","battery-v0.2","","""event"",""trial"",""time""
""fullscreenenter"",""1"",""4397""
","
","
","""event"",""trial"",""time""
""fullscreenenter"",""1"",""4397""
","
","","","181.90000000037253","","","19","15445","5999","&#9733;","elianto","#3366ff99","-1"," ","0","0","[1032.0999999996275]","1","1","","","15445","17","2","2","win","no-go","0"
"pit-trial","141","1211882","0.0-21.0","battery-v0.2","","""event"",""trial"",""time""
""fullscreenenter"",""1"",""4397""
","
","
","""event"",""trial"",""time""
""fullscreenenter"",""1"",""4397""
","
","","","169.90000000037253","","","19","15445","5999","&#9728;","elianto","#f73b6a7A","-1"," ","0","-10","[1021.0999999996275]","1","1","","","15445","18","0","4","lose","no-go","0"
"pit-trial","142","1216738","0.0-22.0","battery-v0.2","","""event"",""trial"",""time""
""fullscreenenter"",""1"",""4397""
","
","
","""event"",""trial"",""time""
""fullscreenenter"",""1"",""4397""
","
","","","-1","","","19","15445","5999","&#9752;","elianto","#f73b6a7A"," ","-1","0","-10","[]","0","1","","","15445","19","3","3","lose","go","0"
"pit-trial","143","1220217","0.0-23.0","battery-v0.2","","""event"",""trial"",""time""
""fullscreenenter"",""1"",""4397""
","
","
","""event"",""trial"",""time""
""fullscreenenter"",""1"",""4397""
","
","","","623.5999999996275","","","19","15445","5999","&#9730;","elianto","#3366ff99"," "," ","1","+10","[1474.0999999996275]","1","1","","","15445","20","1","1","win","go","0"
"pit-instructions","144","1233988","0.0-24.0","battery-v0.2","","""event"",""trial"",""time""
""fullscreenenter"",""1"",""4397""
","
","
","""event"",""trial"",""time""
""fullscreenenter"",""1"",""4397""
","
","","[{""page_index"":0,""viewing_time"":5948.200000001118},{""page_index"":1,""viewing_time"":7818.5}]","13767.400000000373","","","","","","","","","","","","","","","","","","","","","","","",""
"pit-trial","145","1238845","0.0-25.0","battery-v0.2","","""event"",""trial"",""time""
""fullscreenenter"",""1"",""4397""
","
","
","""event"",""trial"",""time""
""fullscreenenter"",""1"",""4397""
","
","","","-1","","","19","15445","5999","j","elianto","#f73b6a7A"," ","-1","0","-10","[]","0","2","","","15445","21","0","3","lose","go","0"
"pit-trial","146","1243700","0.0-26.0","battery-v0.2","","""event"",""trial"",""time""
""fullscreenenter"",""1"",""4397""
","
","
","""event"",""trial"",""time""
""fullscreenenter"",""1"",""4397""
","
","","","-1","","","19","15445","5999","w","elianto","#f73b6a7A","-1","-1","1","0","[]","0","2","","","15445","22","3","4","lose","no-go","0"
"pit-trial","147","1247202","0.0-27.0","battery-v0.2","","""event"",""trial"",""time""
""fullscreenenter"",""1"",""4397""
","
","
","""event"",""trial"",""time""
""fullscreenenter"",""1"",""4397""
","
","","","646.9000000003725","","","19","15445","5999","d","elianto","#3366ff99","-1"," ","0","0","[1497.0999999996275]","1","2","","","15445","23","1","2","win","no-go","0"
"pit-trial","148","1252056","0.0-28.0","battery-v0.2","","""event"",""trial"",""time""
""fullscreenenter"",""1"",""4397""
","
","
","""event"",""trial"",""time""
""fullscreenenter"",""1"",""4397""
","
","","","-1","","","19","15445","5999","e","elianto","#f73b6a7A"," ","-1","0","-10","[]","0","2","","","15445","24","2","3","lose","go","0"
"pit-trial","149","1256910","0.0-29.0","battery-v0.2","","""event"",""trial"",""time""
""fullscreenenter"",""1"",""4397""
","
","
","""event"",""trial"",""time""
""fullscreenenter"",""1"",""4397""
","
","","","-1","","","19","15445","5999","w","elianto","#f73b6a7A","-1","-1","1","0","[]","0","2","","","15445","25","3","4","lose","no-go","0"
"pit-trial","150","1260304","0.0-30.0","battery-v0.2","","""event"",""trial"",""time""
""fullscreenenter"",""1"",""4397""
","
","
","""event"",""trial"",""time""
""fullscreenenter"",""1"",""4397""
","
","","","536.7999999988824","","","19","15445","5999","d","elianto","#3366ff99","-1"," ","0","0","[1389.5]","1","2","","","15445","26","1","2","win","no-go","0"
"pit-trial","151","1265160","0.0-31.0","battery-v0.2","","""event"",""trial"",""time""
""fullscreenenter"",""1"",""4397""
","
","
","""event"",""trial"",""time""
""fullscreenenter"",""1"",""4397""
","
","","","-1","","","19","15445","5999","e","elianto","#f73b6a7A"," ","-1","0","0","[]","0","2","","","15445","27","2","3","lose","go","1"
"pit-trial","152","1270015","0.0-32.0","battery-v0.2","","""event"",""trial"",""time""
""fullscreenenter"",""1"",""4397""
","
","
","""event"",""trial"",""time""
""fullscreenenter"",""1"",""4397""
","
","","","-1","","","19","15445","5999","j","elianto","#f73b6a7A"," ","-1","0","-10","[]","0","2","","","15445","28","0","3","lose","go","0"
"pit-trial","153","1273447","0.0-33.0","battery-v0.2","","""event"",""trial"",""time""
""fullscreenenter"",""1"",""4397""
","
","
","""event"",""trial"",""time""
""fullscreenenter"",""1"",""4397""
","
","","","577.7000000011176","","","19","15445","5999","d","elianto","#3366ff99","-1"," ","0","+10","[1427.800000000745]","1","2","","","15445","29","1","2","win","no-go","1"
"pit-trial","154","1278302","0.0-34.0","battery-v0.2","","""event"",""trial"",""time""
""fullscreenenter"",""1"",""4397""
","
","
","""event"",""trial"",""time""
""fullscreenenter"",""1"",""4397""
","
","","","-1","","","19","15445","5999","j","elianto","#f73b6a7A"," ","-1","0","-10","[]","0","2","","","15445","30","0","3","lose","go","0"
"pit-trial","155","1283157","0.0-35.0","battery-v0.2","","""event"",""trial"",""time""
""fullscreenenter"",""1"",""4397""
","
","
","""event"",""trial"",""time""
""fullscreenenter"",""1"",""4397""
","
","","","-1","","","19","15445","5999","e","elianto","#f73b6a7A"," ","-1","0","-10","[]","0","2","","","15445","31","2","3","lose","go","0"
"pit-trial","156","1288012","0.0-36.0","battery-v0.2","","""event"",""trial"",""time""
""fullscreenenter"",""1"",""4397""
","
","
","""event"",""trial"",""time""
""fullscreenenter"",""1"",""4397""
","
","","","-1","","","19","15445","5999","w","elianto","#f73b6a7A","-1","-1","1","0","[]","0","2","","","15445","32","3","4","lose","no-go","0"
"pit-trial","157","1291453","0.0-37.0","battery-v0.2","","""event"",""trial"",""time""
""fullscreenenter"",""1"",""4397""
","
","
","""event"",""trial"",""time""
""fullscreenenter"",""1"",""4397""
","
","","","585.2000000011176","","","19","15445","5999","d","elianto","#3366ff99","-1"," ","0","0","[1435.5999999996275]","1","2","","","15445","33","1","2","win","no-go","0"
"pit-trial","158","1296307","0.0-38.0","battery-v0.2","","""event"",""trial"",""time""
""fullscreenenter"",""1"",""4397""
","
","
","""event"",""trial"",""time""
""fullscreenenter"",""1"",""4397""
","
","","","-1","","","19","15445","5999","w","elianto","#f73b6a7A","-1","-1","1","0","[]","0","2","","","15445","34","3","4","lose","no-go","0"
"pit-trial","159","1301163","0.0-39.0","battery-v0.2","","""event"",""trial"",""time""
""fullscreenenter"",""1"",""4397""
","
","
","""event"",""trial"",""time""
""fullscreenenter"",""1"",""4397""
","
","","","-1","","","19","15445","5999","j","elianto","#f73b6a7A"," ","-1","0","-10","[]","0","2","","","15445","35","0","3","lose","go","0"
"pit-trial","160","1306018","0.0-40.0","battery-v0.2","","""event"",""trial"",""time""
""fullscreenenter"",""1"",""4397""
","
","
","""event"",""trial"",""time""
""fullscreenenter"",""1"",""4397""
","
","","","-1","","","19","15445","5999","e","elianto","#f73b6a7A"," ","-1","0","0","[]","0","2","","","15445","36","2","3","lose","go","1"
"pit-trial","161","1310872","0.0-41.0","battery-v0.2","","""event"",""trial"",""time""
""fullscreenenter"",""1"",""4397""
","
","
","""event"",""trial"",""time""
""fullscreenenter"",""1"",""4397""
","
","","","-1","","","19","15445","5999","e","elianto","#f73b6a7A"," ","-1","0","0","[]","0","2","","","15445","37","2","3","lose","go","1"
"pit-trial","162","1314417","0.0-42.0","battery-v0.2","","""event"",""trial"",""time""
""fullscreenenter"",""1"",""4397""
","
","
","""event"",""trial"",""time""
""fullscreenenter"",""1"",""4397""
","
","","","690","","","19","15445","5999","d","elianto","#3366ff99","-1"," ","0","+10","[1540.4000000003725,2113,2555.5999999996275]","3","2","","","15445","38","1","2","win","no-go","1"
"pit-trial","163","1319272","0.0-43.0","battery-v0.2","","""event"",""trial"",""time""
""fullscreenenter"",""1"",""4397""
","
","
","""event"",""trial"",""time""
""fullscreenenter"",""1"",""4397""
","
","","","-1","","","19","15445","5999","j","elianto","#f73b6a7A"," ","-1","0","-10","[]","0","2","","","15445","39","0","3","lose","go","0"
"pit-trial","164","1324126","0.0-44.0","battery-v0.2","","""event"",""trial"",""time""
""fullscreenenter"",""1"",""4397""
","
","
","""event"",""trial"",""time""
""fullscreenenter"",""1"",""4397""
","
","","","-1","","","19","15445","5999","w","elianto","#f73b6a7A","-1","-1","1","0","[]","0","2","","","15445","40","3","4","lose","no-go","0"
"pit-trial","165","1328979","0.0-45.0","battery-v0.2","","""event"",""trial"",""time""
""fullscreenenter"",""1"",""4397""
","
","
","""event"",""trial"",""time""
""fullscreenenter"",""1"",""4397""
","
","","","-1","","","19","15445","5999","w","elianto","#f73b6a7A","-1","-1","1","0","[]","0","2","","","15445","41","3","4","lose","no-go","0"
"pit-trial","166","1333834","0.0-46.0","battery-v0.2","","""event"",""trial"",""time""
""fullscreenenter"",""1"",""4397""
","
","
","""event"",""trial"",""time""
""fullscreenenter"",""1"",""4397""
","
","","","-1","","","19","15445","5999","j","elianto","#f73b6a7A"," ","-1","0","-10","[]","0","2","","","15445","42","0","3","lose","go","0"
"pit-trial","167","1338688","0.0-47.0","battery-v0.2","","""event"",""trial"",""time""
""fullscreenenter"",""1"",""4397""
","
","
","""event"",""trial"",""time""
""fullscreenenter"",""1"",""4397""
","
","","","-1","","","19","15445","5999","e","elianto","#f73b6a7A"," ","-1","0","-10","[]","0","2","","","15445","43","2","3","lose","go","0"
"pit-trial","168","1342210","0.0-48.0","battery-v0.2","","""event"",""trial"",""time""
""fullscreenenter"",""1"",""4397""
","
","
","""event"",""trial"",""time""
""fullscreenenter"",""1"",""4397""
","
","","","663.0999999996275","","","19","15445","5999","d","elianto","#3366ff99","-1"," ","0","0","[1516.9000000003725]","1","2","","","15445","44","1","2","win","no-go","0"
"pit-trial","169","1347065","0.0-49.0","battery-v0.2","","""event"",""trial"",""time""
""fullscreenenter"",""1"",""4397""
","
","
","""event"",""trial"",""time""
""fullscreenenter"",""1"",""4397""
","
","","","-1","","","19","15445","5999","e","elianto","#f73b6a7A"," ","-1","0","-10","[]","0","2","","","15445","45","2","3","lose","go","0"
"pit-trial","170","1350704","0.0-50.0","battery-v0.2","","""event"",""trial"",""time""
""fullscreenenter"",""1"",""4397""
","
","
","""event"",""trial"",""time""
""fullscreenenter"",""1"",""4397""
","
","","","784.8000000007451","","","19","15445","5999","d","elianto","#3366ff99","-1"," ","0","0","[1635]","1","2","","","15445","46","1","2","win","no-go","0"
"pit-trial","171","1355559","0.0-51.0","battery-v0.2","","""event"",""trial"",""time""
""fullscreenenter"",""1"",""4397""
","
","
","""event"",""trial"",""time""
""fullscreenenter"",""1"",""4397""
","
","","","-1","","","19","15445","5999","j","elianto","#f73b6a7A"," ","-1","0","0","[]","0","2","","","15445","47","0","3","lose","go","1"
"pit-trial","172","1360414","0.0-52.0","battery-v0.2","","""event"",""trial"",""time""
""fullscreenenter"",""1"",""4397""
","
","
","""event"",""trial"",""time""
""fullscreenenter"",""1"",""4397""
","
","","","-1","","","19","15445","5999","w","elianto","#f73b6a7A","-1","-1","1","0","[]","0","2","","","15445","48","3","4","lose","no-go","0"
"pit-trial","173","1365270","0.0-53.0","battery-v0.2","","""event"",""trial"",""time""
""fullscreenenter"",""1"",""4397""
","
","
","""event"",""trial"",""time""
""fullscreenenter"",""1"",""4397""
","
","","","-1","","","19","15445","5999","w","elianto","#f73b6a7A","-1","-1","1","0","[]","0","2","","","15445","49","3","4","lose","no-go","0"
"pit-trial","174","1370125","0.0-54.0","battery-v0.2","","""event"",""trial"",""time""
""fullscreenenter"",""1"",""4397""
","
","
","""event"",""trial"",""time""
""fullscreenenter"",""1"",""4397""
","
","","","-1","","","19","15445","5999","e","elianto","#f73b6a7A"," ","-1","0","-10","[]","0","2","","","15445","50","2","3","lose","go","0"
"pit-trial","175","1373494","0.0-55.0","battery-v0.2","","""event"",""trial"",""time""
""fullscreenenter"",""1"",""4397""
","
","
","""event"",""trial"",""time""
""fullscreenenter"",""1"",""4397""
","
","","","514.0999999996275","","","19","15445","5999","d","elianto","#3366ff99","-1"," ","0","0","[1364.5]","1","2","","","15445","51","1","2","win","no-go","0"
"pit-trial","176","1378349","0.0-56.0","battery-v0.2","","""event"",""trial"",""time""
""fullscreenenter"",""1"",""4397""
","
","
","""event"",""trial"",""time""
""fullscreenenter"",""1"",""4397""
","
","","","-1","","","19","15445","5999","j","elianto","#f73b6a7A"," ","-1","0","-10","[]","0","2","","","15445","52","0","3","lose","go","0"
"pit-trial","177","1381866","0.0-57.0","battery-v0.2","","""event"",""trial"",""time""
""fullscreenenter"",""1"",""4397""
","
","
","""event"",""trial"",""time""
""fullscreenenter"",""1"",""4397""
","
","","","662.6999999992549","","","19","15445","5999","d","elianto","#3366ff99","-1"," ","0","0","[1512.7999999988824]","1","2","","","15445","53","1","2","win","no-go","0"
"pit-trial","178","1386721","0.0-58.0","battery-v0.2","","""event"",""trial"",""time""
""fullscreenenter"",""1"",""4397""
","
","
","""event"",""trial"",""time""
""fullscreenenter"",""1"",""4397""
","
","","","-1","","","19","15445","5999","w","elianto","#f73b6a7A","-1","-1","1","0","[]","0","2","","","15445","54","3","4","lose","no-go","0"
"pit-trial","179","1391576","0.0-59.0","battery-v0.2","","""event"",""trial"",""time""
""fullscreenenter"",""1"",""4397""
","
","
","""event"",""trial"",""time""
""fullscreenenter"",""1"",""4397""
","
","","","-1","","","19","15445","5999","j","elianto","#f73b6a7A"," ","-1","0","-10","[]","0","2","","","15445","55","0","3","lose","go","0"
"pit-trial","180","1396431","0.0-60.0","battery-v0.2","","""event"",""trial"",""time""
""fullscreenenter"",""1"",""4397""
","
","
","""event"",""trial"",""time""
""fullscreenenter"",""1"",""4397""
","
","","","-1","","","19","15445","5999","e","elianto","#f73b6a7A"," ","-1","0","-10","[]","0","2","","","15445","56","2","3","lose","go","0"
"pit-trial","181","1401286","0.0-61.0","battery-v0.2","","""event"",""trial"",""time""
""fullscreenenter"",""1"",""4397""
","
","
","""event"",""trial"",""time""
""fullscreenenter"",""1"",""4397""
","
","","","-1","","","19","15445","5999","w","elianto","#f73b6a7A","-1","-1","1","-10","[]","0","2","","","15445","57","3","4","lose","no-go","1"
"pit-trial","182","1406141","0.0-62.0","battery-v0.2","","""event"",""trial"",""time""
""fullscreenenter"",""1"",""4397""
","
","
","""event"",""trial"",""time""
""fullscreenenter"",""1"",""4397""
","
","","","-1","","","19","15445","5999","e","elianto","#f73b6a7A"," ","-1","0","-10","[]","0","2","","","15445","58","2","3","lose","go","0"
"pit-trial","183","1409495","0.0-63.0","battery-v0.2","","""event"",""trial"",""time""
""fullscreenenter"",""1"",""4397""
","
","
","""event"",""trial"",""time""
""fullscreenenter"",""1"",""4397""
","
","","","498.90000000037253","","","19","15445","5999","s","elianto","#3366ff99"," "," ","1","0","[1349.199999999255]","1","2","","","15445","59","4","1","win","go","1"
"pit-trial","184","1414349","0.0-64.0","battery-v0.2","","""event"",""trial"",""time""
""fullscreenenter"",""1"",""4397""
","
","
","""event"",""trial"",""time""
""fullscreenenter"",""1"",""4397""
","
","","","-1","","","19","15445","5999","j","elianto","#f73b6a7A"," ","-1","0","0","[]","0","2","","","15445","60","0","3","lose","go","1"
"pit-trial","185","1419204","0.0-65.0","battery-v0.2","","""event"",""trial"",""time""
""fullscreenenter"",""1"",""4397""
","
","
","""event"",""trial"",""time""
""fullscreenenter"",""1"",""4397""
","
","","","-1","","","19","15445","5999","e","elianto","#f73b6a7A"," ","-1","0","-10","[]","0","2","","","15445","61","2","3","lose","go","0"
"pit-trial","186","1422542","0.0-66.0","battery-v0.2","","""event"",""trial"",""time""
""fullscreenenter"",""1"",""4397""
","
","
","""event"",""trial"",""time""
""fullscreenenter"",""1"",""4397""
","
","","","482.2000000011176","","","19","15445","5999","d","elianto","#3366ff99","-1"," ","0","0","[1333.4000000003725,1724.699999999255,2102.0999999996275]","3","2","","","15445","62","1","2","win","no-go","0"
"pit-trial","187","1425924","0.0-67.0","battery-v0.2","","""event"",""trial"",""time""
""fullscreenenter"",""1"",""4397""
","
","
","""event"",""trial"",""time""
""fullscreenenter"",""1"",""4397""
","
","","","527.0999999996275","","","19","15445","5999","s","elianto","#3366ff99"," "," ","1","+10","[1377.1000000014901]","1","2","","","15445","63","4","1","win","go","0"
"pit-trial","188","1430779","0.0-68.0","battery-v0.2","","""event"",""trial"",""time""
""fullscreenenter"",""1"",""4397""
","
","
","""event"",""trial"",""time""
""fullscreenenter"",""1"",""4397""
","
","","","-1","","","19","15445","5999","w","elianto","#f73b6a7A","-1","-1","1","0","[]","0","2","","","15445","64","3","4","lose","no-go","0"
"pit-trial","189","1434140","0.0-69.0","battery-v0.2","","""event"",""trial"",""time""
""fullscreenenter"",""1"",""4397""
","
","
","""event"",""trial"",""time""
""fullscreenenter"",""1"",""4397""
","
","","","506.1000000014901","","","19","15445","5999","s","elianto","#3366ff99"," "," ","1","0","[1356.5]","1","2","","","15445","65","4","1","win","go","1"
"pit-trial","190","1437479","0.0-70.0","battery-v0.2","","""event"",""trial"",""time""
""fullscreenenter"",""1"",""4397""
","
","
","""event"",""trial"",""time""
""fullscreenenter"",""1"",""4397""
","
","","","485.2999999988824","","","19","15445","5999","p","elianto","#3366ff99","-1"," ","0","0","[1335.5]","1","2","","","15445","66","5","2","win","no-go","0"
"pit-trial","191","1442334","0.0-71.0","battery-v0.2","","""event"",""trial"",""time""
""fullscreenenter"",""1"",""4397""
","
","
","""event"",""trial"",""time""
""fullscreenenter"",""1"",""4397""
","
","","","-1","","","19","15445","5999","w","elianto","#f73b6a7A","-1","-1","1","-10","[]","0","2","","","15445","67","3","4","lose","no-go","1"
"pit-trial","192","1446157","0.0-72.0","battery-v0.2","","""event"",""trial"",""time""
""fullscreenenter"",""1"",""4397""
","
","
","""event"",""trial"",""time""
""fullscreenenter"",""1"",""4397""
","
","","","966","","","19","15445","5999","d","elianto","#3366ff99","-1"," ","0","+10","[1819.2000000011176]","1","2","","","15445","68","1","2","win","no-go","1"
"pit-trial","193","1451011","0.0-73.0","battery-v0.2","","""event"",""trial"",""time""
""fullscreenenter"",""1"",""4397""
","
","
","""event"",""trial"",""time""
""fullscreenenter"",""1"",""4397""
","
","","","-1","","","19","15445","5999","e","elianto","#f73b6a7A"," ","-1","0","0","[]","0","2","","","15445","69","2","3","lose","go","1"
"pit-trial","194","1454560","0.0-74.0","battery-v0.2","","""event"",""trial"",""time""
""fullscreenenter"",""1"",""4397""
","
","
","""event"",""trial"",""time""
""fullscreenenter"",""1"",""4397""
","
","","","695.0999999996275","","","19","15445","5999","d","elianto","#3366ff99","-1"," ","0","+10","[1545.300000000745,3095.2000000011176]","2","2","","","15445","70","1","2","win","no-go","1"
"pit-trial","195","1458005","0.0-75.0","battery-v0.2","","""event"",""trial"",""time""
""fullscreenenter"",""1"",""4397""
","
","
","""event"",""trial"",""time""
""fullscreenenter"",""1"",""4397""
","
","","","589.7999999988824","","","19","15445","5999","p","elianto","#3366ff99","-1"," ","0","0","[1440]","1","2","","","15445","71","5","2","win","no-go","0"
"pit-trial","196","1462860","0.0-76.0","battery-v0.2","","""event"",""trial"",""time""
""fullscreenenter"",""1"",""4397""
","
","
","""event"",""trial"",""time""
""fullscreenenter"",""1"",""4397""
","
","","","-1","","","19","15445","5999","s","elianto","#3366ff99"," ","-1","0","0","[]","0","2","","","15445","72","4","1","win","go","0"
"pit-trial","197","1467715","0.0-77.0","battery-v0.2","","""event"",""trial"",""time""
""fullscreenenter"",""1"",""4397""
","
","
","""event"",""trial"",""time""
""fullscreenenter"",""1"",""4397""
","
","","","-1","","","19","15445","5999","w","elianto","#f73b6a7A","-1","-1","1","0","[]","0","2","","","15445","73","3","4","lose","no-go","0"
"pit-trial","198","1471181","0.0-78.0","battery-v0.2","","""event"",""trial"",""time""
""fullscreenenter"",""1"",""4397""
","
","
","""event"",""trial"",""time""
""fullscreenenter"",""1"",""4397""
","
","","","605.9000000003725","","","19","15445","5999","d","elianto","#3366ff99","-1"," ","0","+10","[1461.9000000003725]","1","2","","","15445","74","1","2","win","no-go","1"
"pit-trial","199","1474704","0.0-79.0","battery-v0.2","","""event"",""trial"",""time""
""fullscreenenter"",""1"",""4397""
","
","
","""event"",""trial"",""time""
""fullscreenenter"",""1"",""4397""
","
","","","669.9000000003725","","","19","15445","5999","s","elianto","#3366ff99"," "," ","1","0","[1520]","1","2","","","15445","75","4","1","win","go","1"
"pit-trial","200","1479559","0.0-80.0","battery-v0.2","","""event"",""trial"",""time""
""fullscreenenter"",""1"",""4397""
","
","
","""event"",""trial"",""time""
""fullscreenenter"",""1"",""4397""
","
","","","-1","","","19","15445","5999","p","elianto","#3366ff99","-1","-1","1","+10","[3485.5999999996275,3867.4000000003725,4264.5999999996275]","3","2","","","15445","76","5","2","win","no-go","0"
"pit-trial","201","1483015","0.0-81.0","battery-v0.2","","""event"",""trial"",""time""
""fullscreenenter"",""1"",""4397""
","
","
","""event"",""trial"",""time""
""fullscreenenter"",""1"",""4397""
","
","","","602.4000000003725","","","19","15445","5999","p","elianto","#3366ff99","-1"," ","0","+10","[1452.5]","1","2","","","15445","77","5","2","win","no-go","1"
"pit-trial","202","1487870","0.0-82.0","battery-v0.2","","""event"",""trial"",""time""
""fullscreenenter"",""1"",""4397""
","
","
","""event"",""trial"",""time""
""fullscreenenter"",""1"",""4397""
","
","","","-1","","","19","15445","5999","w","elianto","#f73b6a7A","-1","-1","1","0","[]","0","2","","","15445","78","3","4","lose","no-go","0"
"pit-trial","203","1491271","0.0-83.0","battery-v0.2","","""event"",""trial"",""time""
""fullscreenenter"",""1"",""4397""
","
","
","""event"",""trial"",""time""
""fullscreenenter"",""1"",""4397""
","
","","","545.7000000011176","","","19","15445","5999","s","elianto","#3366ff99"," "," ","1","+10","[1396.5]","1","2","","","15445","79","4","1","win","go","0"
"pit-trial","204","1494626","0.0-84.0","battery-v0.2","","""event"",""trial"",""time""
""fullscreenenter"",""1"",""4397""
","
","
","""event"",""trial"",""time""
""fullscreenenter"",""1"",""4397""
","
","","","499.80000000074506","","","19","15445","5999","s","elianto","#3366ff99"," "," ","1","0","[1350.1000000014901]","1","2","","","15445","80","4","1","win","go","1"
"pit-trial","205","1499482","0.0-85.0","battery-v0.2","","""event"",""trial"",""time""
""fullscreenenter"",""1"",""4397""
","
","
","""event"",""trial"",""time""
""fullscreenenter"",""1"",""4397""
","
","","","-1","","","19","15445","5999","a","elianto","#f73b6a7A","-1","-1","1","0","[]","0","2","","","15445","81","7","4","lose","no-go","0"
"pit-trial","206","1502953","0.0-86.0","battery-v0.2","","""event"",""trial"",""time""
""fullscreenenter"",""1"",""4397""
","
","
","""event"",""trial"",""time""
""fullscreenenter"",""1"",""4397""
","
","","","614.7999999988824","","","19","15445","5999","p","elianto","#3366ff99","-1"," ","0","0","[1466.699999999255,1838.699999999255]","2","2","","","15445","82","5","2","win","no-go","0"
"pit-trial","207","1507808","0.0-87.0","battery-v0.2","","""event"",""trial"",""time""
""fullscreenenter"",""1"",""4397""
","
","
","""event"",""trial"",""time""
""fullscreenenter"",""1"",""4397""
","
","","","-1","","","19","15445","5999","w","elianto","#f73b6a7A","-1","-1","1","0","[]","0","2","","","15445","83","3","4","lose","no-go","0"
"pit-trial","208","1511267","0.0-88.0","battery-v0.2","","""event"",""trial"",""time""
""fullscreenenter"",""1"",""4397""
","
","
","""event"",""trial"",""time""
""fullscreenenter"",""1"",""4397""
","
","","","604.0999999996275","","","19","15445","5999","s","elianto","#3366ff99"," "," ","1","+10","[1454.5]","1","2","","","15445","84","4","1","win","go","0"
"pit-trial","209","1516122","0.0-89.0","battery-v0.2","","""event"",""trial"",""time""
""fullscreenenter"",""1"",""4397""
","
","
","""event"",""trial"",""time""
""fullscreenenter"",""1"",""4397""
","
","","","-1","","","19","15445","5999","g","elianto","#f73b6a7A"," ","-1","0","-10","[]","0","2","","","15445","85","6","3","lose","go","0"
"pit-trial","210","1520977","0.0-90.0","battery-v0.2","","""event"",""trial"",""time""
""fullscreenenter"",""1"",""4397""
","
","
","""event"",""trial"",""time""
""fullscreenenter"",""1"",""4397""
","
","","","-1","","","19","15445","5999","a","elianto","#f73b6a7A","-1","-1","1","0","[]","0","2","","","15445","86","7","4","lose","no-go","0"
"pit-trial","211","1524336","0.0-91.0","battery-v0.2","","""event"",""trial"",""time""
""fullscreenenter"",""1"",""4397""
","
","
","""event"",""trial"",""time""
""fullscreenenter"",""1"",""4397""
","
","","","505","","","19","15445","5999","s","elianto","#3366ff99"," "," ","1","0","[1355.3999999985099,1750.699999999255]","2","2","","","15445","87","4","1","win","go","1"
"pit-trial","212","1527997","0.0-92.0","battery-v0.2","","""event"",""trial"",""time""
""fullscreenenter"",""1"",""4397""
","
","
","""event"",""trial"",""time""
""fullscreenenter"",""1"",""4397""
","
","","","805.0999999996275","","","19","15445","5999","p","elianto","#3366ff99","-1"," ","0","+10","[1655.300000000745]","1","2","","","15445","88","5","2","win","no-go","1"
"pit-trial","213","1532851","0.0-93.0","battery-v0.2","","""event"",""trial"",""time""
""fullscreenenter"",""1"",""4397""
","
","
","""event"",""trial"",""time""
""fullscreenenter"",""1"",""4397""
","
","","","-1","","","19","15445","5999","g","elianto","#f73b6a7A"," ","-1","0","-10","[]","0","2","","","15445","89","6","3","lose","go","0"
"pit-trial","214","1537706","0.0-94.0","battery-v0.2","","""event"",""trial"",""time""
""fullscreenenter"",""1"",""4397""
","
","
","""event"",""trial"",""time""
""fullscreenenter"",""1"",""4397""
","
","","","-1","","","19","15445","5999","a","elianto","#f73b6a7A","-1","-1","1","-10","[]","0","2","","","15445","90","7","4","lose","no-go","1"
"pit-trial","215","1541400","0.0-95.0","battery-v0.2","","""event"",""trial"",""time""
""fullscreenenter"",""1"",""4397""
","
","
","""event"",""trial"",""time""
""fullscreenenter"",""1"",""4397""
","
","","","838.8000000007451","","","19","15445","5999","p","elianto","#3366ff99","-1"," ","0","0","[1688.800000000745]","1","2","","","15445","91","5","2","win","no-go","0"
"pit-trial","216","1544906","0.0-96.0","battery-v0.2","","""event"",""trial"",""time""
""fullscreenenter"",""1"",""4397""
","
","
","""event"",""trial"",""time""
""fullscreenenter"",""1"",""4397""
","
","","","651.4000000003725","","","19","15445","5999","s","elianto","#3366ff99"," "," ","1","+10","[1501.699999999255]","1","2","","","15445","92","4","1","win","go","0"
"pit-trial","217","1548373","0.0-97.0","battery-v0.2","","""event"",""trial"",""time""
""fullscreenenter"",""1"",""4397""
","
","
","""event"",""trial"",""time""
""fullscreenenter"",""1"",""4397""
","
","","","611.8000000007451","","","19","15445","5999","p","elianto","#3366ff99","-1"," ","0","0","[1462.1000000014901]","1","2","","","15445","93","5","2","win","no-go","0"
"pit-trial","218","1553228","0.0-98.0","battery-v0.2","","""event"",""trial"",""time""
""fullscreenenter"",""1"",""4397""
","
","
","""event"",""trial"",""time""
""fullscreenenter"",""1"",""4397""
","
","","","-1","","","19","15445","5999","a","elianto","#f73b6a7A","-1","-1","1","-10","[]","0","2","","","15445","94","7","4","lose","no-go","1"
"pit-trial","219","1558083","0.0-99.0","battery-v0.2","","""event"",""trial"",""time""
""fullscreenenter"",""1"",""4397""
","
","
","""event"",""trial"",""time""
""fullscreenenter"",""1"",""4397""
","
","","","-1","","","19","15445","5999","g","elianto","#f73b6a7A"," ","-1","0","-10","[]","0","2","","","15445","95","6","3","lose","go","0"
"pit-trial","220","1561688","0.0-100.0","battery-v0.2","","""event"",""trial"",""time""
""fullscreenenter"",""1"",""4397""
","
","
","""event"",""trial"",""time""
""fullscreenenter"",""1"",""4397""
","
","","","749.2999999988824","","","19","15445","5999","l","elianto","#3366ff99"," "," ","1","+10","[1599.5999999996275,1976.5999999996275]","2","2","","","15445","96","8","1","win","go","0"
"pit-trial","221","1566542","0.0-101.0","battery-v0.2","","""event"",""trial"",""time""
""fullscreenenter"",""1"",""4397""
","
","
","""event"",""trial"",""time""
""fullscreenenter"",""1"",""4397""
","
","","","-1","","","19","15445","5999","a","elianto","#f73b6a7A","-1","-1","1","0","[]","0","2","","","15445","97","7","4","lose","no-go","0"
"pit-trial","222","1571397","0.0-102.0","battery-v0.2","","""event"",""trial"",""time""
""fullscreenenter"",""1"",""4397""
","
","
","""event"",""trial"",""time""
""fullscreenenter"",""1"",""4397""
","
","","","-1","","","19","15445","5999","g","elianto","#f73b6a7A"," ","-1","0","-10","[]","0","2","","","15445","98","6","3","lose","go","0"
"pit-trial","223","1574930","0.0-103.0","battery-v0.2","","""event"",""trial"",""time""
""fullscreenenter"",""1"",""4397""
","
","
","""event"",""trial"",""time""
""fullscreenenter"",""1"",""4397""
","
","","","677.5","","","19","15445","5999","l","elianto","#3366ff99"," "," ","1","+10","[1527.5]","1","2","","","15445","99","8","1","win","go","0"
"pit-trial","224","1578310","0.0-104.0","battery-v0.2","","""event"",""trial"",""time""
""fullscreenenter"",""1"",""4397""
","
","
","""event"",""trial"",""time""
""fullscreenenter"",""1"",""4397""
","
","","","524.4000000003725","","","19","15445","5999","p","elianto","#3366ff99","-1"," ","0","+10","[1375.6000000014901]","1","2","","","15445","100","5","2","win","no-go","1"
"pit-trial","225","1581882","0.0-105.0","battery-v0.2","","""event"",""trial"",""time""
""fullscreenenter"",""1"",""4397""
","
","
","""event"",""trial"",""time""
""fullscreenenter"",""1"",""4397""
","
","","","713.8000000007451","","","19","15445","5999","l","elianto","#3366ff99"," "," ","1","0","[1567.5,2727.0999999996275]","2","2","","","15445","101","8","1","win","go","1"
"pit-trial","226","1585514","0.0-106.0","battery-v0.2","","""event"",""trial"",""time""
""fullscreenenter"",""1"",""4397""
","
","
","""event"",""trial"",""time""
""fullscreenenter"",""1"",""4397""
","
","","","777.3000000007451","","","19","15445","5999","u","elianto","#3366ff99"," "," ","1","+10","[1627.699999999255,2944.89999999851]","2","2","","","15445","102","9","1","win","go","0"
"pit-trial","227","1590369","0.0-107.0","battery-v0.2","","""event"",""trial"",""time""
""fullscreenenter"",""1"",""4397""
","
","
","""event"",""trial"",""time""
""fullscreenenter"",""1"",""4397""
","
","","","-1","","","19","15445","5999","a","elianto","#f73b6a7A","-1","-1","1","0","[]","0","2","","","15445","103","7","4","lose","no-go","0"
"pit-trial","228","1594145","0.0-108.0","battery-v0.2","","""event"",""trial"",""time""
""fullscreenenter"",""1"",""4397""
","
","
","""event"",""trial"",""time""
""fullscreenenter"",""1"",""4397""
","
","","","921.2000000011176","","","19","15445","5999","p","elianto","#3366ff99","-1"," ","0","0","[1771.6000000014901]","1","2","","","15445","104","5","2","win","no-go","0"
"pit-trial","229","1597473","0.0-109.0","battery-v0.2","","""event"",""trial"",""time""
""fullscreenenter"",""1"",""4397""
","
","
","""event"",""trial"",""time""
""fullscreenenter"",""1"",""4397""
","
","","","473.80000000074506","","","19","15445","5999","u","elianto","#3366ff99"," "," ","1","+10","[1323.7999999988824]","1","2","","","15445","105","9","1","win","go","0"
"pit-trial","230","1600948","0.0-110.0","battery-v0.2","","""event"",""trial"",""time""
""fullscreenenter"",""1"",""4397""
","
","
","""event"",""trial"",""time""
""fullscreenenter"",""1"",""4397""
","
","","","620.4000000003725","","","19","15445","5999","l","elianto","#3366ff99"," "," ","1","+10","[1470.5]","1","2","","","15445","106","8","1","win","go","0"
"pit-trial","231","1604459","0.0-111.0","battery-v0.2","","""event"",""trial"",""time""
""fullscreenenter"",""1"",""4397""
","
","
","""event"",""trial"",""time""
""fullscreenenter"",""1"",""4397""
","
","","","655.5","","","19","15445","5999","s","elianto","#3366ff99"," "," ","1","+10","[1505.6000000014901]","1","2","","","15445","107","4","1","win","go","0"
"pit-trial","232","1607973","0.0-112.0","battery-v0.2","","""event"",""trial"",""time""
""fullscreenenter"",""1"",""4397""
","
","
","""event"",""trial"",""time""
""fullscreenenter"",""1"",""4397""
","
","","","657","","","19","15445","5999","g","elianto","#f73b6a7A"," "," ","1","0","[1509]","1","2","","","15445","108","6","3","lose","go","0"
"pit-trial","233","1612014","0.0-113.0","battery-v0.2","","""event"",""trial"",""time""
""fullscreenenter"",""1"",""4397""
","
","
","""event"",""trial"",""time""
""fullscreenenter"",""1"",""4397""
","
","","","1186.300000000745","","","19","15445","5999","g","elianto","#f73b6a7A"," "," ","1","-10","[2036.5]","1","2","","","15445","109","6","3","lose","go","1"
"pit-trial","234","1616444","0.0-114.0","battery-v0.2","","""event"",""trial"",""time""
""fullscreenenter"",""1"",""4397""
","
","
","""event"",""trial"",""time""
""fullscreenenter"",""1"",""4397""
","
","","","1575.199999999255","","","19","15445","5999","u","elianto","#3366ff99"," "," ","1","+10","[2425.5]","1","2","","","15445","110","9","1","win","go","0"
"pit-trial","235","1619876","0.0-115.0","battery-v0.2","","""event"",""trial"",""time""
""fullscreenenter"",""1"",""4397""
","
","
","""event"",""trial"",""time""
""fullscreenenter"",""1"",""4397""
","
","","","575.7000000011176","","","19","15445","5999","p","elianto","#3366ff99","-1"," ","0","0","[1427.300000000745]","1","2","","","15445","111","5","2","win","no-go","0"
"pit-trial","236","1623383","0.0-116.0","battery-v0.2","","""event"",""trial"",""time""
""fullscreenenter"",""1"",""4397""
","
","
","""event"",""trial"",""time""
""fullscreenenter"",""1"",""4397""
","
","","","652.1999999992549","","","19","15445","5999","l","elianto","#3366ff99"," "," ","1","+10","[1503.2000000011176]","1","2","","","15445","112","8","1","win","go","0"
"pit-trial","237","1626488","0.0-117.0","battery-v0.2","","""event"",""trial"",""time""
""fullscreenenter"",""1"",""4397""
","
","
","""event"",""trial"",""time""
""fullscreenenter"",""1"",""4397""
","
","","","249.7999999988824","","","19","15445","5999","l","elianto","#3366ff99"," "," ","1","0","[1100.199999999255]","1","2","","","15445","113","8","1","win","go","1"
"pit-trial","238","1630409","0.0-118.0","battery-v0.2","","""event"",""trial"",""time""
""fullscreenenter"",""1"",""4397""
","
","
","""event"",""trial"",""time""
""fullscreenenter"",""1"",""4397""
","
","","","1065.4000000003725","","","19","15445","5999","u","elianto","#3366ff99"," "," ","1","+10","[1915.9000000003725]","1","2","","","15445","114","9","1","win","go","0"
"pit-trial","239","1635264","0.0-119.0","battery-v0.2","","""event"",""trial"",""time""
""fullscreenenter"",""1"",""4397""
","
","
","""event"",""trial"",""time""
""fullscreenenter"",""1"",""4397""
","
","","","-1","","","19","15445","5999","g","elianto","#f73b6a7A"," ","-1","0","-10","[]","0","2","","","15445","115","6","3","lose","go","0"
"pit-trial","240","1638792","0.0-120.0","battery-v0.2","","""event"",""trial"",""time""
""fullscreenenter"",""1"",""4397""
","
","
","""event"",""trial"",""time""
""fullscreenenter"",""1"",""4397""
","
","","","673.6999999992549","","","19","15445","5999","p","elianto","#3366ff99","-1"," ","0","0","[1524]","1","2","","","15445","116","5","2","win","no-go","0"
"pit-trial","241","1643647","0.0-121.0","battery-v0.2","","""event"",""trial"",""time""
""fullscreenenter"",""1"",""4397""
","
","
","""event"",""trial"",""time""
""fullscreenenter"",""1"",""4397""
","
","","","-1","","","19","15445","5999","l","elianto","#3366ff99"," ","-1","0","0","[3278.199999999255,4067.9000000003725,4540.5]","3","2","","","15445","117","8","1","win","go","0"
"pit-trial","242","1647050","0.0-122.0","battery-v0.2","","""event"",""trial"",""time""
""fullscreenenter"",""1"",""4397""
","
","
","""event"",""trial"",""time""
""fullscreenenter"",""1"",""4397""
","
","","","548.3000000007451","","","19","15445","5999","u","elianto","#3366ff99"," "," ","1","+10","[1398.5]","1","2","","","15445","118","9","1","win","go","0"
"pit-trial","243","1651905","0.0-123.0","battery-v0.2","","""event"",""trial"",""time""
""fullscreenenter"",""1"",""4397""
","
","
","""event"",""trial"",""time""
""fullscreenenter"",""1"",""4397""
","
","","","-1","","","19","15445","5999","g","elianto","#f73b6a7A"," ","-1","0","-10","[]","0","2","","","15445","119","6","3","lose","go","0"
"pit-trial","244","1655307","0.0-124.0","battery-v0.2","","""event"",""trial"",""time""
""fullscreenenter"",""1"",""4397""
","
","
","""event"",""trial"",""time""
""fullscreenenter"",""1"",""4397""
","
","","","543.0999999996275","","","19","15445","5999","p","elianto","#3366ff99","-1"," ","0","+10","[1397]","1","2","","","15445","120","5","2","win","no-go","1"
"pit-trial","245","1658699","0.0-125.0","battery-v0.2","","""event"",""trial"",""time""
""fullscreenenter"",""1"",""4397""
","
","
","""event"",""trial"",""time""
""fullscreenenter"",""1"",""4397""
","
","","","536.3000000007451","","","19","15445","5999","u","elianto","#3366ff99"," "," ","1","+10","[1386.7000000011176]","1","2","","","15445","121","9","1","win","go","0"
"pit-trial","246","1663554","0.0-126.0","battery-v0.2","","""event"",""trial"",""time""
""fullscreenenter"",""1"",""4397""
","
","
","""event"",""trial"",""time""
""fullscreenenter"",""1"",""4397""
","
","","","-1","","","19","15445","5999","g","elianto","#f73b6a7A"," ","-1","0","0","[]","0","2","","","15445","122","6","3","lose","go","1"
"pit-trial","247","1666975","0.0-127.0","battery-v0.2","","""event"",""trial"",""time""
""fullscreenenter"",""1"",""4397""
","
","
","""event"",""trial"",""time""
""fullscreenenter"",""1"",""4397""
","
","","","563","","","19","15445","5999","l","elianto","#3366ff99"," "," ","1","+10","[1416.4000000003725]","1","2","","","15445","123","8","1","win","go","0"
"pit-trial","248","1671830","0.0-128.0","battery-v0.2","","""event"",""trial"",""time""
""fullscreenenter"",""1"",""4397""
","
","
","""event"",""trial"",""time""
""fullscreenenter"",""1"",""4397""
","
","","","-1","","","19","15445","5999","a","elianto","#f73b6a7A","-1","-1","1","0","[]","0","2","","","15445","124","7","4","lose","no-go","0"
"pit-trial","249","1675208","0.0-129.0","battery-v0.2","","""event"",""trial"",""time""
""fullscreenenter"",""1"",""4397""
","
","
","""event"",""trial"",""time""
""fullscreenenter"",""1"",""4397""
","
","","","522.0999999996275","","","19","15445","5999","l","elianto","#3366ff99"," "," ","1","+10","[1372.5]","1","2","","","15445","125","8","1","win","go","0"
"pit-trial","250","1680063","0.0-130.0","battery-v0.2","","""event"",""trial"",""time""
""fullscreenenter"",""1"",""4397""
","
","
","""event"",""trial"",""time""
""fullscreenenter"",""1"",""4397""
","
","","","-1","","","19","15445","5999","a","elianto","#f73b6a7A","-1","-1","1","0","[]","0","2","","","15445","126","7","4","lose","no-go","0"
"pit-trial","251","1684918","0.0-131.0","battery-v0.2","","""event"",""trial"",""time""
""fullscreenenter"",""1"",""4397""
","
","
","""event"",""trial"",""time""
""fullscreenenter"",""1"",""4397""
","
","","","-1","","","19","15445","5999","g","elianto","#f73b6a7A"," ","-1","0","-10","[]","0","2","","","15445","127","6","3","lose","go","0"
"pit-trial","252","1688312","0.0-132.0","battery-v0.2","","""event"",""trial"",""time""
""fullscreenenter"",""1"",""4397""
","
","
","""event"",""trial"",""time""
""fullscreenenter"",""1"",""4397""
","
","","","538.8000000007451","","","19","15445","5999","u","elianto","#3366ff99"," "," ","1","+10","[1389.2000000011176]","1","2","","","15445","128","9","1","win","go","0"
"pit-trial","253","1691859","0.0-133.0","battery-v0.2","","""event"",""trial"",""time""
""fullscreenenter"",""1"",""4397""
","
","
","""event"",""trial"",""time""
""fullscreenenter"",""1"",""4397""
","
","","","692.4000000003725","","","19","15445","5999","u","elianto","#3366ff99"," "," ","1","+10","[1542.4000000003725]","1","2","","","15445","129","9","1","win","go","0"
"pit-trial","254","1695039","0.0-134.0","battery-v0.2","","""event"",""trial"",""time""
""fullscreenenter"",""1"",""4397""
","
","
","""event"",""trial"",""time""
""fullscreenenter"",""1"",""4397""
","
","","","325.09999999962747","","","19","15445","5999","l","elianto","#3366ff99"," "," ","1","+10","[1175.0999999996275]","1","2","","","15445","130","8","1","win","go","0"
"pit-trial","255","1699894","0.0-135.0","battery-v0.2","","""event"",""trial"",""time""
""fullscreenenter"",""1"",""4397""
","
","
","""event"",""trial"",""time""
""fullscreenenter"",""1"",""4397""
","
","","","-1","","","19","15445","5999","g","elianto","#f73b6a7A"," ","-1","0","-10","[]","0","2","","","15445","131","6","3","lose","go","0"
"pit-trial","256","1704750","0.0-136.0","battery-v0.2","","""event"",""trial"",""time""
""fullscreenenter"",""1"",""4397""
","
","
","""event"",""trial"",""time""
""fullscreenenter"",""1"",""4397""
","
","","","-1","","","19","15445","5999","a","elianto","#f73b6a7A","-1","-1","1","0","[]","0","2","","","15445","132","7","4","lose","no-go","0"
"pit-trial","257","1709605","0.0-137.0","battery-v0.2","","""event"",""trial"",""time""
""fullscreenenter"",""1"",""4397""
","
","
","""event"",""trial"",""time""
""fullscreenenter"",""1"",""4397""
","
","","","-1","","","19","15445","5999","a","elianto","#f73b6a7A","-1","-1","1","0","[]","0","2","","","15445","133","7","4","lose","no-go","0"
"pit-trial","258","1713003","0.0-138.0","battery-v0.2","","""event"",""trial"",""time""
""fullscreenenter"",""1"",""4397""
","
","
","""event"",""trial"",""time""
""fullscreenenter"",""1"",""4397""
","
","","","543.0999999996275","","","19","15445","5999","u","elianto","#3366ff99"," "," ","1","+10","[1393.1000000014901]","1","2","","","15445","134","9","1","win","go","0"
"pit-trial","259","1717858","0.0-139.0","battery-v0.2","","""event"",""trial"",""time""
""fullscreenenter"",""1"",""4397""
","
","
","""event"",""trial"",""time""
""fullscreenenter"",""1"",""4397""
","
","","","-1","","","19","15445","5999","g","elianto","#f73b6a7A"," ","-1","0","-10","[]","0","2","","","15445","135","6","3","lose","go","0"
"pit-trial","260","1721303","0.0-140.0","battery-v0.2","","""event"",""trial"",""time""
""fullscreenenter"",""1"",""4397""
","
","
","""event"",""trial"",""time""
""fullscreenenter"",""1"",""4397""
","
","","","590.2999999988824","","","19","15445","5999","l","elianto","#3366ff99"," "," ","1","+10","[1440.4000000003725]","1","2","","","15445","136","8","1","win","go","0"
"pit-trial","261","1724990","0.0-141.0","battery-v0.2","","""event"",""trial"",""time""
""fullscreenenter"",""1"",""4397""
","
","
","""event"",""trial"",""time""
""fullscreenenter"",""1"",""4397""
","
","","","831.0999999996275","","","19","15445","5999","u","elianto","#3366ff99"," "," ","1","+10","[1683.0999999996275]","1","2","","","15445","137","9","1","win","go","0"
"pit-trial","262","1729845","0.0-142.0","battery-v0.2","","""event"",""trial"",""time""
""fullscreenenter"",""1"",""4397""
","
","
","""event"",""trial"",""time""
""fullscreenenter"",""1"",""4397""
","
","","","-1","","","19","15445","5999","g","elianto","#f73b6a7A"," ","-1","0","0","[]","0","2","","","15445","138","6","3","lose","go","1"
"pit-trial","263","1733296","0.0-143.0","battery-v0.2","","""event"",""trial"",""time""
""fullscreenenter"",""1"",""4397""
","
","
","""event"",""trial"",""time""
""fullscreenenter"",""1"",""4397""
","
","","","595.5","","","19","15445","5999","a","elianto","#f73b6a7A","-1"," ","0","0","[1445.5999999996275]","1","2","","","15445","139","7","4","lose","no-go","1"
"pit-trial","264","1736916","0.0-144.0","battery-v0.2","","""event"",""trial"",""time""
""fullscreenenter"",""1"",""4397""
""fullscreenexit"",""265"",""2643340""
""blur"",""265"",""2643354""
""focus"",""265"",""2660890""
","""event"",""trial"",""time""
""blur"",""265"",""2643354""
","""event"",""trial"",""time""
""focus"",""265"",""2660890""
","""event"",""trial"",""time""
""fullscreenenter"",""1"",""4397""
","""event"",""trial"",""time""
""fullscreenexit"",""265"",""2643340""
","","","765.3999999985099","","","19","15445","5999","l","elianto","#3366ff99"," "," ","1","+10","[1615.8999999985099]","1","2","","","15445","140","8","1","win","go","0"
"pit-instructions","265","2743073","0.0-145.0","battery-v0.2","","""event"",""trial"",""time""
""fullscreenenter"",""1"",""4397""
""fullscreenexit"",""265"",""2643340""
""blur"",""265"",""2643354""
""focus"",""265"",""2660890""
","""event"",""trial"",""time""
""blur"",""265"",""2643354""
","""event"",""trial"",""time""
""focus"",""265"",""2660890""
","""event"",""trial"",""time""
