"trial_type","trial_index","time_elapsed","internal_node_id","task_version","subject_id","interactions","blur_events","focus_events","fullscreenenter_events","fullscreenexit_events","success","view_history","rt","responses","num_errors","age","subject","participantId","rune","rune_set","hex","correct","choice","accuracy","outcome","keys","total_keys","block","practice","value","sub","trial","stimulus","robot","valence","action","sham"
"pavlovia","0","6","0.0-0.0","battery-v0.2","","""event"",""trial"",""time""
""blur"",""1"",""20575""
""focus"",""1"",""23538""
""fullscreenenter"",""1"",""24491""
","""event"",""trial"",""time""
""blur"",""1"",""20575""
","""event"",""trial"",""time""
""focus"",""1"",""23538""
","""event"",""trial"",""time""
""fullscreenenter"",""1"",""24491""
","
","","","","","","","","","","","","","","","","","","","","","","","","","","",""
"fullscreen","1","25487","0.0-1.0","battery-v0.2","","""event"",""trial"",""time""
""blur"",""1"",""20575""
""focus"",""1"",""23538""
""fullscreenenter"",""1"",""24491""
","""event"",""trial"",""time""
""blur"",""1"",""20575""
","""event"",""trial"",""time""
""focus"",""1"",""23538""
","""event"",""trial"",""time""
""fullscreenenter"",""1"",""24491""
","
","true","","","","","","","","","","","","","","","","","","","","","","","","","",""
"pit-instructions","2","29839","0.0-2.0-0.0","battery-v0.2","","""event"",""trial"",""time""
""blur"",""1"",""20575""
""focus"",""1"",""23538""
""fullscreenenter"",""1"",""24491""
","""event"",""trial"",""time""
""blur"",""1"",""20575""
","""event"",""trial"",""time""
""focus"",""1"",""23538""
","""event"",""trial"",""time""
""fullscreenenter"",""1"",""24491""
","
","","[{""page_index"":0,""viewing_time"":4347.700004577637}]","4348.100006103516","","","","","","","","","","","","","","","","","","","","","","","",""
"pit-comprehension","3","32974","0.0-2.0-1.0-0.0","battery-v0.2","","""event"",""trial"",""time""
""blur"",""1"",""20575""
""focus"",""1"",""23538""
""fullscreenenter"",""1"",""24491""
","""event"",""trial"",""time""
""blur"",""1"",""20575""
","""event"",""trial"",""time""
""focus"",""1"",""23538""
","""event"",""trial"",""time""
""fullscreenenter"",""1"",""24491""
","
","","","3131.300003051758","[""shark""]","0","19","10614","4909","","","","","","","","","","","","","","","","","","",""
"pit-instructions","4","34329","0.0-2.0-1.0-1.0","battery-v0.2","","""event"",""trial"",""time""
""blur"",""1"",""20575""
""focus"",""1"",""23538""
""fullscreenenter"",""1"",""24491""
","""event"",""trial"",""time""
""blur"",""1"",""20575""
","""event"",""trial"",""time""
""focus"",""1"",""23538""
","""event"",""trial"",""time""
""fullscreenenter"",""1"",""24491""
","
","","[{""page_index"":0,""viewing_time"":1336.7000045776367}]","1336.900001525879","","","","","","","","","","","","","","","","","","","","","","","",""
"pit-comprehension","5","38221","0.0-2.0-2.0-0.0","battery-v0.2","","""event"",""trial"",""time""
""blur"",""1"",""20575""
""focus"",""1"",""23538""
""fullscreenenter"",""1"",""24491""
","""event"",""trial"",""time""
""blur"",""1"",""20575""
","""event"",""trial"",""time""
""focus"",""1"",""23538""
","""event"",""trial"",""time""
""fullscreenenter"",""1"",""24491""
","
","","","3889.599998474121","[""tiger""]","0","19","10614","4909","","","","","","","","","","","","","","","","","","",""
"pit-instructions","6","39177","0.0-2.0-2.0-1.0","battery-v0.2","","""event"",""trial"",""time""
""blur"",""1"",""20575""
""focus"",""1"",""23538""
""fullscreenenter"",""1"",""24491""
","""event"",""trial"",""time""
""blur"",""1"",""20575""
","""event"",""trial"",""time""
""focus"",""1"",""23538""
","""event"",""trial"",""time""
""fullscreenenter"",""1"",""24491""
","
","","[{""page_index"":0,""viewing_time"":952.3000030517578}]","952.6000061035156","","","","","","","","","","","","","","","","","","","","","","","",""
"pit-instructions","7","152147","0.0-2.0-3.0","battery-v0.2","","""event"",""trial"",""time""
""blur"",""1"",""20575""
""focus"",""1"",""23538""
""fullscreenenter"",""1"",""24491""
","""event"",""trial"",""time""
""blur"",""1"",""20575""
","""event"",""trial"",""time""
""focus"",""1"",""23538""
","""event"",""trial"",""time""
""fullscreenenter"",""1"",""24491""
","
","","[{""page_index"":0,""viewing_time"":10339.799995422363},{""page_index"":1,""viewing_time"":7466.300003051758},{""page_index"":2,""viewing_time"":6469.5},{""page_index"":3,""viewing_time"":7485.199996948242},{""page_index"":4,""viewing_time"":9055.700004577637},{""page_index"":5,""viewing_time"":8003.299995422363},{""page_index"":6,""viewing_time"":8216.400001525879},{""page_index"":7,""viewing_time"":7988.800003051758},{""page_index"":8,""viewing_time"":6601.099998474121},{""page_index"":9,""viewing_time"":8612},{""page_index"":10,""viewing_time"":8420.799995422363},{""page_index"":11,""viewing_time"":9229},{""page_index"":12,""viewing_time"":6947.100006103516},{""page_index"":13,""viewing_time"":8131.699996948242}]","112967.29999542236","","","","","","","","","","","","","","","","","","","","","","","",""
"pit-trial","8","155547","0.0-2.0-4.0-0.0","battery-v0.2","","""event"",""trial"",""time""
""blur"",""1"",""20575""
""focus"",""1"",""23538""
""fullscreenenter"",""1"",""24491""
","""event"",""trial"",""time""
""blur"",""1"",""20575""
","""event"",""trial"",""time""
""focus"",""1"",""23538""
","""event"",""trial"",""time""
""fullscreenenter"",""1"",""24491""
","
","","","537.4000015258789","","","19","10614","4909","&#9784;","elianto","#FFFFF080"," "," ","1","&#10004","[1392.3000030517578]","1","0","0","","","","","","","",""
"pit-trial","9","159097","0.0-2.0-4.1-0.1","battery-v0.2","","""event"",""trial"",""time""
""blur"",""1"",""20575""
""focus"",""1"",""23538""
""fullscreenenter"",""1"",""24491""
","""event"",""trial"",""time""
""blur"",""1"",""20575""
","""event"",""trial"",""time""
""focus"",""1"",""23538""
","""event"",""trial"",""time""
""fullscreenenter"",""1"",""24491""
","
","","","683.3000030517578","","","19","10614","4909","&#9784;","elianto","#FFFFF080"," "," ","1","&#10004","[1534.3000030517578]","1","0","0","","","","","","","",""
"pit-trial","10","162477","0.0-2.0-4.2-0.2","battery-v0.2","","""event"",""trial"",""time""
""blur"",""1"",""20575""
""focus"",""1"",""23538""
""fullscreenenter"",""1"",""24491""
","""event"",""trial"",""time""
""blur"",""1"",""20575""
","""event"",""trial"",""time""
""focus"",""1"",""23538""
","""event"",""trial"",""time""
""fullscreenenter"",""1"",""24491""
","
","","","517.9000015258789","","","19","10614","4909","&#9784;","elianto","#FFFFF080"," "," ","1","&#10004","[1372.900001525879]","1","0","0","","","","","","","",""
"pit-trial","11","165807","0.0-2.0-4.3-0.3","battery-v0.2","","""event"",""trial"",""time""
""blur"",""1"",""20575""
""focus"",""1"",""23538""
""fullscreenenter"",""1"",""24491""
","""event"",""trial"",""time""
""blur"",""1"",""20575""
","""event"",""trial"",""time""
""focus"",""1"",""23538""
","""event"",""trial"",""time""
""fullscreenenter"",""1"",""24491""
","
","","","461.5999984741211","","","19","10614","4909","&#9784;","elianto","#FFFFF080"," "," ","1","&#10004","[1315.900001525879]","1","0","0","","","","","","","",""
"pit-trial","12","169177","0.0-2.0-4.4-0.4","battery-v0.2","","""event"",""trial"",""time""
""blur"",""1"",""20575""
""focus"",""1"",""23538""
""fullscreenenter"",""1"",""24491""
","""event"",""trial"",""time""
""blur"",""1"",""20575""
","""event"",""trial"",""time""
""focus"",""1"",""23538""
","""event"",""trial"",""time""
""fullscreenenter"",""1"",""24491""
","
","","","504.4000015258789","","","19","10614","4909","&#9784;","elianto","#FFFFF080"," "," ","1","&#10004","[1355.5]","1","0","0","","","","","","","",""
"pit-instructions","13","195791","0.0-2.0-5.0","battery-v0.2","","""event"",""trial"",""time""
""blur"",""1"",""20575""
""focus"",""1"",""23538""
""fullscreenenter"",""1"",""24491""
","""event"",""trial"",""time""
""blur"",""1"",""20575""
","""event"",""trial"",""time""
""focus"",""1"",""23538""
","""event"",""trial"",""time""
""fullscreenenter"",""1"",""24491""
","
","","[{""page_index"":0,""viewing_time"":6227.199996948242},{""page_index"":1,""viewing_time"":7201.5},{""page_index"":2,""viewing_time"":5643.300003051758},{""page_index"":3,""viewing_time"":7540.199996948242}]","26612.59999847412","","","","","","","","","","","","","","","","","","","","","","","",""
"pit-trial","14","200667","0.0-2.0-6.0-0.0","battery-v0.2","","""event"",""trial"",""time""
""blur"",""1"",""20575""
""focus"",""1"",""23538""
""fullscreenenter"",""1"",""24491""
","""event"",""trial"",""time""
""blur"",""1"",""20575""
","""event"",""trial"",""time""
""focus"",""1"",""23538""
","""event"",""trial"",""time""
""fullscreenenter"",""1"",""24491""
","
","","","-1","","","19","10614","4909","&#9854;","elianto","#FFFFF080","-1","-1","1","&#10004","[]","0","0","1","","","","","","","",""
"pit-trial","15","205557","0.0-2.0-6.1-0.1","battery-v0.2","","""event"",""trial"",""time""
""blur"",""1"",""20575""
""focus"",""1"",""23538""
""fullscreenenter"",""1"",""24491""
","""event"",""trial"",""time""
""blur"",""1"",""20575""
","""event"",""trial"",""time""
""focus"",""1"",""23538""
","""event"",""trial"",""time""
""fullscreenenter"",""1"",""24491""
","
","","","-1","","","19","10614","4909","&#9854;","elianto","#FFFFF080","-1","-1","1","&#10004","[]","0","0","1","","","","","","","",""
"pit-trial","16","210447","0.0-2.0-6.2-0.2","battery-v0.2","","""event"",""trial"",""time""
""blur"",""1"",""20575""
""focus"",""1"",""23538""
""fullscreenenter"",""1"",""24491""
","""event"",""trial"",""time""
""blur"",""1"",""20575""
","""event"",""trial"",""time""
""focus"",""1"",""23538""
","""event"",""trial"",""time""
""fullscreenenter"",""1"",""24491""
","
","","","-1","","","19","10614","4909","&#9854;","elianto","#FFFFF080","-1","-1","1","&#10004","[]","0","0","1","","","","","","","",""
"pit-trial","17","215318","0.0-2.0-6.3-0.3","battery-v0.2","","""event"",""trial"",""time""
""blur"",""1"",""20575""
""focus"",""1"",""23538""
""fullscreenenter"",""1"",""24491""
","""event"",""trial"",""time""
""blur"",""1"",""20575""
","""event"",""trial"",""time""
""focus"",""1"",""23538""
","""event"",""trial"",""time""
""fullscreenenter"",""1"",""24491""
","
","","","-1","","","19","10614","4909","&#9854;","elianto","#FFFFF080","-1","-1","1","&#10004","[]","0","0","1","","","","","","","",""
"pit-trial","18","220188","0.0-2.0-6.4-0.4","battery-v0.2","","""event"",""trial"",""time""
""blur"",""1"",""20575""
""focus"",""1"",""23538""
""fullscreenenter"",""1"",""24491""
","""event"",""trial"",""time""
""blur"",""1"",""20575""
","""event"",""trial"",""time""
""focus"",""1"",""23538""
","""event"",""trial"",""time""
""fullscreenenter"",""1"",""24491""
","
","","","-1","","","19","10614","4909","&#9854;","elianto","#FFFFF080","-1","-1","1","&#10004","[]","0","0","1","","","","","","","",""
"pit-instructions","19","350759","0.0-2.0-7.0","battery-v0.2","","""event"",""trial"",""time""
""blur"",""1"",""20575""
""focus"",""1"",""23538""
""fullscreenenter"",""1"",""24491""
","""event"",""trial"",""time""
""blur"",""1"",""20575""
","""event"",""trial"",""time""
""focus"",""1"",""23538""
","""event"",""trial"",""time""
""fullscreenenter"",""1"",""24491""
","
","","[{""page_index"":0,""viewing_time"":6047.5},{""page_index"":1,""viewing_time"":8636.099998474121},{""page_index"":2,""viewing_time"":6363.099998474121},{""page_index"":3,""viewing_time"":8420.099998474121},{""page_index"":4,""viewing_time"":5743.100006103516},{""page_index"":5,""viewing_time"":6769.599998474121},{""page_index"":6,""viewing_time"":5612.5},{""page_index"":7,""viewing_time"":8387.299995422363},{""page_index"":8,""viewing_time"":7222.100006103516},{""page_index"":9,""viewing_time"":7904.399993896484},{""page_index"":10,""viewing_time"":6997.5},{""page_index"":11,""viewing_time"":4937.400001525879},{""page_index"":12,""viewing_time"":7602},{""page_index"":13,""viewing_time"":8591.400001525879},{""page_index"":14,""viewing_time"":8081.099998474121},{""page_index"":15,""viewing_time"":8256},{""page_index"":16,""viewing_time"":6697.300003051758},{""page_index"":17,""viewing_time"":8299.400001525879}]","130568.29999542236","","","","","","","","","","","","","","","","","","","","","","","",""
"pit-trial","20","354667","0.0-2.0-8.0-0.0","battery-v0.2","","""event"",""trial"",""time""
""blur"",""1"",""20575""
""focus"",""1"",""23538""
""fullscreenenter"",""1"",""24491""
","""event"",""trial"",""time""
""blur"",""1"",""20575""
","""event"",""trial"",""time""
""focus"",""1"",""23538""
","""event"",""trial"",""time""
""fullscreenenter"",""1"",""24491""
","
","","","1035.400001525879","","","19","10614","4909","&#9776;","elianto","#3366ff99"," "," ","1","+10","[1890]","1","0","1","","","","","","","",""
"pit-trial","21","358097","0.0-2.0-8.0-1.0","battery-v0.2","","""event"",""trial"",""time""
""blur"",""1"",""20575""
""focus"",""1"",""23538""
""fullscreenenter"",""1"",""24491""
","""event"",""trial"",""time""
""blur"",""1"",""20575""
","""event"",""trial"",""time""
""focus"",""1"",""23538""
","""event"",""trial"",""time""
""fullscreenenter"",""1"",""24491""
","
","","","560.7999954223633","","","19","10614","4909","&#9776;","elianto","#3366ff99"," "," ","1","+10","[1414.599998474121]","1","0","1","","","","","","","",""
"pit-trial","22","361437","0.0-2.0-8.0-2.0","battery-v0.2","","""event"",""trial"",""time""
""blur"",""1"",""20575""
""focus"",""1"",""23538""
""fullscreenenter"",""1"",""24491""
","""event"",""trial"",""time""
""blur"",""1"",""20575""
","""event"",""trial"",""time""
""focus"",""1"",""23538""
","""event"",""trial"",""time""
""fullscreenenter"",""1"",""24491""
","
","","","476.8000030517578","","","19","10614","4909","&#9776;","elianto","#3366ff99"," "," ","1","+10","[1329.099998474121]","1","0","1","","","","","","","",""
"pit-trial","23","364706","0.0-2.0-8.0-3.0","battery-v0.2","","""event"",""trial"",""time""
""blur"",""1"",""20575""
""focus"",""1"",""23538""
""fullscreenenter"",""1"",""24491""
","""event"",""trial"",""time""
""blur"",""1"",""20575""
","""event"",""trial"",""time""
""focus"",""1"",""23538""
","""event"",""trial"",""time""
""fullscreenenter"",""1"",""24491""
","
","","","401.2999954223633","","","19","10614","4909","&#9776;","elianto","#3366ff99"," "," ","1","0","[1252.099998474121]","1","0","1","","","","","","","",""
"pit-trial","24","367917","0.0-2.0-8.0-4.0","battery-v0.2","","""event"",""trial"",""time""
""blur"",""1"",""20575""
""focus"",""1"",""23538""
""fullscreenenter"",""1"",""24491""
","""event"",""trial"",""time""
""blur"",""1"",""20575""
","""event"",""trial"",""time""
""focus"",""1"",""23538""
","""event"",""trial"",""time""
""fullscreenenter"",""1"",""24491""
","
","","","355.1999969482422","","","19","10614","4909","&#9776;","elianto","#3366ff99"," "," ","1","+10","[1208]","1","0","1","","","","","","","",""
"pit-trial","25","371077","0.0-2.0-8.1-0.1","battery-v0.2","","""event"",""trial"",""time""
""blur"",""1"",""20575""
""focus"",""1"",""23538""
""fullscreenenter"",""1"",""24491""
","""event"",""trial"",""time""
""blur"",""1"",""20575""
","""event"",""trial"",""time""
""focus"",""1"",""23538""
","""event"",""trial"",""time""
""fullscreenenter"",""1"",""24491""
","
","","","301.8999938964844","","","19","10614","4909","&#9776;","elianto","#3366ff99"," "," ","1","+10","[1154.1999969482422]","1","0","1","","","","","","","",""
"pit-trial","26","374267","0.0-2.0-8.1-1.1","battery-v0.2","","""event"",""trial"",""time""
""blur"",""1"",""20575""
""focus"",""1"",""23538""
""fullscreenenter"",""1"",""24491""
","""event"",""trial"",""time""
""blur"",""1"",""20575""
","""event"",""trial"",""time""
""focus"",""1"",""23538""
","""event"",""trial"",""time""
""fullscreenenter"",""1"",""24491""
","
","","","328.6999969482422","","","19","10614","4909","&#9776;","elianto","#3366ff99"," "," ","1","+10","[1179.400001525879]","1","0","1","","","","","","","",""
"pit-trial","27","377527","0.0-2.0-8.1-2.1","battery-v0.2","","""event"",""trial"",""time""
""blur"",""1"",""20575""
""focus"",""1"",""23538""
""fullscreenenter"",""1"",""24491""
","""event"",""trial"",""time""
""blur"",""1"",""20575""
","""event"",""trial"",""time""
""focus"",""1"",""23538""
","""event"",""trial"",""time""
""fullscreenenter"",""1"",""24491""
","
","","","395.6999969482422","","","19","10614","4909","&#9776;","elianto","#3366ff99"," "," ","1","+10","[1249.5]","1","0","1","","","","","","","",""
"pit-trial","28","380748","0.0-2.0-8.1-3.1","battery-v0.2","","""event"",""trial"",""time""
""blur"",""1"",""20575""
""focus"",""1"",""23538""
""fullscreenenter"",""1"",""24491""
","""event"",""trial"",""time""
""blur"",""1"",""20575""
","""event"",""trial"",""time""
""focus"",""1"",""23538""
","""event"",""trial"",""time""
""fullscreenenter"",""1"",""24491""
","
","","","366.5","","","19","10614","4909","&#9776;","elianto","#3366ff99"," "," ","1","0","[1217.8000030517578]","1","0","1","","","","","","","",""
"pit-trial","29","383976","0.0-2.0-8.1-4.1","battery-v0.2","","""event"",""trial"",""time""
""blur"",""1"",""20575""
""focus"",""1"",""23538""
""fullscreenenter"",""1"",""24491""
","""event"",""trial"",""time""
""blur"",""1"",""20575""
","""event"",""trial"",""time""
""focus"",""1"",""23538""
","""event"",""trial"",""time""
""fullscreenenter"",""1"",""24491""
","
","","","374.7999954223633","","","19","10614","4909","&#9776;","elianto","#3366ff99"," "," ","1","+10","[1225.599998474121]","1","0","1","","","","","","","",""
"pit-trial","30","386959","0.0-2.0-8.2-0.2","battery-v0.2","","""event"",""trial"",""time""
""blur"",""1"",""20575""
""focus"",""1"",""23538""
""fullscreenenter"",""1"",""24491""
","""event"",""trial"",""time""
""blur"",""1"",""20575""
","""event"",""trial"",""time""
""focus"",""1"",""23538""
","""event"",""trial"",""time""
""fullscreenenter"",""1"",""24491""
","
","","","128.0999984741211","","","19","10614","4909","&#9776;","elianto","#3366ff99"," "," ","1","+10","[979.2000045776367]","1","0","1","","","","","","","",""
"pit-trial","31","390184","0.0-2.0-8.2-1.2","battery-v0.2","","""event"",""trial"",""time""
""blur"",""1"",""20575""
""focus"",""1"",""23538""
""fullscreenenter"",""1"",""24491""
","""event"",""trial"",""time""
""blur"",""1"",""20575""
","""event"",""trial"",""time""
""focus"",""1"",""23538""
","""event"",""trial"",""time""
""fullscreenenter"",""1"",""24491""
","
","","","371.3000030517578","","","19","10614","4909","&#9776;","elianto","#3366ff99"," "," ","1","+10","[1222.5]","1","0","1","","","","","","","",""
"pit-trial","32","393401","0.0-2.0-8.2-2.2","battery-v0.2","","""event"",""trial"",""time""
""blur"",""1"",""20575""
""focus"",""1"",""23538""
""fullscreenenter"",""1"",""24491""
","""event"",""trial"",""time""
""blur"",""1"",""20575""
","""event"",""trial"",""time""
""focus"",""1"",""23538""
","""event"",""trial"",""time""
""fullscreenenter"",""1"",""24491""
","
","","","362.3000030517578","","","19","10614","4909","&#9776;","elianto","#3366ff99"," "," ","1","+10","[1212.8000030517578]","1","0","1","","","","","","","",""
"pit-trial","33","396592","0.0-2.0-8.2-3.2","battery-v0.2","","""event"",""trial"",""time""
""blur"",""1"",""20575""
""focus"",""1"",""23538""
""fullscreenenter"",""1"",""24491""
","""event"",""trial"",""time""
""blur"",""1"",""20575""
","""event"",""trial"",""time""
""focus"",""1"",""23538""
","""event"",""trial"",""time""
""fullscreenenter"",""1"",""24491""
","
","","","338.4000015258789","","","19","10614","4909","&#9776;","elianto","#3366ff99"," "," ","1","0","[1188.6999969482422]","1","0","1","","","","","","","",""
"pit-trial","34","399724","0.0-2.0-8.2-4.2","battery-v0.2","","""event"",""trial"",""time""
""blur"",""1"",""20575""
""focus"",""1"",""23538""
""fullscreenenter"",""1"",""24491""
","""event"",""trial"",""time""
""blur"",""1"",""20575""
","""event"",""trial"",""time""
""focus"",""1"",""23538""
","""event"",""trial"",""time""
""fullscreenenter"",""1"",""24491""
","
","","","278.5","","","19","10614","4909","&#9776;","elianto","#3366ff99"," "," ","1","+10","[1129.6000061035156]","1","0","1","","","","","","","",""
"call-function","35","399726","0.0-2.0-9.0","battery-v0.2","","""event"",""trial"",""time""
""blur"",""1"",""20575""
""focus"",""1"",""23538""
""fullscreenenter"",""1"",""24491""
","""event"",""trial"",""time""
""blur"",""1"",""20575""
","""event"",""trial"",""time""
""focus"",""1"",""23538""
","""event"",""trial"",""time""
""fullscreenenter"",""1"",""24491""
","
","","","","","","","","","","","","","","","","","","","","","","","","","","",""
"pit-instructions","36","440542","0.0-2.0-10.0","battery-v0.2","","""event"",""trial"",""time""
""blur"",""1"",""20575""
""focus"",""1"",""23538""
""fullscreenenter"",""1"",""24491""
","""event"",""trial"",""time""
""blur"",""1"",""20575""
","""event"",""trial"",""time""
""focus"",""1"",""23538""
","""event"",""trial"",""time""
""fullscreenenter"",""1"",""24491""
","
","","[{""page_index"":0,""viewing_time"":6686.399993896484},{""page_index"":1,""viewing_time"":7061.200004577637},{""page_index"":2,""viewing_time"":9412.599998474121},{""page_index"":3,""viewing_time"":9766.199996948242},{""page_index"":4,""viewing_time"":7889.600006103516}]","40816.19999694824","","","","","","","","","","","","","","","","","","","","","","","",""
"pit-trial","37","444205","0.0-2.0-11.0-0.0","battery-v0.2","","""event"",""trial"",""time""
""blur"",""1"",""20575""
""focus"",""1"",""23538""
""fullscreenenter"",""1"",""24491""
","""event"",""trial"",""time""
""blur"",""1"",""20575""
","""event"",""trial"",""time""
""focus"",""1"",""23538""
","""event"",""trial"",""time""
""fullscreenenter"",""1"",""24491""
","
","","","801.5999984741211","","","19","10614","4909","&#9761;","elianto","#3366ff99","-1"," ","0","0","[1652.2999954223633]","1","0","2","","","","","","","",""
"pit-trial","38","447235","0.0-2.0-11.0-1.0","battery-v0.2","","""event"",""trial"",""time""
""blur"",""1"",""20575""
""focus"",""1"",""23538""
""fullscreenenter"",""1"",""24491""
","""event"",""trial"",""time""
""blur"",""1"",""20575""
","""event"",""trial"",""time""
""focus"",""1"",""23538""
","""event"",""trial"",""time""
""fullscreenenter"",""1"",""24491""
","
","","","168.5999984741211","","","19","10614","4909","&#9761;","elianto","#3366ff99","-1"," ","0","0","[1023.5999984741211]","1","0","2","","","","","","","",""
"pit-trial","39","450264","0.0-2.0-11.0-2.0","battery-v0.2","","""event"",""trial"",""time""
""blur"",""1"",""20575""
""focus"",""1"",""23538""
""fullscreenenter"",""1"",""24491""
","""event"",""trial"",""time""
""blur"",""1"",""20575""
","""event"",""trial"",""time""
""focus"",""1"",""23538""
","""event"",""trial"",""time""
""fullscreenenter"",""1"",""24491""
","
","","","162.5999984741211","","","19","10614","4909","&#9761;","elianto","#3366ff99","-1"," ","0","0","[1013.3000030517578]","1","0","2","","","","","","","",""
"pit-trial","40","455130","0.0-2.0-11.0-3.0","battery-v0.2","","""event"",""trial"",""time""
""blur"",""1"",""20575""
""focus"",""1"",""23538""
""fullscreenenter"",""1"",""24491""
","""event"",""trial"",""time""
""blur"",""1"",""20575""
","""event"",""trial"",""time""
""focus"",""1"",""23538""
","""event"",""trial"",""time""
""fullscreenenter"",""1"",""24491""
","
","","","-1","","","19","10614","4909","&#9761;","elianto","#3366ff99","-1","-1","1","0","[]","0","0","2","","","","","","","",""
"pit-trial","41","460014","0.0-2.0-11.0-4.0","battery-v0.2","","""event"",""trial"",""time""
""blur"",""1"",""20575""
""focus"",""1"",""23538""
""fullscreenenter"",""1"",""24491""
","""event"",""trial"",""time""
""blur"",""1"",""20575""
","""event"",""trial"",""time""
""focus"",""1"",""23538""
","""event"",""trial"",""time""
""fullscreenenter"",""1"",""24491""
","
","","","-1","","","19","10614","4909","&#9761;","elianto","#3366ff99","-1","-1","1","+10","[]","0","0","2","","","","","","","",""
"pit-trial","42","462964","0.0-2.0-11.1-0.1","battery-v0.2","","""event"",""trial"",""time""
""blur"",""1"",""20575""
""focus"",""1"",""23538""
""fullscreenenter"",""1"",""24491""
","""event"",""trial"",""time""
""blur"",""1"",""20575""
","""event"",""trial"",""time""
""focus"",""1"",""23538""
","""event"",""trial"",""time""
""fullscreenenter"",""1"",""24491""
","
","","","86.5","","","19","10614","4909","&#9761;","elianto","#3366ff99","-1"," ","0","0","[941.2000045776367]","1","0","2","","","","","","","",""
"pit-trial","43","467854","0.0-2.0-11.1-1.1","battery-v0.2","","""event"",""trial"",""time""
""blur"",""1"",""20575""
""focus"",""1"",""23538""
""fullscreenenter"",""1"",""24491""
","""event"",""trial"",""time""
""blur"",""1"",""20575""
","""event"",""trial"",""time""
""focus"",""1"",""23538""
","""event"",""trial"",""time""
""fullscreenenter"",""1"",""24491""
","
","","","-1","","","19","10614","4909","&#9761;","elianto","#3366ff99","-1","-1","1","+10","[]","0","0","2","","","","","","","",""
"pit-trial","44","472707","0.0-2.0-11.1-2.1","battery-v0.2","","""event"",""trial"",""time""
""blur"",""1"",""20575""
""focus"",""1"",""23538""
""fullscreenenter"",""1"",""24491""
","""event"",""trial"",""time""
""blur"",""1"",""20575""
","""event"",""trial"",""time""
""focus"",""1"",""23538""
","""event"",""trial"",""time""
""fullscreenenter"",""1"",""24491""
","
","","","-1","","","19","10614","4909","&#9761;","elianto","#3366ff99","-1","-1","1","+10","[]","0","0","2","","","","","","","",""
"pit-trial","45","477561","0.0-2.0-11.1-3.1","battery-v0.2","","""event"",""trial"",""time""
""blur"",""1"",""20575""
""focus"",""1"",""23538""
""fullscreenenter"",""1"",""24491""
","""event"",""trial"",""time""
""blur"",""1"",""20575""
","""event"",""trial"",""time""
""focus"",""1"",""23538""
","""event"",""trial"",""time""
""fullscreenenter"",""1"",""24491""
","
","","","-1","","","19","10614","4909","&#9761;","elianto","#3366ff99","-1","-1","1","0","[]","0","0","2","","","","","","","",""
"pit-trial","46","482414","0.0-2.0-11.1-4.1","battery-v0.2","","""event"",""trial"",""time""
""blur"",""1"",""20575""
""focus"",""1"",""23538""
""fullscreenenter"",""1"",""24491""
","""event"",""trial"",""time""
""blur"",""1"",""20575""
","""event"",""trial"",""time""
""focus"",""1"",""23538""
","""event"",""trial"",""time""
""fullscreenenter"",""1"",""24491""
","
","","","-1","","","19","10614","4909","&#9761;","elianto","#3366ff99","-1","-1","1","+10","[]","0","0","2","","","","","","","",""
"pit-trial","47","487267","0.0-2.0-11.2-0.2","battery-v0.2","","""event"",""trial"",""time""
""blur"",""1"",""20575""
""focus"",""1"",""23538""
""fullscreenenter"",""1"",""24491""
","""event"",""trial"",""time""
""blur"",""1"",""20575""
","""event"",""trial"",""time""
""focus"",""1"",""23538""
","""event"",""trial"",""time""
""fullscreenenter"",""1"",""24491""
","
","","","-1","","","19","10614","4909","&#9761;","elianto","#3366ff99","-1","-1","1","+10","[]","0","0","2","","","","","","","",""
"pit-trial","48","492121","0.0-2.0-11.2-1.2","battery-v0.2","","""event"",""trial"",""time""
""blur"",""1"",""20575""
""focus"",""1"",""23538""
""fullscreenenter"",""1"",""24491""
","""event"",""trial"",""time""
""blur"",""1"",""20575""
","""event"",""trial"",""time""
""focus"",""1"",""23538""
","""event"",""trial"",""time""
""fullscreenenter"",""1"",""24491""
","
","","","-1","","","19","10614","4909","&#9761;","elianto","#3366ff99","-1","-1","1","+10","[]","0","0","2","","","","","","","",""
"pit-trial","49","496974","0.0-2.0-11.2-2.2","battery-v0.2","","""event"",""trial"",""time""
""blur"",""1"",""20575""
""focus"",""1"",""23538""
""fullscreenenter"",""1"",""24491""
","""event"",""trial"",""time""
""blur"",""1"",""20575""
","""event"",""trial"",""time""
""focus"",""1"",""23538""
","""event"",""trial"",""time""
""fullscreenenter"",""1"",""24491""
","
","","","-1","","","19","10614","4909","&#9761;","elianto","#3366ff99","-1","-1","1","+10","[]","0","0","2","","","","","","","",""
"pit-trial","50","501828","0.0-2.0-11.2-3.2","battery-v0.2","","""event"",""trial"",""time""
""blur"",""1"",""20575""
""focus"",""1"",""23538""
""fullscreenenter"",""1"",""24491""
","""event"",""trial"",""time""
""blur"",""1"",""20575""
","""event"",""trial"",""time""
""focus"",""1"",""23538""
","""event"",""trial"",""time""
""fullscreenenter"",""1"",""24491""
","
","","","-1","","","19","10614","4909","&#9761;","elianto","#3366ff99","-1","-1","1","0","[]","0","0","2","","","","","","","",""
"pit-trial","51","506681","0.0-2.0-11.2-4.2","battery-v0.2","","""event"",""trial"",""time""
""blur"",""1"",""20575""
""focus"",""1"",""23538""
""fullscreenenter"",""1"",""24491""
","""event"",""trial"",""time""
""blur"",""1"",""20575""
","""event"",""trial"",""time""
""focus"",""1"",""23538""
","""event"",""trial"",""time""
""fullscreenenter"",""1"",""24491""
","
","","","-1","","","19","10614","4909","&#9761;","elianto","#3366ff99","-1","-1","1","+10","[]","0","0","2","","","","","","","",""
"pit-trial","52","511535","0.0-2.0-11.3-0.3","battery-v0.2","","""event"",""trial"",""time""
""blur"",""1"",""20575""
""focus"",""1"",""23538""
""fullscreenenter"",""1"",""24491""
","""event"",""trial"",""time""
""blur"",""1"",""20575""
","""event"",""trial"",""time""
""focus"",""1"",""23538""
","""event"",""trial"",""time""
""fullscreenenter"",""1"",""24491""
","
","","","-1","","","19","10614","4909","&#9761;","elianto","#3366ff99","-1","-1","1","+10","[]","0","0","2","","","","","","","",""
"pit-trial","53","516389","0.0-2.0-11.3-1.3","battery-v0.2","","""event"",""trial"",""time""
""blur"",""1"",""20575""
""focus"",""1"",""23538""
""fullscreenenter"",""1"",""24491""
","""event"",""trial"",""time""
""blur"",""1"",""20575""
","""event"",""trial"",""time""
""focus"",""1"",""23538""
","""event"",""trial"",""time""
""fullscreenenter"",""1"",""24491""
","
","","","-1","","","19","10614","4909","&#9761;","elianto","#3366ff99","-1","-1","1","+10","[]","0","0","2","","","","","","","",""
"pit-trial","54","521243","0.0-2.0-11.3-2.3","battery-v0.2","","""event"",""trial"",""time""
""blur"",""1"",""20575""
""focus"",""1"",""23538""
""fullscreenenter"",""1"",""24491""
","""event"",""trial"",""time""
""blur"",""1"",""20575""
","""event"",""trial"",""time""
""focus"",""1"",""23538""
","""event"",""trial"",""time""
""fullscreenenter"",""1"",""24491""
","
","","","-1","","","19","10614","4909","&#9761;","elianto","#3366ff99","-1","-1","1","+10","[]","0","0","2","","","","","","","",""
"pit-trial","55","526096","0.0-2.0-11.3-3.3","battery-v0.2","","""event"",""trial"",""time""
""blur"",""1"",""20575""
""focus"",""1"",""23538""
""fullscreenenter"",""1"",""24491""
","""event"",""trial"",""time""
""blur"",""1"",""20575""
","""event"",""trial"",""time""
""focus"",""1"",""23538""
","""event"",""trial"",""time""
""fullscreenenter"",""1"",""24491""
","
","","","-1","","","19","10614","4909","&#9761;","elianto","#3366ff99","-1","-1","1","0","[]","0","0","2","","","","","","","",""
"pit-trial","56","530948","0.0-2.0-11.3-4.3","battery-v0.2","","""event"",""trial"",""time""
""blur"",""1"",""20575""
""focus"",""1"",""23538""
""fullscreenenter"",""1"",""24491""
","""event"",""trial"",""time""
""blur"",""1"",""20575""
","""event"",""trial"",""time""
""focus"",""1"",""23538""
","""event"",""trial"",""time""
""fullscreenenter"",""1"",""24491""
","
","","","-1","","","19","10614","4909","&#9761;","elianto","#3366ff99","-1","-1","1","+10","[]","0","0","2","","","","","","","",""
"call-function","57","530951","0.0-2.0-12.0","battery-v0.2","","""event"",""trial"",""time""
""blur"",""1"",""20575""
""focus"",""1"",""23538""
""fullscreenenter"",""1"",""24491""
","""event"",""trial"",""time""
""blur"",""1"",""20575""
","""event"",""trial"",""time""
""focus"",""1"",""23538""
","""event"",""trial"",""time""
""fullscreenenter"",""1"",""24491""
","
","","","","","","","","","","","","","","","","","","","","","","","","","","",""
"pit-instructions","58","563155","0.0-2.0-13.0","battery-v0.2","","""event"",""trial"",""time""
""blur"",""1"",""20575""
""focus"",""1"",""23538""
""fullscreenenter"",""1"",""24491""
","""event"",""trial"",""time""
""blur"",""1"",""20575""
","""event"",""trial"",""time""
""focus"",""1"",""23538""
","""event"",""trial"",""time""
""fullscreenenter"",""1"",""24491""
","
","","[{""page_index"":0,""viewing_time"":6133.400001525879},{""page_index"":1,""viewing_time"":6887.599998474121},{""page_index"":2,""viewing_time"":3606.900001525879},{""page_index"":3,""viewing_time"":10031.199996948242},{""page_index"":4,""viewing_time"":5544}]","32203.40000152588","","","","","","","","","","","","","","","","","","","","","","","",""
"pit-trial","59","566615","0.0-2.0-14.0-0.0","battery-v0.2","","""event"",""trial"",""time""
""blur"",""1"",""20575""
""focus"",""1"",""23538""
""fullscreenenter"",""1"",""24491""
","""event"",""trial"",""time""
""blur"",""1"",""20575""
","""event"",""trial"",""time""
""focus"",""1"",""23538""
","""event"",""trial"",""time""
""fullscreenenter"",""1"",""24491""
","
","","","590.9000015258789","","","19","10614","4909","&#9826;","elianto","#f73b6a7A","-1"," ","0","-10","[1441.7000045776367]","1","0","3","","","","","","","",""
"pit-trial","60","569666","0.0-2.0-14.0-1.0","battery-v0.2","","""event"",""trial"",""time""
""blur"",""1"",""20575""
""focus"",""1"",""23538""
""fullscreenenter"",""1"",""24491""
","""event"",""trial"",""time""
""blur"",""1"",""20575""
","""event"",""trial"",""time""
""focus"",""1"",""23538""
","""event"",""trial"",""time""
""fullscreenenter"",""1"",""24491""
","
","","","189.5999984741211","","","19","10614","4909","&#9826;","elianto","#f73b6a7A","-1"," ","0","-10","[1044.900001525879]","1","0","3","","","","","","","",""
"pit-trial","61","572564","0.0-2.0-14.0-2.0","battery-v0.2","","""event"",""trial"",""time""
""blur"",""1"",""20575""
""focus"",""1"",""23538""
""fullscreenenter"",""1"",""24491""
","""event"",""trial"",""time""
""blur"",""1"",""20575""
","""event"",""trial"",""time""
""focus"",""1"",""23538""
","""event"",""trial"",""time""
""fullscreenenter"",""1"",""24491""
","
","","","34","","","19","10614","4909","&#9826;","elianto","#f73b6a7A","-1"," ","0","-10","[886.4000015258789]","1","0","3","","","","","","","",""
"pit-trial","62","577434","0.0-2.0-14.0-3.0","battery-v0.2","","""event"",""trial"",""time""
""blur"",""1"",""20575""
""focus"",""1"",""23538""
""fullscreenenter"",""1"",""24491""
","""event"",""trial"",""time""
""blur"",""1"",""20575""
","""event"",""trial"",""time""
""focus"",""1"",""23538""
","""event"",""trial"",""time""
""fullscreenenter"",""1"",""24491""
","
","","","-1","","","19","10614","4909","&#9826;","elianto","#f73b6a7A","-1","-1","1","-10","[]","0","0","3","","","","","","","",""
"pit-trial","63","582304","0.0-2.0-14.0-4.0","battery-v0.2","","""event"",""trial"",""time""
""blur"",""1"",""20575""
""focus"",""1"",""23538""
""fullscreenenter"",""1"",""24491""
","""event"",""trial"",""time""
""blur"",""1"",""20575""
","""event"",""trial"",""time""
""focus"",""1"",""23538""
","""event"",""trial"",""time""
""fullscreenenter"",""1"",""24491""
","
","","","-1","","","19","10614","4909","&#9826;","elianto","#f73b6a7A","-1","-1","1","0","[]","0","0","3","","","","","","","",""
"pit-trial","64","587174","0.0-2.0-14.1-0.1","battery-v0.2","","""event"",""trial"",""time""
""blur"",""1"",""20575""
""focus"",""1"",""23538""
""fullscreenenter"",""1"",""24491""
","""event"",""trial"",""time""
""blur"",""1"",""20575""
","""event"",""trial"",""time""
""focus"",""1"",""23538""
","""event"",""trial"",""time""
""fullscreenenter"",""1"",""24491""
","
","","","-1","","","19","10614","4909","&#9826;","elianto","#f73b6a7A","-1","-1","1","0","[]","0","0","3","","","","","","","",""
"pit-trial","65","592065","0.0-2.0-14.1-1.1","battery-v0.2","","""event"",""trial"",""time""
""blur"",""1"",""20575""
""focus"",""1"",""23538""
""fullscreenenter"",""1"",""24491""
","""event"",""trial"",""time""
""blur"",""1"",""20575""
","""event"",""trial"",""time""
""focus"",""1"",""23538""
","""event"",""trial"",""time""
""fullscreenenter"",""1"",""24491""
","
","","","-1","","","19","10614","4909","&#9826;","elianto","#f73b6a7A","-1","-1","1","0","[]","0","0","3","","","","","","","",""
"pit-trial","66","596919","0.0-2.0-14.1-2.1","battery-v0.2","","""event"",""trial"",""time""
""blur"",""1"",""20575""
""focus"",""1"",""23538""
""fullscreenenter"",""1"",""24491""
","""event"",""trial"",""time""
""blur"",""1"",""20575""
","""event"",""trial"",""time""
""focus"",""1"",""23538""
","""event"",""trial"",""time""
""fullscreenenter"",""1"",""24491""
","
","","","-1","","","19","10614","4909","&#9826;","elianto","#f73b6a7A","-1","-1","1","0","[]","0","0","3","","","","","","","",""
"pit-trial","67","601773","0.0-2.0-14.1-3.1","battery-v0.2","","""event"",""trial"",""time""
""blur"",""1"",""20575""
""focus"",""1"",""23538""
""fullscreenenter"",""1"",""24491""
","""event"",""trial"",""time""
""blur"",""1"",""20575""
","""event"",""trial"",""time""
""focus"",""1"",""23538""
","""event"",""trial"",""time""
""fullscreenenter"",""1"",""24491""
","
","","","-1","","","19","10614","4909","&#9826;","elianto","#f73b6a7A","-1","-1","1","-10","[]","0","0","3","","","","","","","",""
"pit-trial","68","606628","0.0-2.0-14.1-4.1","battery-v0.2","","""event"",""trial"",""time""
""blur"",""1"",""20575""
""focus"",""1"",""23538""
""fullscreenenter"",""1"",""24491""
","""event"",""trial"",""time""
""blur"",""1"",""20575""
","""event"",""trial"",""time""
""focus"",""1"",""23538""
","""event"",""trial"",""time""
""fullscreenenter"",""1"",""24491""
","
","","","-1","","","19","10614","4909","&#9826;","elianto","#f73b6a7A","-1","-1","1","0","[]","0","0","3","","","","","","","",""
"pit-trial","69","611482","0.0-2.0-14.2-0.2","battery-v0.2","","""event"",""trial"",""time""
""blur"",""1"",""20575""
""focus"",""1"",""23538""
""fullscreenenter"",""1"",""24491""
","""event"",""trial"",""time""
""blur"",""1"",""20575""
","""event"",""trial"",""time""
""focus"",""1"",""23538""
","""event"",""trial"",""time""
""fullscreenenter"",""1"",""24491""
","
","","","-1","","","19","10614","4909","&#9826;","elianto","#f73b6a7A","-1","-1","1","0","[]","0","0","3","","","","","","","",""
"pit-trial","70","616336","0.0-2.0-14.2-1.2","battery-v0.2","","""event"",""trial"",""time""
""blur"",""1"",""20575""
""focus"",""1"",""23538""
""fullscreenenter"",""1"",""24491""
","""event"",""trial"",""time""
""blur"",""1"",""20575""
","""event"",""trial"",""time""
""focus"",""1"",""23538""
","""event"",""trial"",""time""
""fullscreenenter"",""1"",""24491""
","
","","","-1","","","19","10614","4909","&#9826;","elianto","#f73b6a7A","-1","-1","1","0","[]","0","0","3","","","","","","","",""
"pit-trial","71","621199","0.0-2.0-14.2-2.2","battery-v0.2","","""event"",""trial"",""time""
""blur"",""1"",""20575""
""focus"",""1"",""23538""
""fullscreenenter"",""1"",""24491""
","""event"",""trial"",""time""
""blur"",""1"",""20575""
","""event"",""trial"",""time""
""focus"",""1"",""23538""
","""event"",""trial"",""time""
""fullscreenenter"",""1"",""24491""
","
","","","-1","","","19","10614","4909","&#9826;","elianto","#f73b6a7A","-1","-1","1","0","[]","0","0","3","","","","","","","",""
"pit-trial","72","626052","0.0-2.0-14.2-3.2","battery-v0.2","","""event"",""trial"",""time""
""blur"",""1"",""20575""
""focus"",""1"",""23538""
""fullscreenenter"",""1"",""24491""
","""event"",""trial"",""time""
""blur"",""1"",""20575""
","""event"",""trial"",""time""
""focus"",""1"",""23538""
","""event"",""trial"",""time""
""fullscreenenter"",""1"",""24491""
","
","","","-1","","","19","10614","4909","&#9826;","elianto","#f73b6a7A","-1","-1","1","-10","[]","0","0","3","","","","","","","",""
"pit-trial","73","630906","0.0-2.0-14.2-4.2","battery-v0.2","","""event"",""trial"",""time""
""blur"",""1"",""20575""
""focus"",""1"",""23538""
""fullscreenenter"",""1"",""24491""
","""event"",""trial"",""time""
""blur"",""1"",""20575""
","""event"",""trial"",""time""
""focus"",""1"",""23538""
","""event"",""trial"",""time""
""fullscreenenter"",""1"",""24491""
","
","","","-1","","","19","10614","4909","&#9826;","elianto","#f73b6a7A","-1","-1","1","0","[]","0","0","3","","","","","","","",""
"pit-trial","74","635760","0.0-2.0-14.3-0.3","battery-v0.2","","""event"",""trial"",""time""
""blur"",""1"",""20575""
""focus"",""1"",""23538""
""fullscreenenter"",""1"",""24491""
","""event"",""trial"",""time""
""blur"",""1"",""20575""
","""event"",""trial"",""time""
""focus"",""1"",""23538""
","""event"",""trial"",""time""
""fullscreenenter"",""1"",""24491""
","
","","","-1","","","19","10614","4909","&#9826;","elianto","#f73b6a7A","-1","-1","1","0","[]","0","0","3","","","","","","","",""
"pit-trial","75","640613","0.0-2.0-14.3-1.3","battery-v0.2","","""event"",""trial"",""time""
""blur"",""1"",""20575""
""focus"",""1"",""23538""
""fullscreenenter"",""1"",""24491""
","""event"",""trial"",""time""
""blur"",""1"",""20575""
","""event"",""trial"",""time""
""focus"",""1"",""23538""
","""event"",""trial"",""time""
""fullscreenenter"",""1"",""24491""
","
","","","-1","","","19","10614","4909","&#9826;","elianto","#f73b6a7A","-1","-1","1","0","[]","0","0","3","","","","","","","",""
"pit-trial","76","645468","0.0-2.0-14.3-2.3","battery-v0.2","","""event"",""trial"",""time""
""blur"",""1"",""20575""
""focus"",""1"",""23538""
""fullscreenenter"",""1"",""24491""
","""event"",""trial"",""time""
""blur"",""1"",""20575""
","""event"",""trial"",""time""
""focus"",""1"",""23538""
","""event"",""trial"",""time""
""fullscreenenter"",""1"",""24491""
","
","","","-1","","","19","10614","4909","&#9826;","elianto","#f73b6a7A","-1","-1","1","0","[]","0","0","3","","","","","","","",""
"pit-trial","77","650319","0.0-2.0-14.3-3.3","battery-v0.2","","""event"",""trial"",""time""
""blur"",""1"",""20575""
""focus"",""1"",""23538""
""fullscreenenter"",""1"",""24491""
","""event"",""trial"",""time""
""blur"",""1"",""20575""
","""event"",""trial"",""time""
""focus"",""1"",""23538""
","""event"",""trial"",""time""
""fullscreenenter"",""1"",""24491""
","
","","","-1","","","19","10614","4909","&#9826;","elianto","#f73b6a7A","-1","-1","1","-10","[]","0","0","3","","","","","","","",""
"pit-trial","78","655172","0.0-2.0-14.3-4.3","battery-v0.2","","""event"",""trial"",""time""
""blur"",""1"",""20575""
""focus"",""1"",""23538""
""fullscreenenter"",""1"",""24491""
","""event"",""trial"",""time""
""blur"",""1"",""20575""
","""event"",""trial"",""time""
""focus"",""1"",""23538""
","""event"",""trial"",""time""
""fullscreenenter"",""1"",""24491""
","
","","","-1","","","19","10614","4909","&#9826;","elianto","#f73b6a7A","-1","-1","1","0","[]","0","0","3","","","","","","","",""
"call-function","79","655174","0.0-2.0-15.0","battery-v0.2","","""event"",""trial"",""time""
""blur"",""1"",""20575""
""focus"",""1"",""23538""
""fullscreenenter"",""1"",""24491""
","""event"",""trial"",""time""
""blur"",""1"",""20575""
","""event"",""trial"",""time""
""focus"",""1"",""23538""
","""event"",""trial"",""time""
""fullscreenenter"",""1"",""24491""
","
","","","","","","","","","","","","","","","","","","","","","","","","","","",""
"pit-instructions","80","681335","0.0-2.0-16.0","battery-v0.2","","""event"",""trial"",""time""
""blur"",""1"",""20575""
""focus"",""1"",""23538""
""fullscreenenter"",""1"",""24491""
","""event"",""trial"",""time""
""blur"",""1"",""20575""
","""event"",""trial"",""time""
""focus"",""1"",""23538""
","""event"",""trial"",""time""
""fullscreenenter"",""1"",""24491""
","
","","[{""page_index"":0,""viewing_time"":6751.300003051758},{""page_index"":1,""viewing_time"":8659.5},{""page_index"":2,""viewing_time"":4994.299995422363},{""page_index"":3,""viewing_time"":5754.599998474121}]","26160.09999847412","","","","","","","","","","","","","","","","","","","","","","","",""
"pit-trial","81","686194","0.0-2.0-17.0-0.0","battery-v0.2","","""event"",""trial"",""time""
""blur"",""1"",""20575""
""focus"",""1"",""23538""
""fullscreenenter"",""1"",""24491""
","""event"",""trial"",""time""
""blur"",""1"",""20575""
","""event"",""trial"",""time""
""focus"",""1"",""23538""
","""event"",""trial"",""time""
""fullscreenenter"",""1"",""24491""
","
","","","-1","","","19","10614","4909","&#9789;","elianto","#f73b6a7A"," ","-1","0","-10","[]","0","0","4","","","","","","","",""
"pit-trial","82","689416","0.0-2.0-17.0-1.0","battery-v0.2","","""event"",""trial"",""time""
""blur"",""1"",""20575""
""focus"",""1"",""23538""
""fullscreenenter"",""1"",""24491""
","""event"",""trial"",""time""
""blur"",""1"",""20575""
","""event"",""trial"",""time""
""focus"",""1"",""23538""
","""event"",""trial"",""time""
""fullscreenenter"",""1"",""24491""
","
","","","365.1999969482422","","","19","10614","4909","&#9789;","elianto","#f73b6a7A"," "," ","1","0","[1219.1999969482422]","1","0","4","","","","","","","",""
"pit-trial","83","694273","0.0-2.0-17.0-2.0","battery-v0.2","","""event"",""trial"",""time""
""blur"",""1"",""20575""
""focus"",""1"",""23538""
""fullscreenenter"",""1"",""24491""
","""event"",""trial"",""time""
""blur"",""1"",""20575""
","""event"",""trial"",""time""
""focus"",""1"",""23538""
","""event"",""trial"",""time""
""fullscreenenter"",""1"",""24491""
","
","","","-1","","","19","10614","4909","&#9789;","elianto","#f73b6a7A"," ","-1","0","-10","[]","0","0","4","","","","","","","",""
"pit-trial","84","697293","0.0-2.0-17.0-3.0","battery-v0.2","","""event"",""trial"",""time""
""blur"",""1"",""20575""
""focus"",""1"",""23538""
""fullscreenenter"",""1"",""24491""
","""event"",""trial"",""time""
""blur"",""1"",""20575""
","""event"",""trial"",""time""
""focus"",""1"",""23538""
","""event"",""trial"",""time""
""fullscreenenter"",""1"",""24491""
","
","","","148.3000030517578","","","19","10614","4909","&#9789;","elianto","#f73b6a7A"," "," ","1","-10","[1001.5999984741211]","1","0","4","","","","","","","",""
"pit-trial","85","700562","0.0-2.0-17.0-4.0","battery-v0.2","","""event"",""trial"",""time""
""blur"",""1"",""20575""
""focus"",""1"",""23538""
""fullscreenenter"",""1"",""24491""
","""event"",""trial"",""time""
""blur"",""1"",""20575""
","""event"",""trial"",""time""
""focus"",""1"",""23538""
","""event"",""trial"",""time""
""fullscreenenter"",""1"",""24491""
","
","","","396.6999969482422","","","19","10614","4909","&#9789;","elianto","#f73b6a7A"," "," ","1","0","[1250.6999969482422]","1","0","4","","","","","","","",""
"pit-trial","86","703653","0.0-2.0-17.1-0.1","battery-v0.2","","""event"",""trial"",""time""
""blur"",""1"",""20575""
""focus"",""1"",""23538""
""fullscreenenter"",""1"",""24491""
","""event"",""trial"",""time""
""blur"",""1"",""20575""
","""event"",""trial"",""time""
""focus"",""1"",""23538""
","""event"",""trial"",""time""
""fullscreenenter"",""1"",""24491""
","
","","","220.5999984741211","","","19","10614","4909","&#9789;","elianto","#f73b6a7A"," "," ","1","0","[1071.6000061035156]","1","0","4","","","","","","","",""
"pit-trial","87","706953","0.0-2.0-17.1-1.1","battery-v0.2","","""event"",""trial"",""time""
""blur"",""1"",""20575""
""focus"",""1"",""23538""
""fullscreenenter"",""1"",""24491""
","""event"",""trial"",""time""
""blur"",""1"",""20575""
","""event"",""trial"",""time""
""focus"",""1"",""23538""
","""event"",""trial"",""time""
""fullscreenenter"",""1"",""24491""
","
","","","428.8000030517578","","","19","10614","4909","&#9789;","elianto","#f73b6a7A"," "," ","1","0","[1279]","1","0","4","","","","","","","",""
"pit-trial","88","710192","0.0-2.0-17.1-2.1","battery-v0.2","","""event"",""trial"",""time""
""blur"",""1"",""20575""
""focus"",""1"",""23538""
""fullscreenenter"",""1"",""24491""
","""event"",""trial"",""time""
""blur"",""1"",""20575""
","""event"",""trial"",""time""
""focus"",""1"",""23538""
","""event"",""trial"",""time""
""fullscreenenter"",""1"",""24491""
","
","","","374.0999984741211","","","19","10614","4909","&#9789;","elianto","#f73b6a7A"," "," ","1","0","[1230.3000030517578]","1","0","4","","","","","","","",""
"pit-trial","89","713393","0.0-2.0-17.1-3.1","battery-v0.2","","""event"",""trial"",""time""
""blur"",""1"",""20575""
""focus"",""1"",""23538""
""fullscreenenter"",""1"",""24491""
","""event"",""trial"",""time""
""blur"",""1"",""20575""
","""event"",""trial"",""time""
""focus"",""1"",""23538""
","""event"",""trial"",""time""
""fullscreenenter"",""1"",""24491""
","
","","","348.0999984741211","","","19","10614","4909","&#9789;","elianto","#f73b6a7A"," "," ","1","-10","[1198.400001525879]","1","0","4","","","","","","","",""
"pit-trial","90","716679","0.0-2.0-17.1-4.1","battery-v0.2","","""event"",""trial"",""time""
""blur"",""1"",""20575""
""focus"",""1"",""23538""
""fullscreenenter"",""1"",""24491""
","""event"",""trial"",""time""
""blur"",""1"",""20575""
","""event"",""trial"",""time""
""focus"",""1"",""23538""
","""event"",""trial"",""time""
""fullscreenenter"",""1"",""24491""
","
","","","433.5","","","19","10614","4909","&#9789;","elianto","#f73b6a7A"," "," ","1","0","[1283.599998474121]","1","0","4","","","","","","","",""
"pit-trial","91","720154","0.0-2.0-17.2-0.2","battery-v0.2","","""event"",""trial"",""time""
""blur"",""1"",""20575""
""focus"",""1"",""23538""
""fullscreenenter"",""1"",""24491""
","""event"",""trial"",""time""
""blur"",""1"",""20575""
","""event"",""trial"",""time""
""focus"",""1"",""23538""
","""event"",""trial"",""time""
""fullscreenenter"",""1"",""24491""
","
","","","620.5999984741211","","","19","10614","4909","&#9789;","elianto","#f73b6a7A"," "," ","1","0","[1471.1999969482422]","1","0","4","","","","","","","",""
"pit-trial","92","723770","0.0-2.0-17.2-1.2","battery-v0.2","","""event"",""trial"",""time""
""blur"",""1"",""20575""
""focus"",""1"",""23538""
""fullscreenenter"",""1"",""24491""
","""event"",""trial"",""time""
""blur"",""1"",""20575""
","""event"",""trial"",""time""
""focus"",""1"",""23538""
","""event"",""trial"",""time""
""fullscreenenter"",""1"",""24491""
","
","","","764.3000030517578","","","19","10614","4909","&#9789;","elianto","#f73b6a7A"," "," ","1","0","[1614.6000061035156]","1","0","4","","","","","","","",""
"pit-trial","93","726926","0.0-2.0-17.2-2.2","battery-v0.2","","""event"",""trial"",""time""
""blur"",""1"",""20575""
""focus"",""1"",""23538""
""fullscreenenter"",""1"",""24491""
","""event"",""trial"",""time""
""blur"",""1"",""20575""
","""event"",""trial"",""time""
""focus"",""1"",""23538""
","""event"",""trial"",""time""
""fullscreenenter"",""1"",""24491""
","
","","","301.3000030517578","","","19","10614","4909","&#9789;","elianto","#f73b6a7A"," "," ","1","0","[1152.099998474121]","1","0","4","","","","","","","",""
"pit-trial","94","729886","0.0-2.0-17.2-3.2","battery-v0.2","","""event"",""trial"",""time""
""blur"",""1"",""20575""
""focus"",""1"",""23538""
""fullscreenenter"",""1"",""24491""
","""event"",""trial"",""time""
""blur"",""1"",""20575""
","""event"",""trial"",""time""
""focus"",""1"",""23538""
","""event"",""trial"",""time""
""fullscreenenter"",""1"",""24491""
","
","","","107.30000305175781","","","19","10614","4909","&#9789;","elianto","#f73b6a7A"," "," ","1","-10","[957.4000015258789]","1","0","4","","","","","","","",""
"pit-trial","95","733082","0.0-2.0-17.2-4.2","battery-v0.2","","""event"",""trial"",""time""
""blur"",""1"",""20575""
""focus"",""1"",""23538""
""fullscreenenter"",""1"",""24491""
","""event"",""trial"",""time""
""blur"",""1"",""20575""
","""event"",""trial"",""time""
""focus"",""1"",""23538""
","""event"",""trial"",""time""
""fullscreenenter"",""1"",""24491""
","
","","","342.5999984741211","","","19","10614","4909","&#9789;","elianto","#f73b6a7A"," "," ","1","0","[1193.6999969482422]","1","0","4","","","","","","","",""
"pit-trial","96","736366","0.0-2.0-17.3-0.3","battery-v0.2","","""event"",""trial"",""time""
""blur"",""1"",""20575""
""focus"",""1"",""23538""
""fullscreenenter"",""1"",""24491""
","""event"",""trial"",""time""
""blur"",""1"",""20575""
","""event"",""trial"",""time""
""focus"",""1"",""23538""
","""event"",""trial"",""time""
""fullscreenenter"",""1"",""24491""
","
","","","428.2999954223633","","","19","10614","4909","&#9789;","elianto","#f73b6a7A"," "," ","1","0","[1280.099998474121]","1","0","4","","","","","","","",""
"pit-trial","97","739602","0.0-2.0-17.3-1.3","battery-v0.2","","""event"",""trial"",""time""
""blur"",""1"",""20575""
""focus"",""1"",""23538""
""fullscreenenter"",""1"",""24491""
","""event"",""trial"",""time""
""blur"",""1"",""20575""
","""event"",""trial"",""time""
""focus"",""1"",""23538""
","""event"",""trial"",""time""
""fullscreenenter"",""1"",""24491""
","
","","","383.4000015258789","","","19","10614","4909","&#9789;","elianto","#f73b6a7A"," "," ","1","0","[1233.6999969482422]","1","0","4","","","","","","","",""
"pit-trial","98","742754","0.0-2.0-17.3-2.3","battery-v0.2","","""event"",""trial"",""time""
""blur"",""1"",""20575""
""focus"",""1"",""23538""
""fullscreenenter"",""1"",""24491""
","""event"",""trial"",""time""
""blur"",""1"",""20575""
","""event"",""trial"",""time""
""focus"",""1"",""23538""
","""event"",""trial"",""time""
""fullscreenenter"",""1"",""24491""
","
","","","299.3000030517578","","","19","10614","4909","&#9789;","elianto","#f73b6a7A"," "," ","1","0","[1149.7000045776367]","1","0","4","","","","","","","",""
"pit-trial","99","745877","0.0-2.0-17.3-3.3","battery-v0.2","","""event"",""trial"",""time""
""blur"",""1"",""20575""
""focus"",""1"",""23538""
""fullscreenenter"",""1"",""24491""
","""event"",""trial"",""time""
""blur"",""1"",""20575""
","""event"",""trial"",""time""
""focus"",""1"",""23538""
","""event"",""trial"",""time""
""fullscreenenter"",""1"",""24491""
","
","","","269.1999969482422","","","19","10614","4909","&#9789;","elianto","#f73b6a7A"," "," ","1","-10","[1121.1999969482422]","1","0","4","","","","","","","",""
"pit-trial","100","749022","0.0-2.0-17.3-4.3","battery-v0.2","","""event"",""trial"",""time""
""blur"",""1"",""20575""
""focus"",""1"",""23538""
""fullscreenenter"",""1"",""24491""
","""event"",""trial"",""time""
""blur"",""1"",""20575""
","""event"",""trial"",""time""
""focus"",""1"",""23538""
","""event"",""trial"",""time""
""fullscreenenter"",""1"",""24491""
","
","","","291.6999969482422","","","19","10614","4909","&#9789;","elianto","#f73b6a7A"," "," ","1","0","[1141.900001525879]","1","0","4","","","","","","","",""
"call-function","101","749024","0.0-2.0-18.0","battery-v0.2","","""event"",""trial"",""time""
""blur"",""1"",""20575""
""focus"",""1"",""23538""
""fullscreenenter"",""1"",""24491""
","""event"",""trial"",""time""
""blur"",""1"",""20575""
","""event"",""trial"",""time""
""focus"",""1"",""23538""
","""event"",""trial"",""time""
""fullscreenenter"",""1"",""24491""
","
","","","","","","","","","","","","","","","","","","","","","","","","","","",""
"pit-instructions","102","823241","0.0-2.0-19.0","battery-v0.2","","""event"",""trial"",""time""
""blur"",""1"",""20575""
""focus"",""1"",""23538""
""fullscreenenter"",""1"",""24491""
","""event"",""trial"",""time""
""blur"",""1"",""20575""
","""event"",""trial"",""time""
""focus"",""1"",""23538""
","""event"",""trial"",""time""
""fullscreenenter"",""1"",""24491""
","
","","[{""page_index"":0,""viewing_time"":6781.899993896484},{""page_index"":1,""viewing_time"":6085.900001525879},{""page_index"":2,""viewing_time"":14656.099998474121},{""page_index"":3,""viewing_time"":7937},{""page_index"":4,""viewing_time"":8883.600006103516},{""page_index"":5,""viewing_time"":8021.799995422363},{""page_index"":6,""viewing_time"":8624},{""page_index"":7,""viewing_time"":6681.700004577637},{""page_index"":8,""viewing_time"":6541.899993896484}]","74214.19999694824","","","","","","","","","","","","","","","","","","","","","","","",""
"pit-comprehension","103","827789","0.0-2.0-20.0-0.0","battery-v0.2","","""event"",""trial"",""time""
""blur"",""1"",""20575""
""focus"",""1"",""23538""
""fullscreenenter"",""1"",""24491""
","""event"",""trial"",""time""
""blur"",""1"",""20575""
","""event"",""trial"",""time""
""focus"",""1"",""23538""
","""event"",""trial"",""time""
""fullscreenenter"",""1"",""24491""
","
","","","4543.5","[""SPACE""]","0","19","10614","4909","","","","","","","","","","","","","","","","","","",""
"pit-instructions","104","830888","0.0-2.0-20.0-1.0","battery-v0.2","","""event"",""trial"",""time""
""blur"",""1"",""20575""
""focus"",""1"",""23538""
""fullscreenenter"",""1"",""24491""
","""event"",""trial"",""time""
""blur"",""1"",""20575""
","""event"",""trial"",""time""
""focus"",""1"",""23538""
","""event"",""trial"",""time""
""fullscreenenter"",""1"",""24491""
","
","","[{""page_index"":0,""viewing_time"":3070.7000045776367}]","3071.1000061035156","","","","","","","","","","","","","","","","","","","","","","","",""
"pit-comprehension","105","836933","0.0-2.0-21.0-0.0","battery-v0.2","","""event"",""trial"",""time""
""blur"",""1"",""20575""
""focus"",""1"",""23538""
""fullscreenenter"",""1"",""24491""
","""event"",""trial"",""time""
""blur"",""1"",""20575""
","""event"",""trial"",""time""
""focus"",""1"",""23538""
","""event"",""trial"",""time""
""fullscreenenter"",""1"",""24491""
","
","","","6040.900001525879","[""10""]","0","19","10614","4909","","","","","","","","","","","","","","","","","","",""
"pit-instructions","106","840857","0.0-2.0-21.0-1.0","battery-v0.2","","""event"",""trial"",""time""
""blur"",""1"",""20575""
""focus"",""1"",""23538""
""fullscreenenter"",""1"",""24491""
","""event"",""trial"",""time""
""blur"",""1"",""20575""
","""event"",""trial"",""time""
""focus"",""1"",""23538""
","""event"",""trial"",""time""
""fullscreenenter"",""1"",""24491""
","
","","[{""page_index"":0,""viewing_time"":3897.6000061035156}]","3898","","","","","","","","","","","","","","","","","","","","","","","",""
"pit-comprehension","107","847694","0.0-2.0-22.0-0.0","battery-v0.2","","""event"",""trial"",""time""
""blur"",""1"",""20575""
""focus"",""1"",""23538""
""fullscreenenter"",""1"",""24491""
","""event"",""trial"",""time""
""blur"",""1"",""20575""
","""event"",""trial"",""time""
""focus"",""1"",""23538""
","""event"",""trial"",""time""
""fullscreenenter"",""1"",""24491""
","
","","","6832.099998474121","[""0""]","0","19","10614","4909","","","","","","","","","","","","","","","","","","",""
"pit-instructions","108","849927","0.0-2.0-22.0-1.0","battery-v0.2","","""event"",""trial"",""time""
""blur"",""1"",""20575""
""focus"",""1"",""23538""
""fullscreenenter"",""1"",""24491""
","""event"",""trial"",""time""
""blur"",""1"",""20575""
","""event"",""trial"",""time""
""focus"",""1"",""23538""
","""event"",""trial"",""time""
""fullscreenenter"",""1"",""24491""
","
","","[{""page_index"":0,""viewing_time"":2206.599998474121}]","2206.7999954223633","","","","","","","","","","","","","","","","","","","","","","","",""
"pit-comprehension","109","862861","0.0-2.0-23.0-0.0","battery-v0.2","","""event"",""trial"",""time""
""blur"",""1"",""20575""
""focus"",""1"",""23538""
""fullscreenenter"",""1"",""24491""
","""event"",""trial"",""time""
""blur"",""1"",""20575""
","""event"",""trial"",""time""
""focus"",""1"",""23538""
","""event"",""trial"",""time""
""fullscreenenter"",""1"",""24491""
","
","","","12932.600006103516","[""True""]","0","19","10614","4909","","","","","","","","","","","","","","","","","","",""
"pit-instructions","110","867186","0.0-2.0-23.0-1.0","battery-v0.2","","""event"",""trial"",""time""
""blur"",""1"",""20575""
""focus"",""1"",""23538""
""fullscreenenter"",""1"",""24491""
","""event"",""trial"",""time""
""blur"",""1"",""20575""
","""event"",""trial"",""time""
""focus"",""1"",""23538""
","""event"",""trial"",""time""
""fullscreenenter"",""1"",""24491""
","
","","[{""page_index"":0,""viewing_time"":4291.299995422363}]","4291.599998474121","","","","","","","","","","","","","","","","","","","","","","","",""
"pit-comprehension","111","874775","0.0-2.0-24.0-0.0","battery-v0.2","","""event"",""trial"",""time""
""blur"",""1"",""20575""
""focus"",""1"",""23538""
""fullscreenenter"",""1"",""24491""
","""event"",""trial"",""time""
""blur"",""1"",""20575""
","""event"",""trial"",""time""
""focus"",""1"",""23538""
","""event"",""trial"",""time""
""fullscreenenter"",""1"",""24491""
","
","","","7584.700004577637","[""True""]","0","19","10614","4909","","","","","","","","","","","","","","","","","","",""
"pit-instructions","112","876694","0.0-2.0-24.0-1.0","battery-v0.2","","""event"",""trial"",""time""
""blur"",""1"",""20575""
""focus"",""1"",""23538""
""fullscreenenter"",""1"",""24491""
","""event"",""trial"",""time""
""blur"",""1"",""20575""
","""event"",""trial"",""time""
""focus"",""1"",""23538""
","""event"",""trial"",""time""
""fullscreenenter"",""1"",""24491""
","
","","[{""page_index"":0,""viewing_time"":1891}]","1891.400001525879","","","","","","","","","","","","","","","","","","","","","","","",""
"pit-comprehension","113","883138","0.0-2.0-25.0-0.0","battery-v0.2","","""event"",""trial"",""time""
""blur"",""1"",""20575""
""focus"",""1"",""23538""
""fullscreenenter"",""1"",""24491""
","""event"",""trial"",""time""
""blur"",""1"",""20575""
","""event"",""trial"",""time""
""focus"",""1"",""23538""
","""event"",""trial"",""time""
""fullscreenenter"",""1"",""24491""
","
","","","6439.900001525879","[""True""]","0","19","10614","4909","","","","","","","","","","","","","","","","","","",""
"pit-instructions","114","885154","0.0-2.0-25.0-1.0","battery-v0.2","","""event"",""trial"",""time""
""blur"",""1"",""20575""
""focus"",""1"",""23538""
""fullscreenenter"",""1"",""24491""
","""event"",""trial"",""time""
""blur"",""1"",""20575""
","""event"",""trial"",""time""
""focus"",""1"",""23538""
","""event"",""trial"",""time""
""fullscreenenter"",""1"",""24491""
","
","","[{""page_index"":0,""viewing_time"":1986.8000030517578}]","1986.900001525879","","","","","","","","","","","","","","","","","","","","","","","",""
"pit-comprehension","115","890026","0.0-2.0-26.0-0.0","battery-v0.2","","""event"",""trial"",""time""
""blur"",""1"",""20575""
""focus"",""1"",""23538""
""fullscreenenter"",""1"",""24491""
","""event"",""trial"",""time""
""blur"",""1"",""20575""
","""event"",""trial"",""time""
""focus"",""1"",""23538""
","""event"",""trial"",""time""
""fullscreenenter"",""1"",""24491""
","
","","","4869.699996948242","[""False""]","0","19","10614","4909","","","","","","","","","","","","","","","","","","",""
"pit-instructions","116","892042","0.0-2.0-26.0-1.0","battery-v0.2","","""event"",""trial"",""time""
""blur"",""1"",""20575""
""focus"",""1"",""23538""
""fullscreenenter"",""1"",""24491""
","""event"",""trial"",""time""
""blur"",""1"",""20575""
","""event"",""trial"",""time""
""focus"",""1"",""23538""
","""event"",""trial"",""time""
""fullscreenenter"",""1"",""24491""
","
","","[{""page_index"":0,""viewing_time"":1987.1999969482422}]","1987.599998474121","","","","","","","","","","","","","","","","","","","","","","","",""
"pit-instructions","117","909573","0.0-3.0","battery-v0.2","","""event"",""trial"",""time""
""blur"",""1"",""20575""
""focus"",""1"",""23538""
""fullscreenenter"",""1"",""24491""
","""event"",""trial"",""time""
""blur"",""1"",""20575""
","""event"",""trial"",""time""
""focus"",""1"",""23538""
","""event"",""trial"",""time""
""fullscreenenter"",""1"",""24491""
","
","","[{""page_index"":0,""viewing_time"":4606.399993896484},{""page_index"":1,""viewing_time"":5211.400001525879},{""page_index"":2,""viewing_time"":7709.700004577637}]","17527.799995422363","","","","","","","","","","","","","","","","","","","","","","","",""
"pit-trial","118","913017","0.0-4.0","battery-v0.2","","""event"",""trial"",""time""
""blur"",""1"",""20575""
""focus"",""1"",""23538""
""fullscreenenter"",""1"",""24491""
","""event"",""trial"",""time""
""blur"",""1"",""20575""
","""event"",""trial"",""time""
""focus"",""1"",""23538""
","""event"",""trial"",""time""
""fullscreenenter"",""1"",""24491""
","
","","","576","","","19","10614","4909","&#9730;","elianto","#3366ff99"," "," ","1","+10","[1426.8999938964844]","1","1","","","10614","1","1","1","win","go","0"
"pit-trial","119","916647","0.0-5.0","battery-v0.2","","""event"",""trial"",""time""
""blur"",""1"",""20575""
""focus"",""1"",""23538""
""fullscreenenter"",""1"",""24491""
","""event"",""trial"",""time""
""blur"",""1"",""20575""
","""event"",""trial"",""time""
""focus"",""1"",""23538""
","""event"",""trial"",""time""
""fullscreenenter"",""1"",""24491""
","
","","","769","","","19","10614","4909","&#9752;","elianto","#f73b6a7A"," "," ","1","0","[1623.7000045776367]","1","1","","","10614","2","3","3","lose","go","0"
"pit-trial","120","920297","0.0-6.0","battery-v0.2","","""event"",""trial"",""time""
""blur"",""1"",""20575""
""focus"",""1"",""23538""
""fullscreenenter"",""1"",""24491""
","""event"",""trial"",""time""
""blur"",""1"",""20575""
","""event"",""trial"",""time""
""focus"",""1"",""23538""
","""event"",""trial"",""time""
""fullscreenenter"",""1"",""24491""
","
","","","783.4000015258789","","","19","10614","4909","&#9733;","elianto","#3366ff99","-1"," ","0","+10","[1634.3000030517578]","1","1","","","10614","3","2","2","win","no-go","1"
"pit-trial","121","925166","0.0-7.0","battery-v0.2","","""event"",""trial"",""time""
""blur"",""1"",""20575""
""focus"",""1"",""23538""
""fullscreenenter"",""1"",""24491""
","""event"",""trial"",""time""
""blur"",""1"",""20575""
","""event"",""trial"",""time""
""focus"",""1"",""23538""
","""event"",""trial"",""time""
""fullscreenenter"",""1"",""24491""
","
","","","-1","","","19","10614","4909","&#9728;","elianto","#f73b6a7A","-1","-1","1","0","[]","0","1","","","10614","4","0","4","lose","no-go","0"
"pit-trial","122","930037","0.0-8.0","battery-v0.2","","""event"",""trial"",""time""
""blur"",""1"",""20575""
""focus"",""1"",""23538""
""fullscreenenter"",""1"",""24491""
","""event"",""trial"",""time""
""blur"",""1"",""20575""
","""event"",""trial"",""time""
""focus"",""1"",""23538""
","""event"",""trial"",""time""
""fullscreenenter"",""1"",""24491""
","
","","","-1","","","19","10614","4909","&#9728;","elianto","#f73b6a7A","-1","-1","1","0","[]","0","1","","","10614","5","0","4","lose","no-go","0"
"pit-trial","123","933536","0.0-9.0","battery-v0.2","","""event"",""trial"",""time""
""blur"",""1"",""20575""
""focus"",""1"",""23538""
""fullscreenenter"",""1"",""24491""
","""event"",""trial"",""time""
""blur"",""1"",""20575""
","""event"",""trial"",""time""
""focus"",""1"",""23538""
","""event"",""trial"",""time""
""fullscreenenter"",""1"",""24491""
","
","","","625.5999984741211","","","19","10614","4909","&#9733;","elianto","#3366ff99","-1"," ","0","0","[1480.599998474121]","1","1","","","10614","6","2","2","win","no-go","0"
"pit-trial","124","937166","0.0-10.0","battery-v0.2","","""event"",""trial"",""time""
""blur"",""1"",""20575""
""focus"",""1"",""23538""
""fullscreenenter"",""1"",""24491""
","""event"",""trial"",""time""
""blur"",""1"",""20575""
","""event"",""trial"",""time""
""focus"",""1"",""23538""
","""event"",""trial"",""time""
""fullscreenenter"",""1"",""24491""
","
","","","754.4000015258789","","","19","10614","4909","&#9752;","elianto","#f73b6a7A"," "," ","1","0","[1606.900001525879]","1","1","","","10614","7","3","3","lose","go","0"
"pit-trial","125","940627","0.0-11.0","battery-v0.2","","""event"",""trial"",""time""
""blur"",""1"",""20575""
""focus"",""1"",""23538""
""fullscreenenter"",""1"",""24491""
","""event"",""trial"",""time""
""blur"",""1"",""20575""
","""event"",""trial"",""time""
""focus"",""1"",""23538""
","""event"",""trial"",""time""
""fullscreenenter"",""1"",""24491""
","
","","","604.7999954223633","","","19","10614","4909","&#9730;","elianto","#3366ff99"," "," ","1","+10","[1457.2999954223633]","1","1","","","10614","8","1","1","win","go","0"
"pit-trial","126","945481","0.0-12.0","battery-v0.2","","""event"",""trial"",""time""
""blur"",""1"",""20575""
""focus"",""1"",""23538""
""fullscreenenter"",""1"",""24491""
","""event"",""trial"",""time""
""blur"",""1"",""20575""
","""event"",""trial"",""time""
""focus"",""1"",""23538""
","""event"",""trial"",""time""
""fullscreenenter"",""1"",""24491""
","
","","","-1","","","19","10614","4909","&#9728;","elianto","#f73b6a7A","-1","-1","1","-10","[]","0","1","","","10614","9","0","4","lose","no-go","1"
"pit-trial","127","948780","0.0-13.0","battery-v0.2","","""event"",""trial"",""time""
""blur"",""1"",""20575""
""focus"",""1"",""23538""
""fullscreenenter"",""1"",""24491""
","""event"",""trial"",""time""
""blur"",""1"",""20575""
","""event"",""trial"",""time""
""focus"",""1"",""23538""
","""event"",""trial"",""time""
""fullscreenenter"",""1"",""24491""
","
","","","443.8000030517578","","","19","10614","4909","&#9730;","elianto","#3366ff99"," "," ","1","+10","[1294.599998474121]","1","1","","","10614","10","1","1","win","go","0"
"pit-trial","128","952226","0.0-14.0","battery-v0.2","","""event"",""trial"",""time""
""blur"",""1"",""20575""
""focus"",""1"",""23538""
""fullscreenenter"",""1"",""24491""
","""event"",""trial"",""time""
""blur"",""1"",""20575""
","""event"",""trial"",""time""
""focus"",""1"",""23538""
","""event"",""trial"",""time""
""fullscreenenter"",""1"",""24491""
","
","","","591","","","19","10614","4909","&#9752;","elianto","#f73b6a7A"," "," ","1","0","[1443.5]","1","1","","","10614","11","3","3","lose","go","0"
"pit-trial","129","955500","0.0-15.0","battery-v0.2","","""event"",""trial"",""time""
""blur"",""1"",""20575""
""focus"",""1"",""23538""
""fullscreenenter"",""1"",""24491""
","""event"",""trial"",""time""
""blur"",""1"",""20575""
","""event"",""trial"",""time""
""focus"",""1"",""23538""
","""event"",""trial"",""time""
""fullscreenenter"",""1"",""24491""
","
","","","417.8999938964844","","","19","10614","4909","&#9733;","elianto","#3366ff99","-1"," ","0","0","[1269.7999954223633]","1","1","","","10614","12","2","2","win","no-go","0"
"pit-trial","130","960353","0.0-16.0","battery-v0.2","","""event"",""trial"",""time""
""blur"",""1"",""20575""
""focus"",""1"",""23538""
""fullscreenenter"",""1"",""24491""
","""event"",""trial"",""time""
""blur"",""1"",""20575""
","""event"",""trial"",""time""
""focus"",""1"",""23538""
","""event"",""trial"",""time""
""fullscreenenter"",""1"",""24491""
","
","","","-1","","","19","10614","4909","&#9728;","elianto","#f73b6a7A","-1","-1","1","0","[]","0","1","","","10614","13","0","4","lose","no-go","0"
"pit-trial","131","963694","0.0-17.0","battery-v0.2","","""event"",""trial"",""time""
""blur"",""1"",""20575""
""focus"",""1"",""23538""
""fullscreenenter"",""1"",""24491""
","""event"",""trial"",""time""
""blur"",""1"",""20575""
","""event"",""trial"",""time""
""focus"",""1"",""23538""
","""event"",""trial"",""time""
""fullscreenenter"",""1"",""24491""
","
","","","487.8999938964844","","","19","10614","4909","&#9730;","elianto","#3366ff99"," "," ","1","+10","[1339.3999938964844]","1","1","","","10614","14","1","1","win","go","0"
"pit-trial","132","966965","0.0-18.0","battery-v0.2","","""event"",""trial"",""time""
""blur"",""1"",""20575""
""focus"",""1"",""23538""
""fullscreenenter"",""1"",""24491""
","""event"",""trial"",""time""
""blur"",""1"",""20575""
","""event"",""trial"",""time""
""focus"",""1"",""23538""
","""event"",""trial"",""time""
""fullscreenenter"",""1"",""24491""
","
","","","417.7000045776367","","","19","10614","4909","&#9733;","elianto","#3366ff99","-1"," ","0","0","[1268.5]","1","1","","","10614","15","2","2","win","no-go","0"
"pit-trial","133","970442","0.0-19.0","battery-v0.2","","""event"",""trial"",""time""
""blur"",""1"",""20575""
""focus"",""1"",""23538""
""fullscreenenter"",""1"",""24491""
","""event"",""trial"",""time""
""blur"",""1"",""20575""
","""event"",""trial"",""time""
""focus"",""1"",""23538""
","""event"",""trial"",""time""
""fullscreenenter"",""1"",""24491""
","
","","","623.7000045776367","","","19","10614","4909","&#9752;","elianto","#f73b6a7A"," "," ","1","0","[1474.5]","1","1","","","10614","16","3","3","lose","go","0"
"pit-trial","134","975295","0.0-20.0","battery-v0.2","","""event"",""trial"",""time""
""blur"",""1"",""20575""
""focus"",""1"",""23538""
""fullscreenenter"",""1"",""24491""
","""event"",""trial"",""time""
""blur"",""1"",""20575""
","""event"",""trial"",""time""
""focus"",""1"",""23538""
","""event"",""trial"",""time""
""fullscreenenter"",""1"",""24491""
","
","","","-1","","","19","10614","4909","&#9728;","elianto","#f73b6a7A","-1","-1","1","-10","[]","0","1","","","10614","17","0","4","lose","no-go","1"
"pit-trial","135","980149","0.0-21.0","battery-v0.2","","""event"",""trial"",""time""
""blur"",""1"",""20575""
""focus"",""1"",""23538""
""fullscreenenter"",""1"",""24491""
","""event"",""trial"",""time""
""blur"",""1"",""20575""
","""event"",""trial"",""time""
""focus"",""1"",""23538""
","""event"",""trial"",""time""
""fullscreenenter"",""1"",""24491""
","
","","","-1","","","19","10614","4909","&#9733;","elianto","#3366ff99","-1","-1","1","+10","[]","0","1","","","10614","18","2","2","win","no-go","0"
"pit-trial","136","983515","0.0-22.0","battery-v0.2","","""event"",""trial"",""time""
""blur"",""1"",""20575""
""focus"",""1"",""23538""
""fullscreenenter"",""1"",""24491""
","""event"",""trial"",""time""
""blur"",""1"",""20575""
","""event"",""trial"",""time""
""focus"",""1"",""23538""
","""event"",""trial"",""time""
""fullscreenenter"",""1"",""24491""
","
","","","511.9000015258789","","","19","10614","4909","&#9730;","elianto","#3366ff99"," "," ","1","+10","[1363.7000045776367]","1","1","","","10614","19","1","1","win","go","0"
"pit-trial","137","987006","0.0-23.0","battery-v0.2","","""event"",""trial"",""time""
""blur"",""1"",""20575""
""focus"",""1"",""23538""
""fullscreenenter"",""1"",""24491""
","""event"",""trial"",""time""
""blur"",""1"",""20575""
","""event"",""trial"",""time""
""focus"",""1"",""23538""
","""event"",""trial"",""time""
""fullscreenenter"",""1"",""24491""
","
","","","638.4000015258789","","","19","10614","4909","&#9752;","elianto","#f73b6a7A"," "," ","1","0","[1488.400001525879]","1","1","","","10614","20","3","3","lose","go","0"
"pit-instructions","138","999508","0.0-24.0","battery-v0.2","","""event"",""trial"",""time""
""blur"",""1"",""20575""
""focus"",""1"",""23538""
""fullscreenenter"",""1"",""24491""
","""event"",""trial"",""time""
""blur"",""1"",""20575""
","""event"",""trial"",""time""
""focus"",""1"",""23538""
","""event"",""trial"",""time""
""fullscreenenter"",""1"",""24491""
","
","","[{""page_index"":0,""viewing_time"":5850.899993896484},{""page_index"":1,""viewing_time"":6648.100006103516}]","12499.299995422363","","","","","","","","","","","","","","","","","","","","","","","",""
"pit-trial","139","1003156","0.0-25.0","battery-v0.2","","""event"",""trial"",""time""
""blur"",""1"",""20575""
""focus"",""1"",""23538""
""fullscreenenter"",""1"",""24491""
","""event"",""trial"",""time""
""blur"",""1"",""20575""
","""event"",""trial"",""time""
""focus"",""1"",""23538""
","""event"",""trial"",""time""
""fullscreenenter"",""1"",""24491""
","
","","","789","","","19","10614","4909","a","elianto","#f73b6a7A"," "," ","1","0","[1643]","1","2","","","10614","21","2","3","lose","go","0"
"pit-trial","140","1008016","0.0-26.0","battery-v0.2","","""event"",""trial"",""time""
""blur"",""1"",""20575""
""focus"",""1"",""23538""
""fullscreenenter"",""1"",""24491""
","""event"",""trial"",""time""
""blur"",""1"",""20575""
","""event"",""trial"",""time""
""focus"",""1"",""23538""
","""event"",""trial"",""time""
""fullscreenenter"",""1"",""24491""
","
","","","-1","","","19","10614","4909","g","elianto","#f73b6a7A","-1","-1","1","-10","[]","0","2","","","10614","22","3","4","lose","no-go","1"
"pit-trial","141","1011686","0.0-27.0","battery-v0.2","","""event"",""trial"",""time""
""blur"",""1"",""20575""
""focus"",""1"",""23538""
""fullscreenenter"",""1"",""24491""
","""event"",""trial"",""time""
""blur"",""1"",""20575""
","""event"",""trial"",""time""
""focus"",""1"",""23538""
","""event"",""trial"",""time""
""fullscreenenter"",""1"",""24491""
","
","","","813.3000030517578","","","19","10614","4909","l","elianto","#3366ff99","-1"," ","0","0","[1663.599998474121]","1","2","","","10614","23","1","2","win","no-go","0"
"pit-trial","142","1016566","0.0-28.0","battery-v0.2","","""event"",""trial"",""time""
""blur"",""1"",""20575""
""focus"",""1"",""23538""
""fullscreenenter"",""1"",""24491""
","""event"",""trial"",""time""
""blur"",""1"",""20575""
","""event"",""trial"",""time""
""focus"",""1"",""23538""
","""event"",""trial"",""time""
""fullscreenenter"",""1"",""24491""
","
","","","-1","","","19","10614","4909","u","elianto","#f73b6a7A"," ","-1","0","-10","[]","0","2","","","10614","24","0","3","lose","go","0"
"pit-trial","143","1019926","0.0-29.0","battery-v0.2","","""event"",""trial"",""time""
""blur"",""1"",""20575""
""focus"",""1"",""23538""
""fullscreenenter"",""1"",""24491""
","""event"",""trial"",""time""
""blur"",""1"",""20575""
","""event"",""trial"",""time""
""focus"",""1"",""23538""
","""event"",""trial"",""time""
""fullscreenenter"",""1"",""24491""
","
","","","502.4000015258789","","","19","10614","4909","a","elianto","#f73b6a7A"," "," ","1","0","[1353.900001525879]","1","2","","","10614","25","2","3","lose","go","0"
"pit-trial","144","1023575","0.0-30.0","battery-v0.2","","""event"",""trial"",""time""
""blur"",""1"",""20575""
""focus"",""1"",""23538""
""fullscreenenter"",""1"",""24491""
","""event"",""trial"",""time""
""blur"",""1"",""20575""
","""event"",""trial"",""time""
""focus"",""1"",""23538""
","""event"",""trial"",""time""
""fullscreenenter"",""1"",""24491""
","
","","","780.1999969482422","","","19","10614","4909","l","elianto","#3366ff99","-1"," ","0","0","[1631.1999969482422]","1","2","","","10614","26","1","2","win","no-go","0"
"pit-trial","145","1027446","0.0-31.0","battery-v0.2","","""event"",""trial"",""time""
""blur"",""1"",""20575""
""focus"",""1"",""23538""
""fullscreenenter"",""1"",""24491""
","""event"",""trial"",""time""
""blur"",""1"",""20575""
","""event"",""trial"",""time""
""focus"",""1"",""23538""
","""event"",""trial"",""time""
""fullscreenenter"",""1"",""24491""
","
","","","1005.0999984741211","","","19","10614","4909","u","elianto","#f73b6a7A"," "," ","1","0","[1858.599998474121]","1","2","","","10614","27","0","3","lose","go","0"
"pit-trial","146","1030859","0.0-32.0","battery-v0.2","","""event"",""trial"",""time""
""blur"",""1"",""20575""
""focus"",""1"",""23538""
""fullscreenenter"",""1"",""24491""
","""event"",""trial"",""time""
""blur"",""1"",""20575""
","""event"",""trial"",""time""
""focus"",""1"",""23538""
","""event"",""trial"",""time""
""fullscreenenter"",""1"",""24491""
","
","","","554.1999969482422","","","19","10614","4909","g","elianto","#f73b6a7A","-1"," ","0","-10","[1409.7999954223633]","1","2","","","10614","28","3","4","lose","no-go","0"
"pit-trial","147","1034247","0.0-33.0","battery-v0.2","","""event"",""trial"",""time""
""blur"",""1"",""20575""
""focus"",""1"",""23538""
""fullscreenenter"",""1"",""24491""
","""event"",""trial"",""time""
""blur"",""1"",""20575""
","""event"",""trial"",""time""
""focus"",""1"",""23538""
","""event"",""trial"",""time""
""fullscreenenter"",""1"",""24491""
","
","","","535.2999954223633","","","19","10614","4909","g","elianto","#f73b6a7A","-1"," ","0","-10","[1386]","1","2","","","10614","29","3","4","lose","no-go","0"
"pit-trial","148","1037896","0.0-34.0","battery-v0.2","","""event"",""trial"",""time""
""blur"",""1"",""20575""
""focus"",""1"",""23538""
""fullscreenenter"",""1"",""24491""
","""event"",""trial"",""time""
""blur"",""1"",""20575""
","""event"",""trial"",""time""
""focus"",""1"",""23538""
","""event"",""trial"",""time""
""fullscreenenter"",""1"",""24491""
","
","","","795.5","","","19","10614","4909","l","elianto","#3366ff99","-1"," ","0","0","[1646]","1","2","","","10614","30","1","2","win","no-go","0"
"pit-trial","149","1041468","0.0-35.0","battery-v0.2","","""event"",""trial"",""time""
""blur"",""1"",""20575""
""focus"",""1"",""23538""
""fullscreenenter"",""1"",""24491""
","""event"",""trial"",""time""
""blur"",""1"",""20575""
","""event"",""trial"",""time""
""focus"",""1"",""23538""
","""event"",""trial"",""time""
""fullscreenenter"",""1"",""24491""
","
","","","718.2999954223633","","","19","10614","4909","a","elianto","#f73b6a7A"," "," ","1","0","[1568.7999954223633]","1","2","","","10614","31","2","3","lose","go","0"
"pit-trial","150","1044859","0.0-36.0","battery-v0.2","","""event"",""trial"",""time""
""blur"",""1"",""20575""
""focus"",""1"",""23538""
""fullscreenenter"",""1"",""24491""
","""event"",""trial"",""time""
""blur"",""1"",""20575""
","""event"",""trial"",""time""
""focus"",""1"",""23538""
","""event"",""trial"",""time""
""fullscreenenter"",""1"",""24491""
","
","","","538.4000015258789","","","19","10614","4909","u","elianto","#f73b6a7A"," "," ","1","0","[1389]","1","2","","","10614","32","0","3","lose","go","0"
"pit-trial","151","1048499","0.0-37.0","battery-v0.2","","""event"",""trial"",""time""
""blur"",""1"",""20575""
""focus"",""1"",""23538""
""fullscreenenter"",""1"",""24491""
","""event"",""trial"",""time""
""blur"",""1"",""20575""
","""event"",""trial"",""time""
""focus"",""1"",""23538""
","""event"",""trial"",""time""
""fullscreenenter"",""1"",""24491""
","
","","","785.6999969482422","","","19","10614","4909","u","elianto","#f73b6a7A"," "," ","1","-10","[1636.7000045776367]","1","2","","","10614","33","0","3","lose","go","1"
"pit-trial","152","1053352","0.0-38.0","battery-v0.2","","""event"",""trial"",""time""
""blur"",""1"",""20575""
""focus"",""1"",""23538""
""fullscreenenter"",""1"",""24491""
","""event"",""trial"",""time""
""blur"",""1"",""20575""
","""event"",""trial"",""time""
""focus"",""1"",""23538""
","""event"",""trial"",""time""
""fullscreenenter"",""1"",""24491""
","
","","","-1","","","19","10614","4909","g","elianto","#f73b6a7A","-1","-1","1","-10","[]","0","2","","","10614","34","3","4","lose","no-go","1"
"pit-trial","153","1058206","0.0-39.0","battery-v0.2","","""event"",""trial"",""time""
""blur"",""1"",""20575""
""focus"",""1"",""23538""
""fullscreenenter"",""1"",""24491""
","""event"",""trial"",""time""
""blur"",""1"",""20575""
","""event"",""trial"",""time""
""focus"",""1"",""23538""
","""event"",""trial"",""time""
""fullscreenenter"",""1"",""24491""
","
","","","-1","","","19","10614","4909","l","elianto","#3366ff99","-1","-1","1","+10","[]","0","2","","","10614","35","1","2","win","no-go","0"
"pit-trial","154","1061666","0.0-40.0","battery-v0.2","","""event"",""trial"",""time""
""blur"",""1"",""20575""
""focus"",""1"",""23538""
""fullscreenenter"",""1"",""24491""
","""event"",""trial"",""time""
""blur"",""1"",""20575""
","""event"",""trial"",""time""
""focus"",""1"",""23538""
","""event"",""trial"",""time""
""fullscreenenter"",""1"",""24491""
","
","","","607.1999969482422","","","19","10614","4909","a","elianto","#f73b6a7A"," "," ","1","0","[1457.6999969482422]","1","2","","","10614","36","2","3","lose","go","0"
"pit-trial","155","1065122","0.0-41.0","battery-v0.2","","""event"",""trial"",""time""
""blur"",""1"",""20575""
""focus"",""1"",""23538""
""fullscreenenter"",""1"",""24491""
","""event"",""trial"",""time""
""blur"",""1"",""20575""
","""event"",""trial"",""time""
""focus"",""1"",""23538""
","""event"",""trial"",""time""
""fullscreenenter"",""1"",""24491""
","
","","","603.2000045776367","","","19","10614","4909","a","elianto","#f73b6a7A"," "," ","1","0","[1453.3000030517578]","1","2","","","10614","37","2","3","lose","go","0"
"pit-trial","156","1069974","0.0-42.0","battery-v0.2","","""event"",""trial"",""time""
""blur"",""1"",""20575""
""focus"",""1"",""23538""
""fullscreenenter"",""1"",""24491""
","""event"",""trial"",""time""
""blur"",""1"",""20575""
","""event"",""trial"",""time""
""focus"",""1"",""23538""
","""event"",""trial"",""time""
""fullscreenenter"",""1"",""24491""
","
","","","-1","","","19","10614","4909","l","elianto","#3366ff99","-1","-1","1","+10","[]","0","2","","","10614","38","1","2","win","no-go","0"
"pit-trial","157","1074829","0.0-43.0","battery-v0.2","","""event"",""trial"",""time""
""blur"",""1"",""20575""
""focus"",""1"",""23538""
""fullscreenenter"",""1"",""24491""
","""event"",""trial"",""time""
""blur"",""1"",""20575""
","""event"",""trial"",""time""
""focus"",""1"",""23538""
","""event"",""trial"",""time""
""fullscreenenter"",""1"",""24491""
","
","","","-1","","","19","10614","4909","g","elianto","#f73b6a7A","-1","-1","1","0","[]","0","2","","","10614","39","3","4","lose","no-go","0"
"pit-trial","158","1078190","0.0-44.0","battery-v0.2","","""event"",""trial"",""time""
""blur"",""1"",""20575""
""focus"",""1"",""23538""
""fullscreenenter"",""1"",""24491""
","""event"",""trial"",""time""
""blur"",""1"",""20575""
","""event"",""trial"",""time""
""focus"",""1"",""23538""
","""event"",""trial"",""time""
""fullscreenenter"",""1"",""24491""
","
","","","506.5","","","19","10614","4909","u","elianto","#f73b6a7A"," "," ","1","0","[1358]","1","2","","","10614","40","0","3","lose","go","0"
"pit-trial","159","1083044","0.0-45.0","battery-v0.2","","""event"",""trial"",""time""
""blur"",""1"",""20575""
""focus"",""1"",""23538""
""fullscreenenter"",""1"",""24491""
","""event"",""trial"",""time""
""blur"",""1"",""20575""
","""event"",""trial"",""time""
""focus"",""1"",""23538""
","""event"",""trial"",""time""
""fullscreenenter"",""1"",""24491""
","
","","","-1","","","19","10614","4909","l","elianto","#3366ff99","-1","-1","1","0","[]","0","2","","","10614","41","1","2","win","no-go","1"
"pit-trial","160","1086512","0.0-46.0","battery-v0.2","","""event"",""trial"",""time""
""blur"",""1"",""20575""
""focus"",""1"",""23538""
""fullscreenenter"",""1"",""24491""
","""event"",""trial"",""time""
""blur"",""1"",""20575""
","""event"",""trial"",""time""
""focus"",""1"",""23538""
","""event"",""trial"",""time""
""fullscreenenter"",""1"",""24491""
","
","","","613.5999984741211","","","19","10614","4909","a","elianto","#f73b6a7A"," "," ","1","0","[1463.6999969482422]","1","2","","","10614","42","2","3","lose","go","0"
"pit-trial","161","1091365","0.0-47.0","battery-v0.2","","""event"",""trial"",""time""
""blur"",""1"",""20575""
""focus"",""1"",""23538""
""fullscreenenter"",""1"",""24491""
","""event"",""trial"",""time""
""blur"",""1"",""20575""
","""event"",""trial"",""time""
""focus"",""1"",""23538""
","""event"",""trial"",""time""
""fullscreenenter"",""1"",""24491""
","
","","","-1","","","19","10614","4909","g","elianto","#f73b6a7A","-1","-1","1","0","[]","0","2","","","10614","43","3","4","lose","no-go","0"
"pit-trial","162","1094667","0.0-48.0","battery-v0.2","","""event"",""trial"",""time""
""blur"",""1"",""20575""
""focus"",""1"",""23538""
""fullscreenenter"",""1"",""24491""
","""event"",""trial"",""time""
""blur"",""1"",""20575""
","""event"",""trial"",""time""
""focus"",""1"",""23538""
","""event"",""trial"",""time""
""fullscreenenter"",""1"",""24491""
","
","","","448.5999984741211","","","19","10614","4909","u","elianto","#f73b6a7A"," "," ","1","0","[1299.099998474121]","1","2","","","10614","44","0","3","lose","go","0"
"pit-trial","163","1099521","0.0-49.0","battery-v0.2","","""event"",""trial"",""time""
""blur"",""1"",""20575""
""focus"",""1"",""23538""
""fullscreenenter"",""1"",""24491""
","""event"",""trial"",""time""
""blur"",""1"",""20575""
","""event"",""trial"",""time""
""focus"",""1"",""23538""
","""event"",""trial"",""time""
""fullscreenenter"",""1"",""24491""
","
","","","-1","","","19","10614","4909","g","elianto","#f73b6a7A","-1","-1","1","0","[]","0","2","","","10614","45","3","4","lose","no-go","0"
"pit-trial","164","1104375","0.0-50.0","battery-v0.2","","""event"",""trial"",""time""
""blur"",""1"",""20575""
""focus"",""1"",""23538""
""fullscreenenter"",""1"",""24491""
","""event"",""trial"",""time""
""blur"",""1"",""20575""
","""event"",""trial"",""time""
""focus"",""1"",""23538""
","""event"",""trial"",""time""
""fullscreenenter"",""1"",""24491""
","
","","","-1","","","19","10614","4909","l","elianto","#3366ff99","-1","-1","1","+10","[]","0","2","","","10614","46","1","2","win","no-go","0"
"pit-trial","165","1107983","0.0-51.0","battery-v0.2","","""event"",""trial"",""time""
""blur"",""1"",""20575""
""focus"",""1"",""23538""
""fullscreenenter"",""1"",""24491""
","""event"",""trial"",""time""
""blur"",""1"",""20575""
","""event"",""trial"",""time""
""focus"",""1"",""23538""
","""event"",""trial"",""time""
""fullscreenenter"",""1"",""24491""
","
","","","754.8999938964844","","","19","10614","4909","u","elianto","#f73b6a7A"," "," ","1","0","[1605.099998474121]","1","2","","","10614","47","0","3","lose","go","0"
"pit-trial","166","1111410","0.0-52.0","battery-v0.2","","""event"",""trial"",""time""
""blur"",""1"",""20575""
""focus"",""1"",""23538""
""fullscreenenter"",""1"",""24491""
","""event"",""trial"",""time""
""blur"",""1"",""20575""
","""event"",""trial"",""time""
""focus"",""1"",""23538""
","""event"",""trial"",""time""
""fullscreenenter"",""1"",""24491""
","
","","","574.7000045776367","","","19","10614","4909","a","elianto","#f73b6a7A"," "," ","1","-10","[1425]","1","2","","","10614","48","2","3","lose","go","1"
"pit-trial","167","1114854","0.0-53.0","battery-v0.2","","""event"",""trial"",""time""
""blur"",""1"",""20575""
""focus"",""1"",""23538""
""fullscreenenter"",""1"",""24491""
","""event"",""trial"",""time""
""blur"",""1"",""20575""
","""event"",""trial"",""time""
""focus"",""1"",""23538""
","""event"",""trial"",""time""
""fullscreenenter"",""1"",""24491""
","
","","","590.9000015258789","","","19","10614","4909","a","elianto","#f73b6a7A"," "," ","1","0","[1441.5]","1","2","","","10614","49","2","3","lose","go","0"
"pit-trial","168","1118299","0.0-54.0","battery-v0.2","","""event"",""trial"",""time""
""blur"",""1"",""20575""
""focus"",""1"",""23538""
""fullscreenenter"",""1"",""24491""
","""event"",""trial"",""time""
""blur"",""1"",""20575""
","""event"",""trial"",""time""
""focus"",""1"",""23538""
","""event"",""trial"",""time""
""fullscreenenter"",""1"",""24491""
","
","","","591.5","","","19","10614","4909","u","elianto","#f73b6a7A"," "," ","1","0","[1442]","1","2","","","10614","50","0","3","lose","go","0"
"pit-trial","169","1123152","0.0-55.0","battery-v0.2","","""event"",""trial"",""time""
""blur"",""1"",""20575""
""focus"",""1"",""23538""
""fullscreenenter"",""1"",""24491""
","""event"",""trial"",""time""
""blur"",""1"",""20575""
","""event"",""trial"",""time""
""focus"",""1"",""23538""
","""event"",""trial"",""time""
""fullscreenenter"",""1"",""24491""
","
","","","-1","","","19","10614","4909","l","elianto","#3366ff99","-1","-1","1","+10","[]","0","2","","","10614","51","1","2","win","no-go","0"
"pit-trial","170","1128005","0.0-56.0","battery-v0.2","","""event"",""trial"",""time""
""blur"",""1"",""20575""
""focus"",""1"",""23538""
""fullscreenenter"",""1"",""24491""
","""event"",""trial"",""time""
""blur"",""1"",""20575""
","""event"",""trial"",""time""
""focus"",""1"",""23538""
","""event"",""trial"",""time""
""fullscreenenter"",""1"",""24491""
","
","","","-1","","","19","10614","4909","g","elianto","#f73b6a7A","-1","-1","1","0","[]","0","2","","","10614","52","3","4","lose","no-go","0"
"pit-trial","171","1132858","0.0-57.0","battery-v0.2","","""event"",""trial"",""time""
""blur"",""1"",""20575""
""focus"",""1"",""23538""
""fullscreenenter"",""1"",""24491""
","""event"",""trial"",""time""
""blur"",""1"",""20575""
","""event"",""trial"",""time""
""focus"",""1"",""23538""
","""event"",""trial"",""time""
""fullscreenenter"",""1"",""24491""
","
","","","-1","","","19","10614","4909","g","elianto","#f73b6a7A","-1","-1","1","0","[]","0","2","","","10614","53","3","4","lose","no-go","0"
"pit-trial","172","1136467","0.0-58.0","battery-v0.2","","""event"",""trial"",""time""
""blur"",""1"",""20575""
""focus"",""1"",""23538""
""fullscreenenter"",""1"",""24491""
","""event"",""trial"",""time""
""blur"",""1"",""20575""
","""event"",""trial"",""time""
""focus"",""1"",""23538""
","""event"",""trial"",""time""
""fullscreenenter"",""1"",""24491""
","
","","","753.9000015258789","","","19","10614","4909","u","elianto","#f73b6a7A"," "," ","1","-10","[1605]","1","2","","","10614","54","0","3","lose","go","1"
"pit-trial","173","1139814","0.0-59.0","battery-v0.2","","""event"",""trial"",""time""
""blur"",""1"",""20575""
""focus"",""1"",""23538""
""fullscreenenter"",""1"",""24491""
","""event"",""trial"",""time""
""blur"",""1"",""20575""
","""event"",""trial"",""time""
""focus"",""1"",""23538""
","""event"",""trial"",""time""
""fullscreenenter"",""1"",""24491""
","
","","","494.0999984741211","","","19","10614","4909","a","elianto","#f73b6a7A"," "," ","1","0","[1345.2000045776367]","1","2","","","10614","55","2","3","lose","go","0"
"pit-trial","174","1144666","0.0-60.0","battery-v0.2","","""event"",""trial"",""time""
""blur"",""1"",""20575""
""focus"",""1"",""23538""
""fullscreenenter"",""1"",""24491""
","""event"",""trial"",""time""
""blur"",""1"",""20575""
","""event"",""trial"",""time""
""focus"",""1"",""23538""
","""event"",""trial"",""time""
""fullscreenenter"",""1"",""24491""
","
","","","-1","","","19","10614","4909","l","elianto","#3366ff99","-1","-1","1","+10","[]","0","2","","","10614","56","1","2","win","no-go","0"
"pit-trial","175","1149519","0.0-61.0","battery-v0.2","","""event"",""trial"",""time""
""blur"",""1"",""20575""
""focus"",""1"",""23538""
""fullscreenenter"",""1"",""24491""
","""event"",""trial"",""time""
""blur"",""1"",""20575""
","""event"",""trial"",""time""
""focus"",""1"",""23538""
","""event"",""trial"",""time""
""fullscreenenter"",""1"",""24491""
","
","","","-1","","","19","10614","4909","p","elianto","#3366ff99"," ","-1","0","0","[]","0","2","","","10614","57","4","1","win","go","0"
"pit-trial","176","1154374","0.0-62.0","battery-v0.2","","""event"",""trial"",""time""
""blur"",""1"",""20575""
""focus"",""1"",""23538""
""fullscreenenter"",""1"",""24491""
","""event"",""trial"",""time""
""blur"",""1"",""20575""
","""event"",""trial"",""time""
""focus"",""1"",""23538""
","""event"",""trial"",""time""
""fullscreenenter"",""1"",""24491""
","
","","","-1","","","19","10614","4909","g","elianto","#f73b6a7A","-1","-1","1","0","[]","0","2","","","10614","58","3","4","lose","no-go","0"
"pit-trial","177","1157822","0.0-63.0","battery-v0.2","","""event"",""trial"",""time""
""blur"",""1"",""20575""
""focus"",""1"",""23538""
""fullscreenenter"",""1"",""24491""
","""event"",""trial"",""time""
""blur"",""1"",""20575""
","""event"",""trial"",""time""
""focus"",""1"",""23538""
","""event"",""trial"",""time""
""fullscreenenter"",""1"",""24491""
","
","","","595.9000015258789","","","19","10614","4909","a","elianto","#f73b6a7A"," "," ","1","0","[1446.2999954223633]","1","2","","","10614","59","2","3","lose","go","0"
"pit-trial","178","1161351","0.0-64.0","battery-v0.2","","""event"",""trial"",""time""
""blur"",""1"",""20575""
""focus"",""1"",""23538""
""fullscreenenter"",""1"",""24491""
","""event"",""trial"",""time""
""blur"",""1"",""20575""
","""event"",""trial"",""time""
""focus"",""1"",""23538""
","""event"",""trial"",""time""
""fullscreenenter"",""1"",""24491""
","
","","","674.5","","","19","10614","4909","u","elianto","#f73b6a7A"," "," ","1","0","[1525.400001525879]","1","2","","","10614","60","0","3","lose","go","0"
"pit-trial","179","1164851","0.0-65.0","battery-v0.2","","""event"",""trial"",""time""
""blur"",""1"",""20575""
""focus"",""1"",""23538""
""fullscreenenter"",""1"",""24491""
","""event"",""trial"",""time""
""blur"",""1"",""20575""
","""event"",""trial"",""time""
""focus"",""1"",""23538""
","""event"",""trial"",""time""
""fullscreenenter"",""1"",""24491""
","
","","","648","","","19","10614","4909","a","elianto","#f73b6a7A"," "," ","1","0","[1498.3000030517578]","1","2","","","10614","61","2","3","lose","go","0"
"pit-trial","180","1169705","0.0-66.0","battery-v0.2","","""event"",""trial"",""time""
""blur"",""1"",""20575""
""focus"",""1"",""23538""
""fullscreenenter"",""1"",""24491""
","""event"",""trial"",""time""
""blur"",""1"",""20575""
","""event"",""trial"",""time""
""focus"",""1"",""23538""
","""event"",""trial"",""time""
""fullscreenenter"",""1"",""24491""
","
","","","-1","","","19","10614","4909","g","elianto","#f73b6a7A","-1","-1","1","0","[]","0","2","","","10614","62","3","4","lose","no-go","0"
"pit-trial","181","1174560","0.0-67.0","battery-v0.2","","""event"",""trial"",""time""
""blur"",""1"",""20575""
""focus"",""1"",""23538""
""fullscreenenter"",""1"",""24491""
","""event"",""trial"",""time""
""blur"",""1"",""20575""
","""event"",""trial"",""time""
""focus"",""1"",""23538""
","""event"",""trial"",""time""
""fullscreenenter"",""1"",""24491""
","
","","","-1","","","19","10614","4909","l","elianto","#3366ff99","-1","-1","1","+10","[]","0","2","","","10614","63","1","2","win","no-go","0"
"pit-trial","182","1177894","0.0-68.0","battery-v0.2","","""event"",""trial"",""time""
""blur"",""1"",""20575""
""focus"",""1"",""23538""
""fullscreenenter"",""1"",""24491""
","""event"",""trial"",""time""
""blur"",""1"",""20575""
","""event"",""trial"",""time""
""focus"",""1"",""23538""
","""event"",""trial"",""time""
""fullscreenenter"",""1"",""24491""
","
","","","479.6999969482422","","","19","10614","4909","p","elianto","#3366ff99"," "," ","1","+10","[1330.900001525879]","1","2","","","10614","64","4","1","win","go","0"
"pit-trial","183","1181759","0.0-69.0","battery-v0.2","","""event"",""trial"",""time""
""blur"",""1"",""20575""
""focus"",""1"",""23538""
""fullscreenenter"",""1"",""24491""
","""event"",""trial"",""time""
""blur"",""1"",""20575""
","""event"",""trial"",""time""
""focus"",""1"",""23538""
","""event"",""trial"",""time""
""fullscreenenter"",""1"",""24491""
","
","","","1011.5","","","19","10614","4909","s","elianto","#3366ff99","-1"," ","0","0","[1862.3000030517578]","1","2","","","10614","65","5","2","win","no-go","0"
"pit-trial","184","1186614","0.0-70.0","battery-v0.2","","""event"",""trial"",""time""
""blur"",""1"",""20575""
