"trial_type","trial_index","time_elapsed","internal_node_id","task_version","subject_id","interactions","blur_events","focus_events","fullscreenenter_events","fullscreenexit_events","success","view_history","rt","responses","num_errors","age","subject","participantId","rune","rune_set","hex","correct","choice","accuracy","outcome","keys","total_keys","block","practice","value","sub","trial","stimulus","robot","valence","action","sham"
"pavlovia","0","26","0.0-0.0","battery-v0.2","","""event"",""trial"",""time""
""fullscreenenter"",""1"",""1524""
","
","
","""event"",""trial"",""time""
""fullscreenenter"",""1"",""1524""
","
","","","","","","","","","","","","","","","","","","","","","","","","","","",""
"fullscreen","1","2508","0.0-1.0","battery-v0.2","","""event"",""trial"",""time""
""fullscreenenter"",""1"",""1524""
","
","
","""event"",""trial"",""time""
""fullscreenenter"",""1"",""1524""
","
","true","","","","","","","","","","","","","","","","","","","","","","","","","",""
"pit-instructions","2","6968","0.0-2.0-0.0","battery-v0.2","","""event"",""trial"",""time""
""fullscreenenter"",""1"",""1524""
","
","
","""event"",""trial"",""time""
""fullscreenenter"",""1"",""1524""
","
","","[{""page_index"":0,""viewing_time"":4451.79999999702}]","4453.79999999702","","","","","","","","","","","","","","","","","","","","","","","",""
"pit-comprehension","3","9500","0.0-2.0-1.0-0.0","battery-v0.2","","""event"",""trial"",""time""
""fullscreenenter"",""1"",""1524""
","
","
","""event"",""trial"",""time""
""fullscreenenter"",""1"",""1524""
","
","","","2525.2000000029802","[""shark""]","0","11","3541","2040","","","","","","","","","","","","","","","","","","",""
"pit-instructions","4","12288","0.0-2.0-1.0-1.0","battery-v0.2","","""event"",""trial"",""time""
""fullscreenenter"",""1"",""1524""
","
","
","""event"",""trial"",""time""
""fullscreenenter"",""1"",""1524""
","
","","[{""page_index"":0,""viewing_time"":2771.7999999970198}]","2772.4000000059605","","","","","","","","","","","","","","","","","","","","","","","",""
"pit-comprehension","5","14613","0.0-2.0-2.0-0.0","battery-v0.2","","""event"",""trial"",""time""
""fullscreenenter"",""1"",""1524""
","
","
","""event"",""trial"",""time""
""fullscreenenter"",""1"",""1524""
","
","","","2319.2000000029802","[""tiger""]","0","11","3541","2040","","","","","","","","","","","","","","","","","","",""
"pit-instructions","6","15534","0.0-2.0-2.0-1.0","battery-v0.2","","""event"",""trial"",""time""
""fullscreenenter"",""1"",""1524""
","
","
","""event"",""trial"",""time""
""fullscreenenter"",""1"",""1524""
","
","","[{""page_index"":0,""viewing_time"":915.3999999910593}]","915.7000000029802","","","","","","","","","","","","","","","","","","","","","","","",""
"pit-instructions","7","129187","0.0-2.0-3.0","battery-v0.2","","""event"",""trial"",""time""
""fullscreenenter"",""1"",""1524""
","
","
","""event"",""trial"",""time""
""fullscreenenter"",""1"",""1524""
","
","","[{""page_index"":0,""viewing_time"":7510.79999999702},{""page_index"":1,""viewing_time"":5885.79999999702},{""page_index"":2,""viewing_time"":6074.9000000059605},{""page_index"":3,""viewing_time"":12656.39999999106},{""page_index"":4,""viewing_time"":17914.10000000894},{""page_index"":5,""viewing_time"":5030.70000000298},{""page_index"":6,""viewing_time"":6376.5999999940395},{""page_index"":7,""viewing_time"":6694.70000000298},{""page_index"":8,""viewing_time"":6455},{""page_index"":9,""viewing_time"":8773.20000000298},{""page_index"":10,""viewing_time"":10817.59999999404},{""page_index"":11,""viewing_time"":8522.90000000596},{""page_index"":12,""viewing_time"":6208.699999988079},{""page_index"":13,""viewing_time"":4722.5}]","113644.79999999702","","","","","","","","","","","","","","","","","","","","","","","",""
"pit-trial","8","133001","0.0-2.0-4.0-0.0","battery-v0.2","","""event"",""trial"",""time""
""fullscreenenter"",""1"",""1524""
","
","
","""event"",""trial"",""time""
""fullscreenenter"",""1"",""1524""
","
","","","954.5","","","11","3541","2040","&#9784;","elianto","#FFFFF080"," "," ","1","&#10004","[1805.9000000059605]","1","0","0","","","","","","","",""
"pit-trial","9","136423","0.0-2.0-4.1-0.1","battery-v0.2","","""event"",""trial"",""time""
""fullscreenenter"",""1"",""1524""
","
","
","""event"",""trial"",""time""
""fullscreenenter"",""1"",""1524""
","
","","","559.7000000029802","","","11","3541","2040","&#9784;","elianto","#FFFFF080"," "," ","1","&#10004","[1412.2999999970198]","1","0","0","","","","","","","",""
"pit-trial","10","139845","0.0-2.0-4.2-0.2","battery-v0.2","","""event"",""trial"",""time""
""fullscreenenter"",""1"",""1524""
","
","
","""event"",""trial"",""time""
""fullscreenenter"",""1"",""1524""
","
","","","561.0999999940395","","","11","3541","2040","&#9784;","elianto","#FFFFF080"," "," ","1","&#10004","[1415.9000000059605]","1","0","0","","","","","","","",""
"pit-trial","11","143293","0.0-2.0-4.3-0.3","battery-v0.2","","""event"",""trial"",""time""
""fullscreenenter"",""1"",""1524""
","
","
","""event"",""trial"",""time""
""fullscreenenter"",""1"",""1524""
","
","","","588.5999999940395","","","11","3541","2040","&#9784;","elianto","#FFFFF080"," "," ","1","&#10004","[1440.6000000089407]","1","0","0","","","","","","","",""
"pit-trial","12","146577","0.0-2.0-4.4-0.4","battery-v0.2","","""event"",""trial"",""time""
""fullscreenenter"",""1"",""1524""
","
","
","""event"",""trial"",""time""
""fullscreenenter"",""1"",""1524""
","
","","","428.5","","","11","3541","2040","&#9784;","elianto","#FFFFF080"," "," ","1","&#10004","[1280.5]","1","0","0","","","","","","","",""
"pit-instructions","13","167327","0.0-2.0-5.0","battery-v0.2","","""event"",""trial"",""time""
""fullscreenenter"",""1"",""1524""
","
","
","""event"",""trial"",""time""
""fullscreenenter"",""1"",""1524""
","
","","[{""page_index"":0,""viewing_time"":5395.5},{""page_index"":1,""viewing_time"":5295.20000000298},{""page_index"":2,""viewing_time"":4607.199999988079},{""page_index"":3,""viewing_time"":5446.70000000298}]","20745","","","","","","","","","","","","","","","","","","","","","","","",""
"pit-trial","14","172188","0.0-2.0-6.0-0.0","battery-v0.2","","""event"",""trial"",""time""
""fullscreenenter"",""1"",""1524""
","
","
","""event"",""trial"",""time""
""fullscreenenter"",""1"",""1524""
","
","","","-1","","","11","3541","2040","&#9854;","elianto","#FFFFF080","-1","-1","1","&#10004","[]","0","0","1","","","","","","","",""
"pit-trial","15","177047","0.0-2.0-6.1-0.1","battery-v0.2","","""event"",""trial"",""time""
""fullscreenenter"",""1"",""1524""
","
","
","""event"",""trial"",""time""
""fullscreenenter"",""1"",""1524""
","
","","","-1","","","11","3541","2040","&#9854;","elianto","#FFFFF080","-1","-1","1","&#10004","[]","0","0","1","","","","","","","",""
"pit-trial","16","181904","0.0-2.0-6.2-0.2","battery-v0.2","","""event"",""trial"",""time""
""fullscreenenter"",""1"",""1524""
","
","
","""event"",""trial"",""time""
""fullscreenenter"",""1"",""1524""
","
","","","-1","","","11","3541","2040","&#9854;","elianto","#FFFFF080","-1","-1","1","&#10004","[]","0","0","1","","","","","","","",""
"pit-trial","17","186764","0.0-2.0-6.3-0.3","battery-v0.2","","""event"",""trial"",""time""
""fullscreenenter"",""1"",""1524""
","
","
","""event"",""trial"",""time""
""fullscreenenter"",""1"",""1524""
","
","","","-1","","","11","3541","2040","&#9854;","elianto","#FFFFF080","-1","-1","1","&#10004","[]","0","0","1","","","","","","","",""
"pit-trial","18","191621","0.0-2.0-6.4-0.4","battery-v0.2","","""event"",""trial"",""time""
""fullscreenenter"",""1"",""1524""
","
","
","""event"",""trial"",""time""
""fullscreenenter"",""1"",""1524""
","
","","","-1","","","11","3541","2040","&#9854;","elianto","#FFFFF080","-1","-1","1","&#10004","[]","0","0","1","","","","","","","",""
"pit-instructions","19","297273","0.0-2.0-7.0","battery-v0.2","","""event"",""trial"",""time""
""fullscreenenter"",""1"",""1524""
","
","
","""event"",""trial"",""time""
""fullscreenenter"",""1"",""1524""
","
","","[{""page_index"":0,""viewing_time"":5495.20000000298},{""page_index"":1,""viewing_time"":6278.79999999702},{""page_index"":2,""viewing_time"":5543.600000008941},{""page_index"":3,""viewing_time"":5944.399999991059},{""page_index"":4,""viewing_time"":5250.100000008941},{""page_index"":5,""viewing_time"":5522.29999999702},{""page_index"":6,""viewing_time"":4056.2999999970198},{""page_index"":7,""viewing_time"":7397.29999999702},{""page_index"":8,""viewing_time"":6461.5},{""page_index"":9,""viewing_time"":5023.4000000059605},{""page_index"":10,""viewing_time"":6163.0999999940395},{""page_index"":11,""viewing_time"":4040.4000000059605},{""page_index"":12,""viewing_time"":6362.79999999702},{""page_index"":13,""viewing_time"":6026.20000000298},{""page_index"":14,""viewing_time"":6235.5999999940395},{""page_index"":15,""viewing_time"":6273.29999999702},{""page_index"":16,""viewing_time"":6095.600000008941},{""page_index"":17,""viewing_time"":7474.20000000298}]","105644.70000000298","","","","","","","","","","","","","","","","","","","","","","","",""
"pit-trial","20","300595","0.0-2.0-8.0-0.0","battery-v0.2","","""event"",""trial"",""time""
""fullscreenenter"",""1"",""1524""
","
","
","""event"",""trial"",""time""
""fullscreenenter"",""1"",""1524""
","
","","","466.19999998807907","","","11","3541","2040","&#9776;","elianto","#3366ff99"," "," ","1","+10","[550,1316.7999999970198]","2","0","1","","","","","","","",""
"pit-trial","21","303906","0.0-2.0-8.0-1.0","battery-v0.2","","""event"",""trial"",""time""
""fullscreenenter"",""1"",""1524""
","
","
","""event"",""trial"",""time""
""fullscreenenter"",""1"",""1524""
","
","","","452.09999999403954","","","11","3541","2040","&#9776;","elianto","#3366ff99"," "," ","1","+10","[1302.2000000029802]","1","0","1","","","","","","","",""
"pit-trial","22","306972","0.0-2.0-8.0-2.0","battery-v0.2","","""event"",""trial"",""time""
""fullscreenenter"",""1"",""1524""
","
","
","""event"",""trial"",""time""
""fullscreenenter"",""1"",""1524""
","
","","","208.70000000298023","","","11","3541","2040","&#9776;","elianto","#3366ff99"," "," ","1","+10","[1059.7000000029802]","1","0","1","","","","","","","",""
"pit-trial","23","310349","0.0-2.0-8.0-3.0","battery-v0.2","","""event"",""trial"",""time""
""fullscreenenter"",""1"",""1524""
","
","
","""event"",""trial"",""time""
""fullscreenenter"",""1"",""1524""
","
","","","519.2999999970198","","","11","3541","2040","&#9776;","elianto","#3366ff99"," "," ","1","0","[1370.7000000029802]","1","0","1","","","","","","","",""
"pit-trial","24","315207","0.0-2.0-8.0-4.0","battery-v0.2","","""event"",""trial"",""time""
""fullscreenenter"",""1"",""1524""
","
","
","""event"",""trial"",""time""
""fullscreenenter"",""1"",""1524""
","
","","","-1","","","11","3541","2040","&#9776;","elianto","#3366ff99"," ","-1","0","0","[]","0","0","1","","","","","","","",""
"pit-trial","25","318530","0.0-2.0-8.1-0.1","battery-v0.2","","""event"",""trial"",""time""
""fullscreenenter"",""1"",""1524""
","
","
","""event"",""trial"",""time""
""fullscreenenter"",""1"",""1524""
","
","","","461.19999998807907","","","11","3541","2040","&#9776;","elianto","#3366ff99"," "," ","1","+10","[1313.9000000059605]","1","0","1","","","","","","","",""
"pit-trial","26","321405","0.0-2.0-8.1-1.1","battery-v0.2","","""event"",""trial"",""time""
""fullscreenenter"",""1"",""1524""
","
","
","""event"",""trial"",""time""
""fullscreenenter"",""1"",""1524""
","
","","","17.900000005960464","","","11","3541","2040","&#9776;","elianto","#3366ff99"," "," ","1","+10","[868.7000000029802]","1","0","1","","","","","","","",""
"pit-trial","27","324407","0.0-2.0-8.1-2.1","battery-v0.2","","""event"",""trial"",""time""
""fullscreenenter"",""1"",""1524""
","
","
","""event"",""trial"",""time""
""fullscreenenter"",""1"",""1524""
","
","","","146.3999999910593","","","11","3541","2040","&#9776;","elianto","#3366ff99"," "," ","1","+10","[997]","1","0","1","","","","","","","",""
"pit-trial","28","327304","0.0-2.0-8.1-3.1","battery-v0.2","","""event"",""trial"",""time""
""fullscreenenter"",""1"",""1524""
","
","
","""event"",""trial"",""time""
""fullscreenenter"",""1"",""1524""
","
","","","38.8999999910593","","","11","3541","2040","&#9776;","elianto","#3366ff99"," "," ","1","0","[891.7000000029802]","1","0","1","","","","","","","",""
"pit-trial","29","330307","0.0-2.0-8.1-4.1","battery-v0.2","","""event"",""trial"",""time""
""fullscreenenter"",""1"",""1524""
","
","
","""event"",""trial"",""time""
""fullscreenenter"",""1"",""1524""
","
","","","145.1000000089407","","","11","3541","2040","&#9776;","elianto","#3366ff99"," "," ","1","+10","[414.40000000596046,997]","2","0","1","","","","","","","",""
"pit-trial","30","333336","0.0-2.0-8.2-0.2","battery-v0.2","","""event"",""trial"",""time""
""fullscreenenter"",""1"",""1524""
","
","
","""event"",""trial"",""time""
""fullscreenenter"",""1"",""1524""
","
","","","165.70000000298023","","","11","3541","2040","&#9776;","elianto","#3366ff99"," "," ","1","+10","[1022.2999999970198]","1","0","1","","","","","","","",""
"pit-trial","31","336350","0.0-2.0-8.2-1.2","battery-v0.2","","""event"",""trial"",""time""
""fullscreenenter"",""1"",""1524""
","
","
","""event"",""trial"",""time""
""fullscreenenter"",""1"",""1524""
","
","","","159","","","11","3541","2040","&#9776;","elianto","#3366ff99"," "," ","1","+10","[1011.2999999970198]","1","0","1","","","","","","","",""
"pit-trial","32","339496","0.0-2.0-8.2-2.2","battery-v0.2","","""event"",""trial"",""time""
""fullscreenenter"",""1"",""1524""
","
","
","""event"",""trial"",""time""
""fullscreenenter"",""1"",""1524""
","
","","","292.29999999701977","","","11","3541","2040","&#9776;","elianto","#3366ff99"," "," ","1","+10","[252.20000000298023,697.9000000059605,1143]","3","0","1","","","","","","","",""
"pit-trial","33","342787","0.0-2.0-8.2-3.2","battery-v0.2","","""event"",""trial"",""time""
""fullscreenenter"",""1"",""1524""
","
","
","""event"",""trial"",""time""
""fullscreenenter"",""1"",""1524""
","
","","","435.1000000089407","","","11","3541","2040","&#9776;","elianto","#3366ff99"," "," ","1","0","[1286.0999999940395]","1","0","1","","","","","","","",""
"pit-trial","34","346291","0.0-2.0-8.2-4.2","battery-v0.2","","""event"",""trial"",""time""
""fullscreenenter"",""1"",""1524""
","
","
","""event"",""trial"",""time""
""fullscreenenter"",""1"",""1524""
","
","","","646.5","","","11","3541","2040","&#9776;","elianto","#3366ff99"," "," ","1","+10","[1499.2999999970198]","1","0","1","","","","","","","",""
"call-function","35","346293","0.0-2.0-9.0","battery-v0.2","","""event"",""trial"",""time""
""fullscreenenter"",""1"",""1524""
","
","
","""event"",""trial"",""time""
""fullscreenenter"",""1"",""1524""
","
","","","","","","","","","","","","","","","","","","","","","","","","","","",""
"pit-instructions","36","395592","0.0-2.0-10.0","battery-v0.2","","""event"",""trial"",""time""
""fullscreenenter"",""1"",""1524""
","
","
","""event"",""trial"",""time""
""fullscreenenter"",""1"",""1524""
","
","","[{""page_index"":0,""viewing_time"":7029.70000000298},{""page_index"":1,""viewing_time"":8693.79999999702},{""page_index"":2,""viewing_time"":15354.20000000298},{""page_index"":3,""viewing_time"":10631.79999999702},{""page_index"":4,""viewing_time"":7585.5}]","49296","","","","","","","","","","","","","","","","","","","","","","","",""
"pit-trial","37","400451","0.0-2.0-11.0-0.0","battery-v0.2","","""event"",""trial"",""time""
""fullscreenenter"",""1"",""1524""
","
","
","""event"",""trial"",""time""
""fullscreenenter"",""1"",""1524""
","
","","","-1","","","11","3541","2040","&#9761;","elianto","#3366ff99","-1","-1","1","+10","[]","0","0","2","","","","","","","",""
"pit-trial","38","405313","0.0-2.0-11.0-1.0","battery-v0.2","","""event"",""trial"",""time""
""fullscreenenter"",""1"",""1524""
","
","
","""event"",""trial"",""time""
""fullscreenenter"",""1"",""1524""
","
","","","-1","","","11","3541","2040","&#9761;","elianto","#3366ff99","-1","-1","1","+10","[]","0","0","2","","","","","","","",""
"pit-trial","39","410172","0.0-2.0-11.0-2.0","battery-v0.2","","""event"",""trial"",""time""
""fullscreenenter"",""1"",""1524""
","
","
","""event"",""trial"",""time""
""fullscreenenter"",""1"",""1524""
","
","","","-1","","","11","3541","2040","&#9761;","elianto","#3366ff99","-1","-1","1","+10","[]","0","0","2","","","","","","","",""
"pit-trial","40","415030","0.0-2.0-11.0-3.0","battery-v0.2","","""event"",""trial"",""time""
""fullscreenenter"",""1"",""1524""
","
","
","""event"",""trial"",""time""
""fullscreenenter"",""1"",""1524""
","
","","","-1","","","11","3541","2040","&#9761;","elianto","#3366ff99","-1","-1","1","0","[]","0","0","2","","","","","","","",""
"pit-trial","41","419889","0.0-2.0-11.0-4.0","battery-v0.2","","""event"",""trial"",""time""
""fullscreenenter"",""1"",""1524""
","
","
","""event"",""trial"",""time""
""fullscreenenter"",""1"",""1524""
","
","","","-1","","","11","3541","2040","&#9761;","elianto","#3366ff99","-1","-1","1","+10","[]","0","0","2","","","","","","","",""
"pit-trial","42","424748","0.0-2.0-11.1-0.1","battery-v0.2","","""event"",""trial"",""time""
""fullscreenenter"",""1"",""1524""
","
","
","""event"",""trial"",""time""
""fullscreenenter"",""1"",""1524""
","
","","","-1","","","11","3541","2040","&#9761;","elianto","#3366ff99","-1","-1","1","+10","[]","0","0","2","","","","","","","",""
"pit-trial","43","429608","0.0-2.0-11.1-1.1","battery-v0.2","","""event"",""trial"",""time""
""fullscreenenter"",""1"",""1524""
","
","
","""event"",""trial"",""time""
""fullscreenenter"",""1"",""1524""
","
","","","-1","","","11","3541","2040","&#9761;","elianto","#3366ff99","-1","-1","1","+10","[]","0","0","2","","","","","","","",""
"pit-trial","44","434467","0.0-2.0-11.1-2.1","battery-v0.2","","""event"",""trial"",""time""
""fullscreenenter"",""1"",""1524""
","
","
","""event"",""trial"",""time""
""fullscreenenter"",""1"",""1524""
","
","","","-1","","","11","3541","2040","&#9761;","elianto","#3366ff99","-1","-1","1","+10","[]","0","0","2","","","","","","","",""
"pit-trial","45","439325","0.0-2.0-11.1-3.1","battery-v0.2","","""event"",""trial"",""time""
""fullscreenenter"",""1"",""1524""
","
","
","""event"",""trial"",""time""
""fullscreenenter"",""1"",""1524""
","
","","","-1","","","11","3541","2040","&#9761;","elianto","#3366ff99","-1","-1","1","0","[]","0","0","2","","","","","","","",""
"pit-trial","46","444184","0.0-2.0-11.1-4.1","battery-v0.2","","""event"",""trial"",""time""
""fullscreenenter"",""1"",""1524""
","
","
","""event"",""trial"",""time""
""fullscreenenter"",""1"",""1524""
","
","","","-1","","","11","3541","2040","&#9761;","elianto","#3366ff99","-1","-1","1","+10","[]","0","0","2","","","","","","","",""
"pit-trial","47","449043","0.0-2.0-11.2-0.2","battery-v0.2","","""event"",""trial"",""time""
""fullscreenenter"",""1"",""1524""
","
","
","""event"",""trial"",""time""
""fullscreenenter"",""1"",""1524""
","
","","","-1","","","11","3541","2040","&#9761;","elianto","#3366ff99","-1","-1","1","+10","[]","0","0","2","","","","","","","",""
"pit-trial","48","453902","0.0-2.0-11.2-1.2","battery-v0.2","","""event"",""trial"",""time""
""fullscreenenter"",""1"",""1524""
","
","
","""event"",""trial"",""time""
""fullscreenenter"",""1"",""1524""
","
","","","-1","","","11","3541","2040","&#9761;","elianto","#3366ff99","-1","-1","1","+10","[]","0","0","2","","","","","","","",""
"pit-trial","49","458761","0.0-2.0-11.2-2.2","battery-v0.2","","""event"",""trial"",""time""
""fullscreenenter"",""1"",""1524""
","
","
","""event"",""trial"",""time""
""fullscreenenter"",""1"",""1524""
","
","","","-1","","","11","3541","2040","&#9761;","elianto","#3366ff99","-1","-1","1","+10","[]","0","0","2","","","","","","","",""
"pit-trial","50","463619","0.0-2.0-11.2-3.2","battery-v0.2","","""event"",""trial"",""time""
""fullscreenenter"",""1"",""1524""
","
","
","""event"",""trial"",""time""
""fullscreenenter"",""1"",""1524""
","
","","","-1","","","11","3541","2040","&#9761;","elianto","#3366ff99","-1","-1","1","0","[]","0","0","2","","","","","","","",""
"pit-trial","51","468478","0.0-2.0-11.2-4.2","battery-v0.2","","""event"",""trial"",""time""
""fullscreenenter"",""1"",""1524""
","
","
","""event"",""trial"",""time""
""fullscreenenter"",""1"",""1524""
","
","","","-1","","","11","3541","2040","&#9761;","elianto","#3366ff99","-1","-1","1","+10","[]","0","0","2","","","","","","","",""
"pit-trial","52","472094","0.0-2.0-11.3-0.3","battery-v0.2","","""event"",""trial"",""time""
""fullscreenenter"",""1"",""1524""
","
","
","""event"",""trial"",""time""
""fullscreenenter"",""1"",""1524""
","
","","","757","","","11","3541","2040","&#9761;","elianto","#3366ff99","-1"," ","0","0","[1609.7999999970198]","1","0","2","","","","","","","",""
"pit-trial","53","475150","0.0-2.0-11.3-1.3","battery-v0.2","","""event"",""trial"",""time""
""fullscreenenter"",""1"",""1524""
","
","
","""event"",""trial"",""time""
""fullscreenenter"",""1"",""1524""
","
","","","195.3999999910593","","","11","3541","2040","&#9761;","elianto","#3366ff99","-1"," ","0","0","[836.0999999940395,1049.699999988079,1197.3999999910593]","3","0","2","","","","","","","",""
"pit-trial","54","480009","0.0-2.0-11.3-2.3","battery-v0.2","","""event"",""trial"",""time""
""fullscreenenter"",""1"",""1524""
","
","
","""event"",""trial"",""time""
""fullscreenenter"",""1"",""1524""
","
","","","-1","","","11","3541","2040","&#9761;","elianto","#3366ff99","-1","-1","1","+10","[]","0","0","2","","","","","","","",""
"pit-trial","55","484868","0.0-2.0-11.3-3.3","battery-v0.2","","""event"",""trial"",""time""
""fullscreenenter"",""1"",""1524""
","
","
","""event"",""trial"",""time""
""fullscreenenter"",""1"",""1524""
","
","","","-1","","","11","3541","2040","&#9761;","elianto","#3366ff99","-1","-1","1","0","[]","0","0","2","","","","","","","",""
"pit-trial","56","488489","0.0-2.0-11.3-4.3","battery-v0.2","","""event"",""trial"",""time""
""fullscreenenter"",""1"",""1524""
","
","
","""event"",""trial"",""time""
""fullscreenenter"",""1"",""1524""
","
","","","767","","","11","3541","2040","&#9761;","elianto","#3366ff99","-1"," ","0","0","[1617.8999999910593]","1","0","2","","","","","","","",""
"call-function","57","488491","0.0-2.0-12.0","battery-v0.2","","""event"",""trial"",""time""
""fullscreenenter"",""1"",""1524""
","
","
","""event"",""trial"",""time""
""fullscreenenter"",""1"",""1524""
","
","","","","","","","","","","","","","","","","","","","","","","","","","","",""
"pit-instructions","58","526853","0.0-2.0-13.0","battery-v0.2","","""event"",""trial"",""time""
""fullscreenenter"",""1"",""1524""
","
","
","""event"",""trial"",""time""
""fullscreenenter"",""1"",""1524""
","
","","[{""page_index"":0,""viewing_time"":7772},{""page_index"":1,""viewing_time"":7844.70000000298},{""page_index"":2,""viewing_time"":5739.70000000298},{""page_index"":3,""viewing_time"":11536.39999999106},{""page_index"":4,""viewing_time"":5466.4000000059605}]","38360","","","","","","","","","","","","","","","","","","","","","","","",""
"pit-trial","59","530130","0.0-2.0-14.0-0.0","battery-v0.2","","""event"",""trial"",""time""
""fullscreenenter"",""1"",""1524""
","
","
","""event"",""trial"",""time""
""fullscreenenter"",""1"",""1524""
","
","","","419.70000000298023","","","11","3541","2040","&#9826;","elianto","#f73b6a7A","-1"," ","0","-10","[614.5999999940395,1274.7000000029802]","2","0","3","","","","","","","",""
"pit-trial","60","534989","0.0-2.0-14.0-1.0","battery-v0.2","","""event"",""trial"",""time""
""fullscreenenter"",""1"",""1524""
","
","
","""event"",""trial"",""time""
""fullscreenenter"",""1"",""1524""
","
","","","-1","","","11","3541","2040","&#9826;","elianto","#f73b6a7A","-1","-1","1","0","[]","0","0","3","","","","","","","",""
"pit-trial","61","539848","0.0-2.0-14.0-2.0","battery-v0.2","","""event"",""trial"",""time""
""fullscreenenter"",""1"",""1524""
","
","
","""event"",""trial"",""time""
""fullscreenenter"",""1"",""1524""
","
","","","-1","","","11","3541","2040","&#9826;","elianto","#f73b6a7A","-1","-1","1","0","[]","0","0","3","","","","","","","",""
"pit-trial","62","544706","0.0-2.0-14.0-3.0","battery-v0.2","","""event"",""trial"",""time""
""fullscreenenter"",""1"",""1524""
","
","
","""event"",""trial"",""time""
""fullscreenenter"",""1"",""1524""
","
","","","-1","","","11","3541","2040","&#9826;","elianto","#f73b6a7A","-1","-1","1","-10","[]","0","0","3","","","","","","","",""
"pit-trial","63","549565","0.0-2.0-14.0-4.0","battery-v0.2","","""event"",""trial"",""time""
""fullscreenenter"",""1"",""1524""
","
","
","""event"",""trial"",""time""
""fullscreenenter"",""1"",""1524""
","
","","","-1","","","11","3541","2040","&#9826;","elianto","#f73b6a7A","-1","-1","1","0","[]","0","0","3","","","","","","","",""
"pit-trial","64","554429","0.0-2.0-14.1-0.1","battery-v0.2","","""event"",""trial"",""time""
""fullscreenenter"",""1"",""1524""
","
","
","""event"",""trial"",""time""
""fullscreenenter"",""1"",""1524""
","
","","","-1","","","11","3541","2040","&#9826;","elianto","#f73b6a7A","-1","-1","1","0","[]","0","0","3","","","","","","","",""
"pit-trial","65","559289","0.0-2.0-14.1-1.1","battery-v0.2","","""event"",""trial"",""time""
""fullscreenenter"",""1"",""1524""
","
","
","""event"",""trial"",""time""
""fullscreenenter"",""1"",""1524""
","
","","","-1","","","11","3541","2040","&#9826;","elianto","#f73b6a7A","-1","-1","1","0","[]","0","0","3","","","","","","","",""
"pit-trial","66","564148","0.0-2.0-14.1-2.1","battery-v0.2","","""event"",""trial"",""time""
""fullscreenenter"",""1"",""1524""
","
","
","""event"",""trial"",""time""
""fullscreenenter"",""1"",""1524""
","
","","","-1","","","11","3541","2040","&#9826;","elianto","#f73b6a7A","-1","-1","1","0","[]","0","0","3","","","","","","","",""
"pit-trial","67","569007","0.0-2.0-14.1-3.1","battery-v0.2","","""event"",""trial"",""time""
""fullscreenenter"",""1"",""1524""
","
","
","""event"",""trial"",""time""
""fullscreenenter"",""1"",""1524""
","
","","","-1","","","11","3541","2040","&#9826;","elianto","#f73b6a7A","-1","-1","1","-10","[]","0","0","3","","","","","","","",""
"pit-trial","68","573865","0.0-2.0-14.1-4.1","battery-v0.2","","""event"",""trial"",""time""
""fullscreenenter"",""1"",""1524""
","
","
","""event"",""trial"",""time""
""fullscreenenter"",""1"",""1524""
","
","","","-1","","","11","3541","2040","&#9826;","elianto","#f73b6a7A","-1","-1","1","0","[]","0","0","3","","","","","","","",""
"pit-trial","69","578724","0.0-2.0-14.2-0.2","battery-v0.2","","""event"",""trial"",""time""
""fullscreenenter"",""1"",""1524""
","
","
","""event"",""trial"",""time""
""fullscreenenter"",""1"",""1524""
","
","","","-1","","","11","3541","2040","&#9826;","elianto","#f73b6a7A","-1","-1","1","0","[]","0","0","3","","","","","","","",""
"pit-trial","70","583583","0.0-2.0-14.2-1.2","battery-v0.2","","""event"",""trial"",""time""
""fullscreenenter"",""1"",""1524""
","
","
","""event"",""trial"",""time""
""fullscreenenter"",""1"",""1524""
","
","","","-1","","","11","3541","2040","&#9826;","elianto","#f73b6a7A","-1","-1","1","0","[]","0","0","3","","","","","","","",""
"pit-trial","71","588442","0.0-2.0-14.2-2.2","battery-v0.2","","""event"",""trial"",""time""
""fullscreenenter"",""1"",""1524""
","
","
","""event"",""trial"",""time""
""fullscreenenter"",""1"",""1524""
","
","","","-1","","","11","3541","2040","&#9826;","elianto","#f73b6a7A","-1","-1","1","0","[]","0","0","3","","","","","","","",""
"pit-trial","72","593301","0.0-2.0-14.2-3.2","battery-v0.2","","""event"",""trial"",""time""
""fullscreenenter"",""1"",""1524""
","
","
","""event"",""trial"",""time""
""fullscreenenter"",""1"",""1524""
","
","","","-1","","","11","3541","2040","&#9826;","elianto","#f73b6a7A","-1","-1","1","-10","[]","0","0","3","","","","","","","",""
"pit-trial","73","598159","0.0-2.0-14.2-4.2","battery-v0.2","","""event"",""trial"",""time""
""fullscreenenter"",""1"",""1524""
","
","
","""event"",""trial"",""time""
""fullscreenenter"",""1"",""1524""
","
","","","-1","","","11","3541","2040","&#9826;","elianto","#f73b6a7A","-1","-1","1","0","[]","0","0","3","","","","","","","",""
"pit-trial","74","603017","0.0-2.0-14.3-0.3","battery-v0.2","","""event"",""trial"",""time""
""fullscreenenter"",""1"",""1524""
","
","
","""event"",""trial"",""time""
""fullscreenenter"",""1"",""1524""
","
","","","-1","","","11","3541","2040","&#9826;","elianto","#f73b6a7A","-1","-1","1","0","[]","0","0","3","","","","","","","",""
"pit-trial","75","607877","0.0-2.0-14.3-1.3","battery-v0.2","","""event"",""trial"",""time""
""fullscreenenter"",""1"",""1524""
","
","
","""event"",""trial"",""time""
""fullscreenenter"",""1"",""1524""
","
","","","-1","","","11","3541","2040","&#9826;","elianto","#f73b6a7A","-1","-1","1","0","[]","0","0","3","","","","","","","",""
"pit-trial","76","612735","0.0-2.0-14.3-2.3","battery-v0.2","","""event"",""trial"",""time""
""fullscreenenter"",""1"",""1524""
","
","
","""event"",""trial"",""time""
""fullscreenenter"",""1"",""1524""
","
","","","-1","","","11","3541","2040","&#9826;","elianto","#f73b6a7A","-1","-1","1","0","[]","0","0","3","","","","","","","",""
"pit-trial","77","617594","0.0-2.0-14.3-3.3","battery-v0.2","","""event"",""trial"",""time""
""fullscreenenter"",""1"",""1524""
","
","
","""event"",""trial"",""time""
""fullscreenenter"",""1"",""1524""
","
","","","-1","","","11","3541","2040","&#9826;","elianto","#f73b6a7A","-1","-1","1","-10","[]","0","0","3","","","","","","","",""
"pit-trial","78","622453","0.0-2.0-14.3-4.3","battery-v0.2","","""event"",""trial"",""time""
""fullscreenenter"",""1"",""1524""
","
","
","""event"",""trial"",""time""
""fullscreenenter"",""1"",""1524""
","
","","","-1","","","11","3541","2040","&#9826;","elianto","#f73b6a7A","-1","-1","1","0","[]","0","0","3","","","","","","","",""
"call-function","79","622455","0.0-2.0-15.0","battery-v0.2","","""event"",""trial"",""time""
""fullscreenenter"",""1"",""1524""
","
","
","""event"",""trial"",""time""
""fullscreenenter"",""1"",""1524""
","
","","","","","","","","","","","","","","","","","","","","","","","","","","",""
"pit-instructions","80","661430","0.0-2.0-16.0","battery-v0.2","","""event"",""trial"",""time""
""fullscreenenter"",""1"",""1524""
","
","
","""event"",""trial"",""time""
""fullscreenenter"",""1"",""1524""
","
","","[{""page_index"":0,""viewing_time"":18198.60000000894},{""page_index"":1,""viewing_time"":10052.29999999702},{""page_index"":2,""viewing_time"":4990.5999999940395},{""page_index"":3,""viewing_time"":5731.4000000059605}]","38973.29999999702","","","","","","","","","","","","","","","","","","","","","","","",""
"pit-trial","81","664648","0.0-2.0-17.0-0.0","battery-v0.2","","""event"",""trial"",""time""
""fullscreenenter"",""1"",""1524""
","
","
","""event"",""trial"",""time""
""fullscreenenter"",""1"",""1524""
","
","","","359.20000000298023","","","11","3541","2040","&#9789;","elianto","#f73b6a7A"," "," ","1","0","[1211.5999999940395]","1","0","4","","","","","","","",""
"pit-trial","82","667890","0.0-2.0-17.0-1.0","battery-v0.2","","""event"",""trial"",""time""
""fullscreenenter"",""1"",""1524""
","
","
","""event"",""trial"",""time""
""fullscreenenter"",""1"",""1524""
","
","","","383","","","11","3541","2040","&#9789;","elianto","#f73b6a7A"," "," ","1","0","[806.1999999880791,1235.3999999910593,1778.0999999940395,2286.5999999940395,2927.5]","5","0","4","","","","","","","",""
"pit-trial","83","671346","0.0-2.0-17.0-2.0","battery-v0.2","","""event"",""trial"",""time""
""fullscreenenter"",""1"",""1524""
","
","
","""event"",""trial"",""time""
""fullscreenenter"",""1"",""1524""
","
","","","599.0999999940395","","","11","3541","2040","&#9789;","elianto","#f73b6a7A"," "," ","1","0","[645,1452.2999999970198,2523.3999999910593]","3","0","4","","","","","","","",""
"pit-trial","84","674395","0.0-2.0-17.0-3.0","battery-v0.2","","""event"",""trial"",""time""
""fullscreenenter"",""1"",""1524""
","
","
","""event"",""trial"",""time""
""fullscreenenter"",""1"",""1524""
","
","","","186.5","","","11","3541","2040","&#9789;","elianto","#f73b6a7A"," "," ","1","-10","[47.30000001192093,1041.7000000029802,1849.300000011921,2707.4000000059605]","4","0","4","","","","","","","",""
"pit-trial","85","677672","0.0-2.0-17.0-4.0","battery-v0.2","","""event"",""trial"",""time""
""fullscreenenter"",""1"",""1524""
","
","
","""event"",""trial"",""time""
""fullscreenenter"",""1"",""1524""
","
","","","418.20000000298023","","","11","3541","2040","&#9789;","elianto","#f73b6a7A"," "," ","1","0","[545,1269.6000000089407,1793.5,2227.800000011921,3114.7000000029802]","5","0","4","","","","","","","",""
"pit-trial","86","681234","0.0-2.0-17.1-0.1","battery-v0.2","","""event"",""trial"",""time""
""fullscreenenter"",""1"",""1524""
","
","
","""event"",""trial"",""time""
""fullscreenenter"",""1"",""1524""
","
","","","706.7999999970198","","","11","3541","2040","&#9789;","elianto","#f73b6a7A"," "," ","1","0","[643.7000000029802,1558.2999999970198,2832.1000000089407]","3","0","4","","","","","","","",""
"pit-trial","87","684653","0.0-2.0-17.1-1.1","battery-v0.2","","""event"",""trial"",""time""
""fullscreenenter"",""1"",""1524""
","
","
","""event"",""trial"",""time""
""fullscreenenter"",""1"",""1524""
","
","","","560.5","","","11","3541","2040","&#9789;","elianto","#f73b6a7A"," "," ","1","0","[389.6000000089407,1411,1930,2556]","4","0","4","","","","","","","",""
"pit-trial","88","687800","0.0-2.0-17.1-2.1","battery-v0.2","","""event"",""trial"",""time""
""fullscreenenter"",""1"",""1524""
","
","
","""event"",""trial"",""time""
""fullscreenenter"",""1"",""1524""
","
","","","288.3999999910593","","","11","3541","2040","&#9789;","elianto","#f73b6a7A"," "," ","1","0","[96.20000000298023,1139.3999999910593,2103.2000000029802]","3","0","4","","","","","","","",""
"pit-trial","89","691448","0.0-2.0-17.1-3.1","battery-v0.2","","""event"",""trial"",""time""
""fullscreenenter"",""1"",""1524""
","
","
","""event"",""trial"",""time""
""fullscreenenter"",""1"",""1524""
","
","","","791.9000000059605","","","11","3541","2040","&#9789;","elianto","#f73b6a7A"," "," ","1","-10","[624.7000000029802,1643.4000000059605,2691.2000000029802]","3","0","4","","","","","","","",""
"pit-trial","90","694476","0.0-2.0-17.1-4.1","battery-v0.2","","""event"",""trial"",""time""
""fullscreenenter"",""1"",""1524""
","
","
","""event"",""trial"",""time""
""fullscreenenter"",""1"",""1524""
","
","","","174.40000000596046","","","11","3541","2040","&#9789;","elianto","#f73b6a7A"," "," ","1","0","[80.20000000298023,1024.7000000029802,1960.0999999940395,2934]","4","0","4","","","","","","","",""
"pit-trial","91","698183","0.0-2.0-17.2-0.2","battery-v0.2","","""event"",""trial"",""time""
""fullscreenenter"",""1"",""1524""
","
","
","""event"",""trial"",""time""
""fullscreenenter"",""1"",""1524""
","
","","","847.3000000119209","","","11","3541","2040","&#9789;","elianto","#f73b6a7A"," "," ","1","0","[841.1999999880791,1702.3999999910593,2619.8999999910593,3632.199999988079]","4","0","4","","","","","","","",""
"pit-trial","92","701164","0.0-2.0-17.2-1.2","battery-v0.2","","""event"",""trial"",""time""
""fullscreenenter"",""1"",""1524""
","
","
","""event"",""trial"",""time""
""fullscreenenter"",""1"",""1524""
","
","","","124.1000000089407","","","11","3541","2040","&#9789;","elianto","#f73b6a7A"," "," ","1","0","[978.2000000029802,1923.3999999910593,2959.2999999970198]","3","0","4","","","","","","","",""
"pit-trial","93","704290","0.0-2.0-17.2-2.2","battery-v0.2","","""event"",""trial"",""time""
""fullscreenenter"",""1"",""1524""
","
","
","""event"",""trial"",""time""
""fullscreenenter"",""1"",""1524""
","
","","","265.5","","","11","3541","2040","&#9789;","elianto","#f73b6a7A"," "," ","1","0","[1118.5,1969.2000000029802,3039]","3","0","4","","","","","","","",""
"pit-trial","94","707276","0.0-2.0-17.2-3.2","battery-v0.2","","""event"",""trial"",""time""
""fullscreenenter"",""1"",""1524""
","
","
","""event"",""trial"",""time""
""fullscreenenter"",""1"",""1524""
","
","","","128.6000000089407","","","11","3541","2040","&#9789;","elianto","#f73b6a7A"," "," ","1","-10","[979.5,2005.2000000029802]","2","0","4","","","","","","","",""
"pit-trial","95","710311","0.0-2.0-17.2-4.2","battery-v0.2","","""event"",""trial"",""time""
""fullscreenenter"",""1"",""1524""
","
","
","""event"",""trial"",""time""
""fullscreenenter"",""1"",""1524""
","
","","","180.59999999403954","","","11","3541","2040","&#9789;","elianto","#f73b6a7A"," "," ","1","0","[129,1031.5,2041.7000000029802]","3","0","4","","","","","","","",""
"pit-trial","96","713325","0.0-2.0-17.3-0.3","battery-v0.2","","""event"",""trial"",""time""
""fullscreenenter"",""1"",""1524""
","
","
","""event"",""trial"",""time""
""fullscreenenter"",""1"",""1524""
","
","","","152.29999999701977","","","11","3541","2040","&#9789;","elianto","#f73b6a7A"," "," ","1","0","[9.700000002980232,1005.0999999940395,1844.2999999970198]","3","0","4","","","","","","","",""
"pit-trial","97","716290","0.0-2.0-17.3-1.3","battery-v0.2","","""event"",""trial"",""time""
""fullscreenenter"",""1"",""1524""
","
","
","""event"",""trial"",""time""
""fullscreenenter"",""1"",""1524""
","
","","","109.79999999701977","","","11","3541","2040","&#9789;","elianto","#f73b6a7A"," "," ","1","0","[25.400000005960464,961.1000000089407,1731.800000011921]","3","0","4","","","","","","","",""
"pit-trial","98","719159","0.0-2.0-17.3-2.3","battery-v0.2","","""event"",""trial"",""time""
""fullscreenenter"",""1"",""1524""
","
","
","""event"",""trial"",""time""
""fullscreenenter"",""1"",""1524""
","
","","","11.5","","","11","3541","2040","&#9789;","elianto","#f73b6a7A"," "," ","1","0","[67.70000000298023,862.4000000059605,1937.9000000059605]","3","0","4","","","","","","","",""
"pit-trial","99","722429","0.0-2.0-17.3-3.3","battery-v0.2","","""event"",""trial"",""time""
""fullscreenenter"",""1"",""1524""
","
","
","""event"",""trial"",""time""
""fullscreenenter"",""1"",""1524""
","
","","","413.20000000298023","","","11","3541","2040","&#9789;","elianto","#f73b6a7A"," "," ","1","-10","[244.79999999701977,1264.7999999970198]","2","0","4","","","","","","","",""
"pit-trial","100","725506","0.0-2.0-17.3-4.3","battery-v0.2","","""event"",""trial"",""time""
""fullscreenenter"",""1"",""1524""
","
","
","""event"",""trial"",""time""
""fullscreenenter"",""1"",""1524""
","
","","","218.8999999910593","","","11","3541","2040","&#9789;","elianto","#f73b6a7A"," "," ","1","0","[1071.3999999910593]","1","0","4","","","","","","","",""
"call-function","101","725508","0.0-2.0-18.0","battery-v0.2","","""event"",""trial"",""time""
""fullscreenenter"",""1"",""1524""
","
","
","""event"",""trial"",""time""
""fullscreenenter"",""1"",""1524""
","
","","","","","","","","","","","","","","","","","","","","","","","","","","",""
"pit-instructions","102","806808","0.0-2.0-19.0","battery-v0.2","","""event"",""trial"",""time""
""fullscreenenter"",""1"",""1524""
","
","
","""event"",""trial"",""time""
""fullscreenenter"",""1"",""1524""
","
","","[{""page_index"":0,""viewing_time"":6724.79999999702},{""page_index"":1,""viewing_time"":7195.4000000059605},{""page_index"":2,""viewing_time"":16996.89999999106},{""page_index"":3,""viewing_time"":10806.5},{""page_index"":4,""viewing_time"":9731.60000000894},{""page_index"":5,""viewing_time"":9974.29999999702},{""page_index"":6,""viewing_time"":9280.20000000298},{""page_index"":7,""viewing_time"":6577.5999999940395},{""page_index"":8,""viewing_time"":4008.2000000029802}]","81296.79999999702","","","","","","","","","","","","","","","","","","","","","","","",""
"pit-comprehension","103","811537","0.0-2.0-20.0-0.0","battery-v0.2","","""event"",""trial"",""time""
""fullscreenenter"",""1"",""1524""
","
","
","""event"",""trial"",""time""
""fullscreenenter"",""1"",""1524""
","
","","","4723.5","[""SPACE""]","0","11","3541","2040","","","","","","","","","","","","","","","","","","",""
"pit-instructions","104","815956","0.0-2.0-20.0-1.0","battery-v0.2","","""event"",""trial"",""time""
""fullscreenenter"",""1"",""1524""
","
","
","""event"",""trial"",""time""
""fullscreenenter"",""1"",""1524""
","
","","[{""page_index"":0,""viewing_time"":4375.20000000298}]","4376.100000008941","","","","","","","","","","","","","","","","","","","","","","","",""
"pit-comprehension","105","822113","0.0-2.0-21.0-0.0","battery-v0.2","","""event"",""trial"",""time""
""fullscreenenter"",""1"",""1524""
","
","
","""event"",""trial"",""time""
""fullscreenenter"",""1"",""1524""
","
","","","6150.5999999940395","[""10""]","0","11","3541","2040","","","","","","","","","","","","","","","","","","",""
"pit-instructions","106","830387","0.0-2.0-21.0-1.0","battery-v0.2","","""event"",""trial"",""time""
""fullscreenenter"",""1"",""1524""
","
","
","""event"",""trial"",""time""
""fullscreenenter"",""1"",""1524""
","
","","[{""page_index"":0,""viewing_time"":8228.39999999106}]","8229.39999999106","","","","","","","","","","","","","","","","","","","","","","","",""
"pit-comprehension","107","837387","0.0-2.0-22.0-0.0","battery-v0.2","","""event"",""trial"",""time""
""fullscreenenter"",""1"",""1524""
","
","
","""event"",""trial"",""time""
""fullscreenenter"",""1"",""1524""
","
","","","6995.29999999702","[""0""]","0","11","3541","2040","","","","","","","","","","","","","","","","","","",""
"pit-instructions","108","844252","0.0-2.0-22.0-1.0","battery-v0.2","","""event"",""trial"",""time""
""fullscreenenter"",""1"",""1524""
","
","
","""event"",""trial"",""time""
""fullscreenenter"",""1"",""1524""
","
","","[{""page_index"":0,""viewing_time"":6820.100000008941}]","6820.70000000298","","","","","","","","","","","","","","","","","","","","","","","",""
"pit-comprehension","109","852724","0.0-2.0-23.0-0.0","battery-v0.2","","""event"",""trial"",""time""
""fullscreenenter"",""1"",""1524""
","
","
","""event"",""trial"",""time""
""fullscreenenter"",""1"",""1524""
","
","","","8467.40000000596","[""True""]","0","11","3541","2040","","","","","","","","","","","","","","","","","","",""
"pit-instructions","110","860214","0.0-2.0-23.0-1.0","battery-v0.2","","""event"",""trial"",""time""
""fullscreenenter"",""1"",""1524""
","
","
","""event"",""trial"",""time""
""fullscreenenter"",""1"",""1524""
","
","","[{""page_index"":0,""viewing_time"":7442}]","7442.70000000298","","","","","","","","","","","","","","","","","","","","","","","",""
"pit-comprehension","111","868160","0.0-2.0-24.0-0.0","battery-v0.2","","""event"",""trial"",""time""
""fullscreenenter"",""1"",""1524""
","
","
","""event"",""trial"",""time""
""fullscreenenter"",""1"",""1524""
","
","","","7940.20000000298","[""True""]","0","11","3541","2040","","","","","","","","","","","","","","","","","","",""
"pit-instructions","112","873129","0.0-2.0-24.0-1.0","battery-v0.2","","""event"",""trial"",""time""
""fullscreenenter"",""1"",""1524""
","
","
","""event"",""trial"",""time""
""fullscreenenter"",""1"",""1524""
","
","","[{""page_index"":0,""viewing_time"":4907}]","4907.5","","","","","","","","","","","","","","","","","","","","","","","",""
"pit-comprehension","113","882855","0.0-2.0-25.0-0.0","battery-v0.2","","""event"",""trial"",""time""
""fullscreenenter"",""1"",""1524""
","
","
","""event"",""trial"",""time""
""fullscreenenter"",""1"",""1524""
","
","","","9721.5","[""True""]","0","11","3541","2040","","","","","","","","","","","","","","","","","","",""
"pit-instructions","114","887804","0.0-2.0-25.0-1.0","battery-v0.2","","""event"",""trial"",""time""
""fullscreenenter"",""1"",""1524""
","
","
","""event"",""trial"",""time""
""fullscreenenter"",""1"",""1524""
","
","","[{""page_index"":0,""viewing_time"":4904.100000008941}]","4904.800000011921","","","","","","","","","","","","","","","","","","","","","","","",""
"pit-comprehension","115","893101","0.0-2.0-26.0-0.0","battery-v0.2","","""event"",""trial"",""time""
""fullscreenenter"",""1"",""1524""
","
","
","""event"",""trial"",""time""
""fullscreenenter"",""1"",""1524""
","
","","","5291","[""False""]","0","11","3541","2040","","","","","","","","","","","","","","","","","","",""
"pit-instructions","116","903285","0.0-2.0-26.0-1.0","battery-v0.2","","""event"",""trial"",""time""
""fullscreenenter"",""1"",""1524""
","
","
","""event"",""trial"",""time""
""fullscreenenter"",""1"",""1524""
","
","","[{""page_index"":0,""viewing_time"":10139}]","10142.09999999404","","","","","","","","","","","","","","","","","","","","","","","",""
"pit-instructions","117","922397","0.0-3.0","battery-v0.2","","""event"",""trial"",""time""
""fullscreenenter"",""1"",""1524""
","
","
","""event"",""trial"",""time""
""fullscreenenter"",""1"",""1524""
","
","","[{""page_index"":0,""viewing_time"":3575.2000000029802},{""page_index"":1,""viewing_time"":5824.5},{""page_index"":2,""viewing_time"":9707.5}]","19108.39999999106","","","","","","","","","","","","","","","","","","","","","","","",""
"pit-trial","118","926286","0.0-4.0","battery-v0.2","","""event"",""trial"",""time""
""fullscreenenter"",""1"",""1524""
","
","
","""event"",""trial"",""time""
""fullscreenenter"",""1"",""1524""
","
","","","1026.2000000029802","","","11","3541","2040","&#9752;","elianto","#f73b6a7A"," "," ","1","0","[1877.5]","1","1","","","3541","1","3","3","lose","go","0"
"pit-trial","119","931145","0.0-5.0","battery-v0.2","","""event"",""trial"",""time""
""fullscreenenter"",""1"",""1524""
","
","
","""event"",""trial"",""time""
""fullscreenenter"",""1"",""1524""
","
","","","-1","","","11","3541","2040","&#9730;","elianto","#3366ff99"," ","-1","0","0","[]","0","1","","","3541","2","1","1","win","go","0"
"pit-trial","120","934665","0.0-6.0","battery-v0.2","","""event"",""trial"",""time""
""fullscreenenter"",""1"",""1524""
","
","
","""event"",""trial"",""time""
""fullscreenenter"",""1"",""1524""
","
","","","661.4000000059605","","","11","3541","2040","&#9733;","elianto","#3366ff99","-1"," ","0","0","[1513.0999999940395]","1","1","","","3541","3","2","2","win","no-go","0"
"pit-trial","121","937721","0.0-7.0","battery-v0.2","","""event"",""trial"",""time""
""fullscreenenter"",""1"",""1524""
","
","
","""event"",""trial"",""time""
""fullscreenenter"",""1"",""1524""
","
","","","195.59999999403954","","","11","3541","2040","&#9728;","elianto","#f73b6a7A","-1"," ","0","-10","[1050.0999999940395]","1","1","","","3541","4","0","4","lose","no-go","0"
"pit-trial","122","942580","0.0-8.0","battery-v0.2","","""event"",""trial"",""time""
""fullscreenenter"",""1"",""1524""
","
","
","""event"",""trial"",""time""
""fullscreenenter"",""1"",""1524""
","
","","","-1","","","11","3541","2040","&#9728;","elianto","#f73b6a7A","-1","-1","1","0","[]","0","1","","","3541","5","0","4","lose","no-go","0"
"pit-trial","123","947439","0.0-9.0","battery-v0.2","","""event"",""trial"",""time""
""fullscreenenter"",""1"",""1524""
","
","
","""event"",""trial"",""time""
""fullscreenenter"",""1"",""1524""
","
","","","-1","","","11","3541","2040","&#9752;","elianto","#f73b6a7A"," ","-1","0","-10","[]","0","1","","","3541","6","3","3","lose","go","0"
"pit-trial","124","951489","0.0-10.0","battery-v0.2","","""event"",""trial"",""time""
""fullscreenenter"",""1"",""1524""
","
","
","""event"",""trial"",""time""
""fullscreenenter"",""1"",""1524""
","
","","","1191","","","11","3541","2040","&#9730;","elianto","#3366ff99"," "," ","1","+10","[2045.300000011921]","1","1","","","3541","7","1","1","win","go","0"
"pit-trial","125","955013","0.0-11.0","battery-v0.2","","""event"",""trial"",""time""
""fullscreenenter"",""1"",""1524""
","
","
","""event"",""trial"",""time""
""fullscreenenter"",""1"",""1524""
","
","","","663.8999999910593","","","11","3541","2040","&#9733;","elianto","#3366ff99","-1"," ","0","+10","[1516.5]","1","1","","","3541","8","2","2","win","no-go","1"
"pit-trial","126","958384","0.0-12.0","battery-v0.2","","""event"",""trial"",""time""
""fullscreenenter"",""1"",""1524""
","
","
","""event"",""trial"",""time""
""fullscreenenter"",""1"",""1524""
","
","","","516","","","11","3541","2040","&#9733;","elianto","#3366ff99","-1"," ","0","0","[1366.7000000029802]","1","1","","","3541","9","2","2","win","no-go","0"
"pit-trial","127","962624","0.0-13.0","battery-v0.2","","""event"",""trial"",""time""
""fullscreenenter"",""1"",""1524""
","
","
","""event"",""trial"",""time""
""fullscreenenter"",""1"",""1524""
","
","","","1384.5999999940395","","","11","3541","2040","&#9728;","elianto","#f73b6a7A","-1"," ","0","-10","[2236.0999999940395]","1","1","","","3541","10","0","4","lose","no-go","0"
"pit-trial","128","965605","0.0-14.0","battery-v0.2","","""event"",""trial"",""time""
""fullscreenenter"",""1"",""1524""
","
","
","""event"",""trial"",""time""
""fullscreenenter"",""1"",""1524""
","
","","","123.5","","","11","3541","2040","&#9752;","elianto","#f73b6a7A"," "," ","1","0","[975.4000000059605]","1","1","","","3541","11","3","3","lose","go","0"
"pit-trial","129","968981","0.0-15.0","battery-v0.2","","""event"",""trial"",""time""
""fullscreenenter"",""1"",""1524""
","
","
","""event"",""trial"",""time""
""fullscreenenter"",""1"",""1524""
","
","","","521","","","11","3541","2040","&#9730;","elianto","#3366ff99"," "," ","1","+10","[1372]","1","1","","","3541","12","1","1","win","go","0"
"pit-trial","130","973840","0.0-16.0","battery-v0.2","","""event"",""trial"",""time""
""fullscreenenter"",""1"",""1524""
","
","
","""event"",""trial"",""time""
""fullscreenenter"",""1"",""1524""
","
","","","-1","","","11","3541","2040","&#9733;","elianto","#3366ff99","-1","-1","1","+10","[]","0","1","","","3541","13","2","2","win","no-go","0"
"pit-trial","131","977156","0.0-17.0","battery-v0.2","","""event"",""trial"",""time""
""fullscreenenter"",""1"",""1524""
","
","
","""event"",""trial"",""time""
""fullscreenenter"",""1"",""1524""
","
","","","458.69999998807907","","","11","3541","2040","&#9728;","elianto","#f73b6a7A","-1"," ","0","-10","[1309.699999988079]","1","1","","","3541","14","0","4","lose","no-go","0"
"pit-trial","132","980834","0.0-18.0","battery-v0.2","","""event"",""trial"",""time""
""fullscreenenter"",""1"",""1524""
","
","
","""event"",""trial"",""time""
""fullscreenenter"",""1"",""1524""
","
","","","827","","","11","3541","2040","&#9730;","elianto","#3366ff99"," "," ","1","0","[1680.6000000089407]","1","1","","","3541","15","1","1","win","go","1"
"pit-trial","133","985269","0.0-19.0","battery-v0.2","","""event"",""trial"",""time""
""fullscreenenter"",""1"",""1524""
","
","
","""event"",""trial"",""time""
""fullscreenenter"",""1"",""1524""
","
","","","1583.7999999970198","","","11","3541","2040","&#9752;","elianto","#f73b6a7A"," "," ","1","0","[2434.8999999910593]","1","1","","","3541","16","3","3","lose","go","0"
"pit-trial","134","988747","0.0-20.0","battery-v0.2","","""event"",""trial"",""time""
""fullscreenenter"",""1"",""1524""
","
","
","""event"",""trial"",""time""
""fullscreenenter"",""1"",""1524""
","
","","","625.1000000089407","","","11","3541","2040","&#9728;","elianto","#f73b6a7A","-1"," ","0","-10","[1477.7000000029802]","1","1","","","3541","17","0","4","lose","no-go","0"
"pit-trial","135","992205","0.0-21.0","battery-v0.2","","""event"",""trial"",""time""
""fullscreenenter"",""1"",""1524""
","
","
","""event"",""trial"",""time""
""fullscreenenter"",""1"",""1524""
","
","","","603.8999999910593","","","11","3541","2040","&#9752;","elianto","#f73b6a7A"," "," ","1","0","[1457.5999999940395,1677.2999999970198]","2","1","","","3541","18","3","3","lose","go","0"
"pit-trial","136","995845","0.0-22.0","battery-v0.2","","""event"",""trial"",""time""
""fullscreenenter"",""1"",""1524""
","
","
","""event"",""trial"",""time""
""fullscreenenter"",""1"",""1524""
","
","","","786.7999999970198","","","11","3541","2040","&#9730;","elianto","#3366ff99"," "," ","1","+10","[1638.0999999940395]","1","1","","","3541","19","1","1","win","go","0"
"pit-trial","137","999427","0.0-23.0","battery-v0.2","","""event"",""trial"",""time""
""fullscreenenter"",""1"",""1524""
","
","
","""event"",""trial"",""time""
""fullscreenenter"",""1"",""1524""
","
","","","725.2000000029802","","","11","3541","2040","&#9733;","elianto","#3366ff99","-1"," ","0","0","[1576.6000000089407]","1","1","","","3541","20","2","2","win","no-go","0"
"pit-instructions","138","1061391","0.0-24.0","battery-v0.2","","""event"",""trial"",""time""
""fullscreenenter"",""1"",""1524""
","
","
","""event"",""trial"",""time""
""fullscreenenter"",""1"",""1524""
","
","","[{""page_index"":0,""viewing_time"":54739.79999999702},{""page_index"":1,""viewing_time"":7229}]","61969.70000000298","","","","","","","","","","","","","","","","","","","","","","","",""
"pit-trial","139","1065055","0.0-25.0","battery-v0.2","","""event"",""trial"",""time""
""fullscreenenter"",""1"",""1524""
","
","
","""event"",""trial"",""time""
""fullscreenenter"",""1"",""1524""
","
","","","805.2999999970198","","","11","3541","2040","u","elianto","#f73b6a7A"," "," ","1","0","[1658.5999999940395]","1","2","","","3541","21","0","3","lose","go","0"
"pit-trial","140","1068805","0.0-26.0","battery-v0.2","","""event"",""trial"",""time""
""fullscreenenter"",""1"",""1524""
","
","
","""event"",""trial"",""time""
""fullscreenenter"",""1"",""1524""
","
","","","890.6999999880791","","","11","3541","2040","a","elianto","#f73b6a7A"," "," ","1","0","[1741.7000000029802]","1","2","","","3541","22","2","3","lose","go","0"
"pit-trial","141","1072581","0.0-27.0","battery-v0.2","","""event"",""trial"",""time""
""fullscreenenter"",""1"",""1524""
","
","
","""event"",""trial"",""time""
""fullscreenenter"",""1"",""1524""
","
","","","917.7999999970198","","","11","3541","2040","l","elianto","#3366ff99","-1"," ","0","0","[1770.4000000059605]","1","2","","","3541","23","1","2","win","no-go","0"
"pit-trial","142","1076202","0.0-28.0","battery-v0.2","","""event"",""trial"",""time""
""fullscreenenter"",""1"",""1524""
","
","
","""event"",""trial"",""time""
""fullscreenenter"",""1"",""1524""
","
","","","765.7000000029802","","","11","3541","2040","g","elianto","#f73b6a7A","-1"," ","0","-10","[1617.9000000059605]","1","2","","","3541","24","3","4","lose","no-go","0"
"pit-trial","143","1079562","0.0-29.0","battery-v0.2","","""event"",""trial"",""time""
""fullscreenenter"",""1"",""1524""
","
","
","""event"",""trial"",""time""
""fullscreenenter"",""1"",""1524""
","
","","","505.1000000089407","","","11","3541","2040","u","elianto","#f73b6a7A"," "," ","1","0","[1356.5]","1","2","","","3541","25","0","3","lose","go","0"
"pit-trial","144","1082965","0.0-30.0","battery-v0.2","","""event"",""trial"",""time""
""fullscreenenter"",""1"",""1524""
","
","
","""event"",""trial"",""time""
""fullscreenenter"",""1"",""1524""
","
","","","545.6000000089407","","","11","3541","2040","l","elianto","#3366ff99","-1"," ","0","0","[1397.7999999970198]","1","2","","","3541","26","1","2","win","no-go","0"
"pit-trial","145","1087824","0.0-31.0","battery-v0.2","","""event"",""trial"",""time""
""fullscreenenter"",""1"",""1524""
","
","
","""event"",""trial"",""time""
""fullscreenenter"",""1"",""1524""
","
","","","-1","","","11","3541","2040","a","elianto","#f73b6a7A"," ","-1","0","0","[]","0","2","","","3541","27","2","3","lose","go","1"
"pit-trial","146","1091285","0.0-32.0","battery-v0.2","","""event"",""trial"",""time""
""fullscreenenter"",""1"",""1524""
","
","
","""event"",""trial"",""time""
""fullscreenenter"",""1"",""1524""
","
","","","600.2000000029802","","","11","3541","2040","g","elianto","#f73b6a7A","-1"," ","0","-10","[1456.5999999940395]","1","2","","","3541","28","3","4","lose","no-go","0"
"pit-trial","147","1094807","0.0-33.0","battery-v0.2","","""event"",""trial"",""time""
""fullscreenenter"",""1"",""1524""
","
","
","""event"",""trial"",""time""
""fullscreenenter"",""1"",""1524""
","
","","","664.9000000059605","","","11","3541","2040","a","elianto","#f73b6a7A"," "," ","1","0","[1515.2999999970198]","1","2","","","3541","29","2","3","lose","go","0"
"pit-trial","148","1098202","0.0-34.0","battery-v0.2","","""event"",""trial"",""time""
""fullscreenenter"",""1"",""1524""
","
","
","""event"",""trial"",""time""
""fullscreenenter"",""1"",""1524""
","
","","","530.6999999880791","","","11","3541","2040","g","elianto","#f73b6a7A","-1"," ","0","-10","[1387.3999999910593]","1","2","","","3541","30","3","4","lose","no-go","0"
"pit-trial","149","1101653","0.0-35.0","battery-v0.2","","""event"",""trial"",""time""
""fullscreenenter"",""1"",""1524""
","
","
","""event"",""trial"",""time""
""fullscreenenter"",""1"",""1524""
","
","","","596.3999999910593","","","11","3541","2040","l","elianto","#3366ff99","-1"," ","0","0","[1446.5999999940395]","1","2","","","3541","31","1","2","win","no-go","0"
"pit-trial","150","1106512","0.0-36.0","battery-v0.2","","""event"",""trial"",""time""
""fullscreenenter"",""1"",""1524""
","
","
","""event"",""trial"",""time""
""fullscreenenter"",""1"",""1524""
","
","","","-1","","","11","3541","2040","u","elianto","#f73b6a7A"," ","-1","0","0","[]","0","2","","","3541","32","0","3","lose","go","1"
"pit-trial","151","1111370","0.0-37.0","battery-v0.2","","""event"",""trial"",""time""
""fullscreenenter"",""1"",""1524""
","
","
","""event"",""trial"",""time""
""fullscreenenter"",""1"",""1524""
","
","","","-1","","","11","3541","2040","g","elianto","#f73b6a7A","-1","-1","1","0","[]","0","2","","","3541","33","3","4","lose","no-go","0"
"pit-trial","152","1116229","0.0-38.0","battery-v0.2","","""event"",""trial"",""time""
""fullscreenenter"",""1"",""1524""
","
","
","""event"",""trial"",""time""
""fullscreenenter"",""1"",""1524""
","
","","","-1","","","11","3541","2040","a","elianto","#f73b6a7A"," ","-1","0","-10","[]","0","2","","","3541","34","2","3","lose","go","0"
"pit-trial","153","1121088","0.0-39.0","battery-v0.2","","""event"",""trial"",""time""
""fullscreenenter"",""1"",""1524""
","
","
","""event"",""trial"",""time""
""fullscreenenter"",""1"",""1524""
","
","","","-1","","","11","3541","2040","u","elianto","#f73b6a7A"," ","-1","0","-10","[]","0","2","","","3541","35","0","3","lose","go","0"
"pit-trial","154","1124656","0.0-40.0","battery-v0.2","","""event"",""trial"",""time""
""fullscreenenter"",""1"",""1524""
","
","
","""event"",""trial"",""time""
""fullscreenenter"",""1"",""1524""
","
","","","713.7000000029802","","","11","3541","2040","l","elianto","#3366ff99","-1"," ","0","+10","[1564.0999999940395]","1","2","","","3541","36","1","2","win","no-go","1"
"pit-trial","155","1128017","0.0-41.0","battery-v0.2","","""event"",""trial"",""time""
""fullscreenenter"",""1"",""1524""
","
","
","""event"",""trial"",""time""
""fullscreenenter"",""1"",""1524""
","
","","","502.29999999701977","","","11","3541","2040","l","elianto","#3366ff99","-1"," ","0","0","[1355.7000000029802]","1","2","","","3541","37","1","2","win","no-go","0"
"pit-trial","156","1132880","0.0-42.0","battery-v0.2","","""event"",""trial"",""time""
""fullscreenenter"",""1"",""1524""
","
","
","""event"",""trial"",""time""
""fullscreenenter"",""1"",""1524""
","
","","","-1","","","11","3541","2040","g","elianto","#f73b6a7A","-1","-1","1","0","[]","0","2","","","3541","38","3","4","lose","no-go","0"
"pit-trial","157","1136133","0.0-43.0","battery-v0.2","","""event"",""trial"",""time""
""fullscreenenter"",""1"",""1524""
","
","
","""event"",""trial"",""time""
""fullscreenenter"",""1"",""1524""
","
","","","397.6000000089407","","","11","3541","2040","a","elianto","#f73b6a7A"," "," ","1","0","[1249.8999999910593]","1","2","","","3541","39","2","3","lose","go","0"
"pit-trial","158","1140891","0.0-44.0","battery-v0.2","","""event"",""trial"",""time""
""fullscreenenter"",""1"",""1524""
","
","
","""event"",""trial"",""time""
""fullscreenenter"",""1"",""1524""
","
","","","1901.7000000029802","","","11","3541","2040","u","elianto","#f73b6a7A"," "," ","1","0","[2752.2999999970198]","1","2","","","3541","40","0","3","lose","go","0"
"pit-trial","159","1144843","0.0-45.0","battery-v0.2","","""event"",""trial"",""time""
""fullscreenenter"",""1"",""1524""
","
","
","""event"",""trial"",""time""
""fullscreenenter"",""1"",""1524""
","
","","","1096.8999999910593","","","11","3541","2040","u","elianto","#f73b6a7A"," "," ","1","0","[1947.7999999970198]","1","2","","","3541","41","0","3","lose","go","0"
"pit-trial","160","1148624","0.0-46.0","battery-v0.2","","""event"",""trial"",""time""
""fullscreenenter"",""1"",""1524""
","
","
","""event"",""trial"",""time""
""fullscreenenter"",""1"",""1524""
","
","","","925.0999999940395","","","11","3541","2040","a","elianto","#f73b6a7A"," "," ","1","0","[1776]","1","2","","","3541","42","2","3","lose","go","0"
"pit-trial","161","1151995","0.0-47.0","battery-v0.2","","""event"",""trial"",""time""
""fullscreenenter"",""1"",""1524""
","
","
","""event"",""trial"",""time""
""fullscreenenter"",""1"",""1524""
","
","","","514.1000000089407","","","11","3541","2040","l","elianto","#3366ff99","-1"," ","0","0","[1365.2000000029802]","1","2","","","3541","43","1","2","win","no-go","0"
"pit-trial","162","1156208","0.0-48.0","battery-v0.2","","""event"",""trial"",""time""
""fullscreenenter"",""1"",""1524""
","
","
","""event"",""trial"",""time""
""fullscreenenter"",""1"",""1524""
","
","","","1353.2999999970198","","","11","3541","2040","g","elianto","#f73b6a7A","-1"," ","0","0","[2206.2999999970198]","1","2","","","3541","44","3","4","lose","no-go","1"
"pit-trial","163","1159953","0.0-49.0","battery-v0.2","","""event"",""trial"",""time""
""fullscreenenter"",""1"",""1524""
","
","
","""event"",""trial"",""time""
""fullscreenenter"",""1"",""1524""
","
","","","889.9000000059605","","","11","3541","2040","a","elianto","#f73b6a7A"," "," ","1","0","[1740.5]","1","2","","","3541","45","2","3","lose","go","0"
"pit-trial","164","1163435","0.0-50.0","battery-v0.2","","""event"",""trial"",""time""
""fullscreenenter"",""1"",""1524""
","
","
","""event"",""trial"",""time""
""fullscreenenter"",""1"",""1524""
","
","","","625.7000000029802","","","11","3541","2040","l","elianto","#3366ff99","-1"," ","0","0","[1476.2999999970198]","1","2","","","3541","46","1","2","win","no-go","0"
"pit-trial","165","1167099","0.0-51.0","battery-v0.2","","""event"",""trial"",""time""
""fullscreenenter"",""1"",""1524""
","
","
","""event"",""trial"",""time""
""fullscreenenter"",""1"",""1524""
","
","","","808.7000000029802","","","11","3541","2040","g","elianto","#f73b6a7A","-1"," ","0","0","[1659.7000000029802]","1","2","","","3541","47","3","4","lose","no-go","1"
"pit-trial","166","1170545","0.0-52.0","battery-v0.2","","""event"",""trial"",""time""
""fullscreenenter"",""1"",""1524""
","
","
","""event"",""trial"",""time""
""fullscreenenter"",""1"",""1524""
","
","","","585.4000000059605","","","11","3541","2040","u","elianto","#f73b6a7A"," "," ","1","-10","[1438.2999999970198]","1","2","","","3541","48","0","3","lose","go","1"
"pit-trial","167","1173974","0.0-53.0","battery-v0.2","","""event"",""trial"",""time""
""fullscreenenter"",""1"",""1524""
","
","
","""event"",""trial"",""time""
""fullscreenenter"",""1"",""1524""
","
","","","573.5999999940395","","","11","3541","2040","g","elianto","#f73b6a7A","-1"," ","0","-10","[1424]","1","2","","","3541","49","3","4","lose","no-go","0"
"pit-trial","168","1178603","0.0-54.0","battery-v0.2","","""event"",""trial"",""time""
""fullscreenenter"",""1"",""1524""
","
","
","""event"",""trial"",""time""
""fullscreenenter"",""1"",""1524""
","
","","","1774.300000011921","","","11","3541","2040","a","elianto","#f73b6a7A"," "," ","1","0","[2625.1000000089407]","1","2","","","3541","50","2","3","lose","go","0"
"pit-trial","169","1182326","0.0-55.0","battery-v0.2","","""event"",""trial"",""time""
""fullscreenenter"",""1"",""1524""
","
","
","""event"",""trial"",""time""
""fullscreenenter"",""1"",""1524""
","
","","","863.7000000029802","","","11","3541","2040","l","elianto","#3366ff99","-1"," ","0","0","[1714.7999999970198]","1","2","","","3541","51","1","2","win","no-go","0"
"pit-trial","170","1185718","0.0-56.0","battery-v0.2","","""event"",""trial"",""time""
""fullscreenenter"",""1"",""1524""
","
","
","""event"",""trial"",""time""
""fullscreenenter"",""1"",""1524""
","
","","","537.5","","","11","3541","2040","u","elianto","#f73b6a7A"," "," ","1","0","[1388.2999999970198]","1","2","","","3541","52","0","3","lose","go","0"
"pit-trial","171","1189214","0.0-57.0","battery-v0.2","","""event"",""trial"",""time""
""fullscreenenter"",""1"",""1524""
","
","
","""event"",""trial"",""time""
""fullscreenenter"",""1"",""1524""
","
","","","638.2000000029802","","","11","3541","2040","a","elianto","#f73b6a7A"," "," ","1","-10","[1490.3999999910593]","1","2","","","3541","53","2","3","lose","go","1"
"pit-trial","172","1194076","0.0-58.0","battery-v0.2","","""event"",""trial"",""time""
""fullscreenenter"",""1"",""1524""
","
","
","""event"",""trial"",""time""
""fullscreenenter"",""1"",""1524""
","
","","","-1","","","11","3541","2040","l","elianto","#3366ff99","-1","-1","1","+10","[]","0","2","","","3541","54","1","2","win","no-go","0"
"pit-trial","173","1198935","0.0-59.0","battery-v0.2","","""event"",""trial"",""time""
""fullscreenenter"",""1"",""1524""
","
","
","""event"",""trial"",""time""
""fullscreenenter"",""1"",""1524""
","
","","","-1","","","11","3541","2040","u","elianto","#f73b6a7A"," ","-1","0","-10","[]","0","2","","","3541","55","0","3","lose","go","0"
"pit-trial","174","1202205","0.0-60.0","battery-v0.2","","""event"",""trial"",""time""
""fullscreenenter"",""1"",""1524""
","
","
","""event"",""trial"",""time""
""fullscreenenter"",""1"",""1524""
","
","","","414.79999999701977","","","11","3541","2040","g","elianto","#f73b6a7A","-1"," ","0","-10","[1265]","1","2","","","3541","56","3","4","lose","no-go","0"
"pit-trial","175","1206151","0.0-61.0","battery-v0.2","","""event"",""trial"",""time""
""fullscreenenter"",""1"",""1524""
","
","
","""event"",""trial"",""time""
""fullscreenenter"",""1"",""1524""
","
","","","1084.7999999970198","","","11","3541","2040","u","elianto","#f73b6a7A"," "," ","1","0","[1938.7999999970198]","1","2","","","3541","57","0","3","lose","go","0"
"pit-trial","176","1209708","0.0-62.0","battery-v0.2","","""event"",""trial"",""time""
""fullscreenenter"",""1"",""1524""
","
","
","""event"",""trial"",""time""
""fullscreenenter"",""1"",""1524""
","
","","","700.2999999970198","","","11","3541","2040","p","elianto","#3366ff99"," "," ","1","+10","[1550.5999999940395]","1","2","","","3541","58","4","1","win","go","0"
"pit-trial","177","1213180","0.0-63.0","battery-v0.2","","""event"",""trial"",""time""
""fullscreenenter"",""1"",""1524""
","
","
","""event"",""trial"",""time""
""fullscreenenter"",""1"",""1524""
","
","","","610.5","","","11","3541","2040","a","elianto","#f73b6a7A"," "," ","1","0","[1468.5]","1","2","","","3541","59","2","3","lose","go","0"
"pit-trial","178","1216385","0.0-64.0","battery-v0.2","","""event"",""trial"",""time""
""fullscreenenter"",""1"",""1524""
","
","
","""event"",""trial"",""time""
""fullscreenenter"",""1"",""1524""
","
","","","346.29999999701977","","","11","3541","2040","g","elianto","#f73b6a7A","-1"," ","0","-10","[1200.0999999940395]","1","2","","","3541","60","3","4","lose","no-go","0"
"pit-trial","179","1219687","0.0-65.0","battery-v0.2","","""event"",""trial"",""time""
""fullscreenenter"",""1"",""1524""
","
","
","""event"",""trial"",""time""
""fullscreenenter"",""1"",""1524""
","
","","","443.70000000298023","","","11","3541","2040","l","elianto","#3366ff99","-1"," ","0","0","[1294.6000000089407]","1","2","","","3541","61","1","2","win","no-go","0"
"pit-trial","180","1223138","0.0-66.0","battery-v0.2","","""event"",""trial"",""time""
""fullscreenenter"",""1"",""1524""
","
","
","""event"",""trial"",""time""
""fullscreenenter"",""1"",""1524""
","
","","","592.4000000059605","","","11","3541","2040","a","elianto","#f73b6a7A"," "," ","1","-10","[1443.4000000059605]","1","2","","","3541","62","2","3","lose","go","1"
"pit-trial","181","1226391","0.0-67.0","battery-v0.2","","""event"",""trial"",""time""
""fullscreenenter"",""1"",""1524""
","
","
","""event"",""trial"",""time""
""fullscreenenter"",""1"",""1524""
","
","","","396.09999999403954","","","11","3541","2040","p","elianto","#3366ff99"," "," ","1","+10","[1247]","1","2","","","3541","63","4","1","win","go","0"
"pit-trial","182","1229255","0.0-68.0","battery-v0.2","","""event"",""trial"",""time""
""fullscreenenter"",""1"",""1524""
","
","
","""event"",""trial"",""time""
""fullscreenenter"",""1"",""1524""
","
","","","7.800000011920929","","","11","3541","2040","g","elianto","#f73b6a7A","-1"," ","0","-10","[860.4000000059605]","1","2","","","3541","64","3","4","lose","no-go","0"
"pit-trial","183","1233372","0.0-69.0","battery-v0.2","","""event"",""trial"",""time""
""fullscreenenter"",""1"",""1524""
","
","
","""event"",""trial"",""time""
""fullscreenenter"",""1"",""1524""
","
","","","1259.6000000089407","","","11","3541","2040","s","elianto","#3366ff99","-1"," ","0","0","[2110]","1","2","","","3541","65","5","2","win","no-go","0"
"pit-trial","184","1236685","0.0-70.0","battery-v0.2","","""event"",""trial"",""time""
""fullscreenenter"",""1"",""1524""
","
","
","""event"",""trial"",""time""
""fullscreenenter"",""1"",""1524""
","
","","","455.5","","","11","3541","2040","l","elianto","#3366ff99","-1"," ","0","0","[1306.5999999940395]","1","2","","","3541","66","1","2","win","no-go","0"
"pit-trial","185","1241225","0.0-71.0","battery-v0.2","","""event"",""trial"",""time""
""fullscreenenter"",""1"",""1524""
","
","
","""event"",""trial"",""time""
""fullscreenenter"",""1"",""1524""
","
","","","1683.4000000059605","","","11","3541","2040","p","elianto","#3366ff99"," "," ","1","0","[2534.199999988079]","1","2","","","3541","67","4","1","win","go","1"
"pit-trial","186","1245431","0.0-72.0","battery-v0.2","","""event"",""trial"",""time""
""fullscreenenter"",""1"",""1524""
","
","
","""event"",""trial"",""time""
""fullscreenenter"",""1"",""1524""
","
","","","1346.8999999910593","","","11","3541","2040","g","elianto","#f73b6a7A","-1"," ","0","-10","[2203.2999999970198]","1","2","","","3541","68","3","4","lose","no-go","0"
"pit-trial","187","1249773","0.0-73.0","battery-v0.2","","""event"",""trial"",""time""
""fullscreenenter"",""1"",""1524""
","
","
","""event"",""trial"",""time""
""fullscreenenter"",""1"",""1524""
","
","","","1482.8999999910593","","","11","3541","2040","a","elianto","#f73b6a7A"," "," ","1","-10","[2334.7999999970198]","1","2","","","3541","69","2","3","lose","go","1"
"pit-trial","188","1253501","0.0-74.0","battery-v0.2","","""event"",""trial"",""time""
""fullscreenenter"",""1"",""1524""
","
","
","""event"",""trial"",""time""
""fullscreenenter"",""1"",""1524""
","
","","","870.7999999970198","","","11","3541","2040","p","elianto","#3366ff99"," "," ","1","+10","[1721.6000000089407]","1","2","","","3541","70","4","1","win","go","0"
"pit-trial","189","1257208","0.0-75.0","battery-v0.2","","""event"",""trial"",""time""
""fullscreenenter"",""1"",""1524""
","
","
","""event"",""trial"",""time""
""fullscreenenter"",""1"",""1524""
","
","","","851.4000000059605","","","11","3541","2040","s","elianto","#3366ff99","-1"," ","0","+10","[1701.7000000029802]","1","2","","","3541","71","5","2","win","no-go","1"
"pit-trial","190","1262066","0.0-76.0","battery-v0.2","","""event"",""trial"",""time""
""fullscreenenter"",""1"",""1524""
","
","
","""event"",""trial"",""time""
""fullscreenenter"",""1"",""1524""
","
","","","-1","","","11","3541","2040","l","elianto","#3366ff99","-1","-1","1","+10","[]","0","2","","","3541","72","1","2","win","no-go","0"
"pit-trial","191","1266925","0.0-77.0","battery-v0.2","","""event"",""trial"",""time""
""fullscreenenter"",""1"",""1524""
","
","
","""event"",""trial"",""time""
""fullscreenenter"",""1"",""1524""
","
","","","-1","","","11","3541","2040","l","elianto","#3366ff99","-1","-1","1","+10","[]","0","2","","","3541","73","1","2","win","no-go","0"
"pit-trial","192","1271784","0.0-78.0","battery-v0.2","","""event"",""trial"",""time""
""fullscreenenter"",""1"",""1524""
","
","
","""event"",""trial"",""time""
""fullscreenenter"",""1"",""1524""
","
","","","-1","","","11","3541","2040","g","elianto","#f73b6a7A","-1","-1","1","0","[]","0","2","","","3541","74","3","4","lose","no-go","0"
"pit-trial","193","1275544","0.0-79.0","battery-v0.2","","""event"",""trial"",""time""
""fullscreenenter"",""1"",""1524""
","
","
","""event"",""trial"",""time""
""fullscreenenter"",""1"",""1524""
","
","","","901.7999999970198","","","11","3541","2040","p","elianto","#3366ff99"," "," ","1","+10","[1755.5999999940395]","1","2","","","3541","75","4","1","win","go","0"
"pit-trial","194","1279192","0.0-80.0","battery-v0.2","","""event"",""trial"",""time""
""fullscreenenter"",""1"",""1524""
","
","
","""event"",""trial"",""time""
""fullscreenenter"",""1"",""1524""
","
","","","789.5999999940395","","","11","3541","2040","s","elianto","#3366ff99","-1"," ","0","+10","[1640.5999999940395]","1","2","","","3541","76","5","2","win","no-go","1"
"pit-trial","195","1284051","0.0-81.0","battery-v0.2","","""event"",""trial"",""time""
""fullscreenenter"",""1"",""1524""
","
","
","""event"",""trial"",""time""
""fullscreenenter"",""1"",""1524""
","
","","","-1","","","11","3541","2040","g","elianto","#f73b6a7A","-1","-1","1","0","[]","0","2","","","3541","77","3","4","lose","no-go","0"
"pit-trial","196","1287528","0.0-82.0","battery-v0.2","","""event"",""trial"",""time""
""fullscreenenter"",""1"",""1524""
","
","
","""event"",""trial"",""time""
""fullscreenenter"",""1"",""1524""
","
","","","622.8999999910593","","","11","3541","2040","s","elianto","#3366ff99","-1"," ","0","0","[1473.2999999970198]","1","2","","","3541","78","5","2","win","no-go","0"
"pit-trial","197","1291171","0.0-83.0","battery-v0.2","","""event"",""trial"",""time""
""fullscreenenter"",""1"",""1524""
","
","
","""event"",""trial"",""time""
""fullscreenenter"",""1"",""1524""
","
","","","783.8999999910593","","","11","3541","2040","p","elianto","#3366ff99"," "," ","1","+10","[1637]","1","2","","","3541","79","4","1","win","go","0"
"pit-trial","198","1294851","0.0-84.0","battery-v0.2","","""event"",""trial"",""time""
""fullscreenenter"",""1"",""1524""
","
","
","""event"",""trial"",""time""
""fullscreenenter"",""1"",""1524""
","
","","","820.5","","","11","3541","2040","p","elianto","#3366ff99"," "," ","1","0","[1673]","1","2","","","3541","80","4","1","win","go","1"
"pit-trial","199","1299710","0.0-85.0","battery-v0.2","","""event"",""trial"",""time""
""fullscreenenter"",""1"",""1524""
","
","
","""event"",""trial"",""time""
""fullscreenenter"",""1"",""1524""
","
","","","-1","","","11","3541","2040","e","elianto","#f73b6a7A","-1","-1","1","0","[]","0","2","","","3541","81","7","4","lose","no-go","0"
"pit-trial","200","1304563","0.0-86.0","battery-v0.2","","""event"",""trial"",""time""
""fullscreenenter"",""1"",""1524""
","
","
","""event"",""trial"",""time""
""fullscreenenter"",""1"",""1524""
","
","","","-1","","","11","3541","2040","g","elianto","#f73b6a7A","-1","-1","1","0","[]","0","2","","","3541","82","3","4","lose","no-go","0"
"pit-trial","201","1308068","0.0-87.0","battery-v0.2","","""event"",""trial"",""time""
""fullscreenenter"",""1"",""1524""
","
","
","""event"",""trial"",""time""
""fullscreenenter"",""1"",""1524""
","
","","","647.5","","","11","3541","2040","s","elianto","#3366ff99","-1"," ","0","0","[1499.8999999910593]","1","2","","","3541","83","5","2","win","no-go","0"
"pit-trial","202","1311699","0.0-88.0","battery-v0.2","","""event"",""trial"",""time""
""fullscreenenter"",""1"",""1524""
","
","
","""event"",""trial"",""time""
""fullscreenenter"",""1"",""1524""
","
","","","770.5","","","11","3541","2040","p","elianto","#3366ff99"," "," ","1","+10","[1624.5999999940395]","1","2","","","3541","84","4","1","win","go","0"
"pit-trial","203","1315987","0.0-89.0","battery-v0.2","","""event"",""trial"",""time""
""fullscreenenter"",""1"",""1524""
","
","
","""event"",""trial"",""time""
""fullscreenenter"",""1"",""1524""
","
","","","1432.0999999940395","","","11","3541","2040","w","elianto","#f73b6a7A"," "," ","1","0","[2283.2000000029802]","1","2","","","3541","85","6","3","lose","go","0"
"pit-trial","204","1319566","0.0-90.0","battery-v0.2","","""event"",""trial"",""time""
""fullscreenenter"",""1"",""1524""
","
","
","""event"",""trial"",""time""
""fullscreenenter"",""1"",""1524""
","
","","","724","","","11","3541","2040","p","elianto","#3366ff99"," "," ","1","+10","[1574.9000000059605]","1","2","","","3541","86","4","1","win","go","0"
"pit-trial","205","1324425","0.0-91.0","battery-v0.2","","""event"",""trial"",""time""
""fullscreenenter"",""1"",""1524""
","
","
","""event"",""trial"",""time""
""fullscreenenter"",""1"",""1524""
","
","","","-1","","","11","3541","2040","e","elianto","#f73b6a7A","-1","-1","1","0","[]","0","2","","","3541","87","7","4","lose","no-go","0"
"pit-trial","206","1327929","0.0-92.0","battery-v0.2","","""event"",""trial"",""time""
""fullscreenenter"",""1"",""1524""
","
","
","""event"",""trial"",""time""
""fullscreenenter"",""1"",""1524""
","
","","","648.2999999970198","","","11","3541","2040","s","elianto","#3366ff99","-1"," ","0","0","[1499]","1","2","","","3541","88","5","2","win","no-go","0"
"pit-trial","207","1331422","0.0-93.0","battery-v0.2","","""event"",""trial"",""time""
""fullscreenenter"",""1"",""1524""
","
","
","""event"",""trial"",""time""
""fullscreenenter"",""1"",""1524""
","
","","","635.9000000059605","","","11","3541","2040","p","elianto","#3366ff99"," "," ","1","+10","[1489.7999999970198]","1","2","","","3541","89","4","1","win","go","0"
"pit-trial","208","1334836","0.0-94.0","battery-v0.2","","""event"",""trial"",""time""
""fullscreenenter"",""1"",""1524""
","
","
","""event"",""trial"",""time""
""fullscreenenter"",""1"",""1524""
","
","","","559.7999999970198","","","11","3541","2040","s","elianto","#3366ff99","-1"," ","0","+10","[1410.699999988079]","1","2","","","3541","90","5","2","win","no-go","1"
"pit-trial","209","1339694","0.0-95.0","battery-v0.2","","""event"",""trial"",""time""
""fullscreenenter"",""1"",""1524""
","
","
","""event"",""trial"",""time""
""fullscreenenter"",""1"",""1524""
","
","","","-1","","","11","3541","2040","e","elianto","#f73b6a7A","-1","-1","1","0","[]","0","2","","","3541","91","7","4","lose","no-go","0"
"pit-trial","210","1343855","0.0-96.0","battery-v0.2","","""event"",""trial"",""time""
""fullscreenenter"",""1"",""1524""
","
","
","""event"",""trial"",""time""
""fullscreenenter"",""1"",""1524""
","
","","","1303","","","11","3541","2040","w","elianto","#f73b6a7A"," "," ","1","-10","[2153.5999999940395]","1","2","","","3541","92","6","3","lose","go","1"
"pit-trial","211","1347514","0.0-97.0","battery-v0.2","","""event"",""trial"",""time""
""fullscreenenter"",""1"",""1524""
","
","
","""event"",""trial"",""time""
""fullscreenenter"",""1"",""1524""
","
","","","799.9000000059605","","","11","3541","2040","e","elianto","#f73b6a7A","-1"," ","0","-10","[1655]","1","2","","","3541","93","7","4","lose","no-go","0"
"pit-trial","212","1351236","0.0-98.0","battery-v0.2","","""event"",""trial"",""time""
""fullscreenenter"",""1"",""1524""
","
","
","""event"",""trial"",""time""
""fullscreenenter"",""1"",""1524""
","
","","","866.1000000089407","","","11","3541","2040","s","elianto","#3366ff99","-1"," ","0","0","[1717.5]","1","2","","","3541","94","5","2","win","no-go","0"
"pit-trial","213","1354596","0.0-99.0","battery-v0.2","","""event"",""trial"",""time""
""fullscreenenter"",""1"",""1524""
","
","
","""event"",""trial"",""time""
""fullscreenenter"",""1"",""1524""
","
","","","503.29999999701977","","","11","3541","2040","w","elianto","#f73b6a7A"," "," ","1","-10","[1353.7000000029802]","1","2","","","3541","95","6","3","lose","go","1"
"pit-trial","214","1358975","0.0-100.0","battery-v0.2","","""event"",""trial"",""time""
""fullscreenenter"",""1"",""1524""
","
","
","""event"",""trial"",""time""
""fullscreenenter"",""1"",""1524""
","
","","","1520.199999988079","","","11","3541","2040","d","elianto","#3366ff99"," "," ","1","+10","[2373.5999999940395]","1","2","","","3541","96","8","1","win","go","0"
"pit-trial","215","1362372","0.0-101.0","battery-v0.2","","""event"",""trial"",""time""
""fullscreenenter"",""1"",""1524""
","
","
","""event"",""trial"",""time""
""fullscreenenter"",""1"",""1524""
","
","","","535.9000000059605","","","11","3541","2040","d","elianto","#3366ff99"," "," ","1","0","[1393.2999999970198]","1","2","","","3541","97","8","1","win","go","1"
"pit-trial","216","1367231","0.0-102.0","battery-v0.2","","""event"",""trial"",""time""
""fullscreenenter"",""1"",""1524""
","
","
","""event"",""trial"",""time""
""fullscreenenter"",""1"",""1524""
","
","","","-1","","","11","3541","2040","e","elianto","#f73b6a7A","-1","-1","1","0","[]","0","2","","","3541","98","7","4","lose","no-go","0"
"pit-trial","217","1370778","0.0-103.0","battery-v0.2","","""event"",""trial"",""time""
""fullscreenenter"",""1"",""1524""
","
","
","""event"",""trial"",""time""
""fullscreenenter"",""1"",""1524""
","
","","","690.8999999910593","","","11","3541","2040","s","elianto","#3366ff99","-1"," ","0","0","[1543.4000000059605]","1","2","","","3541","99","5","2","win","no-go","0"
"pit-trial","218","1375637","0.0-104.0","battery-v0.2","","""event"",""trial"",""time""
""fullscreenenter"",""1"",""1524""
","
","
","""event"",""trial"",""time""
""fullscreenenter"",""1"",""1524""
","
","","","-1","","","11","3541","2040","w","elianto","#f73b6a7A"," ","-1","0","-10","[]","0","2","","","3541","100","6","3","lose","go","0"
"pit-trial","219","1379925","0.0-105.0","battery-v0.2","","""event"",""trial"",""time""
""fullscreenenter"",""1"",""1524""
","
","
","""event"",""trial"",""time""
""fullscreenenter"",""1"",""1524""
","
","","","1430","","","11","3541","2040","d","elianto","#3366ff99"," "," ","1","+10","[2283.7000000029802]","1","2","","","3541","101","8","1","win","go","0"
"pit-trial","220","1383738","0.0-106.0","battery-v0.2","","""event"",""trial"",""time""
""fullscreenenter"",""1"",""1524""
","
","
","""event"",""trial"",""time""
""fullscreenenter"",""1"",""1524""
","
","","","950.4000000059605","","","11","3541","2040","j","elianto","#3366ff99"," "," ","1","0","[1806.9000000059605]","1","2","","","3541","102","9","1","win","go","1"
"pit-trial","221","1387445","0.0-107.0","battery-v0.2","","""event"",""trial"",""time""
""fullscreenenter"",""1"",""1524""
","
","
","""event"",""trial"",""time""
""fullscreenenter"",""1"",""1524""
","
","","","853.1000000089407","","","11","3541","2040","s","elianto","#3366ff99","-1"," ","0","+10","[1703.3999999910593]","1","2","","","3541","103","5","2","win","no-go","1"
"pit-trial","222","1390922","0.0-108.0","battery-v0.2","","""event"",""trial"",""time""
""fullscreenenter"",""1"",""1524""
","
","
","""event"",""trial"",""time""
""fullscreenenter"",""1"",""1524""
","
","","","621","","","11","3541","2040","e","elianto","#f73b6a7A","-1"," ","0","-10","[1473]","1","2","","","3541","104","7","4","lose","no-go","0"
"pit-trial","223","1394565","0.0-109.0","battery-v0.2","","""event"",""trial"",""time""
""fullscreenenter"",""1"",""1524""
","
","
","""event"",""trial"",""time""
""fullscreenenter"",""1"",""1524""
","
","","","787","","","11","3541","2040","d","elianto","#3366ff99"," "," ","1","+10","[1637]","1","2","","","3541","105","8","1","win","go","0"
"pit-trial","224","1398527","0.0-110.0","battery-v0.2","","""event"",""trial"",""time""
""fullscreenenter"",""1"",""1524""
","
","
","""event"",""trial"",""time""
""fullscreenenter"",""1"",""1524""
","
","","","1104.9000000059605","","","11","3541","2040","p","elianto","#3366ff99"," "," ","1","0","[1957.800000011921]","1","2","","","3541","106","4","1","win","go","1"
"pit-trial","225","1402917","0.0-111.0","battery-v0.2","","""event"",""trial"",""time""
""fullscreenenter"",""1"",""1524""
","
","
","""event"",""trial"",""time""
""fullscreenenter"",""1"",""1524""
","
","","","1535.5","","","11","3541","2040","j","elianto","#3366ff99"," "," ","1","+10","[2386]","1","2","","","3541","107","9","1","win","go","0"
"pit-trial","226","1407066","0.0-112.0","battery-v0.2","","""event"",""trial"",""time""
""fullscreenenter"",""1"",""1524""
","
","
","""event"",""trial"",""time""
""fullscreenenter"",""1"",""1524""
","
","","","1290.2999999970198","","","11","3541","2040","w","elianto","#f73b6a7A"," "," ","1","0","[2143.8999999910593]","1","2","","","3541","108","6","3","lose","go","0"
"pit-trial","227","1411755","0.0-113.0","battery-v0.2","","""event"",""trial"",""time""
""fullscreenenter"",""1"",""1524""
","
","
","""event"",""trial"",""time""
""fullscreenenter"",""1"",""1524""
","
","","","1828","","","11","3541","2040","s","elianto","#3366ff99","-1"," ","0","0","[2681.5999999940395]","1","2","","","3541","109","5","2","win","no-go","0"
"pit-trial","228","1414789","0.0-114.0","battery-v0.2","","""event"",""trial"",""time""
""fullscreenenter"",""1"",""1524""
","
","
","""event"",""trial"",""time""
""fullscreenenter"",""1"",""1524""
","
","","","174.69999998807907","","","11","3541","2040","d","elianto","#3366ff99"," "," ","1","0","[2.3999999910593033,371.8999999910593,704.7000000029802,1028.8999999910593,1369.7999999970198,1721.0999999940395,2075.3999999910593,2456]","8","2","","","3541","110","8","1","win","go","1"
"pit-trial","229","1417691","0.0-115.0","battery-v0.2","","""event"",""trial"",""time""
""fullscreenenter"",""1"",""1524""
","
","
","""event"",""trial"",""time""
""fullscreenenter"",""1"",""1524""
","
","","","41.1000000089407","","","11","3541","2040","j","elianto","#3366ff99"," "," ","1","0","[78.5,893.5999999940395,1629.8999999910593,2420.2999999970198]","4","2","","","3541","111","9","1","win","go","1"
"pit-trial","230","1420891","0.0-116.0","battery-v0.2","","""event"",""trial"",""time""
""fullscreenenter"",""1"",""1524""
","
","
","""event"",""trial"",""time""
""fullscreenenter"",""1"",""1524""
","
","","","343","","","11","3541","2040","w","elianto","#f73b6a7A"," "," ","1","0","[340.5,1193.4000000059605,1966.7000000029802,2870.800000011921]","4","2","","","3541","112","6","3","lose","go","0"
"pit-trial","231","1424192","0.0-117.0","battery-v0.2","","""event"",""trial"",""time""
""fullscreenenter"",""1"",""1524""
","
","
","""event"",""trial"",""time""
""fullscreenenter"",""1"",""1524""
","
","","","445.09999999403954","","","11","3541","2040","w","elianto","#f73b6a7A"," "," ","1","0","[481.70000000298023,1296.2000000029802,2062.800000011921,2848.9000000059605]","4","2","","","3541","113","6","3","lose","go","0"
"pit-trial","232","1427461","0.0-118.0","battery-v0.2","","""event"",""trial"",""time""
""fullscreenenter"",""1"",""1524""
","
","
","""event"",""trial"",""time""
""fullscreenenter"",""1"",""1524""
","
","","","412","","","11","3541","2040","d","elianto","#3366ff99"," "," ","1","+10","[352.29999999701977,1262.5999999940395,2086.2999999970198,2920.9000000059605]","4","2","","","3541","114","8","1","win","go","0"
"pit-trial","233","1430800","0.0-119.0","battery-v0.2","","""event"",""trial"",""time""
""fullscreenenter"",""1"",""1524""
","
","
","""event"",""trial"",""time""
""fullscreenenter"",""1"",""1524""
","
","","","478.70000000298023","","","11","3541","2040","j","elianto","#3366ff99"," "," ","1","0","[456.5,1334.4000000059605,2155.7000000029802,3009.6000000089407]","4","2","","","3541","115","9","1","win","go","1"
"pit-trial","234","1434352","0.0-120.0","battery-v0.2","","""event"",""trial"",""time""
""fullscreenenter"",""1"",""1524""
","
","
","""event"",""trial"",""time""
""fullscreenenter"",""1"",""1524""
","
","","","694.5","","","11","3541","2040","s","elianto","#3366ff99","-1"," ","0","+10","[635.4000000059605,1545.5,2307.1000000089407,3139.7000000029802]","4","2","","","3541","116","5","2","win","no-go","1"
"pit-trial","235","1437632","0.0-121.0","battery-v0.2","","""event"",""trial"",""time""
""fullscreenenter"",""1"",""1524""
","
","
","""event"",""trial"",""time""
""fullscreenenter"",""1"",""1524""
","
","","","422.20000000298023","","","11","3541","2040","d","elianto","#3366ff99"," "," ","1","+10","[450.29999999701977,1272.7000000029802,2184.7999999970198,3055.0999999940395]","4","2","","","3541","117","8","1","win","go","0"
"pit-trial","236","1441152","0.0-122.0","battery-v0.2","","""event"",""trial"",""time""
""fullscreenenter"",""1"",""1524""
","
","
","""event"",""trial"",""time""
""fullscreenenter"",""1"",""1524""
","
","","","659.7000000029802","","","11","3541","2040","j","elianto","#3366ff99"," "," ","1","+10","[668.7000000029802,1512.300000011921,2351.800000011921,3263.9000000059605]","4","2","","","3541","118","9","1","win","go","0"
"pit-trial","237","1444564","0.0-123.0","battery-v0.2","","""event"",""trial"",""time""
""fullscreenenter"",""1"",""1524""
","
","
","""event"",""trial"",""time""
""fullscreenenter"",""1"",""1524""
","
","","","555.5999999940395","","","11","3541","2040","s","elianto","#3366ff99","-1"," ","0","0","[607.0999999940395,1405.5999999940395,2239.7999999970198,3102.5999999940395]","4","2","","","3541","119","5","2","win","no-go","0"
"pit-trial","238","1448001","0.0-124.0","battery-v0.2","","""event"",""trial"",""time""
""fullscreenenter"",""1"",""1524""
","
","
","""event"",""trial"",""time""
""fullscreenenter"",""1"",""1524""
","
","","","577.7000000029802","","","11","3541","2040","w","elianto","#f73b6a7A"," "," ","1","0","[550.1000000089407,1431,2296.7000000029802,3148]","4","2","","","3541","120","6","3","lose","go","0"
"pit-trial","239","1451233","0.0-125.0","battery-v0.2","","""event"",""trial"",""time""
""fullscreenenter"",""1"",""1524""
","
","
","""event"",""trial"",""time""
""fullscreenenter"",""1"",""1524""
","
","","","373.3999999910593","","","11","3541","2040","j","elianto","#3366ff99"," "," ","1","+10","[561.1000000089407,1224.2000000029802,2524.1000000089407]","3","2","","","3541","121","9","1","win","go","0"
"pit-trial","240","1454225","0.0-126.0","battery-v0.2","","""event"",""trial"",""time""
""fullscreenenter"",""1"",""1524""
","
","
","""event"",""trial"",""time""
""fullscreenenter"",""1"",""1524""
","
","","","136.09999999403954","","","11","3541","2040","w","elianto","#f73b6a7A"," "," ","1","0","[223.5,987.2000000029802,1432.2000000029802,2146.1000000089407,2655.2999999970198]","5","2","","","3541","122","6","3","lose","go","0"
"pit-trial","241","1457304","0.0-127.0","battery-v0.2","","""event"",""trial"",""time""
""fullscreenenter"",""1"",""1524""
","
","
","""event"",""trial"",""time""
""fullscreenenter"",""1"",""1524""
","
","","","223.19999998807907","","","11","3541","2040","e","elianto","#f73b6a7A","-1"," ","0","0","[208.1000000089407,640.2000000029802,1074.2999999970198,1557.5,2023.7000000029802,2474.9000000059605,2969]","7","2","","","3541","123","7","4","lose","no-go","1"
"pit-trial","242","1460214","0.0-128.0","battery-v0.2","","""event"",""trial"",""time""
""fullscreenenter"",""1"",""1524""
","
","
","""event"",""trial"",""time""
""fullscreenenter"",""1"",""1524""
","
","","","51","","","11","3541","2040","d","elianto","#3366ff99"," "," ","1","+10","[414.5,905.2000000029802,1392,1862.2000000029802,2357.7000000029802,2823.7999999970198]","6","2","","","3541","124","8","1","win","go","0"
"pit-trial","243","1463174","0.0-129.0","battery-v0.2","","""event"",""trial"",""time""
""fullscreenenter"",""1"",""1524""
","
","
","""event"",""trial"",""time""
""fullscreenenter"",""1"",""1524""
","
","","","104.70000000298023","","","11","3541","2040","j","elianto","#3366ff99"," "," ","1","0","[426.70000000298023,956.7000000029802,1437.5,1942.7000000029802,2461.1000000089407,2952.800000011921]","6","2","","","3541","125","9","1","win","go","1"
"pit-trial","244","1466145","0.0-130.0","battery-v0.2","","""event"",""trial"",""time""
""fullscreenenter"",""1"",""1524""
","
","
","""event"",""trial"",""time""
""fullscreenenter"",""1"",""1524""
","
","","","112.59999999403954","","","11","3541","2040","w","elianto","#f73b6a7A"," "," ","1","-10","[488.70000000298023,965,1448.5,1917.7000000029802,2441.6000000089407]","5","2","","","3541","126","6","3","lose","go","1"
"pit-trial","245","1469169","0.0-131.0","battery-v0.2","","""event"",""trial"",""time""
""fullscreenenter"",""1"",""1524""
","
","
","""event"",""trial"",""time""
""fullscreenenter"",""1"",""1524""
","
","","","167.20000000298023","","","11","3541","2040","d","elianto","#3366ff99"," "," ","1","+10","[45.29999999701977,555.4000000059605,1017.7000000029802,1535.2999999970198,2039.9000000059605,2571.9000000059605]","6","2","","","3541","127","8","1","win","go","0"
"pit-trial","246","1472337","0.0-132.0","battery-v0.2","","""event"",""trial"",""time""
""fullscreenenter"",""1"",""1524""
","
","
","""event"",""trial"",""time""
""fullscreenenter"",""1"",""1524""
","
","","","314.20000000298023","","","11","3541","2040","e","elianto","#f73b6a7A","-1"," ","0","-10","[92.09999999403954,590.3999999910593,1164.5999999940395,1669,2180.8999999910593,2704.2999999970198,3154.2999999970198]","7","2","","","3541","128","7","4","lose","no-go","0"
"pit-trial","247","1475365","0.0-133.0","battery-v0.2","","""event"",""trial"",""time""
""fullscreenenter"",""1"",""1524""
","
","
","""event"",""trial"",""time""
""fullscreenenter"",""1"",""1524""
","
","","","171.20000000298023","","","11","3541","2040","d","elianto","#3366ff99"," "," ","1","0","[531.2999999970198,1022.3999999910593,1512.0999999940395,2009.199999988079,2488.199999988079,2974.199999988079]","6","2","","","3541","129","8","1","win","go","1"
"pit-trial","248","1478278","0.0-134.0","battery-v0.2","","""event"",""trial"",""time""
""fullscreenenter"",""1"",""1524""
","
","
","""event"",""trial"",""time""
""fullscreenenter"",""1"",""1524""
","
","","","56.3999999910593","","","11","3541","2040","w","elianto","#f73b6a7A"," "," ","1","0","[428.70000000298023,908.3999999910593,1416.2999999970198,1905.2999999970198,2512.5]","5","2","","","3541","130","6","3","lose","go","0"
"pit-trial","249","1481606","0.0-135.0","battery-v0.2","","""event"",""trial"",""time""
""fullscreenenter"",""1"",""1524""
","
","
","""event"",""trial"",""time""
""fullscreenenter"",""1"",""1524""
","
","","","470.09999999403954","","","11","3541","2040","j","elianto","#3366ff99"," "," ","1","+10","[132.30000001192093,638.6000000089407,1323.7000000029802,1767.300000011921,2297.7000000029802,2854.9000000059605]","6","2","","","3541","131","9","1","win","go","0"
"pit-trial","250","1484822","0.0-136.0","battery-v0.2","","""event"",""trial"",""time""
""fullscreenenter"",""1"",""1524""
","
","
","""event"",""trial"",""time""
""fullscreenenter"",""1"",""1524""
","
","","","358.79999999701977","","","11","3541","2040","e","elianto","#f73b6a7A","-1"," ","0","-10","[70.40000000596046,697.7000000029802,1209.5999999940395,1715.4000000059605,2268.2999999970198,2782.7000000029802]","6","2","","","3541","132","7","4","lose","no-go","0"
"pit-trial","251","1488300","0.0-137.0","battery-v0.2","","""event"",""trial"",""time""
""fullscreenenter"",""1"",""1524""
","
","
","""event"",""trial"",""time""
""fullscreenenter"",""1"",""1524""
","
","","","620.2999999970198","","","11","3541","2040","d","elianto","#3366ff99"," "," ","1","+10","[106.1000000089407,1471.4000000059605]","2","2","","","3541","133","8","1","win","go","0"
"pit-trial","252","1492351","0.0-138.0","battery-v0.2","","""event"",""trial"",""time""
""fullscreenenter"",""1"",""1524""
","
","
","""event"",""trial"",""time""
""fullscreenenter"",""1"",""1524""
","
","","","1193.2999999970198","","","11","3541","2040","w","elianto","#f73b6a7A"," "," ","1","0","[2045.4000000059605]","1","2","","","3541","134","6","3","lose","go","0"
"pit-trial","253","1495884","0.0-139.0","battery-v0.2","","""event"",""trial"",""time""
""fullscreenenter"",""1"",""1524""
","
","
","""event"",""trial"",""time""
""fullscreenenter"",""1"",""1524""
","
","","","679.5999999940395","","","11","3541","2040","j","elianto","#3366ff99"," "," ","1","+10","[133.90000000596046,1529.9000000059605]","2","2","","","3541","135","9","1","win","go","0"
"pit-trial","254","1499703","0.0-140.0","battery-v0.2","","""event"",""trial"",""time""
""fullscreenenter"",""1"",""1524""
","
","
","""event"",""trial"",""time""
""fullscreenenter"",""1"",""1524""
","
","","","964.3000000119209","","","11","3541","2040","e","elianto","#f73b6a7A","-1"," ","0","-10","[1814.9000000059605,1975,2152,2339.7999999970198,2535.0999999940395,3012.9000000059605]","6","2","","","3541","136","7","4","lose","no-go","0"
"pit-trial","255","1503468","0.0-141.0","battery-v0.2","","""event"",""trial"",""time""
""fullscreenenter"",""1"",""1524""
","
","
","""event"",""trial"",""time""
""fullscreenenter"",""1"",""1524""
","
","","","907.0999999940395","","","11","3541","2040","w","elianto","#f73b6a7A"," "," ","1","0","[1757.5999999940395,2106.2000000029802,3617.2999999970198]","3","2","","","3541","137","6","3","lose","go","0"
"pit-trial","256","1506854","0.0-142.0","battery-v0.2","","""event"",""trial"",""time""
""fullscreenenter"",""1"",""1524""
","
","
","""event"",""trial"",""time""
""fullscreenenter"",""1"",""1524""
","
","","","529.9000000059605","","","11","3541","2040","d","elianto","#3366ff99"," "," ","1","+10","[23.5,193,345.70000000298023,509.5,676.6000000089407,848.2000000029802,1381.6000000089407,1732.7999999970198,2024.1000000089407,2357,2645,2917.1000000089407,3223]","13","2","","","3541","138","8","1","win","go","0"
"pit-trial","257","1510338","0.0-143.0","battery-v0.2","","""event"",""trial"",""time""
""fullscreenenter"",""1"",""1524""
","
","
","""event"",""trial"",""time""
""fullscreenenter"",""1"",""1524""
","
","","","627.7999999970198","","","11","3541","2040","j","elianto","#3366ff99"," "," ","1","+10","[58.70000000298023,370.6000000089407,1480.5,1787.6000000089407]","4","2","","","3541","139","9","1","win","go","0"
"pit-trial","258","1515196","0.0-144.0","battery-v0.2","","""event"",""trial"",""time""
""fullscreenenter"",""1"",""1524""