"trial_type","trial_index","time_elapsed","internal_node_id","task_version","subject_id","interactions","blur_events","focus_events","fullscreenenter_events","fullscreenexit_events","success","view_history","rt","responses","num_errors","age","subject","participantId","rune","rune_set","hex","correct","choice","accuracy","outcome","keys","total_keys","block","practice","value","sub","trial","stimulus","robot","valence","action","sham"
"pavlovia","0","62","0.0-0.0","battery-v0.2","","""event"",""trial"",""time""
""fullscreenenter"",""1"",""3295""
","
","
","""event"",""trial"",""time""
""fullscreenenter"",""1"",""3295""
","
","","","","","","","","","","","","","","","","","","","","","","","","","","",""
"fullscreen","1","4209","0.0-1.0","battery-v0.2","","""event"",""trial"",""time""
""fullscreenenter"",""1"",""3295""
","
","
","""event"",""trial"",""time""
""fullscreenenter"",""1"",""3295""
","
","true","","","","","","","","","","","","","","","","","","","","","","","","","",""
"pit-instructions","2","37719","0.0-2.0-0.0","battery-v0.2","","""event"",""trial"",""time""
""fullscreenenter"",""1"",""3295""
","
","
","""event"",""trial"",""time""
""fullscreenenter"",""1"",""3295""
","
","","[{""page_index"":0,""viewing_time"":33489.39999985695}]","33490.09999990463","","","","","","","","","","","","","","","","","","","","","","","",""
"pit-comprehension","3","40693","0.0-2.0-1.0-0.0","battery-v0.2","","""event"",""trial"",""time""
""fullscreenenter"",""1"",""3295""
","
","
","""event"",""trial"",""time""
""fullscreenenter"",""1"",""3295""
","
","","","2950.199999809265","[""shark""]","0","22","7272","3878","","","","","","","","","","","","","","","","","","",""
"pit-instructions","4","42976","0.0-2.0-1.0-1.0","battery-v0.2","","""event"",""trial"",""time""
""fullscreenenter"",""1"",""3295""
","
","
","""event"",""trial"",""time""
""fullscreenenter"",""1"",""3295""
","
","","[{""page_index"":0,""viewing_time"":2244.100000143051}]","2244.600000143051","","","","","","","","","","","","","","","","","","","","","","","",""
"pit-comprehension","5","46539","0.0-2.0-2.0-0.0","battery-v0.2","","""event"",""trial"",""time""
""fullscreenenter"",""1"",""3295""
","
","
","""event"",""trial"",""time""
""fullscreenenter"",""1"",""3295""
","
","","","3543.0999999046326","[""tiger""]","0","22","7272","3878","","","","","","","","","","","","","","","","","","",""
"pit-instructions","6","47792","0.0-2.0-2.0-1.0","battery-v0.2","","""event"",""trial"",""time""
""fullscreenenter"",""1"",""3295""
","
","
","""event"",""trial"",""time""
""fullscreenenter"",""1"",""3295""
","
","","[{""page_index"":0,""viewing_time"":1242.7000000476837}]","1243","","","","","","","","","","","","","","","","","","","","","","","",""
"pit-instructions","7","176539","0.0-2.0-3.0","battery-v0.2","","""event"",""trial"",""time""
""fullscreenenter"",""1"",""3295""
","
","
","""event"",""trial"",""time""
""fullscreenenter"",""1"",""3295""
","
","","[{""page_index"":0,""viewing_time"":10359.299999952316},{""page_index"":1,""viewing_time"":8729.599999904633},{""page_index"":2,""viewing_time"":9120},{""page_index"":1,""viewing_time"":9511.299999952316},{""page_index"":2,""viewing_time"":7237.300000190735},{""page_index"":3,""viewing_time"":8618},{""page_index"":4,""viewing_time"":7458},{""page_index"":5,""viewing_time"":6627.199999809265},{""page_index"":6,""viewing_time"":7465.5},{""page_index"":7,""viewing_time"":7827.900000095367},{""page_index"":8,""viewing_time"":6037.5},{""page_index"":9,""viewing_time"":8801.599999904633},{""page_index"":10,""viewing_time"":8555.700000047684},{""page_index"":11,""viewing_time"":8155.700000047684},{""page_index"":12,""viewing_time"":8225},{""page_index"":13,""viewing_time"":5982.5}]","128723.19999980927","","","","","","","","","","","","","","","","","","","","","","","",""
"pit-trial","8","180266","0.0-2.0-4.0-0.0","battery-v0.2","","""event"",""trial"",""time""
""fullscreenenter"",""1"",""3295""
","
","
","""event"",""trial"",""time""
""fullscreenenter"",""1"",""3295""
","
","","","727.5","","","22","7272","3878","&#9784;","elianto","#FFFFF080"," "," ","1","&#10004","[1543.7000000476837]","1","0","0","","","","","","","",""
"pit-trial","9","183656","0.0-2.0-4.1-0.1","battery-v0.2","","""event"",""trial"",""time""
""fullscreenenter"",""1"",""3295""
","
","
","""event"",""trial"",""time""
""fullscreenenter"",""1"",""3295""
","
","","","506.69999980926514","","","22","7272","3878","&#9784;","elianto","#FFFFF080"," "," ","1","&#10004","[1363.2000000476837]","1","0","0","","","","","","","",""
"pit-trial","10","187063","0.0-2.0-4.2-0.2","battery-v0.2","","""event"",""trial"",""time""
""fullscreenenter"",""1"",""3295""
","
","
","""event"",""trial"",""time""
""fullscreenenter"",""1"",""3295""
","
","","","515.7000000476837","","","22","7272","3878","&#9784;","elianto","#FFFFF080"," "," ","1","&#10004","[1379.7000000476837]","1","0","0","","","","","","","",""
"pit-trial","11","190461","0.0-2.0-4.3-0.3","battery-v0.2","","""event"",""trial"",""time""
""fullscreenenter"",""1"",""3295""
","
","
","""event"",""trial"",""time""
""fullscreenenter"",""1"",""3295""
","
","","","526.1000001430511","","","22","7272","3878","&#9784;","elianto","#FFFFF080"," "," ","1","&#10004","[1378.7999999523163]","1","0","0","","","","","","","",""
"pit-trial","12","193823","0.0-2.0-4.4-0.4","battery-v0.2","","""event"",""trial"",""time""
""fullscreenenter"",""1"",""3295""
","
","
","""event"",""trial"",""time""
""fullscreenenter"",""1"",""3295""
","
","","","496.59999990463257","","","22","7272","3878","&#9784;","elianto","#FFFFF080"," "," ","1","&#10004","[1347.5]","1","0","0","","","","","","","",""
"pit-instructions","13","220545","0.0-2.0-5.0","battery-v0.2","","""event"",""trial"",""time""
""fullscreenenter"",""1"",""3295""
","
","
","""event"",""trial"",""time""
""fullscreenenter"",""1"",""3295""
","
","","[{""page_index"":0,""viewing_time"":5740.599999904633},{""page_index"":1,""viewing_time"":6092.400000095367},{""page_index"":2,""viewing_time"":7876.299999952316},{""page_index"":3,""viewing_time"":6763.900000095367}]","26474.5","","","","","","","","","","","","","","","","","","","","","","","",""
"pit-trial","14","225427","0.0-2.0-6.0-0.0","battery-v0.2","","""event"",""trial"",""time""
""fullscreenenter"",""1"",""3295""
","
","
","""event"",""trial"",""time""
""fullscreenenter"",""1"",""3295""
","
","","","-1","","","22","7272","3878","&#9854;","elianto","#FFFFF080","-1","-1","1","&#10004","[]","0","0","1","","","","","","","",""
"pit-trial","15","230307","0.0-2.0-6.1-0.1","battery-v0.2","","""event"",""trial"",""time""
""fullscreenenter"",""1"",""3295""
","
","
","""event"",""trial"",""time""
""fullscreenenter"",""1"",""3295""
","
","","","-1","","","22","7272","3878","&#9854;","elianto","#FFFFF080","-1","-1","1","&#10004","[]","0","0","1","","","","","","","",""
"pit-trial","16","235170","0.0-2.0-6.2-0.2","battery-v0.2","","""event"",""trial"",""time""
""fullscreenenter"",""1"",""3295""
","
","
","""event"",""trial"",""time""
""fullscreenenter"",""1"",""3295""
","
","","","-1","","","22","7272","3878","&#9854;","elianto","#FFFFF080","-1","-1","1","&#10004","[]","0","0","1","","","","","","","",""
"pit-trial","17","240050","0.0-2.0-6.3-0.3","battery-v0.2","","""event"",""trial"",""time""
""fullscreenenter"",""1"",""3295""
","
","
","""event"",""trial"",""time""
""fullscreenenter"",""1"",""3295""
","
","","","-1","","","22","7272","3878","&#9854;","elianto","#FFFFF080","-1","-1","1","&#10004","[]","0","0","1","","","","","","","",""
"pit-trial","18","244921","0.0-2.0-6.4-0.4","battery-v0.2","","""event"",""trial"",""time""
""fullscreenenter"",""1"",""3295""
","
","
","""event"",""trial"",""time""
""fullscreenenter"",""1"",""3295""
","
","","","-1","","","22","7272","3878","&#9854;","elianto","#FFFFF080","-1","-1","1","&#10004","[]","0","0","1","","","","","","","",""
"pit-instructions","19","374025","0.0-2.0-7.0","battery-v0.2","","""event"",""trial"",""time""
""fullscreenenter"",""1"",""3295""
","
","
","""event"",""trial"",""time""
""fullscreenenter"",""1"",""3295""
","
","","[{""page_index"":0,""viewing_time"":6055.700000047684},{""page_index"":1,""viewing_time"":7174.899999856949},{""page_index"":2,""viewing_time"":6853.400000095367},{""page_index"":3,""viewing_time"":9156.599999904633},{""page_index"":4,""viewing_time"":6572.799999952316},{""page_index"":5,""viewing_time"":5835.700000047684},{""page_index"":6,""viewing_time"":4774.299999952316},{""page_index"":7,""viewing_time"":7710.400000095367},{""page_index"":8,""viewing_time"":8067.400000095367},{""page_index"":9,""viewing_time"":6824.699999809265},{""page_index"":10,""viewing_time"":6942.800000190735},{""page_index"":11,""viewing_time"":5514.399999856949},{""page_index"":12,""viewing_time"":7674.299999952316},{""page_index"":13,""viewing_time"":7496.200000047684},{""page_index"":14,""viewing_time"":7813.900000095367},{""page_index"":15,""viewing_time"":7484.599999904633},{""page_index"":16,""viewing_time"":7298.799999952316},{""page_index"":17,""viewing_time"":9827.400000095367}]","129085.70000004768","","","","","","","","","","","","","","","","","","","","","","","",""
"pit-trial","20","377501","0.0-2.0-8.0-0.0","battery-v0.2","","""event"",""trial"",""time""
""fullscreenenter"",""1"",""3295""
","
","
","""event"",""trial"",""time""
""fullscreenenter"",""1"",""3295""
","
","","","578.0999999046326","","","22","7272","3878","&#9776;","elianto","#3366ff99"," "," ","1","+10","[1427.9000000953674]","1","0","1","","","","","","","",""
"pit-trial","21","380794","0.0-2.0-8.0-1.0","battery-v0.2","","""event"",""trial"",""time""
""fullscreenenter"",""1"",""3295""
","
","
","""event"",""trial"",""time""
""fullscreenenter"",""1"",""3295""
","
","","","426.09999990463257","","","22","7272","3878","&#9776;","elianto","#3366ff99"," "," ","1","+10","[1277]","1","0","1","","","","","","","",""
"pit-trial","22","384083","0.0-2.0-8.0-2.0","battery-v0.2","","""event"",""trial"",""time""
""fullscreenenter"",""1"",""3295""
","
","
","""event"",""trial"",""time""
""fullscreenenter"",""1"",""3295""
","
","","","428.40000009536743","","","22","7272","3878","&#9776;","elianto","#3366ff99"," "," ","1","+10","[1278.9000000953674]","1","0","1","","","","","","","",""
"pit-trial","23","387180","0.0-2.0-8.0-3.0","battery-v0.2","","""event"",""trial"",""time""
""fullscreenenter"",""1"",""3295""
","
","
","""event"",""trial"",""time""
""fullscreenenter"",""1"",""3295""
","
","","","237.90000009536743","","","22","7272","3878","&#9776;","elianto","#3366ff99"," "," ","1","0","[1090.1000001430511]","1","0","1","","","","","","","",""
"pit-trial","24","390427","0.0-2.0-8.0-4.0","battery-v0.2","","""event"",""trial"",""time""
""fullscreenenter"",""1"",""3295""
","
","
","""event"",""trial"",""time""
""fullscreenenter"",""1"",""3295""
","
","","","385.59999990463257","","","22","7272","3878","&#9776;","elianto","#3366ff99"," "," ","1","+10","[1235.7999999523163]","1","0","1","","","","","","","",""
"pit-trial","25","393643","0.0-2.0-8.1-0.1","battery-v0.2","","""event"",""trial"",""time""
""fullscreenenter"",""1"",""3295""
","
","
","""event"",""trial"",""time""
""fullscreenenter"",""1"",""3295""
","
","","","339.7999999523163","","","22","7272","3878","&#9776;","elianto","#3366ff99"," "," ","1","+10","[1192.5]","1","0","1","","","","","","","",""
"pit-trial","26","397139","0.0-2.0-8.1-1.1","battery-v0.2","","""event"",""trial"",""time""
""fullscreenenter"",""1"",""3295""
","
","
","""event"",""trial"",""time""
""fullscreenenter"",""1"",""3295""
","
","","","624.6999998092651","","","22","7272","3878","&#9776;","elianto","#3366ff99"," "," ","1","+10","[1477]","1","0","1","","","","","","","",""
"pit-trial","27","400499","0.0-2.0-8.1-2.1","battery-v0.2","","""event"",""trial"",""time""
""fullscreenenter"",""1"",""3295""
","
","
","""event"",""trial"",""time""
""fullscreenenter"",""1"",""3295""
","
","","","495.2000000476837","","","22","7272","3878","&#9776;","elianto","#3366ff99"," "," ","1","+10","[1345.5]","1","0","1","","","","","","","",""
"pit-trial","28","403798","0.0-2.0-8.1-3.1","battery-v0.2","","""event"",""trial"",""time""
""fullscreenenter"",""1"",""3295""
","
","
","""event"",""trial"",""time""
""fullscreenenter"",""1"",""3295""
","
","","","442.59999990463257","","","22","7272","3878","&#9776;","elianto","#3366ff99"," "," ","1","0","[1295]","1","0","1","","","","","","","",""
"pit-trial","29","407049","0.0-2.0-8.1-4.1","battery-v0.2","","""event"",""trial"",""time""
""fullscreenenter"",""1"",""3295""
","
","
","""event"",""trial"",""time""
""fullscreenenter"",""1"",""3295""
","
","","","394","","","22","7272","3878","&#9776;","elianto","#3366ff99"," "," ","1","+10","[1244.4000000953674]","1","0","1","","","","","","","",""
"pit-trial","30","410348","0.0-2.0-8.2-0.2","battery-v0.2","","""event"",""trial"",""time""
""fullscreenenter"",""1"",""3295""
","
","
","""event"",""trial"",""time""
""fullscreenenter"",""1"",""3295""
","
","","","444.30000019073486","","","22","7272","3878","&#9776;","elianto","#3366ff99"," "," ","1","+10","[1294.8000001907349]","1","0","1","","","","","","","",""
"pit-trial","31","413730","0.0-2.0-8.2-1.2","battery-v0.2","","""event"",""trial"",""time""
""fullscreenenter"",""1"",""3295""
","
","
","""event"",""trial"",""time""
""fullscreenenter"",""1"",""3295""
","
","","","525","","","22","7272","3878","&#9776;","elianto","#3366ff99"," "," ","1","+10","[1376.1000001430511]","1","0","1","","","","","","","",""
"pit-trial","32","417026","0.0-2.0-8.2-2.2","battery-v0.2","","""event"",""trial"",""time""
""fullscreenenter"",""1"",""3295""
","
","
","""event"",""trial"",""time""
""fullscreenenter"",""1"",""3295""
","
","","","434.09999990463257","","","22","7272","3878","&#9776;","elianto","#3366ff99"," "," ","1","+10","[1290.1999998092651]","1","0","1","","","","","","","",""
"pit-trial","33","420159","0.0-2.0-8.2-3.2","battery-v0.2","","""event"",""trial"",""time""
""fullscreenenter"",""1"",""3295""
","
","
","""event"",""trial"",""time""
""fullscreenenter"",""1"",""3295""
","
","","","276.7999999523163","","","22","7272","3878","&#9776;","elianto","#3366ff99"," "," ","1","0","[1128]","1","0","1","","","","","","","",""
"pit-trial","34","423350","0.0-2.0-8.2-4.2","battery-v0.2","","""event"",""trial"",""time""
""fullscreenenter"",""1"",""3295""
","
","
","""event"",""trial"",""time""
""fullscreenenter"",""1"",""3295""
","
","","","332.5","","","22","7272","3878","&#9776;","elianto","#3366ff99"," "," ","1","+10","[1183.7999999523163]","1","0","1","","","","","","","",""
"call-function","35","423360","0.0-2.0-9.0","battery-v0.2","","""event"",""trial"",""time""
""fullscreenenter"",""1"",""3295""
","
","
","""event"",""trial"",""time""
""fullscreenenter"",""1"",""3295""
","
","","","","","","","","","","","","","","","","","","","","","","","","","","",""
"pit-instructions","36","468684","0.0-2.0-10.0","battery-v0.2","","""event"",""trial"",""time""
""fullscreenenter"",""1"",""3295""
","
","
","""event"",""trial"",""time""
""fullscreenenter"",""1"",""3295""
","
","","[{""page_index"":0,""viewing_time"":9035.700000047684},{""page_index"":1,""viewing_time"":8382},{""page_index"":2,""viewing_time"":10103.5},{""page_index"":3,""viewing_time"":9644.199999809265},{""page_index"":4,""viewing_time"":8148.900000095367}]","45316.299999952316","","","","","","","","","","","","","","","","","","","","","","","",""
"pit-trial","37","473551","0.0-2.0-11.0-0.0","battery-v0.2","","""event"",""trial"",""time""
""fullscreenenter"",""1"",""3295""
","
","
","""event"",""trial"",""time""
""fullscreenenter"",""1"",""3295""
","
","","","-1","","","22","7272","3878","&#9761;","elianto","#3366ff99","-1","-1","1","+10","[]","0","0","2","","","","","","","",""
"pit-trial","38","478416","0.0-2.0-11.0-1.0","battery-v0.2","","""event"",""trial"",""time""
""fullscreenenter"",""1"",""3295""
","
","
","""event"",""trial"",""time""
""fullscreenenter"",""1"",""3295""
","
","","","-1","","","22","7272","3878","&#9761;","elianto","#3366ff99","-1","-1","1","+10","[]","0","0","2","","","","","","","",""
"pit-trial","39","483282","0.0-2.0-11.0-2.0","battery-v0.2","","""event"",""trial"",""time""
""fullscreenenter"",""1"",""3295""
","
","
","""event"",""trial"",""time""
""fullscreenenter"",""1"",""3295""
","
","","","-1","","","22","7272","3878","&#9761;","elianto","#3366ff99","-1","-1","1","+10","[]","0","0","2","","","","","","","",""
"pit-trial","40","488151","0.0-2.0-11.0-3.0","battery-v0.2","","""event"",""trial"",""time""
""fullscreenenter"",""1"",""3295""
","
","
","""event"",""trial"",""time""
""fullscreenenter"",""1"",""3295""
","
","","","-1","","","22","7272","3878","&#9761;","elianto","#3366ff99","-1","-1","1","0","[]","0","0","2","","","","","","","",""
"pit-trial","41","493023","0.0-2.0-11.0-4.0","battery-v0.2","","""event"",""trial"",""time""
""fullscreenenter"",""1"",""3295""
","
","
","""event"",""trial"",""time""
""fullscreenenter"",""1"",""3295""
","
","","","-1","","","22","7272","3878","&#9761;","elianto","#3366ff99","-1","-1","1","+10","[]","0","0","2","","","","","","","",""
"pit-trial","42","497895","0.0-2.0-11.1-0.1","battery-v0.2","","""event"",""trial"",""time""
""fullscreenenter"",""1"",""3295""
","
","
","""event"",""trial"",""time""
""fullscreenenter"",""1"",""3295""
","
","","","-1","","","22","7272","3878","&#9761;","elianto","#3366ff99","-1","-1","1","+10","[]","0","0","2","","","","","","","",""
"pit-trial","43","502753","0.0-2.0-11.1-1.1","battery-v0.2","","""event"",""trial"",""time""
""fullscreenenter"",""1"",""3295""
","
","
","""event"",""trial"",""time""
""fullscreenenter"",""1"",""3295""
","
","","","-1","","","22","7272","3878","&#9761;","elianto","#3366ff99","-1","-1","1","+10","[]","0","0","2","","","","","","","",""
"pit-trial","44","507613","0.0-2.0-11.1-2.1","battery-v0.2","","""event"",""trial"",""time""
""fullscreenenter"",""1"",""3295""
","
","
","""event"",""trial"",""time""
""fullscreenenter"",""1"",""3295""
","
","","","-1","","","22","7272","3878","&#9761;","elianto","#3366ff99","-1","-1","1","+10","[]","0","0","2","","","","","","","",""
"pit-trial","45","512473","0.0-2.0-11.1-3.1","battery-v0.2","","""event"",""trial"",""time""
""fullscreenenter"",""1"",""3295""
","
","
","""event"",""trial"",""time""
""fullscreenenter"",""1"",""3295""
","
","","","-1","","","22","7272","3878","&#9761;","elianto","#3366ff99","-1","-1","1","0","[]","0","0","2","","","","","","","",""
"pit-trial","46","517337","0.0-2.0-11.1-4.1","battery-v0.2","","""event"",""trial"",""time""
""fullscreenenter"",""1"",""3295""
","
","
","""event"",""trial"",""time""
""fullscreenenter"",""1"",""3295""
","
","","","-1","","","22","7272","3878","&#9761;","elianto","#3366ff99","-1","-1","1","+10","[]","0","0","2","","","","","","","",""
"pit-trial","47","522197","0.0-2.0-11.2-0.2","battery-v0.2","","""event"",""trial"",""time""
""fullscreenenter"",""1"",""3295""
","
","
","""event"",""trial"",""time""
""fullscreenenter"",""1"",""3295""
","
","","","-1","","","22","7272","3878","&#9761;","elianto","#3366ff99","-1","-1","1","+10","[]","0","0","2","","","","","","","",""
"pit-trial","48","527054","0.0-2.0-11.2-1.2","battery-v0.2","","""event"",""trial"",""time""
""fullscreenenter"",""1"",""3295""
","
","
","""event"",""trial"",""time""
""fullscreenenter"",""1"",""3295""
","
","","","-1","","","22","7272","3878","&#9761;","elianto","#3366ff99","-1","-1","1","+10","[]","0","0","2","","","","","","","",""
"pit-trial","49","531910","0.0-2.0-11.2-2.2","battery-v0.2","","""event"",""trial"",""time""
""fullscreenenter"",""1"",""3295""
","
","
","""event"",""trial"",""time""
""fullscreenenter"",""1"",""3295""
","
","","","-1","","","22","7272","3878","&#9761;","elianto","#3366ff99","-1","-1","1","+10","[]","0","0","2","","","","","","","",""
"pit-trial","50","536770","0.0-2.0-11.2-3.2","battery-v0.2","","""event"",""trial"",""time""
""fullscreenenter"",""1"",""3295""
","
","
","""event"",""trial"",""time""
""fullscreenenter"",""1"",""3295""
","
","","","-1","","","22","7272","3878","&#9761;","elianto","#3366ff99","-1","-1","1","0","[]","0","0","2","","","","","","","",""
"pit-trial","51","541630","0.0-2.0-11.2-4.2","battery-v0.2","","""event"",""trial"",""time""
""fullscreenenter"",""1"",""3295""
","
","
","""event"",""trial"",""time""
""fullscreenenter"",""1"",""3295""
","
","","","-1","","","22","7272","3878","&#9761;","elianto","#3366ff99","-1","-1","1","+10","[]","0","0","2","","","","","","","",""
"pit-trial","52","546490","0.0-2.0-11.3-0.3","battery-v0.2","","""event"",""trial"",""time""
""fullscreenenter"",""1"",""3295""
","
","
","""event"",""trial"",""time""
""fullscreenenter"",""1"",""3295""
","
","","","-1","","","22","7272","3878","&#9761;","elianto","#3366ff99","-1","-1","1","+10","[]","0","0","2","","","","","","","",""
"pit-trial","53","551348","0.0-2.0-11.3-1.3","battery-v0.2","","""event"",""trial"",""time""
""fullscreenenter"",""1"",""3295""
","
","
","""event"",""trial"",""time""
""fullscreenenter"",""1"",""3295""
","
","","","-1","","","22","7272","3878","&#9761;","elianto","#3366ff99","-1","-1","1","+10","[]","0","0","2","","","","","","","",""
"pit-trial","54","556207","0.0-2.0-11.3-2.3","battery-v0.2","","""event"",""trial"",""time""
""fullscreenenter"",""1"",""3295""
","
","
","""event"",""trial"",""time""
""fullscreenenter"",""1"",""3295""
","
","","","-1","","","22","7272","3878","&#9761;","elianto","#3366ff99","-1","-1","1","+10","[]","0","0","2","","","","","","","",""
"pit-trial","55","561065","0.0-2.0-11.3-3.3","battery-v0.2","","""event"",""trial"",""time""
""fullscreenenter"",""1"",""3295""
","
","
","""event"",""trial"",""time""
""fullscreenenter"",""1"",""3295""
","
","","","-1","","","22","7272","3878","&#9761;","elianto","#3366ff99","-1","-1","1","0","[]","0","0","2","","","","","","","",""
"pit-trial","56","565924","0.0-2.0-11.3-4.3","battery-v0.2","","""event"",""trial"",""time""
""fullscreenenter"",""1"",""3295""
","
","
","""event"",""trial"",""time""
""fullscreenenter"",""1"",""3295""
","
","","","-1","","","22","7272","3878","&#9761;","elianto","#3366ff99","-1","-1","1","+10","[]","0","0","2","","","","","","","",""
"call-function","57","565931","0.0-2.0-12.0","battery-v0.2","","""event"",""trial"",""time""
""fullscreenenter"",""1"",""3295""
","
","
","""event"",""trial"",""time""
""fullscreenenter"",""1"",""3295""
","
","","","","","","","","","","","","","","","","","","","","","","","","","","",""
"pit-instructions","58","599372","0.0-2.0-13.0","battery-v0.2","","""event"",""trial"",""time""
""fullscreenenter"",""1"",""3295""
","
","
","""event"",""trial"",""time""
""fullscreenenter"",""1"",""3295""
","
","","[{""page_index"":0,""viewing_time"":5759.700000047684},{""page_index"":1,""viewing_time"":7489.5},{""page_index"":2,""viewing_time"":3937.2000000476837},{""page_index"":3,""viewing_time"":10841.399999856949},{""page_index"":4,""viewing_time"":5404.400000095367}]","33432.799999952316","","","","","","","","","","","","","","","","","","","","","","","",""
"pit-trial","59","602985","0.0-2.0-14.0-0.0","battery-v0.2","","""event"",""trial"",""time""
""fullscreenenter"",""1"",""3295""
","
","
","""event"",""trial"",""time""
""fullscreenenter"",""1"",""3295""
","
","","","738","","","22","7272","3878","&#9826;","elianto","#f73b6a7A","-1"," ","0","-10","[1592.1999998092651]","1","0","3","","","","","","","",""
"pit-trial","60","607860","0.0-2.0-14.0-1.0","battery-v0.2","","""event"",""trial"",""time""
""fullscreenenter"",""1"",""3295""
","
","
","""event"",""trial"",""time""
""fullscreenenter"",""1"",""3295""
","
","","","-1","","","22","7272","3878","&#9826;","elianto","#f73b6a7A","-1","-1","1","0","[]","0","0","3","","","","","","","",""
"pit-trial","61","612739","0.0-2.0-14.0-2.0","battery-v0.2","","""event"",""trial"",""time""
""fullscreenenter"",""1"",""3295""
","
","
","""event"",""trial"",""time""
""fullscreenenter"",""1"",""3295""
","
","","","-1","","","22","7272","3878","&#9826;","elianto","#f73b6a7A","-1","-1","1","0","[]","0","0","3","","","","","","","",""
"pit-trial","62","617620","0.0-2.0-14.0-3.0","battery-v0.2","","""event"",""trial"",""time""
""fullscreenenter"",""1"",""3295""
","
","
","""event"",""trial"",""time""
""fullscreenenter"",""1"",""3295""
","
","","","-1","","","22","7272","3878","&#9826;","elianto","#f73b6a7A","-1","-1","1","-10","[]","0","0","3","","","","","","","",""
"pit-trial","63","622504","0.0-2.0-14.0-4.0","battery-v0.2","","""event"",""trial"",""time""
""fullscreenenter"",""1"",""3295""
","
","
","""event"",""trial"",""time""
""fullscreenenter"",""1"",""3295""
","
","","","-1","","","22","7272","3878","&#9826;","elianto","#f73b6a7A","-1","-1","1","0","[]","0","0","3","","","","","","","",""
"pit-trial","64","627380","0.0-2.0-14.1-0.1","battery-v0.2","","""event"",""trial"",""time""
""fullscreenenter"",""1"",""3295""
","
","
","""event"",""trial"",""time""
""fullscreenenter"",""1"",""3295""
","
","","","-1","","","22","7272","3878","&#9826;","elianto","#f73b6a7A","-1","-1","1","0","[]","0","0","3","","","","","","","",""
"pit-trial","65","632236","0.0-2.0-14.1-1.1","battery-v0.2","","""event"",""trial"",""time""
""fullscreenenter"",""1"",""3295""
","
","
","""event"",""trial"",""time""
""fullscreenenter"",""1"",""3295""
","
","","","-1","","","22","7272","3878","&#9826;","elianto","#f73b6a7A","-1","-1","1","0","[]","0","0","3","","","","","","","",""
"pit-trial","66","637091","0.0-2.0-14.1-2.1","battery-v0.2","","""event"",""trial"",""time""
""fullscreenenter"",""1"",""3295""
","
","
","""event"",""trial"",""time""
""fullscreenenter"",""1"",""3295""
","
","","","-1","","","22","7272","3878","&#9826;","elianto","#f73b6a7A","-1","-1","1","0","[]","0","0","3","","","","","","","",""
"pit-trial","67","641952","0.0-2.0-14.1-3.1","battery-v0.2","","""event"",""trial"",""time""
""fullscreenenter"",""1"",""3295""
","
","
","""event"",""trial"",""time""
""fullscreenenter"",""1"",""3295""
","
","","","-1","","","22","7272","3878","&#9826;","elianto","#f73b6a7A","-1","-1","1","-10","[]","0","0","3","","","","","","","",""
"pit-trial","68","646813","0.0-2.0-14.1-4.1","battery-v0.2","","""event"",""trial"",""time""
""fullscreenenter"",""1"",""3295""
","
","
","""event"",""trial"",""time""
""fullscreenenter"",""1"",""3295""
","
","","","-1","","","22","7272","3878","&#9826;","elianto","#f73b6a7A","-1","-1","1","0","[]","0","0","3","","","","","","","",""
"pit-trial","69","651676","0.0-2.0-14.2-0.2","battery-v0.2","","""event"",""trial"",""time""
""fullscreenenter"",""1"",""3295""
","
","
","""event"",""trial"",""time""
""fullscreenenter"",""1"",""3295""
","
","","","-1","","","22","7272","3878","&#9826;","elianto","#f73b6a7A","-1","-1","1","0","[]","0","0","3","","","","","","","",""
"pit-trial","70","656537","0.0-2.0-14.2-1.2","battery-v0.2","","""event"",""trial"",""time""
""fullscreenenter"",""1"",""3295""
","
","
","""event"",""trial"",""time""
""fullscreenenter"",""1"",""3295""
","
","","","-1","","","22","7272","3878","&#9826;","elianto","#f73b6a7A","-1","-1","1","0","[]","0","0","3","","","","","","","",""
"pit-trial","71","661397","0.0-2.0-14.2-2.2","battery-v0.2","","""event"",""trial"",""time""
""fullscreenenter"",""1"",""3295""
","
","
","""event"",""trial"",""time""
""fullscreenenter"",""1"",""3295""
","
","","","-1","","","22","7272","3878","&#9826;","elianto","#f73b6a7A","-1","-1","1","0","[]","0","0","3","","","","","","","",""
"pit-trial","72","666253","0.0-2.0-14.2-3.2","battery-v0.2","","""event"",""trial"",""time""
""fullscreenenter"",""1"",""3295""
","
","
","""event"",""trial"",""time""
""fullscreenenter"",""1"",""3295""
","
","","","-1","","","22","7272","3878","&#9826;","elianto","#f73b6a7A","-1","-1","1","-10","[]","0","0","3","","","","","","","",""
"pit-trial","73","671118","0.0-2.0-14.2-4.2","battery-v0.2","","""event"",""trial"",""time""
""fullscreenenter"",""1"",""3295""
","
","
","""event"",""trial"",""time""
""fullscreenenter"",""1"",""3295""
","
","","","-1","","","22","7272","3878","&#9826;","elianto","#f73b6a7A","-1","-1","1","0","[]","0","0","3","","","","","","","",""
"pit-trial","74","675979","0.0-2.0-14.3-0.3","battery-v0.2","","""event"",""trial"",""time""
""fullscreenenter"",""1"",""3295""
","
","
","""event"",""trial"",""time""
""fullscreenenter"",""1"",""3295""
","
","","","-1","","","22","7272","3878","&#9826;","elianto","#f73b6a7A","-1","-1","1","0","[]","0","0","3","","","","","","","",""
"pit-trial","75","680842","0.0-2.0-14.3-1.3","battery-v0.2","","""event"",""trial"",""time""
""fullscreenenter"",""1"",""3295""
","
","
","""event"",""trial"",""time""
""fullscreenenter"",""1"",""3295""
","
","","","-1","","","22","7272","3878","&#9826;","elianto","#f73b6a7A","-1","-1","1","0","[]","0","0","3","","","","","","","",""
"pit-trial","76","685701","0.0-2.0-14.3-2.3","battery-v0.2","","""event"",""trial"",""time""
""fullscreenenter"",""1"",""3295""
","
","
","""event"",""trial"",""time""
""fullscreenenter"",""1"",""3295""
","
","","","-1","","","22","7272","3878","&#9826;","elianto","#f73b6a7A","-1","-1","1","0","[]","0","0","3","","","","","","","",""
"pit-trial","77","690565","0.0-2.0-14.3-3.3","battery-v0.2","","""event"",""trial"",""time""
""fullscreenenter"",""1"",""3295""
","
","
","""event"",""trial"",""time""
""fullscreenenter"",""1"",""3295""
","
","","","-1","","","22","7272","3878","&#9826;","elianto","#f73b6a7A","-1","-1","1","-10","[]","0","0","3","","","","","","","",""
"pit-trial","78","695425","0.0-2.0-14.3-4.3","battery-v0.2","","""event"",""trial"",""time""
""fullscreenenter"",""1"",""3295""
","
","
","""event"",""trial"",""time""
""fullscreenenter"",""1"",""3295""
","
","","","-1","","","22","7272","3878","&#9826;","elianto","#f73b6a7A","-1","-1","1","0","[]","0","0","3","","","","","","","",""
"call-function","79","695437","0.0-2.0-15.0","battery-v0.2","","""event"",""trial"",""time""
""fullscreenenter"",""1"",""3295""
","
","
","""event"",""trial"",""time""
""fullscreenenter"",""1"",""3295""
","
","","","","","","","","","","","","","","","","","","","","","","","","","","",""
"pit-instructions","80","724205","0.0-2.0-16.0","battery-v0.2","","""event"",""trial"",""time""
""fullscreenenter"",""1"",""3295""
","
","
","""event"",""trial"",""time""
""fullscreenenter"",""1"",""3295""
","
","","[{""page_index"":0,""viewing_time"":10560.399999856949},{""page_index"":1,""viewing_time"":8829.900000095367},{""page_index"":2,""viewing_time"":4089},{""page_index"":3,""viewing_time"":5274.5}]","28754.599999904633","","","","","","","","","","","","","","","","","","","","","","","",""
"pit-trial","81","727283","0.0-2.0-17.0-0.0","battery-v0.2","","""event"",""trial"",""time""
""fullscreenenter"",""1"",""3295""
","
","
","""event"",""trial"",""time""
""fullscreenenter"",""1"",""3295""
","
","","","199.30000019073486","","","22","7272","3878","&#9789;","elianto","#f73b6a7A"," "," ","1","0","[1053.1000001430511]","1","0","4","","","","","","","",""
"pit-trial","82","730561","0.0-2.0-17.0-1.0","battery-v0.2","","""event"",""trial"",""time""
""fullscreenenter"",""1"",""3295""
","
","
","""event"",""trial"",""time""
""fullscreenenter"",""1"",""3295""
","
","","","393.5","","","22","7272","3878","&#9789;","elianto","#f73b6a7A"," "," ","1","0","[1256.5999999046326]","1","0","4","","","","","","","",""
"pit-trial","83","733722","0.0-2.0-17.0-2.0","battery-v0.2","","""event"",""trial"",""time""
""fullscreenenter"",""1"",""3295""
","
","
","""event"",""trial"",""time""
""fullscreenenter"",""1"",""3295""
","
","","","288.7000000476837","","","22","7272","3878","&#9789;","elianto","#f73b6a7A"," "," ","1","0","[1139.0999999046326]","1","0","4","","","","","","","",""
"pit-trial","84","736979","0.0-2.0-17.0-3.0","battery-v0.2","","""event"",""trial"",""time""
""fullscreenenter"",""1"",""3295""
","
","
","""event"",""trial"",""time""
""fullscreenenter"",""1"",""3295""
","
","","","397.5","","","22","7272","3878","&#9789;","elianto","#f73b6a7A"," "," ","1","-10","[1249]","1","0","4","","","","","","","",""
"pit-trial","85","740322","0.0-2.0-17.0-4.0","battery-v0.2","","""event"",""trial"",""time""
""fullscreenenter"",""1"",""3295""
","
","
","""event"",""trial"",""time""
""fullscreenenter"",""1"",""3295""
","
","","","465","","","22","7272","3878","&#9789;","elianto","#f73b6a7A"," "," ","1","0","[1322.5]","1","0","4","","","","","","","",""
"pit-trial","86","743648","0.0-2.0-17.1-0.1","battery-v0.2","","""event"",""trial"",""time""
""fullscreenenter"",""1"",""3295""
","
","
","""event"",""trial"",""time""
""fullscreenenter"",""1"",""3295""
","
","","","459","","","22","7272","3878","&#9789;","elianto","#f73b6a7A"," "," ","1","0","[1313.9000000953674]","1","0","4","","","","","","","",""
"pit-trial","87","746924","0.0-2.0-17.1-1.1","battery-v0.2","","""event"",""trial"",""time""
""fullscreenenter"",""1"",""3295""
","
","
","""event"",""trial"",""time""
""fullscreenenter"",""1"",""3295""
","
","","","404.19999980926514","","","22","7272","3878","&#9789;","elianto","#f73b6a7A"," "," ","1","0","[1263.5]","1","0","4","","","","","","","",""
"pit-trial","88","750237","0.0-2.0-17.1-2.1","battery-v0.2","","""event"",""trial"",""time""
""fullscreenenter"",""1"",""3295""
","
","
","""event"",""trial"",""time""
""fullscreenenter"",""1"",""3295""
","
","","","440.40000009536743","","","22","7272","3878","&#9789;","elianto","#f73b6a7A"," "," ","1","0","[1291.0999999046326]","1","0","4","","","","","","","",""
"pit-trial","89","753453","0.0-2.0-17.1-3.1","battery-v0.2","","""event"",""trial"",""time""
""fullscreenenter"",""1"",""3295""
","
","
","""event"",""trial"",""time""
""fullscreenenter"",""1"",""3295""
","
","","","345.7000000476837","","","22","7272","3878","&#9789;","elianto","#f73b6a7A"," "," ","1","-10","[1203.0999999046326]","1","0","4","","","","","","","",""
"pit-trial","90","756732","0.0-2.0-17.1-4.1","battery-v0.2","","""event"",""trial"",""time""
""fullscreenenter"",""1"",""3295""
","
","
","""event"",""trial"",""time""
""fullscreenenter"",""1"",""3295""
","
","","","420.7999999523163","","","22","7272","3878","&#9789;","elianto","#f73b6a7A"," "," ","1","0","[1270.7999999523163]","1","0","4","","","","","","","",""
"pit-trial","91","759999","0.0-2.0-17.2-0.2","battery-v0.2","","""event"",""trial"",""time""
""fullscreenenter"",""1"",""3295""
","
","
","""event"",""trial"",""time""
""fullscreenenter"",""1"",""3295""
","
","","","402","","","22","7272","3878","&#9789;","elianto","#f73b6a7A"," "," ","1","0","[1256.7000000476837]","1","0","4","","","","","","","",""
"pit-trial","92","763299","0.0-2.0-17.2-1.2","battery-v0.2","","""event"",""trial"",""time""
""fullscreenenter"",""1"",""3295""
","
","
","""event"",""trial"",""time""
""fullscreenenter"",""1"",""3295""
","
","","","435.2000000476837","","","22","7272","3878","&#9789;","elianto","#f73b6a7A"," "," ","1","0","[1292.6000001430511]","1","0","4","","","","","","","",""
"pit-trial","93","766530","0.0-2.0-17.2-2.2","battery-v0.2","","""event"",""trial"",""time""
""fullscreenenter"",""1"",""3295""
","
","
","""event"",""trial"",""time""
""fullscreenenter"",""1"",""3295""
","
","","","372.09999990463257","","","22","7272","3878","&#9789;","elianto","#f73b6a7A"," "," ","1","0","[1223.0999999046326]","1","0","4","","","","","","","",""
"pit-trial","94","769769","0.0-2.0-17.2-3.2","battery-v0.2","","""event"",""trial"",""time""
""fullscreenenter"",""1"",""3295""
","
","
","""event"",""trial"",""time""
""fullscreenenter"",""1"",""3295""
","
","","","383.30000019073486","","","22","7272","3878","&#9789;","elianto","#f73b6a7A"," "," ","1","-10","[1235.7000000476837]","1","0","4","","","","","","","",""
"pit-trial","95","773020","0.0-2.0-17.2-4.2","battery-v0.2","","""event"",""trial"",""time""
""fullscreenenter"",""1"",""3295""
","
","
","""event"",""trial"",""time""
""fullscreenenter"",""1"",""3295""
","
","","","391.2999999523163","","","22","7272","3878","&#9789;","elianto","#f73b6a7A"," "," ","1","0","[1242.2999999523163]","1","0","4","","","","","","","",""
"pit-trial","96","776289","0.0-2.0-17.3-0.3","battery-v0.2","","""event"",""trial"",""time""
""fullscreenenter"",""1"",""3295""
","
","
","""event"",""trial"",""time""
""fullscreenenter"",""1"",""3295""
","
","","","409.59999990463257","","","22","7272","3878","&#9789;","elianto","#f73b6a7A"," "," ","1","0","[1260.0999999046326]","1","0","4","","","","","","","",""
"pit-trial","97","779569","0.0-2.0-17.3-1.3","battery-v0.2","","""event"",""trial"",""time""
""fullscreenenter"",""1"",""3295""
","
","
","""event"",""trial"",""time""
""fullscreenenter"",""1"",""3295""
","
","","","421.7999999523163","","","22","7272","3878","&#9789;","elianto","#f73b6a7A"," "," ","1","0","[1272.7999999523163]","1","0","4","","","","","","","",""
"pit-trial","98","782886","0.0-2.0-17.3-2.3","battery-v0.2","","""event"",""trial"",""time""
""fullscreenenter"",""1"",""3295""
","
","
","""event"",""trial"",""time""
""fullscreenenter"",""1"",""3295""
","
","","","455.90000009536743","","","22","7272","3878","&#9789;","elianto","#f73b6a7A"," "," ","1","0","[1306.8999998569489]","1","0","4","","","","","","","",""
"pit-trial","99","786229","0.0-2.0-17.3-3.3","battery-v0.2","","""event"",""trial"",""time""
""fullscreenenter"",""1"",""3295""
","
","
","""event"",""trial"",""time""
""fullscreenenter"",""1"",""3295""
","
","","","480.90000009536743","","","22","7272","3878","&#9789;","elianto","#f73b6a7A"," "," ","1","-10","[1334.9000000953674]","1","0","4","","","","","","","",""
"pit-trial","100","789540","0.0-2.0-17.3-4.3","battery-v0.2","","""event"",""trial"",""time""
""fullscreenenter"",""1"",""3295""
","
","
","""event"",""trial"",""time""
""fullscreenenter"",""1"",""3295""
","
","","","450.30000019073486","","","22","7272","3878","&#9789;","elianto","#f73b6a7A"," "," ","1","0","[1301.6000001430511]","1","0","4","","","","","","","",""
"call-function","101","789550","0.0-2.0-18.0","battery-v0.2","","""event"",""trial"",""time""
""fullscreenenter"",""1"",""3295""
","
","
","""event"",""trial"",""time""
""fullscreenenter"",""1"",""3295""
","
","","","","","","","","","","","","","","","","","","","","","","","","","","",""
"pit-instructions","102","886709","0.0-2.0-19.0","battery-v0.2","","""event"",""trial"",""time""
""fullscreenenter"",""1"",""3295""
","
","
","""event"",""trial"",""time""
""fullscreenenter"",""1"",""3295""
","
","","[{""page_index"":0,""viewing_time"":18118.200000047684},{""page_index"":1,""viewing_time"":8395.699999809265},{""page_index"":2,""viewing_time"":20326.60000014305},{""page_index"":3,""viewing_time"":8587},{""page_index"":4,""viewing_time"":10994.599999904633},{""page_index"":5,""viewing_time"":8737},{""page_index"":6,""viewing_time"":9677.100000143051},{""page_index"":7,""viewing_time"":6631.699999809265},{""page_index"":8,""viewing_time"":5492.900000095367}]","97062.89999985695","","","","","","","","","","","","","","","","","","","","","","","",""
"pit-comprehension","103","891853","0.0-2.0-20.0-0.0","battery-v0.2","","""event"",""trial"",""time""
""fullscreenenter"",""1"",""3295""
","
","
","""event"",""trial"",""time""
""fullscreenenter"",""1"",""3295""
","
","","","4648.700000047684","[""SPACE""]","0","22","7272","3878","","","","","","","","","","","","","","","","","","",""
"pit-instructions","104","895537","0.0-2.0-20.0-1.0","battery-v0.2","","""event"",""trial"",""time""
""fullscreenenter"",""1"",""3295""
","
","
","""event"",""trial"",""time""
""fullscreenenter"",""1"",""3295""
","
","","[{""page_index"":0,""viewing_time"":3589.800000190735}]","3591.100000143051","","","","","","","","","","","","","","","","","","","","","","","",""
"pit-comprehension","105","900691","0.0-2.0-21.0-0.0","battery-v0.2","","""event"",""trial"",""time""
""fullscreenenter"",""1"",""3295""
","
","
","""event"",""trial"",""time""
""fullscreenenter"",""1"",""3295""
","
","","","5136.300000190735","[""10""]","0","22","7272","3878","","","","","","","","","","","","","","","","","","",""
"pit-instructions","106","902407","0.0-2.0-21.0-1.0","battery-v0.2","","""event"",""trial"",""time""
""fullscreenenter"",""1"",""3295""
","
","
","""event"",""trial"",""time""
""fullscreenenter"",""1"",""3295""
","
","","[{""page_index"":0,""viewing_time"":1660.2000000476837}]","1660.9000000953674","","","","","","","","","","","","","","","","","","","","","","","",""
"pit-comprehension","107","909097","0.0-2.0-22.0-0.0","battery-v0.2","","""event"",""trial"",""time""
""fullscreenenter"",""1"",""3295""
","
","
","""event"",""trial"",""time""
""fullscreenenter"",""1"",""3295""
","
","","","6676.200000047684","[""0""]","0","22","7272","3878","","","","","","","","","","","","","","","","","","",""
"pit-instructions","108","910626","0.0-2.0-22.0-1.0","battery-v0.2","","""event"",""trial"",""time""
""fullscreenenter"",""1"",""3295""
","
","
","""event"",""trial"",""time""
""fullscreenenter"",""1"",""3295""
","
","","[{""page_index"":0,""viewing_time"":1482.2999999523163}]","1482.6000001430511","","","","","","","","","","","","","","","","","","","","","","","",""
"pit-comprehension","109","919571","0.0-2.0-23.0-0.0","battery-v0.2","","""event"",""trial"",""time""
""fullscreenenter"",""1"",""3295""
","
","
","""event"",""trial"",""time""
""fullscreenenter"",""1"",""3295""
","
","","","8937.599999904633","[""True""]","0","22","7272","3878","","","","","","","","","","","","","","","","","","",""
"pit-instructions","110","921121","0.0-2.0-23.0-1.0","battery-v0.2","","""event"",""trial"",""time""
""fullscreenenter"",""1"",""3295""
","
","
","""event"",""trial"",""time""
""fullscreenenter"",""1"",""3295""
","
","","[{""page_index"":0,""viewing_time"":1440.0999999046326}]","1440.7999999523163","","","","","","","","","","","","","","","","","","","","","","","",""
"pit-comprehension","111","928539","0.0-2.0-24.0-0.0","battery-v0.2","","""event"",""trial"",""time""
""fullscreenenter"",""1"",""3295""
","
","
","""event"",""trial"",""time""
""fullscreenenter"",""1"",""3295""
","
","","","7406.199999809265","[""True""]","0","22","7272","3878","","","","","","","","","","","","","","","","","","",""
"pit-instructions","112","930061","0.0-2.0-24.0-1.0","battery-v0.2","","""event"",""trial"",""time""
""fullscreenenter"",""1"",""3295""
","
","
","""event"",""trial"",""time""
""fullscreenenter"",""1"",""3295""
","
","","[{""page_index"":0,""viewing_time"":1428.7000000476837}]","1429.4000000953674","","","","","","","","","","","","","","","","","","","","","","","",""
"pit-comprehension","113","936573","0.0-2.0-25.0-0.0","battery-v0.2","","""event"",""trial"",""time""
""fullscreenenter"",""1"",""3295""
","
","
","""event"",""trial"",""time""
""fullscreenenter"",""1"",""3295""
","
","","","6501.199999809265","[""True""]","0","22","7272","3878","","","","","","","","","","","","","","","","","","",""
"pit-instructions","114","938026","0.0-2.0-25.0-1.0","battery-v0.2","","""event"",""trial"",""time""
""fullscreenenter"",""1"",""3295""
","
","
","""event"",""trial"",""time""
""fullscreenenter"",""1"",""3295""
","
","","[{""page_index"":0,""viewing_time"":1404.0999999046326}]","1404.7999999523163","","","","","","","","","","","","","","","","","","","","","","","",""
"pit-comprehension","115","942505","0.0-2.0-26.0-0.0","battery-v0.2","","""event"",""trial"",""time""
""fullscreenenter"",""1"",""3295""
","
","
","""event"",""trial"",""time""
""fullscreenenter"",""1"",""3295""
","
","","","4468.699999809265","[""False""]","0","22","7272","3878","","","","","","","","","","","","","","","","","","",""
"pit-instructions","116","944163","0.0-2.0-26.0-1.0","battery-v0.2","","""event"",""trial"",""time""
""fullscreenenter"",""1"",""3295""
","
","
","""event"",""trial"",""time""
""fullscreenenter"",""1"",""3295""
","
","","[{""page_index"":0,""viewing_time"":1598}]","1598.3999998569489","","","","","","","","","","","","","","","","","","","","","","","",""
"pit-instructions","117","963507","0.0-3.0","battery-v0.2","","""event"",""trial"",""time""
""fullscreenenter"",""1"",""3295""
","
","
","""event"",""trial"",""time""
""fullscreenenter"",""1"",""3295""
","
","","[{""page_index"":0,""viewing_time"":3945.7999999523163},{""page_index"":1,""viewing_time"":7385.099999904633},{""page_index"":2,""viewing_time"":7981}]","19312.700000047684","","","","","","","","","","","","","","","","","","","","","","","",""
"pit-trial","118","967121","0.0-4.0","battery-v0.2","","""event"",""trial"",""time""
""fullscreenenter"",""1"",""3295""
","
","
","""event"",""trial"",""time""
""fullscreenenter"",""1"",""3295""
","
","","","726.5","","","22","7272","3878","&#9752;","elianto","#f73b6a7A"," "," ","1","0","[1582.0999999046326]","1","1","","","7272","1","3","3","lose","go","0"
"pit-trial","119","970514","0.0-5.0","battery-v0.2","","""event"",""trial"",""time""
""fullscreenenter"",""1"",""3295""
","
","
","""event"",""trial"",""time""
""fullscreenenter"",""1"",""3295""
","
","","","524.7999999523163","","","22","7272","3878","&#9733;","elianto","#3366ff99","-1"," ","0","0","[1382.5]","1","1","","","7272","2","2","2","win","no-go","0"
"pit-trial","120","974017","0.0-6.0","battery-v0.2","","""event"",""trial"",""time""
""fullscreenenter"",""1"",""3295""
","
","
","""event"",""trial"",""time""
""fullscreenenter"",""1"",""3295""
","
","","","627.5999999046326","","","22","7272","3878","&#9728;","elianto","#f73b6a7A","-1"," ","0","-10","[1481.7999999523163]","1","1","","","7272","3","0","4","lose","no-go","0"
"pit-trial","121","977559","0.0-7.0","battery-v0.2","","""event"",""trial"",""time""
""fullscreenenter"",""1"",""3295""
","
","
","""event"",""trial"",""time""
""fullscreenenter"",""1"",""3295""
","
","","","672.5","","","22","7272","3878","&#9730;","elianto","#3366ff99"," "," ","1","+10","[1526.6999998092651]","1","1","","","7272","4","1","1","win","go","0"
"pit-trial","122","981094","0.0-8.0","battery-v0.2","","""event"",""trial"",""time""
""fullscreenenter"",""1"",""3295""
","
","
","""event"",""trial"",""time""
""fullscreenenter"",""1"",""3295""
","
","","","665.6000001430511","","","22","7272","3878","&#9730;","elianto","#3366ff99"," "," ","1","+10","[1523.2000000476837]","1","1","","","7272","5","1","1","win","go","0"
"pit-trial","123","984955","0.0-9.0","battery-v0.2","","""event"",""trial"",""time""
""fullscreenenter"",""1"",""3295""
","
","
","""event"",""trial"",""time""
""fullscreenenter"",""1"",""3295""
","
","","","992.1000001430511","","","22","7272","3878","&#9733;","elianto","#3366ff99","-1"," ","0","0","[1847.5]","1","1","","","7272","6","2","2","win","no-go","0"
"pit-trial","124","989832","0.0-10.0","battery-v0.2","","""event"",""trial"",""time""
""fullscreenenter"",""1"",""3295""
","
","
","""event"",""trial"",""time""
""fullscreenenter"",""1"",""3295""
","
","","","-1","","","22","7272","3878","&#9728;","elianto","#f73b6a7A","-1","-1","1","0","[]","0","1","","","7272","7","0","4","lose","no-go","0"
"pit-trial","125","993334","0.0-11.0","battery-v0.2","","""event"",""trial"",""time""
""fullscreenenter"",""1"",""3295""
","
","
","""event"",""trial"",""time""
""fullscreenenter"",""1"",""3295""
","
","","","640.2999999523163","","","22","7272","3878","&#9752;","elianto","#f73b6a7A"," "," ","1","0","[1492.5999999046326]","1","1","","","7272","8","3","3","lose","go","0"
"pit-trial","126","998193","0.0-12.0","battery-v0.2","","""event"",""trial"",""time""
""fullscreenenter"",""1"",""3295""
","
","
","""event"",""trial"",""time""
""fullscreenenter"",""1"",""3295""
","
","","","-1","","","22","7272","3878","&#9733;","elianto","#3366ff99","-1","-1","1","+10","[]","0","1","","","7272","9","2","2","win","no-go","0"
"pit-trial","127","1001791","0.0-13.0","battery-v0.2","","""event"",""trial"",""time""
""fullscreenenter"",""1"",""3295""
","
","
","""event"",""trial"",""time""
""fullscreenenter"",""1"",""3295""
","
","","","738.7999999523163","","","22","7272","3878","&#9752;","elianto","#f73b6a7A"," "," ","1","0","[1590.2000000476837]","1","1","","","7272","10","3","3","lose","go","0"
"pit-trial","128","1005150","0.0-14.0","battery-v0.2","","""event"",""trial"",""time""
""fullscreenenter"",""1"",""3295""
","
","
","""event"",""trial"",""time""
""fullscreenenter"",""1"",""3295""
","
","","","499.40000009536743","","","22","7272","3878","&#9730;","elianto","#3366ff99"," "," ","1","+10","[1351.2999999523163]","1","1","","","7272","11","1","1","win","go","0"
"pit-trial","129","1010010","0.0-15.0","battery-v0.2","","""event"",""trial"",""time""
""fullscreenenter"",""1"",""3295""
","
","
","""event"",""trial"",""time""
""fullscreenenter"",""1"",""3295""
","
","","","-1","","","22","7272","3878","&#9728;","elianto","#f73b6a7A","-1","-1","1","-10","[]","0","1","","","7272","12","0","4","lose","no-go","1"
"pit-trial","130","1013551","0.0-16.0","battery-v0.2","","""event"",""trial"",""time""
""fullscreenenter"",""1"",""3295""
","
","
","""event"",""trial"",""time""
""fullscreenenter"",""1"",""3295""
","
","","","679","","","22","7272","3878","&#9752;","elianto","#f73b6a7A"," "," ","1","0","[1532.2000000476837]","1","1","","","7272","13","3","3","lose","go","0"
"pit-trial","131","1016993","0.0-17.0","battery-v0.2","","""event"",""trial"",""time""
""fullscreenenter"",""1"",""3295""
","
","
","""event"",""trial"",""time""
""fullscreenenter"",""1"",""3295""
","
","","","583.1999998092651","","","22","7272","3878","&#9730;","elianto","#3366ff99"," "," ","1","+10","[1433.5999999046326]","1","1","","","7272","14","1","1","win","go","0"
"pit-trial","132","1021852","0.0-18.0","battery-v0.2","","""event"",""trial"",""time""
""fullscreenenter"",""1"",""3295""
","
","
","""event"",""trial"",""time""
""fullscreenenter"",""1"",""3295""
","
","","","-1","","","22","7272","3878","&#9728;","elianto","#f73b6a7A","-1","-1","1","0","[]","0","1","","","7272","15","0","4","lose","no-go","0"
"pit-trial","133","1026711","0.0-19.0","battery-v0.2","","""event"",""trial"",""time""
""fullscreenenter"",""1"",""3295""
","
","
","""event"",""trial"",""time""
""fullscreenenter"",""1"",""3295""
","
","","","-1","","","22","7272","3878","&#9733;","elianto","#3366ff99","-1","-1","1","+10","[]","0","1","","","7272","16","2","2","win","no-go","0"
"pit-trial","134","1030150","0.0-20.0","battery-v0.2","","""event"",""trial"",""time""
""fullscreenenter"",""1"",""3295""
","
","
","""event"",""trial"",""time""
""fullscreenenter"",""1"",""3295""
","
","","","579.2999999523163","","","22","7272","3878","&#9730;","elianto","#3366ff99"," "," ","1","+10","[1431]","1","1","","","7272","17","1","1","win","go","0"
"pit-trial","135","1035017","0.0-21.0","battery-v0.2","","""event"",""trial"",""time""
""fullscreenenter"",""1"",""3295""
","
","
","""event"",""trial"",""time""
""fullscreenenter"",""1"",""3295""
","
","","","-1","","","22","7272","3878","&#9733;","elianto","#3366ff99","-1","-1","1","0","[]","0","1","","","7272","18","2","2","win","no-go","1"
"pit-trial","136","1038492","0.0-22.0","battery-v0.2","","""event"",""trial"",""time""
""fullscreenenter"",""1"",""3295""
","
","
","""event"",""trial"",""time""
""fullscreenenter"",""1"",""3295""
","
","","","616.5","","","22","7272","3878","&#9752;","elianto","#f73b6a7A"," "," ","1","0","[1467.5999999046326]","1","1","","","7272","19","3","3","lose","go","0"
"pit-trial","137","1043351","0.0-23.0","battery-v0.2","","""event"",""trial"",""time""
""fullscreenenter"",""1"",""3295""
","
","
","""event"",""trial"",""time""
""fullscreenenter"",""1"",""3295""
","
","","","-1","","","22","7272","3878","&#9728;","elianto","#f73b6a7A","-1","-1","1","0","[]","0","1","","","7272","20","0","4","lose","no-go","0"
"pit-instructions","138","1061488","0.0-24.0","battery-v0.2","","""event"",""trial"",""time""
""fullscreenenter"",""1"",""3295""
","
","
","""event"",""trial"",""time""
""fullscreenenter"",""1"",""3295""
","
","","[{""page_index"":0,""viewing_time"":10839.699999809265},{""page_index"":1,""viewing_time"":7289}]","18129.5","","","","","","","","","","","","","","","","","","","","","","","",""
"pit-trial","139","1064872","0.0-25.0","battery-v0.2","","""event"",""trial"",""time""
""fullscreenenter"",""1"",""3295""
","
","
","""event"",""trial"",""time""
""fullscreenenter"",""1"",""3295""
","
","","","511.89999985694885","","","22","7272","3878","f","elianto","#3366ff99","-1"," ","0","0","[1363.2000000476837]","1","2","","","7272","21","1","2","win","no-go","0"
"pit-trial","140","1068308","0.0-26.0","battery-v0.2","","""event"",""trial"",""time""
""fullscreenenter"",""1"",""3295""
","
","
","""event"",""trial"",""time""
""fullscreenenter"",""1"",""3295""
","
","","","562.3000001907349","","","22","7272","3878","t","elianto","#f73b6a7A"," "," ","1","0","[1427.7000000476837]","1","2","","","7272","22","2","3","lose","go","0"
"pit-trial","141","1071760","0.0-27.0","battery-v0.2","","""event"",""trial"",""time""
""fullscreenenter"",""1"",""3295""
","
","
","""event"",""trial"",""time""
""fullscreenenter"",""1"",""3295""
","
","","","579.7000000476837","","","22","7272","3878","b","elianto","#f73b6a7A","-1"," ","0","-10","[1435.2000000476837]","1","2","","","7272","23","3","4","lose","no-go","0"
"pit-trial","142","1075210","0.0-28.0","battery-v0.2","","""event"",""trial"",""time""
""fullscreenenter"",""1"",""3295""
","
","
","""event"",""trial"",""time""
""fullscreenenter"",""1"",""3295""
","
","","","583.1000001430511","","","22","7272","3878","n","elianto","#f73b6a7A"," "," ","1","0","[1434.3999998569489]","1","2","","","7272","24","0","3","lose","go","0"
"pit-trial","143","1080077","0.0-29.0","battery-v0.2","","""event"",""trial"",""time""
""fullscreenenter"",""1"",""3295""
","
","
","""event"",""trial"",""time""
""fullscreenenter"",""1"",""3295""
","
","","","-1","","","22","7272","3878","b","elianto","#f73b6a7A","-1","-1","1","0","[]","0","2","","","7272","25","3","4","lose","no-go","0"
"pit-trial","144","1084949","0.0-30.0","battery-v0.2","","""event"",""trial"",""time""
""fullscreenenter"",""1"",""3295""
","
","
","""event"",""trial"",""time""
""fullscreenenter"",""1"",""3295""
","
","","","-1","","","22","7272","3878","f","elianto","#3366ff99","-1","-1","1","+10","[]","0","2","","","7272","26","1","2","win","no-go","0"
"pit-trial","145","1088338","0.0-31.0","battery-v0.2","","""event"",""trial"",""time""
""fullscreenenter"",""1"",""3295""
","
","
","""event"",""trial"",""time""
""fullscreenenter"",""1"",""3295""
","
","","","516.4000000953674","","","22","7272","3878","n","elianto","#f73b6a7A"," "," ","1","-10","[1368.4000000953674]","1","2","","","7272","27","0","3","lose","go","1"
"pit-trial","146","1091792","0.0-32.0","battery-v0.2","","""event"",""trial"",""time""
""fullscreenenter"",""1"",""3295""
","
","
","""event"",""trial"",""time""
""fullscreenenter"",""1"",""3295""
","
","","","595.5","","","22","7272","3878","t","elianto","#f73b6a7A"," "," ","1","-10","[1446.8000001907349]","1","2","","","7272","28","2","3","lose","go","1"
"pit-trial","147","1096651","0.0-33.0","battery-v0.2","","""event"",""trial"",""time""
""fullscreenenter"",""1"",""3295""
","
","
","""event"",""trial"",""time""
""fullscreenenter"",""1"",""3295""
","
","","","-1","","","22","7272","3878","b","elianto","#f73b6a7A","-1","-1","1","-10","[]","0","2","","","7272","29","3","4","lose","no-go","1"
"pit-trial","148","1100284","0.0-34.0","battery-v0.2","","""event"",""trial"",""time""
""fullscreenenter"",""1"",""3295""
","
","
","""event"",""trial"",""time""
""fullscreenenter"",""1"",""3295""
","
","","","767.6000001430511","","","22","7272","3878","n","elianto","#f73b6a7A"," "," ","1","0","[1624.0999999046326]","1","2","","","7272","30","0","3","lose","go","0"
"pit-trial","149","1103692","0.0-35.0","battery-v0.2","","""event"",""trial"",""time""
""fullscreenenter"",""1"",""3295""
","
","
","""event"",""trial"",""time""
""fullscreenenter"",""1"",""3295""
","
","","","549.2999999523163","","","22","7272","3878","t","elianto","#f73b6a7A"," "," ","1","0","[1400.1999998092651]","1","2","","","7272","31","2","3","lose","go","0"
"pit-trial","150","1108552","0.0-36.0","battery-v0.2","","""event"",""trial"",""time""
""fullscreenenter"",""1"",""3295""
","
","
","""event"",""trial"",""time""
""fullscreenenter"",""1"",""3295""
","
","","","-1","","","22","7272","3878","f","elianto","#3366ff99","-1","-1","1","+10","[]","0","2","","","7272","32","1","2","win","no-go","0"
"pit-trial","151","1113411","0.0-37.0","battery-v0.2","","""event"",""trial"",""time""
""fullscreenenter"",""1"",""3295""
","
","
","""event"",""trial"",""time""
""fullscreenenter"",""1"",""3295""
","
","","","-1","","","22","7272","3878","f","elianto","#3366ff99","-1","-1","1","+10","[]","0","2","","","7272","33","1","2","win","no-go","0"
"pit-trial","152","1116794","0.0-38.0","battery-v0.2","","""event"",""trial"",""time""
""fullscreenenter"",""1"",""3295""
","
","
","""event"",""trial"",""time""
""fullscreenenter"",""1"",""3295""
","
","","","527.9000000953674","","","22","7272","3878","t","elianto","#f73b6a7A"," "," ","1","0","[1378.7000000476837]","1","2","","","7272","34","2","3","lose","go","0"
"pit-trial","153","1121653","0.0-39.0","battery-v0.2","","""event"",""trial"",""time""
""fullscreenenter"",""1"",""3295""
","
","
","""event"",""trial"",""time""
""fullscreenenter"",""1"",""3295""
","
","","","-1","","","22","7272","3878","b","elianto","#f73b6a7A","-1","-1","1","0","[]","0","2","","","7272","35","3","4","lose","no-go","0"
"pit-trial","154","1125162","0.0-40.0","battery-v0.2","","""event"",""trial"",""time""
""fullscreenenter"",""1"",""3295""
","
","
","""event"",""trial"",""time""
""fullscreenenter"",""1"",""3295""
","
","","","643.7999999523163","","","22","7272","3878","n","elianto","#f73b6a7A"," "," ","1","0","[1500.6000001430511]","1","2","","","7272","36","0","3","lose","go","0"
"pit-trial","155","1130022","0.0-41.0","battery-v0.2","","""event"",""trial"",""time""
""fullscreenenter"",""1"",""3295""
","
","
","""event"",""trial"",""time""
""fullscreenenter"",""1"",""3295""
","
","","","-1","","","22","7272","3878","f","elianto","#3366ff99","-1","-1","1","+10","[]","0","2","","","7272","37","1","2","win","no-go","0"
"pit-trial","156","1133985","0.0-42.0","battery-v0.2","","""event"",""trial"",""time""
""fullscreenenter"",""1"",""3295""
","
","
","""event"",""trial"",""time""
""fullscreenenter"",""1"",""3295""
","
","","","1103.2999999523163","","","22","7272","3878","t","elianto","#f73b6a7A"," "," ","1","-10","[1955.6999998092651]","1","2","","","7272","38","2","3","lose","go","1"
"pit-trial","157","1138845","0.0-43.0","battery-v0.2","","""event"",""trial"",""time""
""fullscreenenter"",""1"",""3295""
","
","
","""event"",""trial"",""time""
""fullscreenenter"",""1"",""3295""
","
","","","-1","","","22","7272","3878","b","elianto","#f73b6a7A","-1","-1","1","0","[]","0","2","","","7272","39","3","4","lose","no-go","0"
"pit-trial","158","1142334","0.0-44.0","battery-v0.2","","""event"",""trial"",""time""
""fullscreenenter"",""1"",""3295""
","
","
","""event"",""trial"",""time""
""fullscreenenter"",""1"",""3295""
","
","","","630.7000000476837","","","22","7272","3878","n","elianto","#f73b6a7A"," "," ","1","-10","[1481]","1","2","","","7272","40","0","3","lose","go","1"
"pit-trial","159","1147191","0.0-45.0","battery-v0.2","","""event"",""trial"",""time""
""fullscreenenter"",""1"",""3295""
","
","
","""event"",""trial"",""time""
""fullscreenenter"",""1"",""3295""
","
","","","-1","","","22","7272","3878","b","elianto","#f73b6a7A","-1","-1","1","0","[]","0","2","","","7272","41","3","4","lose","no-go","0"
"pit-trial","160","1150647","0.0-46.0","battery-v0.2","","""event"",""trial"",""time""
""fullscreenenter"",""1"",""3295""
","
","
","""event"",""trial"",""time""
""fullscreenenter"",""1"",""3295""
","
","","","595.3000001907349","","","22","7272","3878","t","elianto","#f73b6a7A"," "," ","1","0","[1446.5]","1","2","","","7272","42","2","3","lose","go","0"
"pit-trial","161","1154023","0.0-47.0","battery-v0.2","","""event"",""trial"",""time""
""fullscreenenter"",""1"",""3295""
","
","
","""event"",""trial"",""time""
""fullscreenenter"",""1"",""3295""
","
","","","515.6999998092651","","","22","7272","3878","n","elianto","#f73b6a7A"," "," ","1","0","[1367.5999999046326]","1","2","","","7272","43","0","3","lose","go","0"
"pit-trial","162","1158882","0.0-48.0","battery-v0.2","","""event"",""trial"",""time""
""fullscreenenter"",""1"",""3295""
","
","
","""event"",""trial"",""time""
""fullscreenenter"",""1"",""3295""
","
","","","-1","","","22","7272","3878","f","elianto","#3366ff99","-1","-1","1","+10","[]","0","2","","","7272","44","1","2","win","no-go","0"
"pit-trial","163","1163743","0.0-49.0","battery-v0.2","","""event"",""trial"",""time""
""fullscreenenter"",""1"",""3295""
","
","
","""event"",""trial"",""time""
""fullscreenenter"",""1"",""3295""
","
","","","-1","","","22","7272","3878","f","elianto","#3366ff99","-1","-1","1","+10","[]","0","2","","","7272","45","1","2","win","no-go","0"
"pit-trial","164","1167213","0.0-50.0","battery-v0.2","","""event"",""trial"",""time""
""fullscreenenter"",""1"",""3295""
","
","
","""event"",""trial"",""time""
""fullscreenenter"",""1"",""3295""
","
","","","601.4000000953674","","","22","7272","3878","t","elianto","#f73b6a7A"," "," ","1","-10","[1452.3000001907349]","1","2","","","7272","46","2","3","lose","go","1"
"pit-trial","165","1170563","0.0-51.0","battery-v0.2","","""event"",""trial"",""time""
""fullscreenenter"",""1"",""3295""
","
","
","""event"",""trial"",""time""
""fullscreenenter"",""1"",""3295""
","
","","","491.7999999523163","","","22","7272","3878","n","elianto","#f73b6a7A"," "," ","1","0","[1342.7999999523163]","1","2","","","7272","47","0","3","lose","go","0"
"pit-trial","166","1175426","0.0-52.0","battery-v0.2","","""event"",""trial"",""time""
""fullscreenenter"",""1"",""3295""
","
","
","""event"",""trial"",""time""
""fullscreenenter"",""1"",""3295""
","
","","","-1","","","22","7272","3878","b","elianto","#f73b6a7A","-1","-1","1","0","[]","0","2","","","7272","48","3","4","lose","no-go","0"
"pit-trial","167","1178878","0.0-53.0","battery-v0.2","","""event"",""trial"",""time""
""fullscreenenter"",""1"",""3295""
","
","
","""event"",""trial"",""time""
""fullscreenenter"",""1"",""3295""
","
","","","586.4000000953674","","","22","7272","3878","t","elianto","#f73b6a7A"," "," ","1","-10","[1437]","1","2","","","7272","49","2","3","lose","go","1"
"pit-trial","168","1182244","0.0-54.0","battery-v0.2","","""event"",""trial"",""time""
""fullscreenenter"",""1"",""3295""
","
","
","""event"",""trial"",""time""
""fullscreenenter"",""1"",""3295""
","
","","","506.2999999523163","","","22","7272","3878","n","elianto","#f73b6a7A"," "," ","1","0","[1357.5]","1","2","","","7272","50","0","3","lose","go","0"
"pit-trial","169","1187107","0.0-55.0","battery-v0.2","","""event"",""trial"",""time""
""fullscreenenter"",""1"",""3295""
","
","
","""event"",""trial"",""time""
""fullscreenenter"",""1"",""3295""
","
","","","-1","","","22","7272","3878","f","elianto","#3366ff99","-1","-1","1","+10","[]","0","2","","","7272","51","1","2","win","no-go","0"
"pit-trial","170","1191967","0.0-56.0","battery-v0.2","","""event"",""trial"",""time""
""fullscreenenter"",""1"",""3295""
","
","
","""event"",""trial"",""time""
""fullscreenenter"",""1"",""3295""
","
","","","-1","","","22","7272","3878","b","elianto","#f73b6a7A","-1","-1","1","0","[]","0","2","","","7272","52","3","4","lose","no-go","0"
"pit-trial","171","1196829","0.0-57.0","battery-v0.2","","""event"",""trial"",""time""
""fullscreenenter"",""1"",""3295""
","
","
","""event"",""trial"",""time""
""fullscreenenter"",""1"",""3295""
","
","","","-1","","","22","7272","3878","b","elianto","#f73b6a7A","-1","-1","1","0","[]","0","2","","","7272","53","3","4","lose","no-go","0"
"pit-trial","172","1200449","0.0-58.0","battery-v0.2","","""event"",""trial"",""time""
""fullscreenenter"",""1"",""3295""
","
","
","""event"",""trial"",""time""
""fullscreenenter"",""1"",""3295""
","
","","","757.8000001907349","","","22","7272","3878","n","elianto","#f73b6a7A"," "," ","1","0","[1608.7999999523163]","1","2","","","7272","54","0","3","lose","go","0"
"pit-trial","173","1205308","0.0-59.0","battery-v0.2","","""event"",""trial"",""time""
""fullscreenenter"",""1"",""3295""
","
","
","""event"",""trial"",""time""
""fullscreenenter"",""1"",""3295""
","
","","","-1","","","22","7272","3878","t","elianto","#f73b6a7A"," ","-1","0","-10","[]","0","2","","","7272","55","2","3","lose","go","0"
"pit-trial","174","1210176","0.0-60.0","battery-v0.2","","""event"",""trial"",""time""
""fullscreenenter"",""1"",""3295""
","
","
","""event"",""trial"",""time""
""fullscreenenter"",""1"",""3295""
","
","","","-1","","","22","7272","3878","f","elianto","#3366ff99","-1","-1","1","+10","[]","0","2","","","7272","56","1","2","win","no-go","0"
"pit-trial","175","1213658","0.0-61.0","battery-v0.2","","""event"",""trial"",""time""
""fullscreenenter"",""1"",""3295""
","
","
","""event"",""trial"",""time""
""fullscreenenter"",""1"",""3295""
","
","","","621.2000000476837","","","22","7272","3878","t","elianto","#f73b6a7A"," "," ","1","0","[1472.0999999046326]","1","2","","","7272","57","2","3","lose","go","0"
"pit-trial","176","1218516","0.0-62.0","battery-v0.2","","""event"",""trial"",""time""
""fullscreenenter"",""1"",""3295""
","
","
","""event"",""trial"",""time""
""fullscreenenter"",""1"",""3295""
","
","","","-1","","","22","7272","3878","b","elianto","#f73b6a7A","-1","-1","1","0","[]","0","2","","","7272","58","3","4","lose","no-go","0"
"pit-trial","177","1221904","0.0-63.0","battery-v0.2","","""event"",""trial"",""time""
""fullscreenenter"",""1"",""3295""
","
","
","""event"",""trial"",""time""
""fullscreenenter"",""1"",""3295""
","
","","","528.5","","","22","7272","3878","n","elianto","#f73b6a7A"," "," ","1","0","[1379.5]","1","2","","","7272","59","0","3","lose","go","0"
"pit-trial","178","1225926","0.0-64.0","battery-v0.2","","""event"",""trial"",""time""
""fullscreenenter"",""1"",""3295""
","
","
","""event"",""trial"",""time""
""fullscreenenter"",""1"",""3295""
","
","","","1162.2000000476837","","","22","7272","3878","c","elianto","#3366ff99"," "," ","1","+10","[2012.4000000953674]","1","2","","","7272","60","4","1","win","go","0"
"pit-trial","179","1229486","0.0-65.0","battery-v0.2","","""event"",""trial"",""time""
""fullscreenenter"",""1"",""3295""
","
","
","""event"",""trial"",""time""
""fullscreenenter"",""1"",""3295""
","
","","","695.5","","","22","7272","3878","t","elianto","#f73b6a7A"," "," ","1","0","[1547.7999999523163]","1","2","","","7272","61","2","3","lose","go","0"
"pit-trial","180","1234356","0.0-66.0","battery-v0.2","","""event"",""trial"",""time""
""fullscreenenter"",""1"",""3295""
","
","
","""event"",""trial"",""time""
""fullscreenenter"",""1"",""3295""
","
","","","-1","","","22","7272","3878","b","elianto","#f73b6a7A","-1","-1","1","-10","[]","0","2","","","7272","62","3","4","lose","no-go","1"
"pit-trial","181","1237757","0.0-67.0","battery-v0.2","","""event"",""trial"",""time""
""fullscreenenter"",""1"",""3295""
","
","
","""event"",""trial"",""time""
""fullscreenenter"",""1"",""3295""
","
","","","541.5999999046326","","","22","7272","3878","c","elianto","#3366ff99"," "," ","1","+10","[1391.7000000476837]","1","2","","","7272","63","4","1","win","go","0"
"pit-trial","182","1242615","0.0-68.0","battery-v0.2","","""event"",""trial"",""time""
""fullscreenenter"",""1"",""3295""
","
","
","""event"",""trial"",""time""
""fullscreenenter"",""1"",""3295""
","
","","","-1","","","22","7272","3878","f","elianto","#3366ff99","-1","-1","1","+10","[]","0","2","","","7272","64","1","2","win","no-go","0"
"pit-trial","183","1246396","0.0-69.0","battery-v0.2","","""event"",""trial"",""time""
""fullscreenenter"",""1"",""3295""
","
","
","""event"",""trial"",""time""
""fullscreenenter"",""1"",""3295""
","
","","","921.5","","","22","7272","3878","z","elianto","#3366ff99","-1"," ","0","0","[1771.7999999523163]","1","2","","","7272","65","5","2","win","no-go","0"
"pit-trial","184","1251263","0.0-70.0","battery-v0.2","","""event"",""trial"",""time""
""fullscreenenter"",""1"",""3295""
","
","
","""event"",""trial"",""time""
""fullscreenenter"",""1"",""3295""
","
","","","-1","","","22","7272","3878","f","elianto","#3366ff99","-1","-1","1","+10","[]","0","2","","","7272","66","1","2","win","no-go","0"
"pit-trial","185","1256123","0.0-71.0","battery-v0.2","","""event"",""trial"",""time""
""fullscreenenter"",""1"",""3295""
","
","
","""event"",""trial"",""time""
""fullscreenenter"",""1"",""3295""
","
","","","-1","","","22","7272","3878","b","elianto","#f73b6a7A","-1","-1","1","0","[]","0","2","","","7272","67","3","4","lose","no-go","0"
"pit-trial","186","1259847","0.0-72.0","battery-v0.2","","""event"",""trial"",""time""
""fullscreenenter"",""1"",""3295""
","
","
","""event"",""trial"",""time""
""fullscreenenter"",""1"",""3295""
","
","","","864.7999999523163","","","22","7272","3878","c","elianto","#3366ff99"," "," ","1","+10","[1715.9000000953674]","1","2","","","7272","68","4","1","win","go","0"
"pit-trial","187","1264703","0.0-73.0","battery-v0.2","","""event"",""trial"",""time""
""fullscreenenter"",""1"",""3295""
","
","
","""event"",""trial"",""time""
""fullscreenenter"",""1"",""3295""
","
","","","-1","","","22","7272","3878","f","elianto","#3366ff99","-1","-1","1","+10","[]","0","2","","","7272","69","1","2","win","no-go","0"
"pit-trial","188","1268345","0.0-74.0","battery-v0.2","","""event"",""trial"",""time""
""fullscreenenter"",""1"",""3295""
","
","
","""event"",""trial"",""time""
""fullscreenenter"",""1"",""3295""
","
","","","779","","","22","7272","3878","t","elianto","#f73b6a7A"," "," ","1","0","[1632.2000000476837]","1","2","","","7272","70","2","3","lose","go","0"
"pit-trial","189","1271897","0.0-75.0","battery-v0.2","","""event"",""trial"",""time""
""fullscreenenter"",""1"",""3295""
","
","
","""event"",""trial"",""time""
""fullscreenenter"",""1"",""3295""
","
","","","693.5999999046326","","","22","7272","3878","c","elianto","#3366ff99"," "," ","1","+10","[1543.7999999523163]","1","2","","","7272","71","4","1","win","go","0"
"pit-trial","190","1276755","0.0-76.0","battery-v0.2","","""event"",""trial"",""time""
""fullscreenenter"",""1"",""3295""
","
","
","""event"",""trial"",""time""
""fullscreenenter"",""1"",""3295""
","
","","","-1","","","22","7272","3878","z","elianto","#3366ff99","-1","-1","1","+10","[]","0","2","","","7272","72","5","2","win","no-go","0"
"pit-trial","191","1281615","0.0-77.0","battery-v0.2","","""event"",""trial"",""time""
""fullscreenenter"",""1"",""3295""
","
","
","""event"",""trial"",""time""
""fullscreenenter"",""1"",""3295""
","
","","","-1","","","22","7272","3878","b","elianto","#f73b6a7A","-1","-1","1","-10","[]","0","2","","","7272","73","3","4","lose","no-go","1"
"pit-trial","192","1286476","0.0-78.0","battery-v0.2","","""event"",""trial"",""time""
""fullscreenenter"",""1"",""3295""
","
","
","""event"",""trial"",""time""
""fullscreenenter"",""1"",""3295""
","
","","","-1","","","22","7272","3878","f","elianto","#3366ff99","-1","-1","1","+10","[]","0","2","","","7272","74","1","2","win","no-go","0"
"pit-trial","193","1291334","0.0-79.0","battery-v0.2","","""event"",""trial"",""time""
""fullscreenenter"",""1"",""3295""
","
","
","""event"",""trial"",""time""
""fullscreenenter"",""1"",""3295""
","
","","","-1","","","22","7272","3878","z","elianto","#3366ff99","-1","-1","1","+10","[]","0","2","","","7272","75","5","2","win","no-go","0"
"pit-trial","194","1294757","0.0-80.0","battery-v0.2","","""event"",""trial"",""time""
""fullscreenenter"",""1"",""3295""
","
","
","""event"",""trial"",""time""
""fullscreenenter"",""1"",""3295""
","
","","","563.2999999523163","","","22","7272","3878","c","elianto","#3366ff99"," "," ","1","+10","[1413.5999999046326]","1","2","","","7272","76","4","1","win","go","0"
"pit-trial","195","1299616","0.0-81.0","battery-v0.2","","""event"",""trial"",""time""
""fullscreenenter"",""1"",""3295""
","
","
","""event"",""trial"",""time""
""fullscreenenter"",""1"",""3295""
","
","","","-1","","","22","7272","3878","b","elianto","#f73b6a7A","-1","-1","1","0","[]","0","2","","","7272","77","3","4","lose","no-go","0"
"pit-trial","196","1303374","0.0-82.0","battery-v0.2","","""event"",""trial"",""time""
""fullscreenenter"",""1"",""3295""
","
","
","""event"",""trial"",""time""
""fullscreenenter"",""1"",""3295""
","
","","","900.2000000476837","","","22","7272","3878","c","elianto","#3366ff99"," "," ","1","+10","[1750.7000000476837]","1","2","","","7272","78","4","1","win","go","0"
"pit-trial","197","1307097","0.0-83.0","battery-v0.2","","""event"",""trial"",""time""
""fullscreenenter"",""1"",""3295""
","
","
","""event"",""trial"",""time""
""fullscreenenter"",""1"",""3295""
","
","","","864.1000001430511","","","22","7272","3878","c","elianto","#3366ff99"," "," ","1","+10","[1714.2999999523163]","1","2","","","7272","79","4","1","win","go","0"
"pit-trial","198","1311955","0.0-84.0","battery-v0.2","","""event"",""trial"",""time""
""fullscreenenter"",""1"",""3295""
","
","
","""event"",""trial"",""time""
""fullscreenenter"",""1"",""3295""
","
","","","-1","","","22","7272","3878","z","elianto","#3366ff99","-1","-1","1","+10","[]","0","2","","","7272","80","5","2","win","no-go","0"
"pit-trial","199","1316815","0.0-85.0","battery-v0.2","","""event"",""trial"",""time""
""fullscreenenter"",""1"",""3295""
","
","
","""event"",""trial"",""time""
""fullscreenenter"",""1"",""3295""
","
","","","-1","","","22","7272","3878","z","elianto","#3366ff99","-1","-1","1","0","[]","0","2","","","7272","81","5","2","win","no-go","1"
"pit-trial","200","1321673","0.0-86.0","battery-v0.2","","""event"",""trial"",""time""
""fullscreenenter"",""1"",""3295""
","
","
","""event"",""trial"",""time""
""fullscreenenter"",""1"",""3295""
","
","","","-1","","","22","7272","3878","b","elianto","#f73b6a7A","-1","-1","1","0","[]","0","2","","","7272","82","3","4","lose","no-go","0"
"pit-trial","201","1325387","0.0-87.0","battery-v0.2","","""event"",""trial"",""time""
""fullscreenenter"",""1"",""3295""
","
","
","""event"",""trial"",""time""
""fullscreenenter"",""1"",""3295""
","
","","","856.2000000476837","","","22","7272","3878","y","elianto","#f73b6a7A","-1"," ","0","-10","[1707]","1","2","","","7272","83","7","4","lose","no-go","0"
"pit-trial","202","1328886","0.0-88.0","battery-v0.2","","""event"",""trial"",""time""
""fullscreenenter"",""1"",""3295""
","
","
","""event"",""trial"",""time""
""fullscreenenter"",""1"",""3295""
","
","","","635.5","","","22","7272","3878","c","elianto","#3366ff99"," "," ","1","+10","[1485.5999999046326]","1","2","","","7272","84","4","1","win","go","0"
"pit-trial","203","1333744","0.0-89.0","battery-v0.2","","""event"",""trial"",""time""
""fullscreenenter"",""1"",""3295""
","
","
","""event"",""trial"",""time""
""fullscreenenter"",""1"",""3295""
","
","","","-1","","","22","7272","3878","h","elianto","#f73b6a7A"," ","-1","0","-10","[]","0","2","","","7272","85","6","3","lose","go","0"
"pit-trial","204","1338601","0.0-90.0","battery-v0.2","","""event"",""trial"",""time""
""fullscreenenter"",""1"",""3295""
","
","
","""event"",""trial"",""time""
""fullscreenenter"",""1"",""3295""
","
","","","-1","","","22","7272","3878","y","elianto","#f73b6a7A","-1","-1","1","0","[]","0","2","","","7272","86","7","4","lose","no-go","0"
"pit-trial","205","1343460","0.0-91.0","battery-v0.2","","""event"",""trial"",""time""
""fullscreenenter"",""1"",""3295""
","
","
","""event"",""trial"",""time""
""fullscreenenter"",""1"",""3295""
","
","","","-1","","","22","7272","3878","z","elianto","#3366ff99","-1","-1","1","+10","[]","0","2","","","7272","87","5","2","win","no-go","0"
"pit-trial","206","1347317","0.0-92.0","battery-v0.2","","""event"",""trial"",""time""
""fullscreenenter"",""1"",""3295""
","
","
","""event"",""trial"",""time""
""fullscreenenter"",""1"",""3295""
","
","","","995.5999999046326","","","22","7272","3878","c","elianto","#3366ff99"," "," ","1","0","[1848.0999999046326]","1","2","","","7272","88","4","1","win","go","1"
"pit-trial","207","1351146","0.0-93.0","battery-v0.2","","""event"",""trial"",""time""
""fullscreenenter"",""1"",""3295""
","
","
","""event"",""trial"",""time""
""fullscreenenter"",""1"",""3295""
","
","","","970","","","22","7272","3878","h","elianto","#f73b6a7A"," "," ","1","-10","[1820]","1","2","","","7272","89","6","3","lose","go","1"
"pit-trial","208","1356006","0.0-94.0","battery-v0.2","","""event"",""trial"",""time""
""fullscreenenter"",""1"",""3295""
","
","
","""event"",""trial"",""time""
""fullscreenenter"",""1"",""3295""
","
","","","-1","","","22","7272","3878","y","elianto","#f73b6a7A","-1","-1","1","0","[]","0","2","","","7272","90","7","4","lose","no-go","0"
"pit-trial","209","1360864","0.0-95.0","battery-v0.2","","""event"",""trial"",""time""
""fullscreenenter"",""1"",""3295""
","
","
","""event"",""trial"",""time""
""fullscreenenter"",""1"",""3295""
","
","","","-1","","","22","7272","3878","z","elianto","#3366ff99","-1","-1","1","0","[]","0","2","","","7272","91","5","2","win","no-go","1"
"pit-trial","210","1364431","0.0-96.0","battery-v0.2","","""event"",""trial"",""time""
""fullscreenenter"",""1"",""3295""
","
","
","""event"",""trial"",""time""
""fullscreenenter"",""1"",""3295""
","
","","","705.7999999523163","","","22","7272","3878","c","elianto","#3366ff99"," "," ","1","+10","[1556.0999999046326]","1","2","","","7272","92","4","1","win","go","0"
"pit-trial","211","1368264","0.0-97.0","battery-v0.2","","""event"",""trial"",""time""
""fullscreenenter"",""1"",""3295""
","
","
","""event"",""trial"",""time""
""fullscreenenter"",""1"",""3295""
","
","","","975.3999998569489","","","22","7272","3878","r","elianto","#3366ff99"," "," ","1","+10","[1825.8999998569489]","1","2","","","7272","93","8","1","win","go","0"
"pit-trial","212","1373121","0.0-98.0","battery-v0.2","","""event"",""trial"",""time""
""fullscreenenter"",""1"",""3295""
","
","
","""event"",""trial"",""time""
""fullscreenenter"",""1"",""3295""
","
","","","-1","","","22","7272","3878","z","elianto","#3366ff99","-1","-1","1","+10","[]","0","2","","","7272","94","5","2","win","no-go","0"
"pit-trial","213","1377984","0.0-99.0","battery-v0.2","","""event"",""trial"",""time""
""fullscreenenter"",""1"",""3295""
","
","
","""event"",""trial"",""time""
""fullscreenenter"",""1"",""3295""
","
","","","-1","","","22","7272","3878","y","elianto","#f73b6a7A","-1","-1","1","0","[]","0","2","","","7272","95","7","4","lose","no-go","0"
"pit-trial","214","1381399","0.0-100.0","battery-v0.2","","""event"",""trial"",""time""
""fullscreenenter"",""1"",""3295""
","
","
","""event"",""trial"",""time""
""fullscreenenter"",""1"",""3295""
","
","","","549","","","22","7272","3878","h","elianto","#f73b6a7A"," "," ","1","0","[1399.7999999523163]","1","2","","","7272","96","6","3","lose","go","0"
"pit-trial","215","1386257","0.0-101.0","battery-v0.2","","""event"",""trial"",""time""
""fullscreenenter"",""1"",""3295""
","
","
","""event"",""trial"",""time""
""fullscreenenter"",""1"",""3295""
","
","","","-1","","","22","7272","3878","h","elianto","#f73b6a7A"," ","-1","0","-10","[]","0","2","","","7272","97","6","3","lose","go","0"
"pit-trial","216","1391116","0.0-102.0","battery-v0.2","","""event"",""trial"",""time""
""fullscreenenter"",""1"",""3295""
","
","
","""event"",""trial"",""time""
""fullscreenenter"",""1"",""3295""
","
","","","-1","","","22","7272","3878","y","elianto","#f73b6a7A","-1","-1","1","-10","[]","0","2","","","7272","98","7","4","lose","no-go","1"
"pit-trial","217","1394527","0.0-103.0","battery-v0.2","","""event"",""trial"",""time""
""fullscreenenter"",""1"",""3295""
","
","
","""event"",""trial"",""time""
""fullscreenenter"",""1"",""3295""
","
","","","552.6000001430511","","","22","7272","3878","r","elianto","#3366ff99"," "," ","1","+10","[1403.2999999523163]","1","2","","","7272","99","8","1","win","go","0"
"pit-trial","218","1399388","0.0-104.0","battery-v0.2","","""event"",""trial"",""time""
""fullscreenenter"",""1"",""3295""
","
","
","""event"",""trial"",""time""
""fullscreenenter"",""1"",""3295""
","
","","","-1","","","22","7272","3878","z","elianto","#3366ff99","-1","-1","1","+10","[]","0","2","","","7272","100","5","2","win","no-go","0"
"pit-trial","219","1404247","0.0-105.0","battery-v0.2","","""event"",""trial"",""time""
""fullscreenenter"",""1"",""3295""
","
","
","""event"",""trial"",""time""
""fullscreenenter"",""1"",""3295""
","
","","","-1","","","22","7272","3878","z","elianto","#3366ff99","-1","-1","1","+10","[]","0","2","","","7272","101","5","2","win","no-go","0"
"pit-trial","220","1409108","0.0-106.0","battery-v0.2","","""event"",""trial"",""time""
""fullscreenenter"",""1"",""3295""
","
","
","""event"",""trial"",""time""
""fullscreenenter"",""1"",""3295""
","
","","","-1","","","22","7272","3878","y","elianto","#f73b6a7A","-1","-1","1","0","[]","0","2","","","7272","102","7","4","lose","no-go","0"
"pit-trial","221","1412528","0.0-107.0","battery-v0.2","","""event"",""trial"",""time""
""fullscreenenter"",""1"",""3295""
","
","
","""event"",""trial"",""time""
""fullscreenenter"",""1"",""3295""
","
","","","560.5999999046326","","","22","7272","3878","r","elianto","#3366ff99"," "," ","1","+10","[1411]","1","2","","","7272","103","8","1","win","go","0"
"pit-trial","222","1416296","0.0-108.0","battery-v0.2","","""event"",""trial"",""time""
""fullscreenenter"",""1"",""3295""
","
","
","""event"",""trial"",""time""
""fullscreenenter"",""1"",""3295""
","
","","","908.2000000476837","","","22","7272","3878","m","elianto","#3366ff99"," "," ","1","+10","[1759]","1","2","","","7272","104","9","1","win","go","0"
"pit-trial","223","1419756","0.0-109.0","battery-v0.2","","""event"",""trial"",""time""
""fullscreenenter"",""1"",""3295""
","
","
","""event"",""trial"",""time""
""fullscreenenter"",""1"",""3295""
","
","","","594.9000000953674","","","22","7272","3878","h","elianto","#f73b6a7A"," "," ","1","0","[1446]","1","2","","","7272","105","6","3","lose","go","0"
"pit-trial","224","1423188","0.0-110.0","battery-v0.2","","""event"",""trial"",""time""
""fullscreenenter"",""1"",""3295""
","
","
","""event"",""trial"",""time""
""fullscreenenter"",""1"",""3295""
","
","","","572.5","","","22","7272","3878","r","elianto","#3366ff99"," "," ","1","+10","[1423.0999999046326]","1","2","","","7272","106","8","1","win","go","0"
"pit-trial","225","1426695","0.0-111.0","battery-v0.2","","""event"",""trial"",""time""
""fullscreenenter"",""1"",""3295""
","
","
","""event"",""trial"",""time""
""fullscreenenter"",""1"",""3295""
","
","","","649","","","22","7272","3878","c","elianto","#3366ff99"," "," ","1","+10","[1500]","1","2","","","7272","107","4","1","win","go","0"
"pit-trial","226","1430175","0.0-112.0","battery-v0.2","","""event"",""trial"",""time""
""fullscreenenter"",""1"",""3295""
","
","
","""event"",""trial"",""time""
""fullscreenenter"",""1"",""3295""
","
","","","620.8000001907349","","","22","7272","3878","m","elianto","#3366ff99"," "," ","1","+10","[1471.7000000476837]","1","2","","","7272","108","9","1","win","go","0"
"pit-trial","227","1435040","0.0-113.0","battery-v0.2","","""event"",""trial"",""time""
""fullscreenenter"",""1"",""3295""
","
","
","""event"",""trial"",""time""
""fullscreenenter"",""1"",""3295""
","
","","","-1","","","22","7272","3878","z","elianto","#3366ff99","-1","-1","1","0","[]","0","2","","","7272","109","5","2","win","no-go","1"
"pit-trial","228","1438548","0.0-114.0","battery-v0.2","","""event"",""trial"",""time""
""fullscreenenter"",""1"",""3295""
","
","
","""event"",""trial"",""time""
""fullscreenenter"",""1"",""3295""
","
","","","646","","","22","7272","3878","m","elianto","#3366ff99"," "," ","1","+10","[1498.7999999523163]","1","2","","","7272","110","9","1","win","go","0"
"pit-trial","229","1442094","0.0-115.0","battery-v0.2","","""event"",""trial"",""time""
""fullscreenenter"",""1"",""3295""
","
","
","""event"",""trial"",""time""
""fullscreenenter"",""1"",""3295""
","
","","","687.6000001430511","","","22","7272","3878","h","elianto","#f73b6a7A"," "," ","1","0","[1538.6000001430511]","1","2","","","7272","111","6","3","lose","go","0"
"pit-trial","230","1445507","0.0-116.0","battery-v0.2","","""event"",""trial"",""time""
""fullscreenenter"",""1"",""3295""
","
","
","""event"",""trial"",""time""
""fullscreenenter"",""1"",""3295""
","
","","","538.8000001907349","","","22","7272","3878","r","elianto","#3366ff99"," "," ","1","+10","[1393.0999999046326]","1","2","","","7272","112","8","1","win","go","0"
"pit-trial","231","1448908","0.0-117.0","battery-v0.2","","""event"",""trial"",""time""
""fullscreenenter"",""1"",""3295""
","
","
","""event"",""trial"",""time""
""fullscreenenter"",""1"",""3295""
","
","","","542.2999999523163","","","22","7272","3878","m","elianto","#3366ff99"," "," ","1","+10","[1393.5]","1","2","","","7272","113","9","1","win","go","0"
"pit-trial","232","1452395","0.0-118.0","battery-v0.2","","""event"",""trial"",""time""
""fullscreenenter"",""1"",""3295""
","
","
","""event"",""trial"",""time""
""fullscreenenter"",""1"",""3295""
","
","","","627.0999999046326","","","22","7272","3878","h","elianto","#f73b6a7A"," "," ","1","0","[1478.2000000476837]","1","2","","","7272","114","6","3","lose","go","0"
"pit-trial","233","1455866","0.0-119.0","battery-v0.2","","""event"",""trial"",""time""
""fullscreenenter"",""1"",""3295""
","
","
","""event"",""trial"",""time""
""fullscreenenter"",""1"",""3295""
","
","","","611.5","","","22","7272","3878","r","elianto","#3366ff99"," "," ","1","+10","[1462]","1","2","","","7272","115","8","1","win","go","0"
"pit-trial","234","1460724","0.0-120.0","battery-v0.2","","""event"",""trial"",""time""
""fullscreenenter"",""1"",""3295""
","
","
","""event"",""trial"",""time""
""fullscreenenter"",""1"",""3295""
","
","","","-1","","","22","7272","3878","z","elianto","#3366ff99","-1","-1","1","+10","[]","0","2","","","7272","116","5","2","win","no-go","0"
"pit-trial","235","1465583","0.0-121.0","battery-v0.2","","""event"",""trial"",""time""
""fullscreenenter"",""1"",""3295""
","
","
","""event"",""trial"",""time""
""fullscreenenter"",""1"",""3295""
","
","","","-1","","","22","7272","3878","z","elianto","#3366ff99","-1","-1","1","+10","[]","0","2","","","7272","117","5","2","win","no-go","0"
"pit-trial","236","1469019","0.0-122.0","battery-v0.2","","""event"",""trial"",""time""
""fullscreenenter"",""1"",""3295""
","
","
","""event"",""trial"",""time""
""fullscreenenter"",""1"",""3295""
","
","","","575.9000000953674","","","22","7272","3878","r","elianto","#3366ff99"," "," ","1","+10","[1426.2000000476837]","1","2","","","7272","118","8","1","win","go","0"
"pit-trial","237","1472476","0.0-123.0","battery-v0.2","","""event"",""trial"",""time""
""fullscreenenter"",""1"",""3295""
","
","
","""event"",""trial"",""time""
""fullscreenenter"",""1"",""3295""
","
","","","596.9000000953674","","","22","7272","3878","h","elianto","#f73b6a7A"," "," ","1","0","[1448.2999999523163]","1","2","","","7272","119","6","3","lose","go","0"
"pit-trial","238","1475908","0.0-124.0","battery-v0.2","","""event"",""trial"",""time""
""fullscreenenter"",""1"",""3295""
","
","
","""event"",""trial"",""time""
""fullscreenenter"",""1"",""3295""
","
","","","571.6000001430511","","","22","7272","3878","m","elianto","#3366ff99"," "," ","1","0","[1423.4000000953674]","1","2","","","7272","120","9","1","win","go","1"
"pit-trial","239","1480768","0.0-125.0","battery-v0.2","","""event"",""trial"",""time""
""fullscreenenter"",""1"",""3295""
","
","
","""event"",""trial"",""time""
""fullscreenenter"",""1"",""3295""
","
","","","-1","","","22","7272","3878","y","elianto","#f73b6a7A","-1","-1","1","0","[]","0","2","","","7272","121","7","4","lose","no-go","0"
"pit-trial","240","1484208","0.0-126.0","battery-v0.2","","""event"",""trial"",""time""
""fullscreenenter"",""1"",""3295""
","
","
","""event"",""trial"",""time""
""fullscreenenter"",""1"",""3295""
","
","","","573.2999999523163","","","22","7272","3878","r","elianto","#3366ff99"," "," ","1","+10","[1431.2999999523163]","1","2","","","7272","122","8","1","win","go","0"
"pit-trial","241","1487596","0.0-127.0","battery-v0.2","","""event"",""trial"",""time""
""fullscreenenter"",""1"",""3295""
","
","
","""event"",""trial"",""time""
""fullscreenenter"",""1"",""3295""
","
","","","527.2000000476837","","","22","7272","3878","m","elianto","#3366ff99"," "," ","1","+10","[1378.8999998569489]","1","2","","","7272","123","9","1","win","go","0"
"pit-trial","242","1491147","0.0-128.0","battery-v0.2","","""event"",""trial"",""time""
""fullscreenenter"",""1"",""3295""
","
","
","""event"",""trial"",""time""
""fullscreenenter"",""1"",""3295""
","
","","","688.2000000476837","","","22","7272","3878","h","elianto","#f73b6a7A"," "," ","1","0","[1541.7999999523163]","1","2","","","7272","124","6","3","lose","go","0"
"pit-trial","243","1496006","0.0-129.0","battery-v0.2","","""event"",""trial"",""time""
""fullscreenenter"",""1"",""3295""
","
","
","""event"",""trial"",""time""
""fullscreenenter"",""1"",""3295""
","
","","","-1","","","22","7272","3878","y","elianto","#f73b6a7A","-1","-1","1","0","[]","0","2","","","7272","125","7","4","lose","no-go","0"
"pit-trial","244","1499413","0.0-130.0","battery-v0.2","","""event"",""trial"",""time""
""fullscreenenter"",""1"",""3295""
","
","
","""event"",""trial"",""time""
""fullscreenenter"",""1"",""3295""
","
","","","533.2999999523163","","","22","7272","3878","r","elianto","#3366ff99"," "," ","1","+10","[1383.5999999046326]","1","2","","","7272","126","8","1","win","go","0"
"pit-trial","245","1502807","0.0-131.0","battery-v0.2","","""event"",""trial"",""time""
""fullscreenenter"",""1"",""3295""
","
","
","""event"",""trial"",""time""
""fullscreenenter"",""1"",""3295""
","
","","","535.0999999046326","","","22","7272","3878","m","elianto","#3366ff99"," "," ","1","0","[1385.6000001430511]","1","2","","","7272","127","9","1","win","go","1"
"pit-trial","246","1506326","0.0-132.0","battery-v0.2","","""event"",""trial"",""time""
""fullscreenenter"",""1"",""3295""
","
","
","""event"",""trial"",""time""
""fullscreenenter"",""1"",""3295""
","
","","","660.2000000476837","","","22","7272","3878","h","elianto","#f73b6a7A"," "," ","1","0","[1511.2999999523163]","1","2","","","7272","128","6","3","lose","go","0"
"pit-trial","247","1509728","0.0-133.0","battery-v0.2","","""event"",""trial"",""time""
""fullscreenenter"",""1"",""3295""
","
","
","""event"",""trial"",""time""
""fullscreenenter"",""1"",""3295""
","
","","","543.5","","","22","7272","3878","m","elianto","#3366ff99"," "," ","1","+10","[1395]","1","2","","","7272","129","9","1","win","go","0"
"pit-trial","248","1513177","0.0-134.0","battery-v0.2","","""event"",""trial"",""time""
""fullscreenenter"",""1"",""3295""
","
","
","""event"",""trial"",""time""
""fullscreenenter"",""1"",""3295""
","
","","","589.5","","","22","7272","3878","r","elianto","#3366ff99"," "," ","1","0","[1439.6999998092651]","1","2","","","7272","130","8","1","win","go","1"
"pit-trial","249","1518042","0.0-135.0","battery-v0.2","","""event"",""trial"",""time""
""fullscreenenter"",""1"",""3295""
","
","
","""event"",""trial"",""time""
""fullscreenenter"",""1"",""3295""
","
","","","-1","","","22","7272","3878","y","elianto","#f73b6a7A","-1","-1","1","0","[]","0","2","","","7272","131","7","4","lose","no-go","0"
"pit-trial","250","1521579","0.0-136.0","battery-v0.2","","""event"",""trial"",""time""
""fullscreenenter"",""1"",""3295""
","
","
","""event"",""trial"",""time""
""fullscreenenter"",""1"",""3295""
","
","","","676.9000000953674","","","22","7272","3878","h","elianto","#f73b6a7A"," "," ","1","0","[1528.7000000476837]","1","2","","","7272","132","6","3","lose","go","0"
"pit-trial","251","1525047","0.0-137.0","battery-v0.2","","""event"",""trial"",""time""
""fullscreenenter"",""1"",""3295""
","
","
","""event"",""trial"",""time""
""fullscreenenter"",""1"",""3295""
","
","","","612.2999999523163","","","22","7272","3878","h","elianto","#f73b6a7A"," "," ","1","-10","[1463.5]","1","2","","","7272","133","6","3","lose","go","1"
"pit-trial","252","1528439","0.0-138.0","battery-v0.2","","""event"",""trial"",""time""
""fullscreenenter"",""1"",""3295""
","
","
","""event"",""trial"",""time""
""fullscreenenter"",""1"",""3295""
","
","","","531.3999998569489","","","22","7272","3878","r","elianto","#3366ff99"," "," ","1","+10","[1381.5999999046326]","1","2","","","7272","134","8","1","win","go","0"
"pit-trial","253","1531860","0.0-139.0","battery-v0.2","","""event"",""trial"",""time""
""fullscreenenter"",""1"",""3295""
","
","
","""event"",""trial"",""time""
""fullscreenenter"",""1"",""3295""
","
","","","561.2999999523163","","","22","7272","3878","m","elianto","#3366ff99"," "," ","1","+10","[1411.7999999523163]","1","2","","","7272","135","9","1","win","go","0"
"pit-trial","254","1536720","0.0-140.0","battery-v0.2","","""event"",""trial"",""time""
""fullscreenenter"",""1"",""3295""
","
","
","""event"",""trial"",""time""
""fullscreenenter"",""1"",""3295""
","
","","","-1","","","22","7272","3878","y","elianto","#f73b6a7A","-1","-1","1","0","[]","0","2","","","7272","136","7","4","lose","no-go","0"
"pit-trial","255","1540098","0.0-141.0","battery-v0.2","","""event"",""trial"",""time""
""fullscreenenter"",""1"",""3295""
","
","
","""event"",""trial"",""time""
""fullscreenenter"",""1"",""3295""
","
","","","519.5","","","22","7272","3878","r","elianto","#3366ff99"," "," ","1","+10","[1369.7000000476837]","1","2","","","7272","137","8","1","win","go","0"
"pit-trial","256","1543510","0.0-142.0","battery-v0.2","","""event"",""trial"",""time""
""fullscreenenter"",""1"",""3295""
","
","
","""event"",""trial"",""time""
""fullscreenenter"",""1"",""3295""
","
","","","551.4000000953674","","","22","7272","3878","m","elianto","#3366ff99"," "," ","1","0","[1402.2999999523163]","1","2","","","7272","138","9","1","win","go","1"
"pit-trial","257","1548369","0.0-143.0","battery-v0.2","","""event"",""trial"",""time""
""fullscreenenter"",""1"",""3295""
","
","
","""event"",""trial"",""time""
""fullscreenenter"",""1"",""3295""
","
","","","-1","","","22","7272","3878","y","elianto","#f73b6a7A","-1","-1","1","0","[]","0","2","","","7272","139","7","4","lose","no-go","0"
"pit-trial","258","1551869","0.0-144.0","battery-v0.2","","""event"",""trial"",""time""
""fullscreenenter"",""1"",""3295""
","
","
","""event"",""trial"",""time""
""fullscreenenter"",""1"",""3295""
","
","","","635.7999999523163","","","22","7272","3878","h","elianto","#f73b6a7A"," "," ","1","-10","[1490.1000001430511]","1","2","","","7272","140","6","3","lose","go","1"
"pit-instructions","259","1597175","0.0-145.0","battery-v0.2","","""event"",""trial"",""time""
""fullscreenenter"",""1"",""3295""
","
","
","""event"",""trial"",""time""
""fullscreenenter"",""1"",""3295""
","
","","[{""page_index"":0,""viewing_time"":36961.700000047684},{""page_index"":1,""viewing_time"":8335}]","45297.39999985695","","","","","","","","","","","","","","","","","","","","","","","",""
"pit-trial","260","1601049","0.0-146.0","battery-v0.2","","""event"",""trial"",""time""
""fullscreenenter"",""1"",""3295""
","
","
","""event"",""trial"",""time""
""fullscreenenter"",""1"",""3295""
","
","","","997.3999998569489","","","22","7272","3878","w","elianto","#f73b6a7A"," "," ","1","-10","[1847.5999999046326]","1","3","","","7272","141","3","3","lose","go","1"
"pit-trial","261","1604422","0.0-147.0","battery-v0.2","","""event"",""trial"",""time""
""fullscreenenter"",""1"",""3295""
","
","
","""event"",""trial"",""time""
""fullscreenenter"",""1"",""3295""
","
","","","508.59999990463257","","","22","7272","3878","d","elianto","#3366ff99"," "," ","1","+10","[1360.1000001430511]","1","3","","","7272","142","1","1","win","go","0"
"pit-trial","262","1607834","0.0-148.0","battery-v0.2","","""event"",""trial"",""time""
""fullscreenenter"",""1"",""3295""
","
","
","""event"",""trial"",""time""
""fullscreenenter"",""1"",""3295""
","
","","","543.2000000476837","","","22","7272","3878","e","elianto","#f73b6a7A","-1"," ","0","0","[1396.5]","1","3","","","7272","143","2","4","lose","no-go","1"
"pit-trial","263","1611292","0.0-149.0","battery-v0.2","","""event"",""trial"",""time""
""fullscreenenter"",""1"",""3295""
","
","
","""event"",""trial"",""time""
""fullscreenenter"",""1"",""3295""
","
","","","591.2000000476837","","","22","7272","3878","j","elianto","#f73b6a7A","-1"," ","0","-10","[1448.0999999046326]","1","3","","","7272","144","0","4","lose","no-go","0"
"pit-trial","264","1614733","0.0-150.0","battery-v0.2","","""event"",""trial"",""time""
""fullscreenenter"",""1"",""3295""
","
","
","""event"",""trial"",""time""
""fullscreenenter"",""1"",""3295""
","
","","","575.3999998569489","","","22","7272","3878","d","elianto","#3366ff99"," "," ","1","+10","[1425.8999998569489]","1","3","","","7272","145","1","1","win","go","0"
"pit-trial","265","1618098","0.0-151.0","battery-v0.2","","""event"",""trial"",""time""
""fullscreenenter"",""1"",""3295""
","
","
","""event"",""trial"",""time""
""fullscreenenter"",""1"",""3295""
","
","","","503.80000019073486","","","22","7272","3878","e","elianto","#f73b6a7A","-1"," ","0","0","[1356.7000000476837]","1","3","","","7272","146","2","4","lose","no-go","1"
"pit-trial","266","1622963","0.0-152.0","battery-v0.2","","""event"",""trial"",""time""
""fullscreenenter"",""1"",""3295""
","
","
","""event"",""trial"",""time""
""fullscreenenter"",""1"",""3295""
","
","","","-1","","","22","7272","3878","w","elianto","#f73b6a7A"," ","-1","0","-10","[]","0","3","","","7272","147","3","3","lose","go","0"
"pit-trial","267","1627827","0.0-153.0","battery-v0.2","","""event"",""trial"",""time""
""fullscreenenter"",""1"",""3295""
","
","
","""event"",""trial"",""time""
""fullscreenenter"",""1"",""3295""
","
