"trial_type","trial_index","time_elapsed","internal_node_id","task_version","subject_id","interactions","blur_events","focus_events","fullscreenenter_events","fullscreenexit_events","success","view_history","rt","responses","num_errors","age","subject","participantId","rune","rune_set","hex","correct","choice","accuracy","outcome","keys","total_keys","block","practice","value","sub","trial","stimulus","robot","valence","action","sham"
"pavlovia","0","10","0.0-0.0","battery-v0.2","","""event"",""trial"",""time""
""fullscreenenter"",""1"",""2021""
","
","
","""event"",""trial"",""time""
""fullscreenenter"",""1"",""2021""
","
","","","","","","","","","","","","","","","","","","","","","","","","","","",""
"fullscreen","1","2946","0.0-1.0","battery-v0.2","","""event"",""trial"",""time""
""fullscreenenter"",""1"",""2021""
","
","
","""event"",""trial"",""time""
""fullscreenenter"",""1"",""2021""
","
","true","","","","","","","","","","","","","","","","","","","","","","","","","",""
"pit-instructions","2","7409","0.0-2.0-0.0","battery-v0.2","","""event"",""trial"",""time""
""fullscreenenter"",""1"",""2021""
","
","
","""event"",""trial"",""time""
""fullscreenenter"",""1"",""2021""
","
","","[{""page_index"":0,""viewing_time"":4458.699999809265}]","4459.399999856949","","","","","","","","","","","","","","","","","","","","","","","",""
"pit-comprehension","3","11272","0.0-2.0-1.0-0.0","battery-v0.2","","""event"",""trial"",""time""
""fullscreenenter"",""1"",""2021""
","
","
","""event"",""trial"",""time""
""fullscreenenter"",""1"",""2021""
","
","","","3859.2000000476837","[""shark""]","0","14","18094","6696","","","","","","","","","","","","","","","","","","",""
"pit-instructions","4","14379","0.0-2.0-1.0-1.0","battery-v0.2","","""event"",""trial"",""time""
""fullscreenenter"",""1"",""2021""
","
","
","""event"",""trial"",""time""
""fullscreenenter"",""1"",""2021""
","
","","[{""page_index"":0,""viewing_time"":3084.4000000953674}]","3084.7000000476837","","","","","","","","","","","","","","","","","","","","","","","",""
"pit-comprehension","5","17463","0.0-2.0-2.0-0.0","battery-v0.2","","""event"",""trial"",""time""
""fullscreenenter"",""1"",""2021""
","
","
","""event"",""trial"",""time""
""fullscreenenter"",""1"",""2021""
","
","","","3081.5","[""tiger""]","0","14","18094","6696","","","","","","","","","","","","","","","","","","",""
"pit-instructions","6","18344","0.0-2.0-2.0-1.0","battery-v0.2","","""event"",""trial"",""time""
""fullscreenenter"",""1"",""2021""
","
","
","""event"",""trial"",""time""
""fullscreenenter"",""1"",""2021""
","
","","[{""page_index"":0,""viewing_time"":878.2000000476837}]","878.5","","","","","","","","","","","","","","","","","","","","","","","",""
"pit-instructions","7","119137","0.0-2.0-3.0","battery-v0.2","","""event"",""trial"",""time""
""fullscreenenter"",""1"",""2021""
","
","
","""event"",""trial"",""time""
""fullscreenenter"",""1"",""2021""
","
","","[{""page_index"":0,""viewing_time"":9302.200000047684},{""page_index"":1,""viewing_time"":5807.199999809265},{""page_index"":2,""viewing_time"":7642.900000095367},{""page_index"":3,""viewing_time"":5832.200000047684},{""page_index"":4,""viewing_time"":6271.799999952316},{""page_index"":5,""viewing_time"":5839.299999952316},{""page_index"":6,""viewing_time"":6812},{""page_index"":7,""viewing_time"":7185.299999952316},{""page_index"":8,""viewing_time"":6473.300000190735},{""page_index"":9,""viewing_time"":10352.199999809265},{""page_index"":10,""viewing_time"":7883.400000095367},{""page_index"":11,""viewing_time"":8174.099999904633},{""page_index"":12,""viewing_time"":7619.900000095367},{""page_index"":13,""viewing_time"":5590.900000095367}]","100787.70000004768","","","","","","","","","","","","","","","","","","","","","","","",""
"pit-trial","8","122616","0.0-2.0-4.0-0.0","battery-v0.2","","""event"",""trial"",""time""
""fullscreenenter"",""1"",""2021""
","
","
","""event"",""trial"",""time""
""fullscreenenter"",""1"",""2021""
","
","","","611","","","14","18094","6696","&#9784;","elianto","#FFFFF080"," "," ","1","&#10004","[1462.8999998569489]","1","0","0","","","","","","","",""
"pit-trial","9","126119","0.0-2.0-4.1-0.1","battery-v0.2","","""event"",""trial"",""time""
""fullscreenenter"",""1"",""2021""
","
","
","""event"",""trial"",""time""
""fullscreenenter"",""1"",""2021""
","
","","","637.6999998092651","","","14","18094","6696","&#9784;","elianto","#FFFFF080"," "," ","1","&#10004","[1494.3999998569489]","1","0","0","","","","","","","",""
"pit-trial","10","129548","0.0-2.0-4.2-0.2","battery-v0.2","","""event"",""trial"",""time""
""fullscreenenter"",""1"",""2021""
","
","
","""event"",""trial"",""time""
""fullscreenenter"",""1"",""2021""
","
","","","553.2999999523163","","","14","18094","6696","&#9784;","elianto","#FFFFF080"," "," ","1","&#10004","[1417.5999999046326]","1","0","0","","","","","","","",""
"pit-trial","11","132925","0.0-2.0-4.3-0.3","battery-v0.2","","""event"",""trial"",""time""
""fullscreenenter"",""1"",""2021""
","
","
","""event"",""trial"",""time""
""fullscreenenter"",""1"",""2021""
","
","","","513.1000001430511","","","14","18094","6696","&#9784;","elianto","#FFFFF080"," "," ","1","&#10004","[1372.4000000953674]","1","0","0","","","","","","","",""
"pit-trial","12","136160","0.0-2.0-4.4-0.4","battery-v0.2","","""event"",""trial"",""time""
""fullscreenenter"",""1"",""2021""
","
","
","""event"",""trial"",""time""
""fullscreenenter"",""1"",""2021""
","
","","","365.10000014305115","","","14","18094","6696","&#9784;","elianto","#FFFFF080"," "," ","1","&#10004","[1215.2000000476837]","1","0","0","","","","","","","",""
"pit-instructions","13","164061","0.0-2.0-5.0","battery-v0.2","","""event"",""trial"",""time""
""fullscreenenter"",""1"",""2021""
","
","
","""event"",""trial"",""time""
""fullscreenenter"",""1"",""2021""
","
","","[{""page_index"":0,""viewing_time"":7907.700000047684},{""page_index"":1,""viewing_time"":5302},{""page_index"":2,""viewing_time"":7284.599999904633},{""page_index"":3,""viewing_time"":7403.400000095367}]","27897.89999985695","","","","","","","","","","","","","","","","","","","","","","","",""
"pit-trial","14","168934","0.0-2.0-6.0-0.0","battery-v0.2","","""event"",""trial"",""time""
""fullscreenenter"",""1"",""2021""
","
","
","""event"",""trial"",""time""
""fullscreenenter"",""1"",""2021""
","
","","","-1","","","14","18094","6696","&#9854;","elianto","#FFFFF080","-1","-1","1","&#10004","[]","0","0","1","","","","","","","",""
"pit-trial","15","173808","0.0-2.0-6.1-0.1","battery-v0.2","","""event"",""trial"",""time""
""fullscreenenter"",""1"",""2021""
","
","
","""event"",""trial"",""time""
""fullscreenenter"",""1"",""2021""
","
","","","-1","","","14","18094","6696","&#9854;","elianto","#FFFFF080","-1","-1","1","&#10004","[]","0","0","1","","","","","","","",""
"pit-trial","16","178673","0.0-2.0-6.2-0.2","battery-v0.2","","""event"",""trial"",""time""
""fullscreenenter"",""1"",""2021""
","
","
","""event"",""trial"",""time""
""fullscreenenter"",""1"",""2021""
","
","","","-1","","","14","18094","6696","&#9854;","elianto","#FFFFF080","-1","-1","1","&#10004","[]","0","0","1","","","","","","","",""
"pit-trial","17","183529","0.0-2.0-6.3-0.3","battery-v0.2","","""event"",""trial"",""time""
""fullscreenenter"",""1"",""2021""
","
","
","""event"",""trial"",""time""
""fullscreenenter"",""1"",""2021""
","
","","","-1","","","14","18094","6696","&#9854;","elianto","#FFFFF080","-1","-1","1","&#10004","[]","0","0","1","","","","","","","",""
"pit-trial","18","188391","0.0-2.0-6.4-0.4","battery-v0.2","","""event"",""trial"",""time""
""fullscreenenter"",""1"",""2021""
","
","
","""event"",""trial"",""time""
""fullscreenenter"",""1"",""2021""
","
","","","-1","","","14","18094","6696","&#9854;","elianto","#FFFFF080","-1","-1","1","&#10004","[]","0","0","1","","","","","","","",""
"pit-instructions","19","319162","0.0-2.0-7.0","battery-v0.2","","""event"",""trial"",""time""
""fullscreenenter"",""1"",""2021""
","
","
","""event"",""trial"",""time""
""fullscreenenter"",""1"",""2021""
","
","","[{""page_index"":0,""viewing_time"":5984.200000047684},{""page_index"":1,""viewing_time"":6778.299999952316},{""page_index"":2,""viewing_time"":7309.099999904633},{""page_index"":3,""viewing_time"":16355.5},{""page_index"":4,""viewing_time"":7410.200000047684},{""page_index"":5,""viewing_time"":5596.5},{""page_index"":6,""viewing_time"":4846.400000095367},{""page_index"":7,""viewing_time"":8247.5},{""page_index"":8,""viewing_time"":6375.5},{""page_index"":9,""viewing_time"":6629.799999952316},{""page_index"":10,""viewing_time"":6724},{""page_index"":11,""viewing_time"":4906.200000047684},{""page_index"":12,""viewing_time"":8398.799999952316},{""page_index"":13,""viewing_time"":6987.599999904633},{""page_index"":14,""viewing_time"":7213.600000143051},{""page_index"":15,""viewing_time"":6581.799999952316},{""page_index"":16,""viewing_time"":7122.5},{""page_index"":17,""viewing_time"":7299.799999952316}]","130767.5","","","","","","","","","","","","","","","","","","","","","","","",""
"pit-trial","20","322622","0.0-2.0-8.0-0.0","battery-v0.2","","""event"",""trial"",""time""
""fullscreenenter"",""1"",""2021""
","
","
","""event"",""trial"",""time""
""fullscreenenter"",""1"",""2021""
","
","","","592.9000000953674","","","14","18094","6696","&#9776;","elianto","#3366ff99"," "," ","1","+10","[1443.2000000476837]","1","0","1","","","","","","","",""
"pit-trial","21","326028","0.0-2.0-8.0-1.0","battery-v0.2","","""event"",""trial"",""time""
""fullscreenenter"",""1"",""2021""
","
","
","""event"",""trial"",""time""
""fullscreenenter"",""1"",""2021""
","
","","","545","","","14","18094","6696","&#9776;","elianto","#3366ff99"," "," ","1","+10","[1398.7000000476837]","1","0","1","","","","","","","",""
"pit-trial","22","329815","0.0-2.0-8.0-2.0","battery-v0.2","","""event"",""trial"",""time""
""fullscreenenter"",""1"",""2021""
","
","
","""event"",""trial"",""time""
""fullscreenenter"",""1"",""2021""
","
","","","926.7000000476837","","","14","18094","6696","&#9776;","elianto","#3366ff99"," "," ","1","+10","[1777.5]","1","0","1","","","","","","","",""
"pit-trial","23","333266","0.0-2.0-8.0-3.0","battery-v0.2","","""event"",""trial"",""time""
""fullscreenenter"",""1"",""2021""
","
","
","""event"",""trial"",""time""
""fullscreenenter"",""1"",""2021""
","
","","","593","","","14","18094","6696","&#9776;","elianto","#3366ff99"," "," ","1","0","[1443.5]","1","0","1","","","","","","","",""
"pit-trial","24","338140","0.0-2.0-8.0-4.0","battery-v0.2","","""event"",""trial"",""time""
""fullscreenenter"",""1"",""2021""
","
","
","""event"",""trial"",""time""
""fullscreenenter"",""1"",""2021""
","
","","","-1","","","14","18094","6696","&#9776;","elianto","#3366ff99"," ","-1","0","0","[]","0","0","1","","","","","","","",""
"pit-trial","25","343011","0.0-2.0-8.1-0.1","battery-v0.2","","""event"",""trial"",""time""
""fullscreenenter"",""1"",""2021""
","
","
","""event"",""trial"",""time""
""fullscreenenter"",""1"",""2021""
","
","","","-1","","","14","18094","6696","&#9776;","elianto","#3366ff99"," ","-1","0","0","[]","0","0","1","","","","","","","",""
"pit-trial","26","346457","0.0-2.0-8.1-1.1","battery-v0.2","","""event"",""trial"",""time""
""fullscreenenter"",""1"",""2021""
","
","
","""event"",""trial"",""time""
""fullscreenenter"",""1"",""2021""
","
","","","589.1000001430511","","","14","18094","6696","&#9776;","elianto","#3366ff99"," "," ","1","+10","[1440.5999999046326]","1","0","1","","","","","","","",""
"pit-trial","27","349928","0.0-2.0-8.1-2.1","battery-v0.2","","""event"",""trial"",""time""
""fullscreenenter"",""1"",""2021""
","
","
","""event"",""trial"",""time""
""fullscreenenter"",""1"",""2021""
","
","","","608.3999998569489","","","14","18094","6696","&#9776;","elianto","#3366ff99"," "," ","1","+10","[1459.3999998569489]","1","0","1","","","","","","","",""
"pit-trial","28","353342","0.0-2.0-8.1-3.1","battery-v0.2","","""event"",""trial"",""time""
""fullscreenenter"",""1"",""2021""
","
","
","""event"",""trial"",""time""
""fullscreenenter"",""1"",""2021""
","
","","","560.3999998569489","","","14","18094","6696","&#9776;","elianto","#3366ff99"," "," ","1","0","[1412.4000000953674]","1","0","1","","","","","","","",""
"pit-trial","29","356989","0.0-2.0-8.1-4.1","battery-v0.2","","""event"",""trial"",""time""
""fullscreenenter"",""1"",""2021""
","
","
","""event"",""trial"",""time""
""fullscreenenter"",""1"",""2021""
","
","","","793.2000000476837","","","14","18094","6696","&#9776;","elianto","#3366ff99"," "," ","1","+10","[1644.4000000953674]","1","0","1","","","","","","","",""
"pit-trial","30","360495","0.0-2.0-8.2-0.2","battery-v0.2","","""event"",""trial"",""time""
""fullscreenenter"",""1"",""2021""
","
","
","""event"",""trial"",""time""
""fullscreenenter"",""1"",""2021""
","
","","","652.5","","","14","18094","6696","&#9776;","elianto","#3366ff99"," "," ","1","+10","[1503.2000000476837]","1","0","1","","","","","","","",""
"pit-trial","31","364231","0.0-2.0-8.2-1.2","battery-v0.2","","""event"",""trial"",""time""
""fullscreenenter"",""1"",""2021""
","
","
","""event"",""trial"",""time""
""fullscreenenter"",""1"",""2021""
","
","","","882.5","","","14","18094","6696","&#9776;","elianto","#3366ff99"," "," ","1","+10","[1733.5]","1","0","1","","","","","","","",""
"pit-trial","32","367888","0.0-2.0-8.2-2.2","battery-v0.2","","""event"",""trial"",""time""
""fullscreenenter"",""1"",""2021""
","
","
","""event"",""trial"",""time""
""fullscreenenter"",""1"",""2021""
","
","","","802.1000001430511","","","14","18094","6696","&#9776;","elianto","#3366ff99"," "," ","1","+10","[1653.5]","1","0","1","","","","","","","",""
"pit-trial","33","371476","0.0-2.0-8.2-3.2","battery-v0.2","","""event"",""trial"",""time""
""fullscreenenter"",""1"",""2021""
","
","
","""event"",""trial"",""time""
""fullscreenenter"",""1"",""2021""
","
","","","734.5","","","14","18094","6696","&#9776;","elianto","#3366ff99"," "," ","1","0","[1585.7000000476837]","1","0","1","","","","","","","",""
"pit-trial","34","374706","0.0-2.0-8.2-4.2","battery-v0.2","","""event"",""trial"",""time""
""fullscreenenter"",""1"",""2021""
","
","
","""event"",""trial"",""time""
""fullscreenenter"",""1"",""2021""
","
","","","376.59999990463257","","","14","18094","6696","&#9776;","elianto","#3366ff99"," "," ","1","+10","[1228]","1","0","1","","","","","","","",""
"call-function","35","374708","0.0-2.0-9.0","battery-v0.2","","""event"",""trial"",""time""
""fullscreenenter"",""1"",""2021""
","
","
","""event"",""trial"",""time""
""fullscreenenter"",""1"",""2021""
","
","","","","","","","","","","","","","","","","","","","","","","","","","","",""
"pit-instructions","36","414619","0.0-2.0-10.0","battery-v0.2","","""event"",""trial"",""time""
""fullscreenenter"",""1"",""2021""
","
","
","""event"",""trial"",""time""
""fullscreenenter"",""1"",""2021""
","
","","[{""page_index"":0,""viewing_time"":6551.799999952316},{""page_index"":1,""viewing_time"":7105.5},{""page_index"":2,""viewing_time"":9256.799999952316},{""page_index"":3,""viewing_time"":9408.400000095367},{""page_index"":4,""viewing_time"":7586.700000047684}]","39909.59999990463","","","","","","","","","","","","","","","","","","","","","","","",""
"pit-trial","37","417936","0.0-2.0-11.0-0.0","battery-v0.2","","""event"",""trial"",""time""
""fullscreenenter"",""1"",""2021""
","
","
","""event"",""trial"",""time""
""fullscreenenter"",""1"",""2021""
","
","","","462.09999990463257","","","14","18094","6696","&#9761;","elianto","#3366ff99","-1"," ","0","0","[1312.5]","1","0","2","","","","","","","",""
"pit-trial","38","422806","0.0-2.0-11.0-1.0","battery-v0.2","","""event"",""trial"",""time""
""fullscreenenter"",""1"",""2021""
","
","
","""event"",""trial"",""time""
""fullscreenenter"",""1"",""2021""
","
","","","-1","","","14","18094","6696","&#9761;","elianto","#3366ff99","-1","-1","1","+10","[]","0","0","2","","","","","","","",""
"pit-trial","39","426057","0.0-2.0-11.0-2.0","battery-v0.2","","""event"",""trial"",""time""
""fullscreenenter"",""1"",""2021""
","
","
","""event"",""trial"",""time""
""fullscreenenter"",""1"",""2021""
","
","","","382.2999999523163","","","14","18094","6696","&#9761;","elianto","#3366ff99","-1"," ","0","0","[1233.5]","1","0","2","","","","","","","",""
"pit-trial","40","429315","0.0-2.0-11.0-3.0","battery-v0.2","","""event"",""trial"",""time""
""fullscreenenter"",""1"",""2021""
","
","
","""event"",""trial"",""time""
""fullscreenenter"",""1"",""2021""
","
","","","397.90000009536743","","","14","18094","6696","&#9761;","elianto","#3366ff99","-1"," ","0","+10","[1248.2000000476837]","1","0","2","","","","","","","",""
"pit-trial","41","434180","0.0-2.0-11.0-4.0","battery-v0.2","","""event"",""trial"",""time""
""fullscreenenter"",""1"",""2021""
","
","
","""event"",""trial"",""time""
""fullscreenenter"",""1"",""2021""
","
","","","-1","","","14","18094","6696","&#9761;","elianto","#3366ff99","-1","-1","1","+10","[]","0","0","2","","","","","","","",""
"pit-trial","42","437765","0.0-2.0-11.1-0.1","battery-v0.2","","""event"",""trial"",""time""
""fullscreenenter"",""1"",""2021""
","
","
","""event"",""trial"",""time""
""fullscreenenter"",""1"",""2021""
","
","","","725.9000000953674","","","14","18094","6696","&#9761;","elianto","#3366ff99","-1"," ","0","0","[1576]","1","0","2","","","","","","","",""
"pit-trial","43","441197","0.0-2.0-11.1-1.1","battery-v0.2","","""event"",""trial"",""time""
""fullscreenenter"",""1"",""2021""
","
","
","""event"",""trial"",""time""
""fullscreenenter"",""1"",""2021""
","
","","","572.6999998092651","","","14","18094","6696","&#9761;","elianto","#3366ff99","-1"," ","0","0","[1423.7999999523163]","1","0","2","","","","","","","",""
"pit-trial","44","444316","0.0-2.0-11.1-2.1","battery-v0.2","","""event"",""trial"",""time""
""fullscreenenter"",""1"",""2021""
","
","
","""event"",""trial"",""time""
""fullscreenenter"",""1"",""2021""
","
","","","265.2000000476837","","","14","18094","6696","&#9761;","elianto","#3366ff99","-1"," ","0","0","[1115.7000000476837]","1","0","2","","","","","","","",""
"pit-trial","45","447423","0.0-2.0-11.1-3.1","battery-v0.2","","""event"",""trial"",""time""
""fullscreenenter"",""1"",""2021""
","
","
","""event"",""trial"",""time""
""fullscreenenter"",""1"",""2021""
","
","","","252.20000004768372","","","14","18094","6696","&#9761;","elianto","#3366ff99","-1"," ","0","+10","[1103]","1","0","2","","","","","","","",""
"pit-trial","46","450453","0.0-2.0-11.1-4.1","battery-v0.2","","""event"",""trial"",""time""
""fullscreenenter"",""1"",""2021""
","
","
","""event"",""trial"",""time""
""fullscreenenter"",""1"",""2021""
","
","","","177.40000009536743","","","14","18094","6696","&#9761;","elianto","#3366ff99","-1"," ","0","0","[1027.7000000476837]","1","0","2","","","","","","","",""
"pit-trial","47","453646","0.0-2.0-11.2-0.2","battery-v0.2","","""event"",""trial"",""time""
""fullscreenenter"",""1"",""2021""
","
","
","""event"",""trial"",""time""
""fullscreenenter"",""1"",""2021""
","
","","","334.39999985694885","","","14","18094","6696","&#9761;","elianto","#3366ff99","-1"," ","0","0","[1184.9000000953674]","1","0","2","","","","","","","",""
"pit-trial","48","456668","0.0-2.0-11.2-1.2","battery-v0.2","","""event"",""trial"",""time""
""fullscreenenter"",""1"",""2021""
","
","
","""event"",""trial"",""time""
""fullscreenenter"",""1"",""2021""
","
","","","168.39999985694885","","","14","18094","6696","&#9761;","elianto","#3366ff99","-1"," ","0","0","[1018.7999999523163]","1","0","2","","","","","","","",""
"pit-trial","49","459889","0.0-2.0-11.2-2.2","battery-v0.2","","""event"",""trial"",""time""
""fullscreenenter"",""1"",""2021""
","
","
","""event"",""trial"",""time""
""fullscreenenter"",""1"",""2021""
","
","","","361.89999985694885","","","14","18094","6696","&#9761;","elianto","#3366ff99","-1"," ","0","0","[1212.7999999523163]","1","0","2","","","","","","","",""
"pit-trial","50","463105","0.0-2.0-11.2-3.2","battery-v0.2","","""event"",""trial"",""time""
""fullscreenenter"",""1"",""2021""
","
","
","""event"",""trial"",""time""
""fullscreenenter"",""1"",""2021""
","
","","","364.09999990463257","","","14","18094","6696","&#9761;","elianto","#3366ff99","-1"," ","0","+10","[1214.1999998092651]","1","0","2","","","","","","","",""
"pit-trial","51","466120","0.0-2.0-11.2-4.2","battery-v0.2","","""event"",""trial"",""time""
""fullscreenenter"",""1"",""2021""
","
","
","""event"",""trial"",""time""
""fullscreenenter"",""1"",""2021""
","
","","","161.39999985694885","","","14","18094","6696","&#9761;","elianto","#3366ff99","-1"," ","0","0","[1012.6999998092651]","1","0","2","","","","","","","",""
"pit-trial","52","469161","0.0-2.0-11.3-0.3","battery-v0.2","","""event"",""trial"",""time""
""fullscreenenter"",""1"",""2021""
","
","
","""event"",""trial"",""time""
""fullscreenenter"",""1"",""2021""
","
","","","188.09999990463257","","","14","18094","6696","&#9761;","elianto","#3366ff99","-1"," ","0","0","[1038.9000000953674]","1","0","2","","","","","","","",""
"pit-trial","53","472374","0.0-2.0-11.3-1.3","battery-v0.2","","""event"",""trial"",""time""
""fullscreenenter"",""1"",""2021""
","
","
","""event"",""trial"",""time""
""fullscreenenter"",""1"",""2021""
","
","","","360.10000014305115","","","14","18094","6696","&#9761;","elianto","#3366ff99","-1"," ","0","0","[1210.2999999523163]","1","0","2","","","","","","","",""
"pit-trial","54","475518","0.0-2.0-11.3-2.3","battery-v0.2","","""event"",""trial"",""time""
""fullscreenenter"",""1"",""2021""
","
","
","""event"",""trial"",""time""
""fullscreenenter"",""1"",""2021""
","
","","","290","","","14","18094","6696","&#9761;","elianto","#3366ff99","-1"," ","0","0","[1141.3999998569489]","1","0","2","","","","","","","",""
"pit-trial","55","478684","0.0-2.0-11.3-3.3","battery-v0.2","","""event"",""trial"",""time""
""fullscreenenter"",""1"",""2021""
","
","
","""event"",""trial"",""time""
""fullscreenenter"",""1"",""2021""
","
","","","312.7999999523163","","","14","18094","6696","&#9761;","elianto","#3366ff99","-1"," ","0","+10","[1164.2000000476837]","1","0","2","","","","","","","",""
"pit-trial","56","481873","0.0-2.0-11.3-4.3","battery-v0.2","","""event"",""trial"",""time""
""fullscreenenter"",""1"",""2021""
","
","
","""event"",""trial"",""time""
""fullscreenenter"",""1"",""2021""
","
","","","335.2999999523163","","","14","18094","6696","&#9761;","elianto","#3366ff99","-1"," ","0","0","[1186.7999999523163]","1","0","2","","","","","","","",""
"call-function","57","481874","0.0-2.0-12.0","battery-v0.2","","""event"",""trial"",""time""
""fullscreenenter"",""1"",""2021""
","
","
","""event"",""trial"",""time""
""fullscreenenter"",""1"",""2021""
","
","","","","","","","","","","","","","","","","","","","","","","","","","","",""
"pit-instructions","58","515603","0.0-2.0-13.0","battery-v0.2","","""event"",""trial"",""time""
""fullscreenenter"",""1"",""2021""
","
","
","""event"",""trial"",""time""
""fullscreenenter"",""1"",""2021""
","
","","[{""page_index"":0,""viewing_time"":6777.799999952316},{""page_index"":1,""viewing_time"":7536.5},{""page_index"":2,""viewing_time"":3679.100000143051},{""page_index"":3,""viewing_time"":10574.799999952316},{""page_index"":4,""viewing_time"":5160.099999904633}]","33728.59999990463","","","","","","","","","","","","","","","","","","","","","","","",""
"pit-trial","59","519036","0.0-2.0-14.0-0.0","battery-v0.2","","""event"",""trial"",""time""
""fullscreenenter"",""1"",""2021""
","
","
","""event"",""trial"",""time""
""fullscreenenter"",""1"",""2021""
","
","","","576.7999999523163","","","14","18094","6696","&#9826;","elianto","#f73b6a7A","-1"," ","0","-10","[1426.7999999523163]","1","0","3","","","","","","","",""
"pit-trial","60","523890","0.0-2.0-14.0-1.0","battery-v0.2","","""event"",""trial"",""time""
""fullscreenenter"",""1"",""2021""
","
","
","""event"",""trial"",""time""
""fullscreenenter"",""1"",""2021""
","
","","","-1","","","14","18094","6696","&#9826;","elianto","#f73b6a7A","-1","-1","1","0","[]","0","0","3","","","","","","","",""
"pit-trial","61","528754","0.0-2.0-14.0-2.0","battery-v0.2","","""event"",""trial"",""time""
""fullscreenenter"",""1"",""2021""
","
","
","""event"",""trial"",""time""
""fullscreenenter"",""1"",""2021""
","
","","","-1","","","14","18094","6696","&#9826;","elianto","#f73b6a7A","-1","-1","1","0","[]","0","0","3","","","","","","","",""
"pit-trial","62","533622","0.0-2.0-14.0-3.0","battery-v0.2","","""event"",""trial"",""time""
""fullscreenenter"",""1"",""2021""
","
","
","""event"",""trial"",""time""
""fullscreenenter"",""1"",""2021""
","
","","","-1","","","14","18094","6696","&#9826;","elianto","#f73b6a7A","-1","-1","1","-10","[]","0","0","3","","","","","","","",""
"pit-trial","63","538486","0.0-2.0-14.0-4.0","battery-v0.2","","""event"",""trial"",""time""
""fullscreenenter"",""1"",""2021""
","
","
","""event"",""trial"",""time""
""fullscreenenter"",""1"",""2021""
","
","","","-1","","","14","18094","6696","&#9826;","elianto","#f73b6a7A","-1","-1","1","0","[]","0","0","3","","","","","","","",""
"pit-trial","64","543356","0.0-2.0-14.1-0.1","battery-v0.2","","""event"",""trial"",""time""
""fullscreenenter"",""1"",""2021""
","
","
","""event"",""trial"",""time""
""fullscreenenter"",""1"",""2021""
","
","","","-1","","","14","18094","6696","&#9826;","elianto","#f73b6a7A","-1","-1","1","0","[]","0","0","3","","","","","","","",""
"pit-trial","65","548209","0.0-2.0-14.1-1.1","battery-v0.2","","""event"",""trial"",""time""
""fullscreenenter"",""1"",""2021""
","
","
","""event"",""trial"",""time""
""fullscreenenter"",""1"",""2021""
","
","","","-1","","","14","18094","6696","&#9826;","elianto","#f73b6a7A","-1","-1","1","0","[]","0","0","3","","","","","","","",""
"pit-trial","66","553062","0.0-2.0-14.1-2.1","battery-v0.2","","""event"",""trial"",""time""
""fullscreenenter"",""1"",""2021""
","
","
","""event"",""trial"",""time""
""fullscreenenter"",""1"",""2021""
","
","","","-1","","","14","18094","6696","&#9826;","elianto","#f73b6a7A","-1","-1","1","0","[]","0","0","3","","","","","","","",""
"pit-trial","67","557915","0.0-2.0-14.1-3.1","battery-v0.2","","""event"",""trial"",""time""
""fullscreenenter"",""1"",""2021""
","
","
","""event"",""trial"",""time""
""fullscreenenter"",""1"",""2021""
","
","","","-1","","","14","18094","6696","&#9826;","elianto","#f73b6a7A","-1","-1","1","-10","[]","0","0","3","","","","","","","",""
"pit-trial","68","562773","0.0-2.0-14.1-4.1","battery-v0.2","","""event"",""trial"",""time""
""fullscreenenter"",""1"",""2021""
","
","
","""event"",""trial"",""time""
""fullscreenenter"",""1"",""2021""
","
","","","-1","","","14","18094","6696","&#9826;","elianto","#f73b6a7A","-1","-1","1","0","[]","0","0","3","","","","","","","",""
"pit-trial","69","567627","0.0-2.0-14.2-0.2","battery-v0.2","","""event"",""trial"",""time""
""fullscreenenter"",""1"",""2021""
","
","
","""event"",""trial"",""time""
""fullscreenenter"",""1"",""2021""
","
","","","-1","","","14","18094","6696","&#9826;","elianto","#f73b6a7A","-1","-1","1","0","[]","0","0","3","","","","","","","",""
"pit-trial","70","572481","0.0-2.0-14.2-1.2","battery-v0.2","","""event"",""trial"",""time""
""fullscreenenter"",""1"",""2021""
","
","
","""event"",""trial"",""time""
""fullscreenenter"",""1"",""2021""
","
","","","-1","","","14","18094","6696","&#9826;","elianto","#f73b6a7A","-1","-1","1","0","[]","0","0","3","","","","","","","",""
"pit-trial","71","577347","0.0-2.0-14.2-2.2","battery-v0.2","","""event"",""trial"",""time""
""fullscreenenter"",""1"",""2021""
","
","
","""event"",""trial"",""time""
""fullscreenenter"",""1"",""2021""
","
","","","-1","","","14","18094","6696","&#9826;","elianto","#f73b6a7A","-1","-1","1","0","[]","0","0","3","","","","","","","",""
"pit-trial","72","582200","0.0-2.0-14.2-3.2","battery-v0.2","","""event"",""trial"",""time""
""fullscreenenter"",""1"",""2021""
","
","
","""event"",""trial"",""time""
""fullscreenenter"",""1"",""2021""
","
","","","-1","","","14","18094","6696","&#9826;","elianto","#f73b6a7A","-1","-1","1","-10","[]","0","0","3","","","","","","","",""
"pit-trial","73","587053","0.0-2.0-14.2-4.2","battery-v0.2","","""event"",""trial"",""time""
""fullscreenenter"",""1"",""2021""
","
","
","""event"",""trial"",""time""
""fullscreenenter"",""1"",""2021""
","
","","","-1","","","14","18094","6696","&#9826;","elianto","#f73b6a7A","-1","-1","1","0","[]","0","0","3","","","","","","","",""
"pit-trial","74","591906","0.0-2.0-14.3-0.3","battery-v0.2","","""event"",""trial"",""time""
""fullscreenenter"",""1"",""2021""
","
","
","""event"",""trial"",""time""
""fullscreenenter"",""1"",""2021""
","
","","","-1","","","14","18094","6696","&#9826;","elianto","#f73b6a7A","-1","-1","1","0","[]","0","0","3","","","","","","","",""
"pit-trial","75","596760","0.0-2.0-14.3-1.3","battery-v0.2","","""event"",""trial"",""time""
""fullscreenenter"",""1"",""2021""
","
","
","""event"",""trial"",""time""
""fullscreenenter"",""1"",""2021""
","
","","","-1","","","14","18094","6696","&#9826;","elianto","#f73b6a7A","-1","-1","1","0","[]","0","0","3","","","","","","","",""
"pit-trial","76","601614","0.0-2.0-14.3-2.3","battery-v0.2","","""event"",""trial"",""time""
""fullscreenenter"",""1"",""2021""
","
","
","""event"",""trial"",""time""
""fullscreenenter"",""1"",""2021""
","
","","","-1","","","14","18094","6696","&#9826;","elianto","#f73b6a7A","-1","-1","1","0","[]","0","0","3","","","","","","","",""
"pit-trial","77","606480","0.0-2.0-14.3-3.3","battery-v0.2","","""event"",""trial"",""time""
""fullscreenenter"",""1"",""2021""
","
","
","""event"",""trial"",""time""
""fullscreenenter"",""1"",""2021""
","
","","","-1","","","14","18094","6696","&#9826;","elianto","#f73b6a7A","-1","-1","1","-10","[]","0","0","3","","","","","","","",""
"pit-trial","78","611334","0.0-2.0-14.3-4.3","battery-v0.2","","""event"",""trial"",""time""
""fullscreenenter"",""1"",""2021""
","
","
","""event"",""trial"",""time""
""fullscreenenter"",""1"",""2021""
","
","","","-1","","","14","18094","6696","&#9826;","elianto","#f73b6a7A","-1","-1","1","0","[]","0","0","3","","","","","","","",""
"call-function","79","611336","0.0-2.0-15.0","battery-v0.2","","""event"",""trial"",""time""
""fullscreenenter"",""1"",""2021""
","
","
","""event"",""trial"",""time""
""fullscreenenter"",""1"",""2021""
","
","","","","","","","","","","","","","","","","","","","","","","","","","","",""
"pit-instructions","80","644211","0.0-2.0-16.0","battery-v0.2","","""event"",""trial"",""time""
""fullscreenenter"",""1"",""2021""
","
","
","""event"",""trial"",""time""
""fullscreenenter"",""1"",""2021""
","
","","[{""page_index"":0,""viewing_time"":15250},{""page_index"":1,""viewing_time"":8052.099999904633},{""page_index"":2,""viewing_time"":4634.600000143051},{""page_index"":3,""viewing_time"":4937.599999904633}]","32874.59999990463","","","","","","","","","","","","","","","","","","","","","","","",""
"pit-trial","81","647551","0.0-2.0-17.0-0.0","battery-v0.2","","""event"",""trial"",""time""
""fullscreenenter"",""1"",""2021""
","
","
","""event"",""trial"",""time""
""fullscreenenter"",""1"",""2021""
","
","","","476.7000000476837","","","14","18094","6696","&#9789;","elianto","#f73b6a7A"," "," ","1","0","[1327.9000000953674]","1","0","4","","","","","","","",""
"pit-trial","82","650804","0.0-2.0-17.0-1.0","battery-v0.2","","""event"",""trial"",""time""
""fullscreenenter"",""1"",""2021""
","
","
","""event"",""trial"",""time""
""fullscreenenter"",""1"",""2021""
","
","","","395","","","14","18094","6696","&#9789;","elianto","#f73b6a7A"," "," ","1","0","[1246.7999999523163]","1","0","4","","","","","","","",""
"pit-trial","83","655675","0.0-2.0-17.0-2.0","battery-v0.2","","""event"",""trial"",""time""
""fullscreenenter"",""1"",""2021""
","
","
","""event"",""trial"",""time""
""fullscreenenter"",""1"",""2021""
","
","","","-1","","","14","18094","6696","&#9789;","elianto","#f73b6a7A"," ","-1","0","-10","[]","0","0","4","","","","","","","",""
"pit-trial","84","660534","0.0-2.0-17.0-3.0","battery-v0.2","","""event"",""trial"",""time""
""fullscreenenter"",""1"",""2021""
","
","
","""event"",""trial"",""time""
""fullscreenenter"",""1"",""2021""
","
","","","-1","","","14","18094","6696","&#9789;","elianto","#f73b6a7A"," ","-1","0","0","[]","0","0","4","","","","","","","",""
"pit-trial","85","665402","0.0-2.0-17.0-4.0","battery-v0.2","","""event"",""trial"",""time""
""fullscreenenter"",""1"",""2021""
","
","
","""event"",""trial"",""time""
""fullscreenenter"",""1"",""2021""
","
","","","-1","","","14","18094","6696","&#9789;","elianto","#f73b6a7A"," ","-1","0","-10","[]","0","0","4","","","","","","","",""
"pit-trial","86","670266","0.0-2.0-17.1-0.1","battery-v0.2","","""event"",""trial"",""time""
""fullscreenenter"",""1"",""2021""
","
","
","""event"",""trial"",""time""
""fullscreenenter"",""1"",""2021""
","
","","","-1","","","14","18094","6696","&#9789;","elianto","#f73b6a7A"," ","-1","0","-10","[]","0","0","4","","","","","","","",""
"pit-trial","87","675126","0.0-2.0-17.1-1.1","battery-v0.2","","""event"",""trial"",""time""
""fullscreenenter"",""1"",""2021""
","
","
","""event"",""trial"",""time""
""fullscreenenter"",""1"",""2021""
","
","","","-1","","","14","18094","6696","&#9789;","elianto","#f73b6a7A"," ","-1","0","-10","[]","0","0","4","","","","","","","",""
"pit-trial","88","679980","0.0-2.0-17.1-2.1","battery-v0.2","","""event"",""trial"",""time""
""fullscreenenter"",""1"",""2021""
","
","
","""event"",""trial"",""time""
""fullscreenenter"",""1"",""2021""
","
","","","-1","","","14","18094","6696","&#9789;","elianto","#f73b6a7A"," ","-1","0","-10","[]","0","0","4","","","","","","","",""
"pit-trial","89","684833","0.0-2.0-17.1-3.1","battery-v0.2","","""event"",""trial"",""time""
""fullscreenenter"",""1"",""2021""
","
","
","""event"",""trial"",""time""
""fullscreenenter"",""1"",""2021""
","
","","","-1","","","14","18094","6696","&#9789;","elianto","#f73b6a7A"," ","-1","0","0","[]","0","0","4","","","","","","","",""
"pit-trial","90","689687","0.0-2.0-17.1-4.1","battery-v0.2","","""event"",""trial"",""time""
""fullscreenenter"",""1"",""2021""
","
","
","""event"",""trial"",""time""
""fullscreenenter"",""1"",""2021""
","
","","","-1","","","14","18094","6696","&#9789;","elianto","#f73b6a7A"," ","-1","0","-10","[]","0","0","4","","","","","","","",""
"pit-trial","91","694540","0.0-2.0-17.2-0.2","battery-v0.2","","""event"",""trial"",""time""
""fullscreenenter"",""1"",""2021""
","
","
","""event"",""trial"",""time""
""fullscreenenter"",""1"",""2021""
","
","","","-1","","","14","18094","6696","&#9789;","elianto","#f73b6a7A"," ","-1","0","-10","[]","0","0","4","","","","","","","",""
"pit-trial","92","699394","0.0-2.0-17.2-1.2","battery-v0.2","","""event"",""trial"",""time""
""fullscreenenter"",""1"",""2021""
","
","
","""event"",""trial"",""time""
""fullscreenenter"",""1"",""2021""
","
","","","-1","","","14","18094","6696","&#9789;","elianto","#f73b6a7A"," ","-1","0","-10","[]","0","0","4","","","","","","","",""
"pit-trial","93","704248","0.0-2.0-17.2-2.2","battery-v0.2","","""event"",""trial"",""time""
""fullscreenenter"",""1"",""2021""
","
","
","""event"",""trial"",""time""
""fullscreenenter"",""1"",""2021""
","
","","","-1","","","14","18094","6696","&#9789;","elianto","#f73b6a7A"," ","-1","0","-10","[]","0","0","4","","","","","","","",""
"pit-trial","94","709101","0.0-2.0-17.2-3.2","battery-v0.2","","""event"",""trial"",""time""
""fullscreenenter"",""1"",""2021""
","
","
","""event"",""trial"",""time""
""fullscreenenter"",""1"",""2021""
","
","","","-1","","","14","18094","6696","&#9789;","elianto","#f73b6a7A"," ","-1","0","0","[]","0","0","4","","","","","","","",""
"pit-trial","95","713955","0.0-2.0-17.2-4.2","battery-v0.2","","""event"",""trial"",""time""
""fullscreenenter"",""1"",""2021""
","
","
","""event"",""trial"",""time""
""fullscreenenter"",""1"",""2021""
","
","","","-1","","","14","18094","6696","&#9789;","elianto","#f73b6a7A"," ","-1","0","-10","[]","0","0","4","","","","","","","",""
"pit-trial","96","718808","0.0-2.0-17.3-0.3","battery-v0.2","","""event"",""trial"",""time""
""fullscreenenter"",""1"",""2021""
","
","
","""event"",""trial"",""time""
""fullscreenenter"",""1"",""2021""
","
","","","-1","","","14","18094","6696","&#9789;","elianto","#f73b6a7A"," ","-1","0","-10","[]","0","0","4","","","","","","","",""
"pit-trial","97","723661","0.0-2.0-17.3-1.3","battery-v0.2","","""event"",""trial"",""time""
""fullscreenenter"",""1"",""2021""
","
","
","""event"",""trial"",""time""
""fullscreenenter"",""1"",""2021""
","
","","","-1","","","14","18094","6696","&#9789;","elianto","#f73b6a7A"," ","-1","0","-10","[]","0","0","4","","","","","","","",""
"pit-trial","98","728514","0.0-2.0-17.3-2.3","battery-v0.2","","""event"",""trial"",""time""
""fullscreenenter"",""1"",""2021""
","
","
","""event"",""trial"",""time""
""fullscreenenter"",""1"",""2021""
","
","","","-1","","","14","18094","6696","&#9789;","elianto","#f73b6a7A"," ","-1","0","-10","[]","0","0","4","","","","","","","",""
"pit-trial","99","733368","0.0-2.0-17.3-3.3","battery-v0.2","","""event"",""trial"",""time""
""fullscreenenter"",""1"",""2021""
","
","
","""event"",""trial"",""time""
""fullscreenenter"",""1"",""2021""
","
","","","-1","","","14","18094","6696","&#9789;","elianto","#f73b6a7A"," ","-1","0","0","[]","0","0","4","","","","","","","",""
"pit-trial","100","738221","0.0-2.0-17.3-4.3","battery-v0.2","","""event"",""trial"",""time""
""fullscreenenter"",""1"",""2021""
","
","
","""event"",""trial"",""time""
""fullscreenenter"",""1"",""2021""
","
","","","-1","","","14","18094","6696","&#9789;","elianto","#f73b6a7A"," ","-1","0","-10","[]","0","0","4","","","","","","","",""
"call-function","101","738222","0.0-2.0-18.0","battery-v0.2","","""event"",""trial"",""time""
""fullscreenenter"",""1"",""2021""
","
","
","""event"",""trial"",""time""
""fullscreenenter"",""1"",""2021""
","
","","","","","","","","","","","","","","","","","","","","","","","","","","",""
"pit-instructions","102","843473","0.0-2.0-19.0","battery-v0.2","","""event"",""trial"",""time""
""fullscreenenter"",""1"",""2021""
","
","
","""event"",""trial"",""time""
""fullscreenenter"",""1"",""2021""
","
","","[{""page_index"":0,""viewing_time"":32616.900000095367},{""page_index"":1,""viewing_time"":8601.5},{""page_index"":2,""viewing_time"":13439.399999856949},{""page_index"":3,""viewing_time"":8650.299999952316},{""page_index"":4,""viewing_time"":9005},{""page_index"":5,""viewing_time"":14376.300000190735},{""page_index"":6,""viewing_time"":8504.599999904633},{""page_index"":7,""viewing_time"":6113.299999952316},{""page_index"":8,""viewing_time"":3941.7999999523163}]","105249.59999990463","","","","","","","","","","","","","","","","","","","","","","","",""
"pit-comprehension","103","848409","0.0-2.0-20.0-0.0","battery-v0.2","","""event"",""trial"",""time""
""fullscreenenter"",""1"",""2021""
","
","
","""event"",""trial"",""time""
""fullscreenenter"",""1"",""2021""
","
","","","4932.799999952316","[""SPACE""]","0","14","18094","6696","","","","","","","","","","","","","","","","","","",""
"pit-instructions","104","852727","0.0-2.0-20.0-1.0","battery-v0.2","","""event"",""trial"",""time""
""fullscreenenter"",""1"",""2021""
","
","
","""event"",""trial"",""time""
""fullscreenenter"",""1"",""2021""
","
","","[{""page_index"":0,""viewing_time"":4302}]","4302.200000047684","","","","","","","","","","","","","","","","","","","","","","","",""
"pit-comprehension","105","859390","0.0-2.0-21.0-0.0","battery-v0.2","","""event"",""trial"",""time""
""fullscreenenter"",""1"",""2021""
","
","
","""event"",""trial"",""time""
""fullscreenenter"",""1"",""2021""
","
","","","6660.099999904633","[""10""]","0","14","18094","6696","","","","","","","","","","","","","","","","","","",""
"pit-instructions","106","861034","0.0-2.0-21.0-1.0","battery-v0.2","","""event"",""trial"",""time""
""fullscreenenter"",""1"",""2021""
","
","
","""event"",""trial"",""time""
""fullscreenenter"",""1"",""2021""
","
","","[{""page_index"":0,""viewing_time"":1629.4000000953674}]","1629.7000000476837","","","","","","","","","","","","","","","","","","","","","","","",""
"pit-comprehension","107","869529","0.0-2.0-22.0-0.0","battery-v0.2","","""event"",""trial"",""time""
""fullscreenenter"",""1"",""2021""
","
","
","""event"",""trial"",""time""
""fullscreenenter"",""1"",""2021""
","
","","","8493.100000143051","[""0""]","0","14","18094","6696","","","","","","","","","","","","","","","","","","",""
"pit-instructions","108","871430","0.0-2.0-22.0-1.0","battery-v0.2","","""event"",""trial"",""time""
""fullscreenenter"",""1"",""2021""
","
","
","""event"",""trial"",""time""
""fullscreenenter"",""1"",""2021""
","
","","[{""page_index"":0,""viewing_time"":1884.2000000476837}]","1884.4000000953674","","","","","","","","","","","","","","","","","","","","","","","",""
"pit-comprehension","109","902902","0.0-2.0-23.0-0.0","battery-v0.2","","""event"",""trial"",""time""
""fullscreenenter"",""1"",""2021""
","
","
","""event"",""trial"",""time""
""fullscreenenter"",""1"",""2021""
","
","","","31469.700000047684","[""False""]","1","14","18094","6696","","","","","","","","","","","","","","","","","","",""
"pit-instructions","110","906908","0.0-2.0-23.0-1.0","battery-v0.2","","""event"",""trial"",""time""
""fullscreenenter"",""1"",""2021""
","
","
","""event"",""trial"",""time""
""fullscreenenter"",""1"",""2021""
","
","","[{""page_index"":0,""viewing_time"":3987}]","3987.2999999523163","","","","","","","","","","","","","","","","","","","","","","","",""
"pit-instructions","111","908446","0.0-2.0-23.0-2.0-0.0","battery-v0.2","","""event"",""trial"",""time""
""fullscreenenter"",""1"",""2021""
","
","
","""event"",""trial"",""time""
""fullscreenenter"",""1"",""2021""
","
","","[{""page_index"":0,""viewing_time"":1536.7999999523163}]","1537","","","","","","","","","","","","","","","","","","","","","","","",""
"pit-comprehension","112","916952","0.0-2.0-23.1-0.1","battery-v0.2","","""event"",""trial"",""time""
""fullscreenenter"",""1"",""2021""
","
","
","""event"",""trial"",""time""
""fullscreenenter"",""1"",""2021""
","
","","","8504.5","[""True""]","0","14","18094","6696","","","","","","","","","","","","","","","","","","",""
"pit-instructions","113","918603","0.0-2.0-23.1-1.1","battery-v0.2","","""event"",""trial"",""time""
""fullscreenenter"",""1"",""2021""
","
","
","""event"",""trial"",""time""
""fullscreenenter"",""1"",""2021""
","
","","[{""page_index"":0,""viewing_time"":1632.2000000476837}]","1632.3999998569489","","","","","","","","","","","","","","","","","","","","","","","",""
"pit-comprehension","114","926431","0.0-2.0-24.0-0.0","battery-v0.2","","""event"",""trial"",""time""
""fullscreenenter"",""1"",""2021""
","
","
","""event"",""trial"",""time""
""fullscreenenter"",""1"",""2021""
","
","","","7825.600000143051","[""True""]","0","14","18094","6696","","","","","","","","","","","","","","","","","","",""
"pit-instructions","115","928480","0.0-2.0-24.0-1.0","battery-v0.2","","""event"",""trial"",""time""
""fullscreenenter"",""1"",""2021""
","
","
","""event"",""trial"",""time""
""fullscreenenter"",""1"",""2021""
","
","","[{""page_index"":0,""viewing_time"":2031.5}]","2031.6999998092651","","","","","","","","","","","","","","","","","","","","","","","",""
"pit-comprehension","116","935162","0.0-2.0-25.0-0.0","battery-v0.2","","""event"",""trial"",""time""
""fullscreenenter"",""1"",""2021""
","
","
","""event"",""trial"",""time""
""fullscreenenter"",""1"",""2021""
","
","","","6680.5","[""True""]","0","14","18094","6696","","","","","","","","","","","","","","","","","","",""
"pit-instructions","117","937484","0.0-2.0-25.0-1.0","battery-v0.2","","""event"",""trial"",""time""
""fullscreenenter"",""1"",""2021""
","
","
","""event"",""trial"",""time""
""fullscreenenter"",""1"",""2021""
","
","","[{""page_index"":0,""viewing_time"":2305.2000000476837}]","2305.5","","","","","","","","","","","","","","","","","","","","","","","",""
"pit-comprehension","118","945866","0.0-2.0-26.0-0.0","battery-v0.2","","""event"",""trial"",""time""
""fullscreenenter"",""1"",""2021""
","
","
","""event"",""trial"",""time""
""fullscreenenter"",""1"",""2021""
","
","","","8380","[""True""]","1","14","18094","6696","","","","","","","","","","","","","","","","","","",""
"pit-instructions","119","949625","0.0-2.0-26.0-1.0","battery-v0.2","","""event"",""trial"",""time""
""fullscreenenter"",""1"",""2021""
","
","
","""event"",""trial"",""time""
""fullscreenenter"",""1"",""2021""
","
","","[{""page_index"":0,""viewing_time"":3740.7000000476837}]","3740.9000000953674","","","","","","","","","","","","","","","","","","","","","","","",""
"pit-instructions","120","952074","0.0-2.0-26.0-2.0-0.0","battery-v0.2","","""event"",""trial"",""time""
""fullscreenenter"",""1"",""2021""
","
","
","""event"",""trial"",""time""
""fullscreenenter"",""1"",""2021""
","
","","[{""page_index"":0,""viewing_time"":2447.5}]","2447.7999999523163","","","","","","","","","","","","","","","","","","","","","","","",""
"pit-comprehension","121","956760","0.0-2.0-26.1-0.1","battery-v0.2","","""event"",""trial"",""time""
""fullscreenenter"",""1"",""2021""
","
","
","""event"",""trial"",""time""
""fullscreenenter"",""1"",""2021""
","
","","","4683.700000047684","[""False""]","0","14","18094","6696","","","","","","","","","","","","","","","","","","",""
"pit-instructions","122","958362","0.0-2.0-26.1-1.1","battery-v0.2","","""event"",""trial"",""time""
""fullscreenenter"",""1"",""2021""
","
","
","""event"",""trial"",""time""
""fullscreenenter"",""1"",""2021""
","
","","[{""page_index"":0,""viewing_time"":1583.2000000476837}]","1583.5","","","","","","","","","","","","","","","","","","","","","","","",""
"pit-instructions","123","976122","0.0-3.0","battery-v0.2","","""event"",""trial"",""time""
""fullscreenenter"",""1"",""2021""
","
","
","""event"",""trial"",""time""
""fullscreenenter"",""1"",""2021""
","
","","[{""page_index"":0,""viewing_time"":4616.899999856949},{""page_index"":1,""viewing_time"":5604.100000143051},{""page_index"":2,""viewing_time"":7537.799999952316}]","17759.199999809265","","","","","","","","","","","","","","","","","","","","","","","",""
"pit-trial","124","979548","0.0-4.0","battery-v0.2","","""event"",""trial"",""time""
""fullscreenenter"",""1"",""2021""
","
","
","""event"",""trial"",""time""
""fullscreenenter"",""1"",""2021""
","
","","","544.2999999523163","","","14","18094","6696","&#9733;","elianto","#3366ff99","-1"," ","0","+10","[1407.5999999046326]","1","1","","","18094","1","2","2","win","no-go","1"
"pit-trial","125","983121","0.0-5.0","battery-v0.2","","""event"",""trial"",""time""
""fullscreenenter"",""1"",""2021""
","
","
","""event"",""trial"",""time""
""fullscreenenter"",""1"",""2021""
","
","","","713.6000001430511","","","14","18094","6696","&#9730;","elianto","#3366ff99"," "," ","1","+10","[1566.5]","1","1","","","18094","2","1","1","win","go","0"
"pit-trial","126","986592","0.0-6.0","battery-v0.2","","""event"",""trial"",""time""
""fullscreenenter"",""1"",""2021""
","
","
","""event"",""trial"",""time""
""fullscreenenter"",""1"",""2021""
","
","","","617.3000001907349","","","14","18094","6696","&#9728;","elianto","#f73b6a7A","-1"," ","0","-10","[1468.2000000476837]","1","1","","","18094","3","0","4","lose","no-go","0"
"pit-trial","127","991463","0.0-7.0","battery-v0.2","","""event"",""trial"",""time""
""fullscreenenter"",""1"",""2021""
","
","
","""event"",""trial"",""time""
""fullscreenenter"",""1"",""2021""
","
","","","-1","","","14","18094","6696","&#9752;","elianto","#f73b6a7A"," ","-1","0","-10","[]","0","1","","","18094","4","3","3","lose","go","0"
"pit-trial","128","995189","0.0-8.0","battery-v0.2","","""event"",""trial"",""time""
""fullscreenenter"",""1"",""2021""
","
","
","""event"",""trial"",""time""
""fullscreenenter"",""1"",""2021""
","
","","","869","","","14","18094","6696","&#9752;","elianto","#f73b6a7A"," "," ","1","0","[1719.3999998569489]","1","1","","","18094","5","3","3","lose","go","0"
"pit-trial","129","1000063","0.0-9.0","battery-v0.2","","""event"",""trial"",""time""
""fullscreenenter"",""1"",""2021""
","
","
","""event"",""trial"",""time""
""fullscreenenter"",""1"",""2021""
","
","","","-1","","","14","18094","6696","&#9728;","elianto","#f73b6a7A","-1","-1","1","0","[]","0","1","","","18094","6","0","4","lose","no-go","0"
"pit-trial","130","1003585","0.0-10.0","battery-v0.2","","""event"",""trial"",""time""
""fullscreenenter"",""1"",""2021""
","
","
","""event"",""trial"",""time""
""fullscreenenter"",""1"",""2021""
","
","","","658.5","","","14","18094","6696","&#9733;","elianto","#3366ff99","-1"," ","0","0","[1510.2000000476837]","1","1","","","18094","7","2","2","win","no-go","0"
"pit-trial","131","1006977","0.0-11.0","battery-v0.2","","""event"",""trial"",""time""
""fullscreenenter"",""1"",""2021""
","
","
","""event"",""trial"",""time""
""fullscreenenter"",""1"",""2021""
","
","","","538.2000000476837","","","14","18094","6696","&#9730;","elianto","#3366ff99"," "," ","1","+10","[1389.6000001430511]","1","1","","","18094","8","1","1","win","go","0"
"pit-trial","132","1011830","0.0-12.0","battery-v0.2","","""event"",""trial"",""time""
""fullscreenenter"",""1"",""2021""
","
","
","""event"",""trial"",""time""
""fullscreenenter"",""1"",""2021""
","
","","","-1","","","14","18094","6696","&#9728;","elianto","#f73b6a7A","-1","-1","1","-10","[]","0","1","","","18094","9","0","4","lose","no-go","1"
"pit-trial","133","1015320","0.0-13.0","battery-v0.2","","""event"",""trial"",""time""
""fullscreenenter"",""1"",""2021""
","
","
","""event"",""trial"",""time""
""fullscreenenter"",""1"",""2021""
","
","","","636.1000001430511","","","14","18094","6696","&#9730;","elianto","#3366ff99"," "," ","1","+10","[1487.5]","1","1","","","18094","10","1","1","win","go","0"
"pit-trial","134","1019467","0.0-14.0","battery-v0.2","","""event"",""trial"",""time""
""fullscreenenter"",""1"",""2021""
","
","
","""event"",""trial"",""time""
""fullscreenenter"",""1"",""2021""
","
","","","1293.0999999046326","","","14","18094","6696","&#9752;","elianto","#f73b6a7A"," "," ","1","-10","[2144.2999999523163]","1","1","","","18094","11","3","3","lose","go","1"
"pit-trial","135","1023069","0.0-15.0","battery-v0.2","","""event"",""trial"",""time""
""fullscreenenter"",""1"",""2021""
","
","
","""event"",""trial"",""time""
""fullscreenenter"",""1"",""2021""
","
","","","747.5999999046326","","","14","18094","6696","&#9733;","elianto","#3366ff99","-1"," ","0","0","[1598.7999999523163]","1","1","","","18094","12","2","2","win","no-go","0"
"pit-trial","136","1026446","0.0-16.0","battery-v0.2","","""event"",""trial"",""time""
""fullscreenenter"",""1"",""2021""
","
","
","""event"",""trial"",""time""
""fullscreenenter"",""1"",""2021""
","
","","","523.5","","","14","18094","6696","&#9730;","elianto","#3366ff99"," "," ","1","0","[1375.1000001430511]","1","1","","","18094","13","1","1","win","go","1"
"pit-trial","137","1030216","0.0-17.0","battery-v0.2","","""event"",""trial"",""time""
""fullscreenenter"",""1"",""2021""
","
","
","""event"",""trial"",""time""
""fullscreenenter"",""1"",""2021""
","
","","","915.3999998569489","","","14","18094","6696","&#9752;","elianto","#f73b6a7A"," "," ","1","0","[1767.2999999523163]","1","1","","","18094","14","3","3","lose","go","0"
"pit-trial","138","1033638","0.0-18.0","battery-v0.2","","""event"",""trial"",""time""
""fullscreenenter"",""1"",""2021""
","
","
","""event"",""trial"",""time""
""fullscreenenter"",""1"",""2021""
","
","","","563.4000000953674","","","14","18094","6696","&#9728;","elianto","#f73b6a7A","-1"," ","0","0","[1414.6999998092651]","1","1","","","18094","15","0","4","lose","no-go","1"
"pit-trial","139","1037478","0.0-19.0","battery-v0.2","","""event"",""trial"",""time""
""fullscreenenter"",""1"",""2021""
","
","
","""event"",""trial"",""time""
""fullscreenenter"",""1"",""2021""
","
","","","986.2999999523163","","","14","18094","6696","&#9733;","elianto","#3366ff99","-1"," ","0","+10","[1837]","1","1","","","18094","16","2","2","win","no-go","1"
"pit-trial","140","1040966","0.0-20.0","battery-v0.2","","""event"",""trial"",""time""
""fullscreenenter"",""1"",""2021""
","
","
","""event"",""trial"",""time""
""fullscreenenter"",""1"",""2021""
","
","","","635.7999999523163","","","14","18094","6696","&#9733;","elianto","#3366ff99","-1"," ","0","0","[1486.5999999046326]","1","1","","","18094","17","2","2","win","no-go","0"
"pit-trial","141","1044404","0.0-21.0","battery-v0.2","","""event"",""trial"",""time""
""fullscreenenter"",""1"",""2021""
","
","
","""event"",""trial"",""time""
""fullscreenenter"",""1"",""2021""
","
","","","584.7000000476837","","","14","18094","6696","&#9730;","elianto","#3366ff99"," "," ","1","+10","[1435.2000000476837]","1","1","","","18094","18","1","1","win","go","0"
"pit-trial","142","1048062","0.0-22.0","battery-v0.2","","""event"",""trial"",""time""
""fullscreenenter"",""1"",""2021""
","
","
","""event"",""trial"",""time""
""fullscreenenter"",""1"",""2021""
","
","","","805.7999999523163","","","14","18094","6696","&#9728;","elianto","#f73b6a7A","-1"," ","0","-10","[1656.2999999523163]","1","1","","","18094","19","0","4","lose","no-go","0"
"pit-trial","143","1051379","0.0-23.0","battery-v0.2","","""event"",""trial"",""time""
""fullscreenenter"",""1"",""2021""
","
","
","""event"",""trial"",""time""
""fullscreenenter"",""1"",""2021""
","
","","","464.09999990463257","","","14","18094","6696","&#9752;","elianto","#f73b6a7A"," "," ","1","-10","[1314.6000001430511]","1","1","","","18094","20","3","3","lose","go","1"
"pit-instructions","144","1065403","0.0-24.0","battery-v0.2","","""event"",""trial"",""time""
""fullscreenenter"",""1"",""2021""
","
","
","""event"",""trial"",""time""
""fullscreenenter"",""1"",""2021""
","
","","[{""page_index"":0,""viewing_time"":6979.399999856949},{""page_index"":1,""viewing_time"":7042.400000095367}]","14022.200000047684","","","","","","","","","","","","","","","","","","","","","","","",""
"pit-trial","145","1069078","0.0-25.0","battery-v0.2","","""event"",""trial"",""time""
""fullscreenenter"",""1"",""2021""
","
","
","""event"",""trial"",""time""
""fullscreenenter"",""1"",""2021""
","
","","","818.5","","","14","18094","6696","a","elianto","#f73b6a7A","-1"," ","0","-10","[1668.6999998092651]","1","2","","","18094","21","2","4","lose","no-go","0"
"pit-trial","146","1072463","0.0-26.0","battery-v0.2","","""event"",""trial"",""time""
""fullscreenenter"",""1"",""2021""
","
","
","""event"",""trial"",""time""
""fullscreenenter"",""1"",""2021""
","
","","","525.0999999046326","","","14","18094","6696","l","elianto","#3366ff99"," "," ","1","+10","[1376.5999999046326]","1","2","","","18094","22","1","1","win","go","0"
"pit-trial","147","1076165","0.0-27.0","battery-v0.2","","""event"",""trial"",""time""
""fullscreenenter"",""1"",""2021""
","
","
","""event"",""trial"",""time""
""fullscreenenter"",""1"",""2021""
","
","","","845.5999999046326","","","14","18094","6696","g","elianto","#f73b6a7A"," "," ","1","0","[1696.7000000476837]","1","2","","","18094","23","3","3","lose","go","0"
"pit-trial","148","1079877","0.0-28.0","battery-v0.2","","""event"",""trial"",""time""
""fullscreenenter"",""1"",""2021""
","
","
","""event"",""trial"",""time""
""fullscreenenter"",""1"",""2021""
","
","","","853.2999999523163","","","14","18094","6696","u","elianto","#f73b6a7A","-1"," ","0","-10","[1705.5]","1","2","","","18094","24","0","4","lose","no-go","0"
"pit-trial","149","1083737","0.0-29.0","battery-v0.2","","""event"",""trial"",""time""
""fullscreenenter"",""1"",""2021""
","
","
","""event"",""trial"",""time""
""fullscreenenter"",""1"",""2021""
","
","","","1005.5","","","14","18094","6696","g","elianto","#f73b6a7A"," "," ","1","0","[1855.8999998569489]","1","2","","","18094","25","3","3","lose","go","0"
"pit-trial","150","1087455","0.0-30.0","battery-v0.2","","""event"",""trial"",""time""
""fullscreenenter"",""1"",""2021""
","
","
","""event"",""trial"",""time""
""fullscreenenter"",""1"",""2021""
","
","","","858.1000001430511","","","14","18094","6696","u","elianto","#f73b6a7A","-1"," ","0","0","[1709.8000001907349]","1","2","","","18094","26","0","4","lose","no-go","1"
"pit-trial","151","1092327","0.0-31.0","battery-v0.2","","""event"",""trial"",""time""
""fullscreenenter"",""1"",""2021""
","
","
","""event"",""trial"",""time""
""fullscreenenter"",""1"",""2021""
","
","","","-1","","","14","18094","6696","a","elianto","#f73b6a7A","-1","-1","1","-10","[]","0","2","","","18094","27","2","4","lose","no-go","1"
"pit-trial","152","1095783","0.0-32.0","battery-v0.2","","""event"",""trial"",""time""
""fullscreenenter"",""1"",""2021""
","
","
","""event"",""trial"",""time""
""fullscreenenter"",""1"",""2021""
","
","","","601.5","","","14","18094","6696","l","elianto","#3366ff99"," "," ","1","+10","[1452.7999999523163]","1","2","","","18094","28","1","1","win","go","0"
"pit-trial","153","1099103","0.0-33.0","battery-v0.2","","""event"",""trial"",""time""
""fullscreenenter"",""1"",""2021""
","
","
","""event"",""trial"",""time""
""fullscreenenter"",""1"",""2021""
","
","","","468.09999990463257","","","14","18094","6696","l","elianto","#3366ff99"," "," ","1","+10","[1318.2000000476837]","1","2","","","18094","29","1","1","win","go","0"
"pit-trial","154","1102791","0.0-34.0","battery-v0.2","","""event"",""trial"",""time""
""fullscreenenter"",""1"",""2021""
","
","
","""event"",""trial"",""time""
""fullscreenenter"",""1"",""2021""
","
","","","834.7999999523163","","","14","18094","6696","u","elianto","#f73b6a7A","-1"," ","0","-10","[1686.2999999523163]","1","2","","","18094","30","0","4","lose","no-go","0"
"pit-trial","155","1107644","0.0-35.0","battery-v0.2","","""event"",""trial"",""time""
""fullscreenenter"",""1"",""2021""
","
","
","""event"",""trial"",""time""
""fullscreenenter"",""1"",""2021""
","
","","","-1","","","14","18094","6696","a","elianto","#f73b6a7A","-1","-1","1","0","[3068.0999999046326]","1","2","","","18094","31","2","4","lose","no-go","0"
"pit-trial","156","1111811","0.0-36.0","battery-v0.2","","""event"",""trial"",""time""
""fullscreenenter"",""1"",""2021""
","
","
","""event"",""trial"",""time""
""fullscreenenter"",""1"",""2021""
","
","","","1313.3000001907349","","","14","18094","6696","g","elianto","#f73b6a7A"," "," ","1","0","[2164.9000000953674]","1","2","","","18094","32","3","3","lose","go","0"
"pit-trial","157","1115908","0.0-37.0","battery-v0.2","","""event"",""trial"",""time""
""fullscreenenter"",""1"",""2021""
","
","
","""event"",""trial"",""time""
""fullscreenenter"",""1"",""2021""
","
","","","1243","","","14","18094","6696","g","elianto","#f73b6a7A"," "," ","1","0","[2094.100000143051]","1","2","","","18094","33","3","3","lose","go","0"
"pit-trial","158","1120761","0.0-38.0","battery-v0.2","","""event"",""trial"",""time""
""fullscreenenter"",""1"",""2021""
","
","
","""event"",""trial"",""time""
""fullscreenenter"",""1"",""2021""
","
","","","-1","","","14","18094","6696","u","elianto","#f73b6a7A","-1","-1","1","0","[]","0","2","","","18094","34","0","4","lose","no-go","0"
"pit-trial","159","1124264","0.0-39.0","battery-v0.2","","""event"",""trial"",""time""
""fullscreenenter"",""1"",""2021""
","
","
","""event"",""trial"",""time""
""fullscreenenter"",""1"",""2021""
","
","","","649.5","","","14","18094","6696","l","elianto","#3366ff99"," "," ","1","+10","[1500.2999999523163]","1","2","","","18094","35","1","1","win","go","0"
"pit-trial","160","1128694","0.0-40.0","battery-v0.2","","""event"",""trial"",""time""
""fullscreenenter"",""1"",""2021""
","
","
","""event"",""trial"",""time""
""fullscreenenter"",""1"",""2021""
","
","","","1576.6999998092651","","","14","18094","6696","a","elianto","#f73b6a7A","-1"," ","0","-10","[2427.4000000953674]","1","2","","","18094","36","2","4","lose","no-go","0"
"pit-trial","161","1133549","0.0-41.0","battery-v0.2","","""event"",""trial"",""time""
""fullscreenenter"",""1"",""2021""
","
","
","""event"",""trial"",""time""
""fullscreenenter"",""1"",""2021""
","
","","","-1","","","14","18094","6696","u","elianto","#f73b6a7A","-1","-1","1","0","[]","0","2","","","18094","37","0","4","lose","no-go","0"
"pit-trial","162","1138406","0.0-42.0","battery-v0.2","","""event"",""trial"",""time""
""fullscreenenter"",""1"",""2021""
","
","
","""event"",""trial"",""time""
""fullscreenenter"",""1"",""2021""
","
","","","-1","","","14","18094","6696","a","elianto","#f73b6a7A","-1","-1","1","0","[]","0","2","","","18094","38","2","4","lose","no-go","0"
"pit-trial","163","1141961","0.0-43.0","battery-v0.2","","""event"",""trial"",""time""
""fullscreenenter"",""1"",""2021""
","
","
","""event"",""trial"",""time""
""fullscreenenter"",""1"",""2021""
","
","","","700.2000000476837","","","14","18094","6696","l","elianto","#3366ff99"," "," ","1","+10","[1551.5999999046326]","1","2","","","18094","39","1","1","win","go","0"
"pit-trial","164","1145760","0.0-44.0","battery-v0.2","","""event"",""trial"",""time""
""fullscreenenter"",""1"",""2021""
","
","
","""event"",""trial"",""time""
""fullscreenenter"",""1"",""2021""
","
","","","936.7999999523163","","","14","18094","6696","g","elianto","#f73b6a7A"," "," ","1","0","[1787.7999999523163]","1","2","","","18094","40","3","3","lose","go","0"
"pit-trial","165","1150613","0.0-45.0","battery-v0.2","","""event"",""trial"",""time""
""fullscreenenter"",""1"",""2021""
","
","
","""event"",""trial"",""time""
""fullscreenenter"",""1"",""2021""
","
","","","-1","","","14","18094","6696","a","elianto","#f73b6a7A","-1","-1","1","0","[]","0","2","","","18094","41","2","4","lose","no-go","0"
"pit-trial","166","1154149","0.0-46.0","battery-v0.2","","""event"",""trial"",""time""
""fullscreenenter"",""1"",""2021""
","
","
","""event"",""trial"",""time""
""fullscreenenter"",""1"",""2021""
","
","","","682.6000001430511","","","14","18094","6696","l","elianto","#3366ff99"," "," ","1","+10","[1533.7000000476837]","1","2","","","18094","42","1","1","win","go","0"
"pit-trial","167","1157906","0.0-47.0","battery-v0.2","","""event"",""trial"",""time""
""fullscreenenter"",""1"",""2021""
","
","
","""event"",""trial"",""time""
""fullscreenenter"",""1"",""2021""
","
","","","902.6999998092651","","","14","18094","6696","g","elianto","#f73b6a7A"," "," ","1","0","[1753.7999999523163]","1","2","","","18094","43","3","3","lose","go","0"
"pit-trial","168","1162761","0.0-48.0","battery-v0.2","","""event"",""trial"",""time""
""fullscreenenter"",""1"",""2021""
","
","
","""event"",""trial"",""time""
""fullscreenenter"",""1"",""2021""
","
","","","-1","","","14","18094","6696","u","elianto","#f73b6a7A","-1","-1","1","-10","[]","0","2","","","18094","44","0","4","lose","no-go","1"
"pit-trial","169","1166360","0.0-49.0","battery-v0.2","","""event"",""trial"",""time""
""fullscreenenter"",""1"",""2021""
","
","
","""event"",""trial"",""time""
""fullscreenenter"",""1"",""2021""
","
","","","746","","","14","18094","6696","p","elianto","#3366ff99","-1"," ","0","0","[1596.5999999046326]","1","2","","","18094","45","4","2","win","no-go","0"
"pit-trial","170","1171213","0.0-50.0","battery-v0.2","","""event"",""trial"",""time""
""fullscreenenter"",""1"",""2021""
","
","
","""event"",""trial"",""time""
""fullscreenenter"",""1"",""2021""
","
","","","-1","","","14","18094","6696","a","elianto","#f73b6a7A","-1","-1","1","-10","[]","0","2","","","18094","46","2","4","lose","no-go","1"
"pit-trial","171","1175329","0.0-51.0","battery-v0.2","","""event"",""trial"",""time""
""fullscreenenter"",""1"",""2021""
","
","
","""event"",""trial"",""time""
""fullscreenenter"",""1"",""2021""
","
","","","1262","","","14","18094","6696","u","elianto","#f73b6a7A","-1"," ","0","-10","[2112.899999856949]","1","2","","","18094","47","0","4","lose","no-go","0"
"pit-trial","172","1178906","0.0-52.0","battery-v0.2","","""event"",""trial"",""time""
""fullscreenenter"",""1"",""2021""
","
","
","""event"",""trial"",""time""
""fullscreenenter"",""1"",""2021""
","
","","","723.2999999523163","","","14","18094","6696","g","elianto","#f73b6a7A"," "," ","1","0","[1574.3999998569489]","1","2","","","18094","48","3","3","lose","go","0"
"pit-trial","173","1182333","0.0-53.0","battery-v0.2","","""event"",""trial"",""time""
""fullscreenenter"",""1"",""2021""
","
","
","""event"",""trial"",""time""
""fullscreenenter"",""1"",""2021""
","
","","","573.3000001907349","","","14","18094","6696","l","elianto","#3366ff99"," "," ","1","0","[1424.3999998569489]","1","2","","","18094","49","1","1","win","go","1"
"pit-trial","174","1186206","0.0-54.0","battery-v0.2","","""event"",""trial"",""time""
""fullscreenenter"",""1"",""2021""
","
","
","""event"",""trial"",""time""
""fullscreenenter"",""1"",""2021""
","
","","","1020.5999999046326","","","14","18094","6696","p","elianto","#3366ff99","-1"," ","0","+10","[1871.2000000476837]","1","2","","","18094","50","4","2","win","no-go","1"
"pit-trial","175","1189927","0.0-55.0","battery-v0.2","","""event"",""trial"",""time""
""fullscreenenter"",""1"",""2021""
","
","
","""event"",""trial"",""time""
""fullscreenenter"",""1"",""2021""
","
","","","867","","","14","18094","6696","g","elianto","#f73b6a7A"," "," ","1","0","[1717.2999999523163]","1","2","","","18094","51","3","3","lose","go","0"
"pit-trial","176","1193304","0.0-56.0","battery-v0.2","","""event"",""trial"",""time""
""fullscreenenter"",""1"",""2021""
","
","
","""event"",""trial"",""time""
""fullscreenenter"",""1"",""2021""
","
","","","523.8000001907349","","","14","18094","6696","u","elianto","#f73b6a7A","-1"," ","0","0","[1374.6000001430511]","1","2","","","18094","52","0","4","lose","no-go","1"
"pit-trial","177","1196859","0.0-57.0","battery-v0.2","","""event"",""trial"",""time""
""fullscreenenter"",""1"",""2021""
","
","
","""event"",""trial"",""time""
""fullscreenenter"",""1"",""2021""
","
","","","700.7999999523163","","","14","18094","6696","l","elianto","#3366ff99"," "," ","1","+10","[1552.2999999523163]","1","2","","","18094","53","1","1","win","go","0"
"pit-trial","178","1200454","0.0-58.0","battery-v0.2","","""event"",""trial"",""time""
""fullscreenenter"",""1"",""2021""
","
","
","""event"",""trial"",""time""
""fullscreenenter"",""1"",""2021""
","
","","","741.5","","","14","18094","6696","a","elianto","#f73b6a7A","-1"," ","0","0","[1592.5]","1","2","","","18094","54","2","4","lose","no-go","1"
"pit-trial","179","1203867","0.0-59.0","battery-v0.2","","""event"",""trial"",""time""
""fullscreenenter"",""1"",""2021""
","
","
","""event"",""trial"",""time""
""fullscreenenter"",""1"",""2021""
","
","","","559.5","","","14","18094","6696","u","elianto","#f73b6a7A","-1"," ","0","-10","[1410.7999999523163]","1","2","","","18094","55","0","4","lose","no-go","0"
"pit-trial","180","1207400","0.0-60.0","battery-v0.2","","""event"",""trial"",""time""
""fullscreenenter"",""1"",""2021""
","
","
","""event"",""trial"",""time""
""fullscreenenter"",""1"",""2021""
","
","","","680","","","14","18094","6696","p","elianto","#3366ff99","-1"," ","0","0","[1530.9000000953674]","1","2","","","18094","56","4","2","win","no-go","0"
"pit-trial","181","1211157","0.0-61.0","battery-v0.2","","""event"",""trial"",""time""
""fullscreenenter"",""1"",""2021""
","
","
","""event"",""trial"",""time""
""fullscreenenter"",""1"",""2021""
","
","","","904","","","14","18094","6696","l","elianto","#3366ff99"," "," ","1","+10","[1755.2000000476837]","1","2","","","18094","57","1","1","win","go","0"
"pit-trial","182","1214810","0.0-62.0","battery-v0.2","","""event"",""trial"",""time""
""fullscreenenter"",""1"",""2021""
","
","
","""event"",""trial"",""time""
""fullscreenenter"",""1"",""2021""
","
","","","799.5999999046326","","","14","18094","6696","g","elianto","#f73b6a7A"," "," ","1","0","[1650.0999999046326]","1","2","","","18094","58","3","3","lose","go","0"
"pit-trial","183","1219665","0.0-63.0","battery-v0.2","","""event"",""trial"",""time""
""fullscreenenter"",""1"",""2021""
","
","
","""event"",""trial"",""time""
""fullscreenenter"",""1"",""2021""
","
","","","-1","","","14","18094","6696","u","elianto","#f73b6a7A","-1","-1","1","0","[]","0","2","","","18094","59","0","4","lose","no-go","0"
"pit-trial","184","1223355","0.0-64.0","battery-v0.2","","""event"",""trial"",""time""
""fullscreenenter"",""1"",""2021""
","
","
","""event"",""trial"",""time""
""fullscreenenter"",""1"",""2021""
","
","","","837.5999999046326","","","14","18094","6696","p","elianto","#3366ff99","-1"," ","0","0","[1688.5]","1","2","","","18094","60","4","2","win","no-go","0"
"pit-trial","185","1228209","0.0-65.0","battery-v0.2","","""event"",""trial"",""time""
""fullscreenenter"",""1"",""2021""
","
","
","""event"",""trial"",""time""
""fullscreenenter"",""1"",""2021""
","
","","","-1","","","14","18094","6696","a","elianto","#f73b6a7A","-1","-1","1","0","[]","0","2","","","18094","61","2","4","lose","no-go","0"
"pit-trial","186","1231890","0.0-66.0","battery-v0.2","","""event"",""trial"",""time""
""fullscreenenter"",""1"",""2021""
","
","
","""event"",""trial"",""time""
""fullscreenenter"",""1"",""2021""
","
","","","827.3999998569489","","","14","18094","6696","g","elianto","#f73b6a7A"," "," ","1","0","[1678]","1","2","","","18094","62","3","3","lose","go","0"
"pit-trial","187","1235206","0.0-67.0","battery-v0.2","","""event"",""trial"",""time""
""fullscreenenter"",""1"",""2021""
","
","
","""event"",""trial"",""time""
""fullscreenenter"",""1"",""2021""
","
","","","462.90000009536743","","","14","18094","6696","l","elianto","#3366ff99"," "," ","1","+10","[1313.5]","1","2","","","18094","63","1","1","win","go","0"
"pit-trial","188","1238650","0.0-68.0","battery-v0.2","","""event"",""trial"",""time""
""fullscreenenter"",""1"",""2021""
","
","
","""event"",""trial"",""time""
""fullscreenenter"",""1"",""2021""
","
","","","591","","","14","18094","6696","p","elianto","#3366ff99","-1"," ","0","0","[1441.1000001430511]","1","2","","","18094","64","4","2","win","no-go","0"
"pit-trial","189","1242265","0.0-69.0","battery-v0.2","","""event"",""trial"",""time""
""fullscreenenter"",""1"",""2021""
","
","
","""event"",""trial"",""time""
""fullscreenenter"",""1"",""2021""
","
","","","760.5","","","14","18094","6696","g","elianto","#f73b6a7A"," "," ","1","0","[1611.4000000953674]","1","2","","","18094","65","3","3","lose","go","0"
"pit-trial","190","1245792","0.0-70.0","battery-v0.2","","""event"",""trial"",""time""
""fullscreenenter"",""1"",""2021""
","
","
","""event"",""trial"",""time""
""fullscreenenter"",""1"",""2021""
","
","","","674.0999999046326","","","14","18094","6696","l","elianto","#3366ff99"," "," ","1","+10","[1524.2999999523163]","1","2","","","18094","66","1","1","win","go","0"
"pit-trial","191","1249414","0.0-71.0","battery-v0.2","","""event"",""trial"",""time""
""fullscreenenter"",""1"",""2021""
","
","
","""event"",""trial"",""time""
""fullscreenenter"",""1"",""2021""
","
","","","768.5999999046326","","","14","18094","6696","p","elianto","#3366ff99","-1"," ","0","0","[1619.3999998569489]","1","2","","","18094","67","4","2","win","no-go","0"
"pit-trial","192","1253179","0.0-72.0","battery-v0.2","","""event"",""trial"",""time""
""fullscreenenter"",""1"",""2021""
","
","
","""event"",""trial"",""time""
""fullscreenenter"",""1"",""2021""
","
","","","909.6000001430511","","","14","18094","6696","a","elianto","#f73b6a7A","-1"," ","0","-10","[1761.9000000953674]","1","2","","","18094","68","2","4","lose","no-go","0"
"pit-trial","193","1256636","0.0-73.0","battery-v0.2","","""event"",""trial"",""time""
""fullscreenenter"",""1"",""2021""
","
","
","""event"",""trial"",""time""
""fullscreenenter"",""1"",""2021""
","
","","","599.9000000953674","","","14","18094","6696","l","elianto","#3366ff99"," "," ","1","+10","[1451.6999998092651]","1","2","","","18094","69","1","1","win","go","0"
"pit-trial","194","1259980","0.0-74.0","battery-v0.2","","""event"",""trial"",""time""
""fullscreenenter"",""1"",""2021""
","
","
","""event"",""trial"",""time""
""fullscreenenter"",""1"",""2021""
","
","","","490.2000000476837","","","14","18094","6696","s","elianto","#3366ff99"," "," ","1","+10","[1341.2000000476837]","1","2","","","18094","70","5","1","win","go","0"
"pit-trial","195","1263650","0.0-75.0","battery-v0.2","","""event"",""trial"",""time""
""fullscreenenter"",""1"",""2021""
","
","
","""event"",""trial"",""time""
""fullscreenenter"",""1"",""2021""
","
","","","814.0999999046326","","","14","18094","6696","g","elianto","#f73b6a7A"," "," ","1","-10","[1666]","1","2","","","18094","71","3","3","lose","go","1"
"pit-trial","196","1267122","0.0-76.0","battery-v0.2","","""event"",""trial"",""time""
""fullscreenenter"",""1"",""2021""
","
","
","""event"",""trial"",""time""
""fullscreenenter"",""1"",""2021""
","
","","","618.8000001907349","","","14","18094","6696","p","elianto","#3366ff99","-1"," ","0","+10","[1469.2000000476837]","1","2","","","18094","72","4","2","win","no-go","1"
"pit-trial","197","1270574","0.0-77.0","battery-v0.2","","""event"",""trial"",""time""
""fullscreenenter"",""1"",""2021""
","
","
","""event"",""trial"",""time""
""fullscreenenter"",""1"",""2021""
","
","","","598.9000000953674","","","14","18094","6696","p","elianto","#3366ff99","-1"," ","0","0","[1449.5999999046326]","1","2","","","18094","73","4","2","win","no-go","0"
"pit-trial","198","1275427","0.0-78.0","battery-v0.2","","""event"",""trial"",""time""
""fullscreenenter"",""1"",""2021""
","
","
","""event"",""trial"",""time""
""fullscreenenter"",""1"",""2021""
","
","","","-1","","","14","18094","6696","g","elianto","#f73b6a7A"," ","-1","0","-10","[]","0","2","","","18094","74","3","3","lose","go","0"
"pit-trial","199","1279040","0.0-79.0","battery-v0.2","","""event"",""trial"",""time""
""fullscreenenter"",""1"",""2021""
","
","
","""event"",""trial"",""time""
""fullscreenenter"",""1"",""2021""
","
","","","758.2999999523163","","","14","18094","6696","s","elianto","#3366ff99"," "," ","1","+10","[1609.7999999523163]","1","2","","","18094","75","5","1","win","go","0"
"pit-trial","200","1282324","0.0-80.0","battery-v0.2","","""event"",""trial"",""time""
""fullscreenenter"",""1"",""2021""
","
","
","""event"",""trial"",""time""
""fullscreenenter"",""1"",""2021""
","
","","","425.89999985694885","","","14","18094","6696","l","elianto","#3366ff99"," "," ","1","+10","[1277.2999999523163]","1","2","","","18094","76","1","1","win","go","0"
"pit-trial","201","1285745","0.0-81.0","battery-v0.2","","""event"",""trial"",""time""
""fullscreenenter"",""1"",""2021""
","
","
","""event"",""trial"",""time""
""fullscreenenter"",""1"",""2021""
","
","","","568.7999999523163","","","14","18094","6696","s","elianto","#3366ff99"," "," ","1","0","[1419.0999999046326]","1","2","","","18094","77","5","1","win","go","1"
"pit-trial","202","1289463","0.0-82.0","battery-v0.2","","""event"",""trial"",""time""
""fullscreenenter"",""1"",""2021""
","
","
","""event"",""trial"",""time""
""fullscreenenter"",""1"",""2021""
","
","","","861.9000000953674","","","14","18094","6696","p","elianto","#3366ff99","-1"," ","0","0","[1713.7999999523163]","1","2","","","18094","78","4","2","win","no-go","0"
"pit-trial","203","1293134","0.0-83.0","battery-v0.2","","""event"",""trial"",""time""
""fullscreenenter"",""1"",""2021""
","
","
","""event"",""trial"",""time""
""fullscreenenter"",""1"",""2021""
","
","","","816.8999998569489","","","14","18094","6696","w","elianto","#f73b6a7A","-1"," ","0","-10","[1667.9000000953674]","1","2","","","18094","79","6","4","lose","no-go","0"
"pit-trial","204","1297986","0.0-84.0","battery-v0.2","","""event"",""trial"",""time""
""fullscreenenter"",""1"",""2021""
","
","
","""event"",""trial"",""time""
""fullscreenenter"",""1"",""2021""
","
","","","-1","","","14","18094","6696","g","elianto","#f73b6a7A"," ","-1","0","-10","[]","0","2","","","18094","80","3","3","lose","go","0"
"pit-trial","205","1302840","0.0-85.0","battery-v0.2","","""event"",""trial"",""time""
""fullscreenenter"",""1"",""2021""
","
","
","""event"",""trial"",""time""
""fullscreenenter"",""1"",""2021""
","
","","","-1","","","14","18094","6696","e","elianto","#f73b6a7A"," ","-1","0","-10","[]","0","2","","","18094","81","7","3","lose","go","0"
"pit-trial","206","1306187","0.0-86.0","battery-v0.2","","""event"",""trial"",""time""
""fullscreenenter"",""1"",""2021""
","
","
","""event"",""trial"",""time""
""fullscreenenter"",""1"",""2021""
","
","","","492.7000000476837","","","14","18094","6696","w","elianto","#f73b6a7A","-1"," ","0","-10","[1343.6000001430511]","1","2","","","18094","82","6","4","lose","no-go","0"
"pit-trial","207","1309671","0.0-87.0","battery-v0.2","","""event"",""trial"",""time""
""fullscreenenter"",""1"",""2021""
","
","
","""event"",""trial"",""time""
""fullscreenenter"",""1"",""2021""
","
","","","631.5","","","14","18094","6696","p","elianto","#3366ff99","-1"," ","0","0","[1482.2999999523163]","1","2","","","18094","83","4","2","win","no-go","0"
"pit-trial","208","1313014","0.0-88.0","battery-v0.2","","""event"",""trial"",""time""
""fullscreenenter"",""1"",""2021""
","
","
","""event"",""trial"",""time""
""fullscreenenter"",""1"",""2021""
","
","","","487.90000009536743","","","14","18094","6696","s","elianto","#3366ff99"," "," ","1","+10","[1339.3000001907349]","1","2","","","18094","84","5","1","win","go","0"
"pit-trial","209","1316803","0.0-89.0","battery-v0.2","","""event"",""trial"",""time""
""fullscreenenter"",""1"",""2021""
","
","
","""event"",""trial"",""time""
""fullscreenenter"",""1"",""2021""
","
","","","936.2000000476837","","","14","18094","6696","w","elianto","#f73b6a7A","-1"," ","0","0","[1786.3999998569489]","1","2","","","18094","85","6","4","lose","no-go","1"
"pit-trial","210","1320060","0.0-90.0","battery-v0.2","","""event"",""trial"",""time""
""fullscreenenter"",""1"",""2021""
","
","
","""event"",""trial"",""time""
""fullscreenenter"",""1"",""2021""
","
","","","403.7000000476837","","","14","18094","6696","e","elianto","#f73b6a7A"," "," ","1","0","[1254.7000000476837]","1","2","","","18094","86","7","3","lose","go","0"
"pit-trial","211","1323589","0.0-91.0","battery-v0.2","","""event"",""trial"",""time""
""fullscreenenter"",""1"",""2021""
","
","
","""event"",""trial"",""time""
""fullscreenenter"",""1"",""2021""
","
","","","669.2999999523163","","","14","18094","6696","p","elianto","#3366ff99","-1"," ","0","0","[1520.2999999523163]","1","2","","","18094","87","4","2","win","no-go","0"
"pit-trial","212","1326996","0.0-92.0","battery-v0.2","","""event"",""trial"",""time""
""fullscreenenter"",""1"",""2021""
","
","
","""event"",""trial"",""time""
""fullscreenenter"",""1"",""2021""
","
","","","553.5","","","14","18094","6696","s","elianto","#3366ff99"," "," ","1","+10","[1403.5]","1","2","","","18094","88","5","1","win","go","0"
"pit-trial","213","1330908","0.0-93.0","battery-v0.2","","""event"",""trial"",""time""
""fullscreenenter"",""1"",""2021""
","
","
","""event"",""trial"",""time""
""fullscreenenter"",""1"",""2021""
","
","","","1053.7000000476837","","","14","18094","6696","p","elianto","#3366ff99","-1"," ","0","0","[1903.8999998569489]","1","2","","","18094","89","4","2","win","no-go","0"
"pit-trial","214","1335761","0.0-94.0","battery-v0.2","","""event"",""trial"",""time""
""fullscreenenter"",""1"",""2021""
","
","
","""event"",""trial"",""time""
""fullscreenenter"",""1"",""2021""
","
","","","-1","","","14","18094","6696","w","elianto","#f73b6a7A","-1","-1","1","-10","[]","0","2","","","18094","90","6","4","lose","no-go","1"
"pit-trial","215","1339229","0.0-95.0","battery-v0.2","","""event"",""trial"",""time""
""fullscreenenter"",""1"",""2021""
","
","
","""event"",""trial"",""time""
""fullscreenenter"",""1"",""2021""
","
","","","614","","","14","18094","6696","s","elianto","#3366ff99"," "," ","1","+10","[1465.1000001430511]","1","2","","","18094","91","5","1","win","go","0"
"pit-trial","216","1343378","0.0-96.0","battery-v0.2","","""event"",""trial"",""time""
""fullscreenenter"",""1"",""2021""
","
","
","""event"",""trial"",""time""
""fullscreenenter"",""1"",""2021""
","
","","","1296.4000000953674","","","14","18094","6696","e","elianto","#f73b6a7A"," "," ","1","0","[2147.2000000476837]","1","2","","","18094","92","7","3","lose","go","0"
"pit-trial","217","1346902","0.0-97.0","battery-v0.2","","""event"",""trial"",""time""
""fullscreenenter"",""1"",""2021""
","
","
","""event"",""trial"",""time""
""fullscreenenter"",""1"",""2021""
","
","","","671.2999999523163","","","14","18094","6696","s","elianto","#3366ff99"," "," ","1","+10","[1521.2999999523163]","1","2","","","18094","93","5","1","win","go","0"
"pit-trial","218","1350534","0.0-98.0","battery-v0.2","","""event"",""trial"",""time""
""fullscreenenter"",""1"",""2021""
","
","
","""event"",""trial"",""time""
""fullscreenenter"",""1"",""2021""
","
","","","765.7000000476837","","","14","18094","6696","e","elianto","#f73b6a7A"," "," ","1","0","[1616.5]","1","2","","","18094","94","7","3","lose","go","0"
"pit-trial","219","1353939","0.0-99.0","battery-v0.2","","""event"",""trial"",""time""
""fullscreenenter"",""1"",""2021""
","
","
","""event"",""trial"",""time""
""fullscreenenter"",""1"",""2021""
","
","","","550.9000000953674","","","14","18094","6696","w","elianto","#f73b6a7A","-1"," ","0","-10","[1402.3000001907349]","1","2","","","18094","95","6","4","lose","no-go","0"
"pit-trial","220","1357488","0.0-100.0","battery-v0.2","","""event"",""trial"",""time""
""fullscreenenter"",""1"",""2021""
","
","
","""event"",""trial"",""time""
""fullscreenenter"",""1"",""2021""
","
","","","696.2999999523163","","","14","18094","6696","d","elianto","#3366ff99","-1"," ","0","0","[1547.2999999523163]","1","2","","","18094","96","8","2","win","no-go","0"
"pit-trial","221","1361008","0.0-101.0","battery-v0.2","","""event"",""trial"",""time""
""fullscreenenter"",""1"",""2021""
","
","
","""event"",""trial"",""time""
""fullscreenenter"",""1"",""2021""
","
","","","665.5","","","14","18094","6696","d","elianto","#3366ff99","-1"," ","0","+10","[1516.2999999523163]","1","2","","","18094","97","8","2","win","no-go","1"
"pit-trial","222","1365210","0.0-102.0","battery-v0.2","","""event"",""trial"",""time""
""fullscreenenter"",""1"",""2021""
","
","
","""event"",""trial"",""time""
""fullscreenenter"",""1"",""2021""
","
","","","1349.6999998092651","","","14","18094","6696","e","elianto","#f73b6a7A"," "," ","1","0","[2200.0999999046326]","1","2","","","18094","98","7","3","lose","go","0"
"pit-trial","223","1368642","0.0-103.0","battery-v0.2","","""event"",""trial"",""time""
""fullscreenenter"",""1"",""2021""
","
","
","""event"",""trial"",""time""
""fullscreenenter"",""1"",""2021""
","
","","","577.8999998569489","","","14","18094","6696","s","elianto","#3366ff99"," "," ","1","+10","[1428.2000000476837]","1","2","","","18094","99","5","1","win","go","0"
"pit-trial","224","1372883","0.0-104.0","battery-v0.2","","""event"",""trial"",""time""
""fullscreenenter"",""1"",""2021""
","
","
","""event"",""trial"",""time""
""fullscreenenter"",""1"",""2021""
","
","","","1387.2000000476837","","","14","18094","6696","w","elianto","#f73b6a7A","-1"," ","0","-10","[2238.100000143051]","1","2","","","18094","100","6","4","lose","no-go","0"
"pit-trial","225","1376469","0.0-105.0","battery-v0.2","","""event"",""trial"",""time""
""fullscreenenter"",""1"",""2021""
","
","
","""event"",""trial"",""time""
""fullscreenenter"",""1"",""2021""
","
","","","732.8999998569489","","","14","18094","6696","s","elianto","#3366ff99"," "," ","1","+10","[1584.5]","1","2","","","18094","101","5","1","win","go","0"
"pit-trial","226","1380124","0.0-106.0","battery-v0.2","","""event"",""trial"",""time""
""fullscreenenter"",""1"",""2021""
","
","
","""event"",""trial"",""time""
""fullscreenenter"",""1"",""2021""
","
","","","802.2000000476837","","","14","18094","6696","w","elianto","#f73b6a7A","-1"," ","0","0","[1652.6000001430511]","1","2","","","18094","102","6","4","lose","no-go","1"
"pit-trial","227","1383637","0.0-107.0","battery-v0.2","","""event"",""trial"",""time""
""fullscreenenter"",""1"",""2021""
","
","
","""event"",""trial"",""time""
""fullscreenenter"",""1"",""2021""
","
","","","660.0999999046326","","","14","18094","6696","d","elianto","#3366ff99","-1"," ","0","+10","[1510.6000001430511]","1","2","","","18094","103","8","2","win","no-go","1"
"pit-trial","228","1387010","0.0-108.0","battery-v0.2","","""event"",""trial"",""time""
""fullscreenenter"",""1"",""2021""
","
","
","""event"",""trial"",""time""
""fullscreenenter"",""1"",""2021""
","
","","","519.4000000953674","","","14","18094","6696","j","elianto","#3366ff99","-1"," ","0","+10","[1370.2000000476837]","1","2","","","18094","104","9","2","win","no-go","1"
"pit-trial","229","1390613","0.0-109.0","battery-v0.2","","""event"",""trial"",""time""
""fullscreenenter"",""1"",""2021""
","
","
","""event"",""trial"",""time""
""fullscreenenter"",""1"",""2021""
","
","","","749.7000000476837","","","14","18094","6696","s","elianto","#3366ff99"," "," ","1","+10","[1600.9000000953674]","1","2","","","18094","105","5","1","win","go","0"
"pit-trial","230","1395466","0.0-110.0","battery-v0.2","","""event"",""trial"",""time""
""fullscreenenter"",""1"",""2021""
","
","
","""event"",""trial"",""time""
""fullscreenenter"",""1"",""2021""
","
","","","-1","","","14","18094","6696","w","elianto","#f73b6a7A","-1","-1","1","0","[]","0","2","","","18094","106","6","4","lose","no-go","0"
"pit-trial","231","1399104","0.0-111.0","battery-v0.2","","""event"",""trial"",""time""
""fullscreenenter"",""1"",""2021""
","
","
","""event"",""trial"",""time""
""fullscreenenter"",""1"",""2021""
","
","","","784.5","","","14","18094","6696","j","elianto","#3366ff99","-1"," ","0","0","[1634.5999999046326]","1","2","","","18094","107","9","2","win","no-go","0"
"pit-trial","232","1402574","0.0-112.0","battery-v0.2","","""event"",""trial"",""time""
""fullscreenenter"",""1"",""2021""
","
","
","""event"",""trial"",""time""
""fullscreenenter"",""1"",""2021""
","
","","","616.1000001430511","","","14","18094","6696","d","elianto","#3366ff99","-1"," ","0","0","[1467.2999999523163]","1","2","","","18094","108","8","2","win","no-go","0"
"pit-trial","233","1406032","0.0-113.0","battery-v0.2","","""event"",""trial"",""time""
""fullscreenenter"",""1"",""2021""
","
","
","""event"",""trial"",""time""
""fullscreenenter"",""1"",""2021""
","
","","","605","","","14","18094","6696","s","elianto","#3366ff99"," "," ","1","+10","[1456]","1","2","","","18094","109","5","1","win","go","0"
"pit-trial","234","1410884","0.0-114.0","battery-v0.2","","""event"",""trial"",""time""
""fullscreenenter"",""1"",""2021""
","
","
","""event"",""trial"",""time""
""fullscreenenter"",""1"",""2021""
","
","","","-1","","","14","18094","6696","w","elianto","#f73b6a7A","-1","-1","1","0","[]","0","2","","","18094","110","6","4","lose","no-go","0"
"pit-trial","235","1414369","0.0-115.0","battery-v0.2","","""event"",""trial"",""time""
""fullscreenenter"",""1"",""2021""
","
","
","""event"",""trial"",""time""
""fullscreenenter"",""1"",""2021""
","
","","","630.0999999046326","","","14","18094","6696","j","elianto","#3366ff99","-1"," ","0","0","[1481.7000000476837]","1","2","","","18094","111","9","2","win","no-go","0"
"pit-trial","236","1417823","0.0-116.0","battery-v0.2","","""event"",""trial"",""time""
""fullscreenenter"",""1"",""2021""
","
","
","""event"",""trial"",""time""
""fullscreenenter"",""1"",""2021""
","
","","","599.7000000476837","","","14","18094","6696","d","elianto","#3366ff99","-1"," ","0","0","[1450.7999999523163]","1","2","","","18094","112","8","2","win","no-go","0"
"pit-trial","237","1421284","0.0-117.0","battery-v0.2","","""event"",""trial"",""time""
""fullscreenenter"",""1"",""2021""
","
","
","""event"",""trial"",""time""
""fullscreenenter"",""1"",""2021""
","
","","","607.5","","","14","18094","6696","d","elianto","#3366ff99","-1"," ","0","+10","[1459.1000001430511]","1","2","","","18094","113","8","2","win","no-go","1"
"pit-trial","238","1424788","0.0-118.0","battery-v0.2","","""event"",""trial"",""time""
""fullscreenenter"",""1"",""2021""
","
","
","""event"",""trial"",""time""
""fullscreenenter"",""1"",""2021""
","
","","","650.0999999046326","","","14","18094","6696","j","elianto","#3366ff99","-1"," ","0","0","[1501.1999998092651]","1","2","","","18094","114","9","2","win","no-go","0"
"pit-trial","239","1428853","0.0-119.0","battery-v0.2","","""event"",""trial"",""time""
""fullscreenenter"",""1"",""2021""
","
","
","""event"",""trial"",""time""
""fullscreenenter"",""1"",""2021""
","
","","","1212.3999998569489","","","14","18094","6696","e","elianto","#f73b6a7A"," "," ","1","0","[2063.2000000476837]","1","2","","","18094","115","7","3","lose","go","0"
"pit-trial","240","1432703","0.0-120.0","battery-v0.2","","""event"",""trial"",""time""
""fullscreenenter"",""1"",""2021""
","
","
","""event"",""trial"",""time""
""fullscreenenter"",""1"",""2021""
","
","","","997.2999999523163","","","14","18094","6696","s","elianto","#3366ff99"," "," ","1","+10","[1847.2999999523163]","1","2","","","18094","116","5","1","win","go","0"
"pit-trial","241","1437556","0.0-121.0","battery-v0.2","","""event"",""trial"",""time""
""fullscreenenter"",""1"",""2021""
","
","
","""event"",""trial"",""time""
""fullscreenenter"",""1"",""2021""
","
","","","-1","","","14","18094","6696","w","elianto","#f73b6a7A","-1","-1","1","0","[]","0","2","","","18094","117","6","4","lose","no-go","0"
"pit-trial","242","1441184","0.0-122.0","battery-v0.2","","""event"",""trial"",""time""
""fullscreenenter"",""1"",""2021""
","
","
","""event"",""trial"",""time""
""fullscreenenter"",""1"",""2021""
","
","","","773.5999999046326","","","14","18094","6696","d","elianto","#3366ff99","-1"," ","0","0","[1624.4000000953674]","1","2","","","18094","118","8","2","win","no-go","0"
"pit-trial","243","1444642","0.0-123.0","battery-v0.2","","""event"",""trial"",""time""
""fullscreenenter"",""1"",""2021""
","
","
","""event"",""trial"",""time""
""fullscreenenter"",""1"",""2021""
","
","","","604.2000000476837","","","14","18094","6696","j","elianto","#3366ff99","-1"," ","0","0","[1455.3000001907349]","1","2","","","18094","119","9","2","win","no-go","0"
"pit-trial","244","1448220","0.0-124.0","battery-v0.2","","""event"",""trial"",""time""
""fullscreenenter"",""1"",""2021""
","
","
","""event"",""trial"",""time""
""fullscreenenter"",""1"",""2021""
","
","","","724.2999999523163","","","14","18094","6696","s","elianto","#3366ff99"," "," ","1","+10","[1575.5999999046326]","1","2","","","18094","120","5","1","win","go","0"
"pit-trial","245","1451670","0.0-125.0","battery-v0.2","","""event"",""trial"",""time""
""fullscreenenter"",""1"",""2021""
","
","
","""event"",""trial"",""time""
""fullscreenenter"",""1"",""2021""
","
","","","596.0999999046326","","","14","18094","6696","s","elianto","#3366ff99"," "," ","1","0","[1447.4000000953674]","1","2","","","18094","121","5","1","win","go","1"
"pit-trial","246","1455684","0.0-126.0","battery-v0.2","","""event"",""trial"",""time""
""fullscreenenter"",""1"",""2021""
","
","
","""event"",""trial"",""time""
""fullscreenenter"",""1"",""2021""
","
","","","1160.0999999046326","","","14","18094","6696","e","elianto","#f73b6a7A"," "," ","1","0","[2010.9000000953674]","1","2","","","18094","122","7","3","lose","go","0"
"pit-trial","247","1459123","0.0-127.0","battery-v0.2","","""event"",""trial"",""time""
""fullscreenenter"",""1"",""2021""
","
","
","""event"",""trial"",""time""
""fullscreenenter"",""1"",""2021""
","
","","","584.1999998092651","","","14","18094","6696","j","elianto","#3366ff99","-1"," ","0","0","[1435.2999999523163]","1","2","","","18094","123","9","2","win","no-go","0"
"pit-trial","248","1462546","0.0-128.0","battery-v0.2","","""event"",""trial"",""time""
""fullscreenenter"",""1"",""2021""
","
","
","""event"",""trial"",""time""
""fullscreenenter"",""1"",""2021""
","
","","","569.2999999523163","","","14","18094","6696","d","elianto","#3366ff99","-1"," ","0","+10","[1420.5999999046326]","1","2","","","18094","124","8","2","win","no-go","1"
"pit-trial","249","1465929","0.0-129.0","battery-v0.2","","""event"",""trial"",""time""
""fullscreenenter"",""1"",""2021""
","
","
","""event"",""trial"",""time""
""fullscreenenter"",""1"",""2021""
","
","","","530.5","","","14","18094","6696","d","elianto","#3366ff99","-1"," ","0","0","[1381.4000000953674]","1","2","","","18094","125","8","2","win","no-go","0"
"pit-trial","250","1470783","0.0-130.0","battery-v0.2","","""event"",""trial"",""time""
""fullscreenenter"",""1"",""2021""
","
","
","""event"",""trial"",""time""
""fullscreenenter"",""1"",""2021""
","
","","","-1","","","14","18094","6696","w","elianto","#f73b6a7A","-1","-1","1","-10","[]","0","2","","","18094","126","6","4","lose","no-go","1"
"pit-trial","251","1474516","0.0-131.0","battery-v0.2","","""event"",""trial"",""time""
""fullscreenenter"",""1"",""2021""
","
","
","""event"",""trial"",""time""
""fullscreenenter"",""1"",""2021""
","
","","","878.8000001907349","","","14","18094","6696","e","elianto","#f73b6a7A"," "," ","1","0","[1729.7000000476837]","1","2","","","18094","127","7","3","lose","go","0"
"pit-trial","252","1477925","0.0-132.0","battery-v0.2","","""event"",""trial"",""time""
""fullscreenenter"",""1"",""2021""
","
","
","""event"",""trial"",""time""
""fullscreenenter"",""1"",""2021""
","
","","","555.6000001430511","","","14","18094","6696","j","elianto","#3366ff99","-1"," ","0","0","[1406.5]","1","2","","","18094","128","9","2","win","no-go","0"
"pit-trial","253","1481468","0.0-133.0","battery-v0.2","","""event"",""trial"",""time""
""fullscreenenter"",""1"",""2021""
","
","
","""event"",""trial"",""time""
""fullscreenenter"",""1"",""2021""
","
","","","689","","","14","18094","6696","w","elianto","#f73b6a7A","-1"," ","0","-10","[1539.6000001430511]","1","2","","","18094","129","6","4","lose","no-go","0"
"pit-trial","254","1486320","0.0-134.0","battery-v0.2","","""event"",""trial"",""time""
""fullscreenenter"",""1"",""2021""
","
","
","""event"",""trial"",""time""
""fullscreenenter"",""1"",""2021""
","
","","","-1","","","14","18094","6696","e","elianto","#f73b6a7A"," ","-1","0","0","[2966.4000000953674]","1","2","","","18094","130","7","3","lose","go","1"
"pit-trial","255","1489749","0.0-135.0","battery-v0.2","","""event"",""trial"",""time""
""fullscreenenter"",""1"",""2021""
","
","
","""event"",""trial"",""time""
""fullscreenenter"",""1"",""2021""
","
","","","574.2999999523163","","","14","18094","6696","d","elianto","#3366ff99","-1"," ","0","0","[1425.2999999523163]","1","2","","","18094","131","8","2","win","no-go","0"
"pit-trial","256","1493291","0.0-136.0","battery-v0.2","","""event"",""trial"",""time""
""fullscreenenter"",""1"",""2021""
","
","
","""event"",""trial"",""time""
""fullscreenenter"",""1"",""2021""
","
","","","688.2000000476837","","","14","18094","6696","j","elianto","#3366ff99","-1"," ","0","0","[1539]","1","2","","","18094","132","9","2","win","no-go","0"
"pit-trial","257","1496945","0.0-137.0","battery-v0.2","","""event"",""trial"",""time""
""fullscreenenter"",""1"",""2021""
","
","
","""event"",""trial"",""time""
""fullscreenenter"",""1"",""2021""
","
","","","800.5999999046326","","","14","18094","6696","d","elianto","#3366ff99","-1"," ","0","+10","[1652]","1","2","","","18094","133","8","2","win","no-go","1"
"pit-trial","258","1500372","0.0-138.0","battery-v0.2","","""event"",""trial"",""time""
""fullscreenenter"",""1"",""2021""
","
","
","""event"",""trial"",""time""
""fullscreenenter"",""1"",""2021""
","
","","","574","","","14","18094","6696","j","elianto","#3366ff99","-1"," ","0","0","[1423.9000000953674]","1","2","","","18094","134","9","2","win","no-go","0"
"pit-trial","259","1504562","0.0-139.0","battery-v0.2","","""event"",""trial"",""time""
""fullscreenenter"",""1"",""2021""
","
","
","""event"",""trial"",""time""
""fullscreenenter"",""1"",""2021""
","
","","","1336.7000000476837","","","14","18094","6696","w","elianto","#f73b6a7A","-1"," ","0","-10","[2187.2999999523163]","1","2","","","18094","135","6","4","lose","no-go","0"
"pit-trial","260","1508151","0.0-140.0","battery-v0.2","","""event"",""trial"",""time""
""fullscreenenter"",""1"",""2021""
","
","
","""event"",""trial"",""time""
""fullscreenenter"",""1"",""2021""
","
","","","735.5","","","14","18094","6696","e","elianto","#f73b6a7A"," "," ","1","0","[1586.7999999523163]","1","2","","","18094","136","7","3","lose","go","0"
"pit-trial","261","1512524","0.0-141.0","battery-v0.2","","""event"",""trial"",""time""
""fullscreenenter"",""1"",""2021""
","
","
","""event"",""trial"",""time""
""fullscreenenter"",""1"",""2021""
","
","","","1512.2000000476837","","","14","18094","6696","w","elianto","#f73b6a7A","-1"," ","0","-10","[2362.5]","1","2","","","18094","137","6","4","lose","no-go","0"
"pit-trial","262","1516071","0.0-142.0","battery-v0.2","","""event"",""trial"",""time""
""fullscreenenter"",""1"",""2021""
","
","
","""event"",""trial"",""time""
""fullscreenenter"",""1"",""2021""
","
","","","694.5","","","14","18094","6696","e","elianto","#f73b6a7A"," "," ","1","0","[1544.7999999523163]","1","2","","","18094","138","7","3","lose","go","0"
"pit-trial","263","1519482","0.0-143.0","battery-v0.2","","""event"",""trial"",""time""
""fullscreenenter"",""1"",""2021""
","
","
","""event"",""trial"",""time""
""fullscreenenter"",""1"",""2021""
","
","","","556.7999999523163","","","14","18094","6696","j","elianto","#3366ff99","-1"," ","0","0","[1407.5999999046326]","1","2","","","18094","139","9","2","win","no-go","0"
"pit-trial","264","1523113","0.0-144.0","battery-v0.2","","""event"",""trial"",""time""
""fullscreenenter"",""1"",""2021""
","
","
","""event"",""trial"",""time""
""fullscreenenter"",""1"",""2021""
","
