"trial_type","trial_index","time_elapsed","internal_node_id","task_version","subject_id","interactions","blur_events","focus_events","fullscreenenter_events","fullscreenexit_events","success","view_history","rt","responses","num_errors","age","subject","participantId","rune","rune_set","hex","correct","choice","accuracy","outcome","keys","total_keys","block","practice","value","sub","trial","stimulus","robot","valence","action","sham"
"pavlovia","0","12","0.0-0.0","battery-v0.2","","""event"",""trial"",""time""
""fullscreenenter"",""1"",""1993""
","
","
","""event"",""trial"",""time""
""fullscreenenter"",""1"",""1993""
","
","","","","","","","","","","","","","","","","","","","","","","","","","","",""
"fullscreen","1","2985","0.0-1.0","battery-v0.2","","""event"",""trial"",""time""
""fullscreenenter"",""1"",""1993""
","
","
","""event"",""trial"",""time""
""fullscreenenter"",""1"",""1993""
","
","true","","","","","","","","","","","","","","","","","","","","","","","","","",""
"pit-instructions","2","6486","0.0-2.0-0.0","battery-v0.2","","""event"",""trial"",""time""
""fullscreenenter"",""1"",""1993""
","
","
","""event"",""trial"",""time""
""fullscreenenter"",""1"",""1993""
","
","","[{""page_index"":0,""viewing_time"":3497.800000190735}]","3498.4000000953674","","","","","","","","","","","","","","","","","","","","","","","",""
"pit-comprehension","3","10879","0.0-2.0-1.0-0.0","battery-v0.2","","""event"",""trial"",""time""
""fullscreenenter"",""1"",""1993""
","
","
","""event"",""trial"",""time""
""fullscreenenter"",""1"",""1993""
","
","","","4390","[""shark""]","0","10","3560","2856","","","","","","","","","","","","","","","","","","",""
"pit-instructions","4","16899","0.0-2.0-1.0-1.0","battery-v0.2","","""event"",""trial"",""time""
""fullscreenenter"",""1"",""1993""
","
","
","""event"",""trial"",""time""
""fullscreenenter"",""1"",""1993""
","
","","[{""page_index"":0,""viewing_time"":6010.600000143051}]","6010.799999952316","","","","","","","","","","","","","","","","","","","","","","","",""
"pit-comprehension","5","20034","0.0-2.0-2.0-0.0","battery-v0.2","","""event"",""trial"",""time""
""fullscreenenter"",""1"",""1993""
","
","
","""event"",""trial"",""time""
""fullscreenenter"",""1"",""1993""
","
","","","3131.699999809265","[""tiger""]","0","10","3560","2856","","","","","","","","","","","","","","","","","","",""
"pit-instructions","6","22249","0.0-2.0-2.0-1.0","battery-v0.2","","""event"",""trial"",""time""
""fullscreenenter"",""1"",""1993""
","
","
","""event"",""trial"",""time""
""fullscreenenter"",""1"",""1993""
","
","","[{""page_index"":0,""viewing_time"":2213}]","2213.2999999523163","","","","","","","","","","","","","","","","","","","","","","","",""
"pit-instructions","7","135825","0.0-2.0-3.0","battery-v0.2","","""event"",""trial"",""time""
""fullscreenenter"",""1"",""1993""
","
","
","""event"",""trial"",""time""
""fullscreenenter"",""1"",""1993""
","
","","[{""page_index"":0,""viewing_time"":10559.599999904633},{""page_index"":1,""viewing_time"":7714},{""page_index"":2,""viewing_time"":7873.299999952316},{""page_index"":3,""viewing_time"":6285.5},{""page_index"":4,""viewing_time"":7413.299999952316},{""page_index"":5,""viewing_time"":6048.600000143051},{""page_index"":6,""viewing_time"":7746.899999856949},{""page_index"":7,""viewing_time"":7149.300000190735},{""page_index"":8,""viewing_time"":11721.5},{""page_index"":9,""viewing_time"":9038.699999809265},{""page_index"":10,""viewing_time"":8382.300000190735},{""page_index"":11,""viewing_time"":10000.899999856949},{""page_index"":12,""viewing_time"":6808},{""page_index"":13,""viewing_time"":6831.100000143051}]","113573.39999985695","","","","","","","","","","","","","","","","","","","","","","","",""
"pit-trial","8","139407","0.0-2.0-4.0-0.0","battery-v0.2","","""event"",""trial"",""time""
""fullscreenenter"",""1"",""1993""
","
","
","""event"",""trial"",""time""
""fullscreenenter"",""1"",""1993""
","
","","","703.8999998569489","","","10","3560","2856","&#9784;","elianto","#FFFFF080"," "," ","1","&#10004","[1556.9000000953674]","1","0","0","","","","","","","",""
"pit-trial","9","143557","0.0-2.0-4.1-0.1","battery-v0.2","","""event"",""trial"",""time""
""fullscreenenter"",""1"",""1993""
","
","
","""event"",""trial"",""time""
""fullscreenenter"",""1"",""1993""
","
","","","1271.5999999046326","","","10","3560","2856","&#9784;","elianto","#FFFFF080"," "," ","1","&#10004","[2126.9000000953674]","1","0","0","","","","","","","",""
"pit-trial","10","146959","0.0-2.0-4.2-0.2","battery-v0.2","","""event"",""trial"",""time""
""fullscreenenter"",""1"",""1993""
","
","
","""event"",""trial"",""time""
""fullscreenenter"",""1"",""1993""
","
","","","529.8000001907349","","","10","3560","2856","&#9784;","elianto","#FFFFF080"," "," ","1","&#10004","[1387.2999999523163]","1","0","0","","","","","","","",""
"pit-trial","11","150359","0.0-2.0-4.3-0.3","battery-v0.2","","""event"",""trial"",""time""
""fullscreenenter"",""1"",""1993""
","
","
","""event"",""trial"",""time""
""fullscreenenter"",""1"",""1993""
","
","","","535.0999999046326","","","10","3560","2856","&#9784;","elianto","#FFFFF080"," "," ","1","&#10004","[1390.8999998569489]","1","0","0","","","","","","","",""
"pit-trial","12","154283","0.0-2.0-4.4-0.4","battery-v0.2","","""event"",""trial"",""time""
""fullscreenenter"",""1"",""1993""
","
","
","""event"",""trial"",""time""
""fullscreenenter"",""1"",""1993""
","
","","","1056.7000000476837","","","10","3560","2856","&#9784;","elianto","#FFFFF080"," "," ","1","&#10004","[1912.2999999523163]","1","0","0","","","","","","","",""
"pit-instructions","13","176475","0.0-2.0-5.0","battery-v0.2","","""event"",""trial"",""time""
""fullscreenenter"",""1"",""1993""
","
","
","""event"",""trial"",""time""
""fullscreenenter"",""1"",""1993""
","
","","[{""page_index"":0,""viewing_time"":6319.099999904633},{""page_index"":1,""viewing_time"":5329.299999952316},{""page_index"":2,""viewing_time"":5032.200000047684},{""page_index"":3,""viewing_time"":5507.600000143051}]","22188.599999904633","","","","","","","","","","","","","","","","","","","","","","","",""
"pit-trial","14","181353","0.0-2.0-6.0-0.0","battery-v0.2","","""event"",""trial"",""time""
""fullscreenenter"",""1"",""1993""
","
","
","""event"",""trial"",""time""
""fullscreenenter"",""1"",""1993""
","
","","","-1","","","10","3560","2856","&#9854;","elianto","#FFFFF080","-1","-1","1","&#10004","[]","0","0","1","","","","","","","",""
"pit-trial","15","186230","0.0-2.0-6.1-0.1","battery-v0.2","","""event"",""trial"",""time""
""fullscreenenter"",""1"",""1993""
","
","
","""event"",""trial"",""time""
""fullscreenenter"",""1"",""1993""
","
","","","-1","","","10","3560","2856","&#9854;","elianto","#FFFFF080","-1","-1","1","&#10004","[]","0","0","1","","","","","","","",""
"pit-trial","16","191098","0.0-2.0-6.2-0.2","battery-v0.2","","""event"",""trial"",""time""
""fullscreenenter"",""1"",""1993""
","
","
","""event"",""trial"",""time""
""fullscreenenter"",""1"",""1993""
","
","","","-1","","","10","3560","2856","&#9854;","elianto","#FFFFF080","-1","-1","1","&#10004","[]","0","0","1","","","","","","","",""
"pit-trial","17","195970","0.0-2.0-6.3-0.3","battery-v0.2","","""event"",""trial"",""time""
""fullscreenenter"",""1"",""1993""
","
","
","""event"",""trial"",""time""
""fullscreenenter"",""1"",""1993""
","
","","","-1","","","10","3560","2856","&#9854;","elianto","#FFFFF080","-1","-1","1","&#10004","[]","0","0","1","","","","","","","",""
"pit-trial","18","200852","0.0-2.0-6.4-0.4","battery-v0.2","","""event"",""trial"",""time""
""fullscreenenter"",""1"",""1993""
","
","
","""event"",""trial"",""time""
""fullscreenenter"",""1"",""1993""
","
","","","-1","","","10","3560","2856","&#9854;","elianto","#FFFFF080","-1","-1","1","&#10004","[]","0","0","1","","","","","","","",""
"pit-instructions","19","360667","0.0-2.0-7.0","battery-v0.2","","""event"",""trial"",""time""
""fullscreenenter"",""1"",""1993""
","
","
","""event"",""trial"",""time""
""fullscreenenter"",""1"",""1993""
","
","","[{""page_index"":0,""viewing_time"":10889.300000190735},{""page_index"":1,""viewing_time"":8031.299999952316},{""page_index"":2,""viewing_time"":6532.700000047684},{""page_index"":3,""viewing_time"":6452.699999809265},{""page_index"":4,""viewing_time"":5380.800000190735},{""page_index"":5,""viewing_time"":8583.5},{""page_index"":6,""viewing_time"":8443.399999856949},{""page_index"":7,""viewing_time"":19905.5},{""page_index"":8,""viewing_time"":7049.799999952316},{""page_index"":9,""viewing_time"":7876.400000095367},{""page_index"":10,""viewing_time"":6797.299999952316},{""page_index"":11,""viewing_time"":4253},{""page_index"":12,""viewing_time"":6801.100000143051},{""page_index"":13,""viewing_time"":7522.299999952316},{""page_index"":14,""viewing_time"":9457.5},{""page_index"":15,""viewing_time"":7969},{""page_index"":16,""viewing_time"":20087.5},{""page_index"":17,""viewing_time"":7779.299999952316}]","159812.80000019073","","","","","","","","","","","","","","","","","","","","","","","",""
"pit-trial","20","364593","0.0-2.0-8.0-0.0","battery-v0.2","","""event"",""trial"",""time""
""fullscreenenter"",""1"",""1993""
","
","
","""event"",""trial"",""time""
""fullscreenenter"",""1"",""1993""
","
","","","1059.2000000476837","","","10","3560","2856","&#9776;","elianto","#3366ff99"," "," ","1","+10","[1911.8999998569489]","1","0","1","","","","","","","",""
"pit-trial","21","368012","0.0-2.0-8.0-1.0","battery-v0.2","","""event"",""trial"",""time""
""fullscreenenter"",""1"",""1993""
","
","
","""event"",""trial"",""time""
""fullscreenenter"",""1"",""1993""
","
","","","554","","","10","3560","2856","&#9776;","elianto","#3366ff99"," "," ","1","+10","[1409.0999999046326]","1","0","1","","","","","","","",""
"pit-trial","22","371420","0.0-2.0-8.0-2.0","battery-v0.2","","""event"",""trial"",""time""
""fullscreenenter"",""1"",""1993""
","
","
","""event"",""trial"",""time""
""fullscreenenter"",""1"",""1993""
","
","","","541.7999999523163","","","10","3560","2856","&#9776;","elianto","#3366ff99"," "," ","1","+10","[1392.4000000953674]","1","0","1","","","","","","","",""
"pit-trial","23","374792","0.0-2.0-8.0-3.0","battery-v0.2","","""event"",""trial"",""time""
""fullscreenenter"",""1"",""1993""
","
","
","""event"",""trial"",""time""
""fullscreenenter"",""1"",""1993""
","
","","","502.5","","","10","3560","2856","&#9776;","elianto","#3366ff99"," "," ","1","0","[1355.2000000476837]","1","0","1","","","","","","","",""
"pit-trial","24","378201","0.0-2.0-8.0-4.0","battery-v0.2","","""event"",""trial"",""time""
""fullscreenenter"",""1"",""1993""
","
","
","""event"",""trial"",""time""
""fullscreenenter"",""1"",""1993""
","
","","","539.3000001907349","","","10","3560","2856","&#9776;","elianto","#3366ff99"," "," ","1","+10","[1394.3000001907349]","1","0","1","","","","","","","",""
"pit-trial","25","381550","0.0-2.0-8.1-0.1","battery-v0.2","","""event"",""trial"",""time""
""fullscreenenter"",""1"",""1993""
","
","
","""event"",""trial"",""time""
""fullscreenenter"",""1"",""1993""
","
","","","479.2000000476837","","","10","3560","2856","&#9776;","elianto","#3366ff99"," "," ","1","+10","[1331.7000000476837]","1","0","1","","","","","","","",""
"pit-trial","26","384907","0.0-2.0-8.1-1.1","battery-v0.2","","""event"",""trial"",""time""
""fullscreenenter"",""1"",""1993""
","
","
","""event"",""trial"",""time""
""fullscreenenter"",""1"",""1993""
","
","","","489.59999990463257","","","10","3560","2856","&#9776;","elianto","#3366ff99"," "," ","1","+10","[1343.2000000476837]","1","0","1","","","","","","","",""
"pit-trial","27","388250","0.0-2.0-8.1-2.1","battery-v0.2","","""event"",""trial"",""time""
""fullscreenenter"",""1"",""1993""
","
","
","""event"",""trial"",""time""
""fullscreenenter"",""1"",""1993""
","
","","","476.40000009536743","","","10","3560","2856","&#9776;","elianto","#3366ff99"," "," ","1","+10","[1329.1000001430511]","1","0","1","","","","","","","",""
"pit-trial","28","391601","0.0-2.0-8.1-3.1","battery-v0.2","","""event"",""trial"",""time""
""fullscreenenter"",""1"",""1993""
","
","
","""event"",""trial"",""time""
""fullscreenenter"",""1"",""1993""
","
","","","494.2999999523163","","","10","3560","2856","&#9776;","elianto","#3366ff99"," "," ","1","0","[1347.2000000476837]","1","0","1","","","","","","","",""
"pit-trial","29","394912","0.0-2.0-8.1-4.1","battery-v0.2","","""event"",""trial"",""time""
""fullscreenenter"",""1"",""1993""
","
","
","""event"",""trial"",""time""
""fullscreenenter"",""1"",""1993""
","
","","","448.30000019073486","","","10","3560","2856","&#9776;","elianto","#3366ff99"," "," ","1","+10","[1300.1000001430511]","1","0","1","","","","","","","",""
"pit-trial","30","398257","0.0-2.0-8.2-0.2","battery-v0.2","","""event"",""trial"",""time""
""fullscreenenter"",""1"",""1993""
","
","
","""event"",""trial"",""time""
""fullscreenenter"",""1"",""1993""
","
","","","481.7999999523163","","","10","3560","2856","&#9776;","elianto","#3366ff99"," "," ","1","+10","[1336.8999998569489]","1","0","1","","","","","","","",""
"pit-trial","31","401618","0.0-2.0-8.2-1.2","battery-v0.2","","""event"",""trial"",""time""
""fullscreenenter"",""1"",""1993""
","
","
","""event"",""trial"",""time""
""fullscreenenter"",""1"",""1993""
","
","","","495.5","","","10","3560","2856","&#9776;","elianto","#3366ff99"," "," ","1","+10","[1349.6999998092651]","1","0","1","","","","","","","",""
"pit-trial","32","404913","0.0-2.0-8.2-2.2","battery-v0.2","","""event"",""trial"",""time""
""fullscreenenter"",""1"",""1993""
","
","
","""event"",""trial"",""time""
""fullscreenenter"",""1"",""1993""
","
","","","440.89999985694885","","","10","3560","2856","&#9776;","elianto","#3366ff99"," "," ","1","+10","[1291.5]","1","0","1","","","","","","","",""
"pit-trial","33","408273","0.0-2.0-8.2-3.2","battery-v0.2","","""event"",""trial"",""time""
""fullscreenenter"",""1"",""1993""
","
","
","""event"",""trial"",""time""
""fullscreenenter"",""1"",""1993""
","
","","","502.10000014305115","","","10","3560","2856","&#9776;","elianto","#3366ff99"," "," ","1","0","[1356.3000001907349]","1","0","1","","","","","","","",""
"pit-trial","34","411570","0.0-2.0-8.2-4.2","battery-v0.2","","""event"",""trial"",""time""
""fullscreenenter"",""1"",""1993""
","
","
","""event"",""trial"",""time""
""fullscreenenter"",""1"",""1993""
","
","","","434.09999990463257","","","10","3560","2856","&#9776;","elianto","#3366ff99"," "," ","1","+10","[1288.7000000476837]","1","0","1","","","","","","","",""
"call-function","35","411571","0.0-2.0-9.0","battery-v0.2","","""event"",""trial"",""time""
""fullscreenenter"",""1"",""1993""
","
","
","""event"",""trial"",""time""
""fullscreenenter"",""1"",""1993""
","
","","","","","","","","","","","","","","","","","","","","","","","","","","",""
"pit-instructions","36","485918","0.0-2.0-10.0","battery-v0.2","","""event"",""trial"",""time""
""fullscreenenter"",""1"",""1993""
","
","
","""event"",""trial"",""time""
""fullscreenenter"",""1"",""1993""
","
","","[{""page_index"":0,""viewing_time"":6171.5},{""page_index"":1,""viewing_time"":7596.599999904633},{""page_index"":2,""viewing_time"":12365.5},{""page_index"":3,""viewing_time"":38981.200000047684},{""page_index"":4,""viewing_time"":9231.299999952316}]","74346.5","","","","","","","","","","","","","","","","","","","","","","","",""
"pit-trial","37","490118","0.0-2.0-11.0-0.0","battery-v0.2","","""event"",""trial"",""time""
""fullscreenenter"",""1"",""1993""
","
","
","""event"",""trial"",""time""
""fullscreenenter"",""1"",""1993""
","
","","","1320.9000000953674","","","10","3560","2856","&#9761;","elianto","#3366ff99","-1"," ","0","0","[2178.5]","1","0","2","","","","","","","",""
"pit-trial","38","493846","0.0-2.0-11.0-1.0","battery-v0.2","","""event"",""trial"",""time""
""fullscreenenter"",""1"",""1993""
","
","
","""event"",""trial"",""time""
""fullscreenenter"",""1"",""1993""
","
","","","853","","","10","3560","2856","&#9761;","elianto","#3366ff99","-1"," ","0","0","[1711.5]","1","0","2","","","","","","","",""
"pit-trial","39","498723","0.0-2.0-11.0-2.0","battery-v0.2","","""event"",""trial"",""time""
""fullscreenenter"",""1"",""1993""
","
","
","""event"",""trial"",""time""
""fullscreenenter"",""1"",""1993""
","
","","","-1","","","10","3560","2856","&#9761;","elianto","#3366ff99","-1","-1","1","+10","[]","0","0","2","","","","","","","",""
"pit-trial","40","503600","0.0-2.0-11.0-3.0","battery-v0.2","","""event"",""trial"",""time""
""fullscreenenter"",""1"",""1993""
","
","
","""event"",""trial"",""time""
""fullscreenenter"",""1"",""1993""
","
","","","-1","","","10","3560","2856","&#9761;","elianto","#3366ff99","-1","-1","1","0","[]","0","0","2","","","","","","","",""
"pit-trial","41","508472","0.0-2.0-11.0-4.0","battery-v0.2","","""event"",""trial"",""time""
""fullscreenenter"",""1"",""1993""
","
","
","""event"",""trial"",""time""
""fullscreenenter"",""1"",""1993""
","
","","","-1","","","10","3560","2856","&#9761;","elianto","#3366ff99","-1","-1","1","+10","[]","0","0","2","","","","","","","",""
"pit-trial","42","513349","0.0-2.0-11.1-0.1","battery-v0.2","","""event"",""trial"",""time""
""fullscreenenter"",""1"",""1993""
","
","
","""event"",""trial"",""time""
""fullscreenenter"",""1"",""1993""
","
","","","-1","","","10","3560","2856","&#9761;","elianto","#3366ff99","-1","-1","1","+10","[]","0","0","2","","","","","","","",""
"pit-trial","43","518209","0.0-2.0-11.1-1.1","battery-v0.2","","""event"",""trial"",""time""
""fullscreenenter"",""1"",""1993""
","
","
","""event"",""trial"",""time""
""fullscreenenter"",""1"",""1993""
","
","","","-1","","","10","3560","2856","&#9761;","elianto","#3366ff99","-1","-1","1","+10","[]","0","0","2","","","","","","","",""
"pit-trial","44","523076","0.0-2.0-11.1-2.1","battery-v0.2","","""event"",""trial"",""time""
""fullscreenenter"",""1"",""1993""
","
","
","""event"",""trial"",""time""
""fullscreenenter"",""1"",""1993""
","
","","","-1","","","10","3560","2856","&#9761;","elianto","#3366ff99","-1","-1","1","+10","[]","0","0","2","","","","","","","",""
"pit-trial","45","527937","0.0-2.0-11.1-3.1","battery-v0.2","","""event"",""trial"",""time""
""fullscreenenter"",""1"",""1993""
","
","
","""event"",""trial"",""time""
""fullscreenenter"",""1"",""1993""
","
","","","-1","","","10","3560","2856","&#9761;","elianto","#3366ff99","-1","-1","1","0","[]","0","0","2","","","","","","","",""
"pit-trial","46","532801","0.0-2.0-11.1-4.1","battery-v0.2","","""event"",""trial"",""time""
""fullscreenenter"",""1"",""1993""
","
","
","""event"",""trial"",""time""
""fullscreenenter"",""1"",""1993""
","
","","","-1","","","10","3560","2856","&#9761;","elianto","#3366ff99","-1","-1","1","+10","[]","0","0","2","","","","","","","",""
"pit-trial","47","537676","0.0-2.0-11.2-0.2","battery-v0.2","","""event"",""trial"",""time""
""fullscreenenter"",""1"",""1993""
","
","
","""event"",""trial"",""time""
""fullscreenenter"",""1"",""1993""
","
","","","-1","","","10","3560","2856","&#9761;","elianto","#3366ff99","-1","-1","1","+10","[]","0","0","2","","","","","","","",""
"pit-trial","48","542538","0.0-2.0-11.2-1.2","battery-v0.2","","""event"",""trial"",""time""
""fullscreenenter"",""1"",""1993""
","
","
","""event"",""trial"",""time""
""fullscreenenter"",""1"",""1993""
","
","","","-1","","","10","3560","2856","&#9761;","elianto","#3366ff99","-1","-1","1","+10","[]","0","0","2","","","","","","","",""
"pit-trial","49","547401","0.0-2.0-11.2-2.2","battery-v0.2","","""event"",""trial"",""time""
""fullscreenenter"",""1"",""1993""
","
","
","""event"",""trial"",""time""
""fullscreenenter"",""1"",""1993""
","
","","","-1","","","10","3560","2856","&#9761;","elianto","#3366ff99","-1","-1","1","+10","[]","0","0","2","","","","","","","",""
"pit-trial","50","552265","0.0-2.0-11.2-3.2","battery-v0.2","","""event"",""trial"",""time""
""fullscreenenter"",""1"",""1993""
","
","
","""event"",""trial"",""time""
""fullscreenenter"",""1"",""1993""
","
","","","-1","","","10","3560","2856","&#9761;","elianto","#3366ff99","-1","-1","1","0","[]","0","0","2","","","","","","","",""
"pit-trial","51","557137","0.0-2.0-11.2-4.2","battery-v0.2","","""event"",""trial"",""time""
""fullscreenenter"",""1"",""1993""
","
","
","""event"",""trial"",""time""
""fullscreenenter"",""1"",""1993""
","
","","","-1","","","10","3560","2856","&#9761;","elianto","#3366ff99","-1","-1","1","+10","[]","0","0","2","","","","","","","",""
"pit-trial","52","562019","0.0-2.0-11.3-0.3","battery-v0.2","","""event"",""trial"",""time""
""fullscreenenter"",""1"",""1993""
","
","
","""event"",""trial"",""time""
""fullscreenenter"",""1"",""1993""
","
","","","-1","","","10","3560","2856","&#9761;","elianto","#3366ff99","-1","-1","1","+10","[]","0","0","2","","","","","","","",""
"pit-trial","53","566881","0.0-2.0-11.3-1.3","battery-v0.2","","""event"",""trial"",""time""
""fullscreenenter"",""1"",""1993""
","
","
","""event"",""trial"",""time""
""fullscreenenter"",""1"",""1993""
","
","","","-1","","","10","3560","2856","&#9761;","elianto","#3366ff99","-1","-1","1","+10","[]","0","0","2","","","","","","","",""
"pit-trial","54","571745","0.0-2.0-11.3-2.3","battery-v0.2","","""event"",""trial"",""time""
""fullscreenenter"",""1"",""1993""
","
","
","""event"",""trial"",""time""
""fullscreenenter"",""1"",""1993""
","
","","","-1","","","10","3560","2856","&#9761;","elianto","#3366ff99","-1","-1","1","+10","[]","0","0","2","","","","","","","",""
"pit-trial","55","576609","0.0-2.0-11.3-3.3","battery-v0.2","","""event"",""trial"",""time""
""fullscreenenter"",""1"",""1993""
","
","
","""event"",""trial"",""time""
""fullscreenenter"",""1"",""1993""
","
","","","-1","","","10","3560","2856","&#9761;","elianto","#3366ff99","-1","-1","1","0","[]","0","0","2","","","","","","","",""
"pit-trial","56","581474","0.0-2.0-11.3-4.3","battery-v0.2","","""event"",""trial"",""time""
""fullscreenenter"",""1"",""1993""
","
","
","""event"",""trial"",""time""
""fullscreenenter"",""1"",""1993""
","
","","","-1","","","10","3560","2856","&#9761;","elianto","#3366ff99","-1","-1","1","+10","[]","0","0","2","","","","","","","",""
"call-function","57","581475","0.0-2.0-12.0","battery-v0.2","","""event"",""trial"",""time""
""fullscreenenter"",""1"",""1993""
","
","
","""event"",""trial"",""time""
""fullscreenenter"",""1"",""1993""
","
","","","","","","","","","","","","","","","","","","","","","","","","","","",""
"pit-instructions","58","626498","0.0-2.0-13.0","battery-v0.2","","""event"",""trial"",""time""
""fullscreenenter"",""1"",""1993""
","
","
","""event"",""trial"",""time""
""fullscreenenter"",""1"",""1993""
","
","","[{""page_index"":0,""viewing_time"":11422.799999952316},{""page_index"":1,""viewing_time"":7830.5},{""page_index"":2,""viewing_time"":7855},{""page_index"":3,""viewing_time"":10555.400000095367},{""page_index"":4,""viewing_time"":7359.799999952316}]","45023.799999952316","","","","","","","","","","","","","","","","","","","","","","","",""
"pit-trial","59","631380","0.0-2.0-14.0-0.0","battery-v0.2","","""event"",""trial"",""time""
""fullscreenenter"",""1"",""1993""
","
","
","""event"",""trial"",""time""
""fullscreenenter"",""1"",""1993""
","
","","","-1","","","10","3560","2856","&#9826;","elianto","#f73b6a7A","-1","-1","1","0","[]","0","0","3","","","","","","","",""
"pit-trial","60","636262","0.0-2.0-14.0-1.0","battery-v0.2","","""event"",""trial"",""time""
""fullscreenenter"",""1"",""1993""
","
","
","""event"",""trial"",""time""
""fullscreenenter"",""1"",""1993""
","
","","","-1","","","10","3560","2856","&#9826;","elianto","#f73b6a7A","-1","-1","1","0","[]","0","0","3","","","","","","","",""
"pit-trial","61","641136","0.0-2.0-14.0-2.0","battery-v0.2","","""event"",""trial"",""time""
""fullscreenenter"",""1"",""1993""
","
","
","""event"",""trial"",""time""
""fullscreenenter"",""1"",""1993""
","
","","","-1","","","10","3560","2856","&#9826;","elianto","#f73b6a7A","-1","-1","1","0","[]","0","0","3","","","","","","","",""
"pit-trial","62","645171","0.0-2.0-14.0-3.0","battery-v0.2","","""event"",""trial"",""time""
""fullscreenenter"",""1"",""1993""
","
","
","""event"",""trial"",""time""
""fullscreenenter"",""1"",""1993""
","
","","","1172.2000000476837","","","10","3560","2856","&#9826;","elianto","#f73b6a7A","-1"," ","0","0","[2023.6000001430511]","1","0","3","","","","","","","",""
"pit-trial","63","650034","0.0-2.0-14.0-4.0","battery-v0.2","","""event"",""trial"",""time""
""fullscreenenter"",""1"",""1993""
","
","
","""event"",""trial"",""time""
""fullscreenenter"",""1"",""1993""
","
","","","-1","","","10","3560","2856","&#9826;","elianto","#f73b6a7A","-1","-1","1","0","[]","0","0","3","","","","","","","",""
"pit-trial","64","654904","0.0-2.0-14.1-0.1","battery-v0.2","","""event"",""trial"",""time""
""fullscreenenter"",""1"",""1993""
","
","
","""event"",""trial"",""time""
""fullscreenenter"",""1"",""1993""
","
","","","-1","","","10","3560","2856","&#9826;","elianto","#f73b6a7A","-1","-1","1","0","[]","0","0","3","","","","","","","",""
"pit-trial","65","659769","0.0-2.0-14.1-1.1","battery-v0.2","","""event"",""trial"",""time""
""fullscreenenter"",""1"",""1993""
","
","
","""event"",""trial"",""time""
""fullscreenenter"",""1"",""1993""
","
","","","-1","","","10","3560","2856","&#9826;","elianto","#f73b6a7A","-1","-1","1","0","[]","0","0","3","","","","","","","",""
"pit-trial","66","664632","0.0-2.0-14.1-2.1","battery-v0.2","","""event"",""trial"",""time""
""fullscreenenter"",""1"",""1993""
","
","
","""event"",""trial"",""time""
""fullscreenenter"",""1"",""1993""
","
","","","-1","","","10","3560","2856","&#9826;","elianto","#f73b6a7A","-1","-1","1","0","[]","0","0","3","","","","","","","",""
"pit-trial","67","669507","0.0-2.0-14.1-3.1","battery-v0.2","","""event"",""trial"",""time""
""fullscreenenter"",""1"",""1993""
","
","
","""event"",""trial"",""time""
""fullscreenenter"",""1"",""1993""
","
","","","-1","","","10","3560","2856","&#9826;","elianto","#f73b6a7A","-1","-1","1","-10","[]","0","0","3","","","","","","","",""
"pit-trial","68","674369","0.0-2.0-14.1-4.1","battery-v0.2","","""event"",""trial"",""time""
""fullscreenenter"",""1"",""1993""
","
","
","""event"",""trial"",""time""
""fullscreenenter"",""1"",""1993""
","
","","","-1","","","10","3560","2856","&#9826;","elianto","#f73b6a7A","-1","-1","1","0","[]","0","0","3","","","","","","","",""
"pit-trial","69","679233","0.0-2.0-14.2-0.2","battery-v0.2","","""event"",""trial"",""time""
""fullscreenenter"",""1"",""1993""
","
","
","""event"",""trial"",""time""
""fullscreenenter"",""1"",""1993""
","
","","","-1","","","10","3560","2856","&#9826;","elianto","#f73b6a7A","-1","-1","1","0","[]","0","0","3","","","","","","","",""
"pit-trial","70","684097","0.0-2.0-14.2-1.2","battery-v0.2","","""event"",""trial"",""time""
""fullscreenenter"",""1"",""1993""
","
","
","""event"",""trial"",""time""
""fullscreenenter"",""1"",""1993""
","
","","","-1","","","10","3560","2856","&#9826;","elianto","#f73b6a7A","-1","-1","1","0","[]","0","0","3","","","","","","","",""
"pit-trial","71","688967","0.0-2.0-14.2-2.2","battery-v0.2","","""event"",""trial"",""time""
""fullscreenenter"",""1"",""1993""
","
","
","""event"",""trial"",""time""
""fullscreenenter"",""1"",""1993""
","
","","","-1","","","10","3560","2856","&#9826;","elianto","#f73b6a7A","-1","-1","1","0","[]","0","0","3","","","","","","","",""
"pit-trial","72","693833","0.0-2.0-14.2-3.2","battery-v0.2","","""event"",""trial"",""time""
""fullscreenenter"",""1"",""1993""
","
","
","""event"",""trial"",""time""
""fullscreenenter"",""1"",""1993""
","
","","","-1","","","10","3560","2856","&#9826;","elianto","#f73b6a7A","-1","-1","1","-10","[]","0","0","3","","","","","","","",""
"pit-trial","73","698704","0.0-2.0-14.2-4.2","battery-v0.2","","""event"",""trial"",""time""
""fullscreenenter"",""1"",""1993""
","
","
","""event"",""trial"",""time""
""fullscreenenter"",""1"",""1993""
","
","","","-1","","","10","3560","2856","&#9826;","elianto","#f73b6a7A","-1","-1","1","0","[]","0","0","3","","","","","","","",""
"pit-trial","74","703584","0.0-2.0-14.3-0.3","battery-v0.2","","""event"",""trial"",""time""
""fullscreenenter"",""1"",""1993""
","
","
","""event"",""trial"",""time""
""fullscreenenter"",""1"",""1993""
","
","","","-1","","","10","3560","2856","&#9826;","elianto","#f73b6a7A","-1","-1","1","0","[]","0","0","3","","","","","","","",""
"pit-trial","75","708449","0.0-2.0-14.3-1.3","battery-v0.2","","""event"",""trial"",""time""
""fullscreenenter"",""1"",""1993""
","
","
","""event"",""trial"",""time""
""fullscreenenter"",""1"",""1993""
","
","","","-1","","","10","3560","2856","&#9826;","elianto","#f73b6a7A","-1","-1","1","0","[]","0","0","3","","","","","","","",""
"pit-trial","76","713313","0.0-2.0-14.3-2.3","battery-v0.2","","""event"",""trial"",""time""
""fullscreenenter"",""1"",""1993""
","
","
","""event"",""trial"",""time""
""fullscreenenter"",""1"",""1993""
","
","","","-1","","","10","3560","2856","&#9826;","elianto","#f73b6a7A","-1","-1","1","0","[]","0","0","3","","","","","","","",""
"pit-trial","77","718176","0.0-2.0-14.3-3.3","battery-v0.2","","""event"",""trial"",""time""
""fullscreenenter"",""1"",""1993""
","
","
","""event"",""trial"",""time""
""fullscreenenter"",""1"",""1993""
","
","","","-1","","","10","3560","2856","&#9826;","elianto","#f73b6a7A","-1","-1","1","-10","[]","0","0","3","","","","","","","",""
"pit-trial","78","723041","0.0-2.0-14.3-4.3","battery-v0.2","","""event"",""trial"",""time""
""fullscreenenter"",""1"",""1993""
","
","
","""event"",""trial"",""time""
""fullscreenenter"",""1"",""1993""
","
","","","-1","","","10","3560","2856","&#9826;","elianto","#f73b6a7A","-1","-1","1","0","[]","0","0","3","","","","","","","",""
"call-function","79","723042","0.0-2.0-15.0","battery-v0.2","","""event"",""trial"",""time""
""fullscreenenter"",""1"",""1993""
","
","
","""event"",""trial"",""time""
""fullscreenenter"",""1"",""1993""
","
","","","","","","","","","","","","","","","","","","","","","","","","","","",""
"pit-instructions","80","757966","0.0-2.0-16.0","battery-v0.2","","""event"",""trial"",""time""
""fullscreenenter"",""1"",""1993""
","
","
","""event"",""trial"",""time""
""fullscreenenter"",""1"",""1993""
","
","","[{""page_index"":0,""viewing_time"":11743.5},{""page_index"":1,""viewing_time"":10174.800000190735},{""page_index"":2,""viewing_time"":6309.199999809265},{""page_index"":3,""viewing_time"":6695.800000190735}]","34923.800000190735","","","","","","","","","","","","","","","","","","","","","","","",""
"pit-trial","81","762846","0.0-2.0-17.0-0.0","battery-v0.2","","""event"",""trial"",""time""
""fullscreenenter"",""1"",""1993""
","
","
","""event"",""trial"",""time""
""fullscreenenter"",""1"",""1993""
","
","","","-1","","","10","3560","2856","&#9789;","elianto","#f73b6a7A"," ","-1","0","-10","[]","0","0","4","","","","","","","",""
"pit-trial","82","767723","0.0-2.0-17.0-1.0","battery-v0.2","","""event"",""trial"",""time""
""fullscreenenter"",""1"",""1993""
","
","
","""event"",""trial"",""time""
""fullscreenenter"",""1"",""1993""
","
","","","-1","","","10","3560","2856","&#9789;","elianto","#f73b6a7A"," ","-1","0","-10","[]","0","0","4","","","","","","","",""
"pit-trial","83","771274","0.0-2.0-17.0-2.0","battery-v0.2","","""event"",""trial"",""time""
""fullscreenenter"",""1"",""1993""
","
","
","""event"",""trial"",""time""
""fullscreenenter"",""1"",""1993""
","
","","","686.7000000476837","","","10","3560","2856","&#9789;","elianto","#f73b6a7A"," "," ","1","0","[1540]","1","0","4","","","","","","","",""
"pit-trial","84","774617","0.0-2.0-17.0-3.0","battery-v0.2","","""event"",""trial"",""time""
""fullscreenenter"",""1"",""1993""
","
","
","""event"",""trial"",""time""
""fullscreenenter"",""1"",""1993""
","
","","","481.7999999523163","","","10","3560","2856","&#9789;","elianto","#f73b6a7A"," "," ","1","-10","[1334.9000000953674]","1","0","4","","","","","","","",""
"pit-trial","85","777992","0.0-2.0-17.0-4.0","battery-v0.2","","""event"",""trial"",""time""
""fullscreenenter"",""1"",""1993""
","
","
","""event"",""trial"",""time""
""fullscreenenter"",""1"",""1993""
","
","","","508.90000009536743","","","10","3560","2856","&#9789;","elianto","#f73b6a7A"," "," ","1","0","[1362.9000000953674]","1","0","4","","","","","","","",""
"pit-trial","86","781403","0.0-2.0-17.1-0.1","battery-v0.2","","""event"",""trial"",""time""
""fullscreenenter"",""1"",""1993""
","
","
","""event"",""trial"",""time""
""fullscreenenter"",""1"",""1993""
","
","","","537.0999999046326","","","10","3560","2856","&#9789;","elianto","#f73b6a7A"," "," ","1","0","[1391.2999999523163]","1","0","4","","","","","","","",""
"pit-trial","87","785233","0.0-2.0-17.1-1.1","battery-v0.2","","""event"",""trial"",""time""
""fullscreenenter"",""1"",""1993""
","
","
","""event"",""trial"",""time""
""fullscreenenter"",""1"",""1993""
","
","","","967.5","","","10","3560","2856","&#9789;","elianto","#f73b6a7A"," "," ","1","0","[1819.5]","1","0","4","","","","","","","",""
"pit-trial","88","788650","0.0-2.0-17.1-2.1","battery-v0.2","","""event"",""trial"",""time""
""fullscreenenter"",""1"",""1993""
","
","
","""event"",""trial"",""time""
""fullscreenenter"",""1"",""1993""
","
","","","552.5","","","10","3560","2856","&#9789;","elianto","#f73b6a7A"," "," ","1","0","[1407.7999999523163]","1","0","4","","","","","","","",""
"pit-trial","89","792009","0.0-2.0-17.1-3.1","battery-v0.2","","""event"",""trial"",""time""
""fullscreenenter"",""1"",""1993""
","
","
","""event"",""trial"",""time""
""fullscreenenter"",""1"",""1993""
","
","","","496","","","10","3560","2856","&#9789;","elianto","#f73b6a7A"," "," ","1","-10","[1350.2999999523163]","1","0","4","","","","","","","",""
"pit-trial","90","795321","0.0-2.0-17.1-4.1","battery-v0.2","","""event"",""trial"",""time""
""fullscreenenter"",""1"",""1993""
","
","
","""event"",""trial"",""time""
""fullscreenenter"",""1"",""1993""
","
","","","453.7999999523163","","","10","3560","2856","&#9789;","elianto","#f73b6a7A"," "," ","1","0","[1307.8999998569489]","1","0","4","","","","","","","",""
"pit-trial","91","798826","0.0-2.0-17.2-0.2","battery-v0.2","","""event"",""trial"",""time""
""fullscreenenter"",""1"",""1993""
","
","
","""event"",""trial"",""time""
""fullscreenenter"",""1"",""1993""
","
","","","644.3000001907349","","","10","3560","2856","&#9789;","elianto","#f73b6a7A"," "," ","1","0","[1498.4000000953674]","1","0","4","","","","","","","",""
"pit-trial","92","802226","0.0-2.0-17.2-1.2","battery-v0.2","","""event"",""trial"",""time""
""fullscreenenter"",""1"",""1993""
","
","
","""event"",""trial"",""time""
""fullscreenenter"",""1"",""1993""
","
","","","543.6000001430511","","","10","3560","2856","&#9789;","elianto","#f73b6a7A"," "," ","1","0","[1396.2999999523163]","1","0","4","","","","","","","",""
"pit-trial","93","806020","0.0-2.0-17.2-2.2","battery-v0.2","","""event"",""trial"",""time""
""fullscreenenter"",""1"",""1993""
","
","
","""event"",""trial"",""time""
""fullscreenenter"",""1"",""1993""
","
","","","927.5","","","10","3560","2856","&#9789;","elianto","#f73b6a7A"," "," ","1","0","[1779.8999998569489]","1","0","4","","","","","","","",""
"pit-trial","94","809546","0.0-2.0-17.2-3.2","battery-v0.2","","""event"",""trial"",""time""
""fullscreenenter"",""1"",""1993""
","
","
","""event"",""trial"",""time""
""fullscreenenter"",""1"",""1993""
","
","","","665.8000001907349","","","10","3560","2856","&#9789;","elianto","#f73b6a7A"," "," ","1","-10","[1516.9000000953674]","1","0","4","","","","","","","",""
"pit-trial","95","812658","0.0-2.0-17.2-4.2","battery-v0.2","","""event"",""trial"",""time""
""fullscreenenter"",""1"",""1993""
","
","
","""event"",""trial"",""time""
""fullscreenenter"",""1"",""1993""
","
","","","258","","","10","3560","2856","&#9789;","elianto","#f73b6a7A"," "," ","1","0","[1108.7000000476837]","1","0","4","","","","","","","",""
"pit-trial","96","815721","0.0-2.0-17.3-0.3","battery-v0.2","","""event"",""trial"",""time""
""fullscreenenter"",""1"",""1993""
","
","
","""event"",""trial"",""time""
""fullscreenenter"",""1"",""1993""
","
","","","202.5","","","10","3560","2856","&#9789;","elianto","#f73b6a7A"," "," ","1","0","[1055.6999998092651]","1","0","4","","","","","","","",""
"pit-trial","97","818937","0.0-2.0-17.3-1.3","battery-v0.2","","""event"",""trial"",""time""
""fullscreenenter"",""1"",""1993""
","
","
","""event"",""trial"",""time""
""fullscreenenter"",""1"",""1993""
","
","","","356.60000014305115","","","10","3560","2856","&#9789;","elianto","#f73b6a7A"," "," ","1","0","[1211.6000001430511]","1","0","4","","","","","","","",""
"pit-trial","98","822058","0.0-2.0-17.3-2.3","battery-v0.2","","""event"",""trial"",""time""
""fullscreenenter"",""1"",""1993""
","
","
","""event"",""trial"",""time""
""fullscreenenter"",""1"",""1993""
","
","","","256.7999999523163","","","10","3560","2856","&#9789;","elianto","#f73b6a7A"," "," ","1","0","[1112.1000001430511]","1","0","4","","","","","","","",""
"pit-trial","99","825226","0.0-2.0-17.3-3.3","battery-v0.2","","""event"",""trial"",""time""
""fullscreenenter"",""1"",""1993""
","
","
","""event"",""trial"",""time""
""fullscreenenter"",""1"",""1993""
","
","","","303.40000009536743","","","10","3560","2856","&#9789;","elianto","#f73b6a7A"," "," ","1","-10","[1156.4000000953674]","1","0","4","","","","","","","",""
"pit-trial","100","828370","0.0-2.0-17.3-4.3","battery-v0.2","","""event"",""trial"",""time""
""fullscreenenter"",""1"",""1993""
","
","
","""event"",""trial"",""time""
""fullscreenenter"",""1"",""1993""
","
","","","285.5","","","10","3560","2856","&#9789;","elianto","#f73b6a7A"," "," ","1","0","[1137.7000000476837]","1","0","4","","","","","","","",""
"call-function","101","828371","0.0-2.0-18.0","battery-v0.2","","""event"",""trial"",""time""
""fullscreenenter"",""1"",""1993""
","
","
","""event"",""trial"",""time""
""fullscreenenter"",""1"",""1993""
","
","","","","","","","","","","","","","","","","","","","","","","","","","","",""
"pit-instructions","102","917547","0.0-2.0-19.0","battery-v0.2","","""event"",""trial"",""time""
""fullscreenenter"",""1"",""1993""
","
","
","""event"",""trial"",""time""
""fullscreenenter"",""1"",""1993""
","
","","[{""page_index"":0,""viewing_time"":11404.600000143051},{""page_index"":1,""viewing_time"":8948.299999952316},{""page_index"":2,""viewing_time"":17134.700000047684},{""page_index"":3,""viewing_time"":9679.299999952316},{""page_index"":4,""viewing_time"":9558.899999856949},{""page_index"":5,""viewing_time"":11690.400000095367},{""page_index"":6,""viewing_time"":9077.599999904633},{""page_index"":7,""viewing_time"":6688.100000143051},{""page_index"":8,""viewing_time"":4993.099999904633}]","89175.40000009537","","","","","","","","","","","","","","","","","","","","","","","",""
"pit-comprehension","103","922126","0.0-2.0-20.0-0.0","battery-v0.2","","""event"",""trial"",""time""
""fullscreenenter"",""1"",""1993""
","
","
","""event"",""trial"",""time""
""fullscreenenter"",""1"",""1993""
","
","","","4576.599999904633","[""SPACE""]","0","10","3560","2856","","","","","","","","","","","","","","","","","","",""
"pit-instructions","104","925420","0.0-2.0-20.0-1.0","battery-v0.2","","""event"",""trial"",""time""
""fullscreenenter"",""1"",""1993""
","
","
","""event"",""trial"",""time""
""fullscreenenter"",""1"",""1993""
","
","","[{""page_index"":0,""viewing_time"":3254.7999999523163}]","3255.0999999046326","","","","","","","","","","","","","","","","","","","","","","","",""
"pit-comprehension","105","930144","0.0-2.0-21.0-0.0","battery-v0.2","","""event"",""trial"",""time""
""fullscreenenter"",""1"",""1993""
","
","
","""event"",""trial"",""time""
""fullscreenenter"",""1"",""1993""
","
","","","4721.799999952316","[""10""]","0","10","3560","2856","","","","","","","","","","","","","","","","","","",""
"pit-instructions","106","939243","0.0-2.0-21.0-1.0","battery-v0.2","","""event"",""trial"",""time""
""fullscreenenter"",""1"",""1993""
","
","
","""event"",""trial"",""time""
""fullscreenenter"",""1"",""1993""
","
","","[{""page_index"":0,""viewing_time"":9063.799999952316}]","9064.100000143051","","","","","","","","","","","","","","","","","","","","","","","",""
"pit-comprehension","107","948771","0.0-2.0-22.0-0.0","battery-v0.2","","""event"",""trial"",""time""
""fullscreenenter"",""1"",""1993""
","
","
","""event"",""trial"",""time""
""fullscreenenter"",""1"",""1993""
","
","","","9524.799999952316","[""0""]","0","10","3560","2856","","","","","","","","","","","","","","","","","","",""
"pit-instructions","108","951525","0.0-2.0-22.0-1.0","battery-v0.2","","""event"",""trial"",""time""
""fullscreenenter"",""1"",""1993""
","
","
","""event"",""trial"",""time""
""fullscreenenter"",""1"",""1993""
","
","","[{""page_index"":0,""viewing_time"":2718.4000000953674}]","2718.5999999046326","","","","","","","","","","","","","","","","","","","","","","","",""
"pit-comprehension","109","959984","0.0-2.0-23.0-0.0","battery-v0.2","","""event"",""trial"",""time""
""fullscreenenter"",""1"",""1993""
","
","
","""event"",""trial"",""time""
""fullscreenenter"",""1"",""1993""
","
","","","8457","[""True""]","0","10","3560","2856","","","","","","","","","","","","","","","","","","",""
"pit-instructions","110","979666","0.0-2.0-23.0-1.0","battery-v0.2","","""event"",""trial"",""time""
""fullscreenenter"",""1"",""1993""
","
","
","""event"",""trial"",""time""
""fullscreenenter"",""1"",""1993""
","
","","[{""page_index"":0,""viewing_time"":19645.799999952316}]","19646.099999904633","","","","","","","","","","","","","","","","","","","","","","","",""
"pit-comprehension","111","987270","0.0-2.0-24.0-0.0","battery-v0.2","","""event"",""trial"",""time""
""fullscreenenter"",""1"",""1993""
","
","
","""event"",""trial"",""time""
""fullscreenenter"",""1"",""1993""
","
","","","7602.099999904633","[""True""]","0","10","3560","2856","","","","","","","","","","","","","","","","","","",""
"pit-instructions","112","990037","0.0-2.0-24.0-1.0","battery-v0.2","","""event"",""trial"",""time""
""fullscreenenter"",""1"",""1993""
","
","
","""event"",""trial"",""time""
""fullscreenenter"",""1"",""1993""
","
","","[{""page_index"":0,""viewing_time"":2728.9000000953674}]","2729.0999999046326","","","","","","","","","","","","","","","","","","","","","","","",""
"pit-comprehension","113","996702","0.0-2.0-25.0-0.0","battery-v0.2","","""event"",""trial"",""time""
""fullscreenenter"",""1"",""1993""
","
","
","""event"",""trial"",""time""
""fullscreenenter"",""1"",""1993""
","
","","","6662.299999952316","[""True""]","0","10","3560","2856","","","","","","","","","","","","","","","","","","",""
"pit-instructions","114","1006586","0.0-2.0-25.0-1.0","battery-v0.2","","""event"",""trial"",""time""
""fullscreenenter"",""1"",""1993""
","
","
","""event"",""trial"",""time""
""fullscreenenter"",""1"",""1993""
","
","","[{""page_index"":0,""viewing_time"":9846.099999904633}]","9846.200000047684","","","","","","","","","","","","","","","","","","","","","","","",""
"pit-comprehension","115","1014650","0.0-2.0-26.0-0.0","battery-v0.2","","""event"",""trial"",""time""
""fullscreenenter"",""1"",""1993""
","
","
","""event"",""trial"",""time""
""fullscreenenter"",""1"",""1993""
","
","","","8060.799999952316","[""False""]","0","10","3560","2856","","","","","","","","","","","","","","","","","","",""
"pit-instructions","116","1021937","0.0-2.0-26.0-1.0","battery-v0.2","","""event"",""trial"",""time""
""fullscreenenter"",""1"",""1993""
","
","
","""event"",""trial"",""time""
""fullscreenenter"",""1"",""1993""
","
","","[{""page_index"":0,""viewing_time"":7249}]","7249.200000047684","","","","","","","","","","","","","","","","","","","","","","","",""
"pit-instructions","117","1068216","0.0-3.0","battery-v0.2","","""event"",""trial"",""time""
""fullscreenenter"",""1"",""1993""
","
","
","""event"",""trial"",""time""
""fullscreenenter"",""1"",""1993""
","
","","[{""page_index"":0,""viewing_time"":29816.700000047684},{""page_index"":1,""viewing_time"":8227.200000047684},{""page_index"":2,""viewing_time"":8233.299999952316}]","46277.300000190735","","","","","","","","","","","","","","","","","","","","","","","",""
"pit-trial","118","1073084","0.0-4.0","battery-v0.2","","""event"",""trial"",""time""
""fullscreenenter"",""1"",""1993""
","
","
","""event"",""trial"",""time""
""fullscreenenter"",""1"",""1993""
","
","","","-1","","","10","3560","2856","&#9752;","elianto","#f73b6a7A"," ","-1","0","-10","[]","0","1","","","3560","1","3","3","lose","go","0"
"pit-trial","119","1077967","0.0-5.0","battery-v0.2","","""event"",""trial"",""time""
""fullscreenenter"",""1"",""1993""
","
","
","""event"",""trial"",""time""
""fullscreenenter"",""1"",""1993""
","
","","","-1","","","10","3560","2856","&#9728;","elianto","#f73b6a7A","-1","-1","1","0","[]","0","1","","","3560","2","0","4","lose","no-go","0"
"pit-trial","120","1081659","0.0-6.0","battery-v0.2","","""event"",""trial"",""time""
""fullscreenenter"",""1"",""1993""
","
","
","""event"",""trial"",""time""
""fullscreenenter"",""1"",""1993""
","
","","","828.7999999523163","","","10","3560","2856","&#9730;","elianto","#3366ff99"," "," ","1","0","[1685.9000000953674]","1","1","","","3560","3","1","1","win","go","1"
"pit-trial","121","1085223","0.0-7.0","battery-v0.2","","""event"",""trial"",""time""
""fullscreenenter"",""1"",""1993""
","
","
","""event"",""trial"",""time""
""fullscreenenter"",""1"",""1993""
","
","","","688.3000001907349","","","10","3560","2856","&#9733;","elianto","#3366ff99","-1"," ","0","+10","[1542.3000001907349]","1","1","","","3560","4","2","2","win","no-go","1"
"pit-trial","122","1088566","0.0-8.0","battery-v0.2","","""event"",""trial"",""time""
""fullscreenenter"",""1"",""1993""
","
","
","""event"",""trial"",""time""
""fullscreenenter"",""1"",""1993""
","
","","","477.5","","","10","3560","2856","&#9730;","elianto","#3366ff99"," "," ","1","+10","[1333.2999999523163]","1","1","","","3560","5","1","1","win","go","0"
"pit-trial","123","1093434","0.0-9.0","battery-v0.2","","""event"",""trial"",""time""
""fullscreenenter"",""1"",""1993""
","
","
","""event"",""trial"",""time""
""fullscreenenter"",""1"",""1993""
","
","","","-1","","","10","3560","2856","&#9728;","elianto","#f73b6a7A","-1","-1","1","0","[]","0","1","","","3560","6","0","4","lose","no-go","0"
"pit-trial","124","1097122","0.0-10.0","battery-v0.2","","""event"",""trial"",""time""
""fullscreenenter"",""1"",""1993""
","
","
","""event"",""trial"",""time""
""fullscreenenter"",""1"",""1993""
","
","","","818.2000000476837","","","10","3560","2856","&#9733;","elianto","#3366ff99","-1"," ","0","+10","[1672.9000000953674]","1","1","","","3560","7","2","2","win","no-go","1"
"pit-trial","125","1101009","0.0-11.0","battery-v0.2","","""event"",""trial"",""time""
""fullscreenenter"",""1"",""1993""
","
","
","""event"",""trial"",""time""
""fullscreenenter"",""1"",""1993""
","
","","","1023.0999999046326","","","10","3560","2856","&#9752;","elianto","#f73b6a7A"," "," ","1","-10","[1877.3000001907349]","1","1","","","3560","8","3","3","lose","go","1"
"pit-trial","126","1104625","0.0-12.0","battery-v0.2","","""event"",""trial"",""time""
""fullscreenenter"",""1"",""1993""
","
","
","""event"",""trial"",""time""
""fullscreenenter"",""1"",""1993""
","
","","","749.5","","","10","3560","2856","&#9730;","elianto","#3366ff99"," "," ","1","0","[1601.5999999046326]","1","1","","","3560","9","1","1","win","go","1"
"pit-trial","127","1108146","0.0-13.0","battery-v0.2","","""event"",""trial"",""time""
""fullscreenenter"",""1"",""1993""
","
","
","""event"",""trial"",""time""
""fullscreenenter"",""1"",""1993""
","
","","","658.7999999523163","","","10","3560","2856","&#9733;","elianto","#3366ff99","-1"," ","0","0","[1511.5999999046326]","1","1","","","3560","10","2","2","win","no-go","0"
"pit-trial","128","1113009","0.0-14.0","battery-v0.2","","""event"",""trial"",""time""
""fullscreenenter"",""1"",""1993""
","
","
","""event"",""trial"",""time""
""fullscreenenter"",""1"",""1993""
","
","","","-1","","","10","3560","2856","&#9728;","elianto","#f73b6a7A","-1","-1","1","0","[]","0","1","","","3560","11","0","4","lose","no-go","0"
"pit-trial","129","1116689","0.0-15.0","battery-v0.2","","""event"",""trial"",""time""
""fullscreenenter"",""1"",""1993""
","
","
","""event"",""trial"",""time""
""fullscreenenter"",""1"",""1993""
","
","","","820.7999999523163","","","10","3560","2856","&#9752;","elianto","#f73b6a7A"," "," ","1","0","[1674.4000000953674]","1","1","","","3560","12","3","3","lose","go","0"
"pit-trial","130","1120198","0.0-16.0","battery-v0.2","","""event"",""trial"",""time""
""fullscreenenter"",""1"",""1993""
","
","
","""event"",""trial"",""time""
""fullscreenenter"",""1"",""1993""
","
","","","633.9000000953674","","","10","3560","2856","&#9730;","elianto","#3366ff99"," "," ","1","+10","[1489.0999999046326]","1","1","","","3560","13","1","1","win","go","0"
"pit-trial","131","1124417","0.0-17.0","battery-v0.2","","""event"",""trial"",""time""
""fullscreenenter"",""1"",""1993""
","
","
","""event"",""trial"",""time""
""fullscreenenter"",""1"",""1993""
","
","","","1353.3999998569489","","","10","3560","2856","&#9728;","elianto","#f73b6a7A","-1"," ","0","0","[2212]","1","1","","","3560","14","0","4","lose","no-go","1"
"pit-trial","132","1127745","0.0-18.0","battery-v0.2","","""event"",""trial"",""time""
""fullscreenenter"",""1"",""1993""
","
","
","""event"",""trial"",""time""
""fullscreenenter"",""1"",""1993""
","
","","","469.5","","","10","3560","2856","&#9733;","elianto","#3366ff99","-1"," ","0","0","[1324.5999999046326]","1","1","","","3560","15","2","2","win","no-go","0"
"pit-trial","133","1131689","0.0-19.0","battery-v0.2","","""event"",""trial"",""time""
""fullscreenenter"",""1"",""1993""
","
","
","""event"",""trial"",""time""
""fullscreenenter"",""1"",""1993""
","
","","","1068.6999998092651","","","10","3560","2856","&#9752;","elianto","#f73b6a7A"," "," ","1","-10","[1922.8999998569489]","1","1","","","3560","16","3","3","lose","go","1"
"pit-trial","134","1135194","0.0-20.0","battery-v0.2","","""event"",""trial"",""time""
""fullscreenenter"",""1"",""1993""
","
","
","""event"",""trial"",""time""
""fullscreenenter"",""1"",""1993""
","
","","","642.5","","","10","3560","2856","&#9728;","elianto","#f73b6a7A","-1"," ","0","0","[1496.5999999046326]","1","1","","","3560","17","0","4","lose","no-go","1"
"pit-trial","135","1138522","0.0-21.0","battery-v0.2","","""event"",""trial"",""time""
""fullscreenenter"",""1"",""1993""
","
","
","""event"",""trial"",""time""
""fullscreenenter"",""1"",""1993""
","
","","","468","","","10","3560","2856","&#9733;","elianto","#3366ff99","-1"," ","0","0","[1318]","1","1","","","3560","18","2","2","win","no-go","0"
"pit-trial","136","1143386","0.0-22.0","battery-v0.2","","""event"",""trial"",""time""
""fullscreenenter"",""1"",""1993""
","
","
","""event"",""trial"",""time""
""fullscreenenter"",""1"",""1993""
","
","","","-1","","","10","3560","2856","&#9752;","elianto","#f73b6a7A"," ","-1","0","-10","[]","0","1","","","3560","19","3","3","lose","go","0"
"pit-trial","137","1146786","0.0-23.0","battery-v0.2","","""event"",""trial"",""time""
""fullscreenenter"",""1"",""1993""
","
","
","""event"",""trial"",""time""
""fullscreenenter"",""1"",""1993""
","
","","","539.5","","","10","3560","2856","&#9730;","elianto","#3366ff99"," "," ","1","+10","[1392.9000000953674]","1","1","","","3560","20","1","1","win","go","0"
"pit-instructions","138","1169566","0.0-24.0","battery-v0.2","","""event"",""trial"",""time""
""fullscreenenter"",""1"",""1993""
","
","
","""event"",""trial"",""time""
""fullscreenenter"",""1"",""1993""
","
","","[{""page_index"":0,""viewing_time"":8753.5},{""page_index"":1,""viewing_time"":14024.5}]","22778.299999952316","","","","","","","","","","","","","","","","","","","","","","","",""
"pit-trial","139","1174447","0.0-25.0","battery-v0.2","","""event"",""trial"",""time""
""fullscreenenter"",""1"",""1993""
","
","
","""event"",""trial"",""time""
""fullscreenenter"",""1"",""1993""
","
","","","-1","","","10","3560","2856","m","elianto","#f73b6a7A"," ","-1","0","-10","[]","0","2","","","3560","21","0","3","lose","go","0"
"pit-trial","140","1177983","0.0-26.0","battery-v0.2","","""event"",""trial"",""time""
""fullscreenenter"",""1"",""1993""
","
","
","""event"",""trial"",""time""
""fullscreenenter"",""1"",""1993""
","
","","","666","","","10","3560","2856","r","elianto","#3366ff99","-1"," ","0","0","[1523]","1","2","","","3560","22","1","2","win","no-go","0"
"pit-trial","141","1181533","0.0-27.0","battery-v0.2","","""event"",""trial"",""time""
""fullscreenenter"",""1"",""1993""
","
","
","""event"",""trial"",""time""
""fullscreenenter"",""1"",""1993""
","
","","","675.7000000476837","","","10","3560","2856","h","elianto","#f73b6a7A","-1"," ","0","-10","[1531.7000000476837]","1","2","","","3560","23","3","4","lose","no-go","0"
"pit-trial","142","1186403","0.0-28.0","battery-v0.2","","""event"",""trial"",""time""
""fullscreenenter"",""1"",""1993""
","
","
","""event"",""trial"",""time""
""fullscreenenter"",""1"",""1993""
","
","","","-1","","","10","3560","2856","y","elianto","#f73b6a7A"," ","-1","0","-10","[]","0","2","","","3560","24","2","3","lose","go","0"
"pit-trial","143","1190038","0.0-29.0","battery-v0.2","","""event"",""trial"",""time""
""fullscreenenter"",""1"",""1993""
","
","
","""event"",""trial"",""time""
""fullscreenenter"",""1"",""1993""
","
","","","771.6999998092651","","","10","3560","2856","m","elianto","#f73b6a7A"," "," ","1","0","[1625]","1","2","","","3560","25","0","3","lose","go","0"
"pit-trial","144","1193408","0.0-30.0","battery-v0.2","","""event"",""trial"",""time""
""fullscreenenter"",""1"",""1993""
","
","
","""event"",""trial"",""time""
""fullscreenenter"",""1"",""1993""
","
","","","514.9000000953674","","","10","3560","2856","r","elianto","#3366ff99","-1"," ","0","0","[1365.6000001430511]","1","2","","","3560","26","1","2","win","no-go","0"
"pit-trial","145","1198274","0.0-31.0","battery-v0.2","","""event"",""trial"",""time""
""fullscreenenter"",""1"",""1993""
","
","
","""event"",""trial"",""time""
""fullscreenenter"",""1"",""1993""
","
","","","-1","","","10","3560","2856","h","elianto","#f73b6a7A","-1","-1","1","0","[]","0","2","","","3560","27","3","4","lose","no-go","0"
"pit-trial","146","1202505","0.0-32.0","battery-v0.2","","""event"",""trial"",""time""
""fullscreenenter"",""1"",""1993""
","
","
","""event"",""trial"",""time""
""fullscreenenter"",""1"",""1993""
","
","","","1368.0999999046326","","","10","3560","2856","y","elianto","#f73b6a7A"," "," ","1","0","[2222.0999999046326]","1","2","","","3560","28","2","3","lose","go","0"
"pit-trial","147","1205945","0.0-33.0","battery-v0.2","","""event"",""trial"",""time""
""fullscreenenter"",""1"",""1993""
","
","
","""event"",""trial"",""time""
""fullscreenenter"",""1"",""1993""
","
","","","581.0999999046326","","","10","3560","2856","m","elianto","#f73b6a7A"," "," ","1","0","[1432.2000000476837]","1","2","","","3560","29","0","3","lose","go","0"
"pit-trial","148","1209897","0.0-34.0","battery-v0.2","","""event"",""trial"",""time""
""fullscreenenter"",""1"",""1993""
","
","
","""event"",""trial"",""time""
""fullscreenenter"",""1"",""1993""
","
","","","1089.7999999523163","","","10","3560","2856","y","elianto","#f73b6a7A"," "," ","1","-10","[1946.0999999046326]","1","2","","","3560","30","2","3","lose","go","1"
"pit-trial","149","1214771","0.0-35.0","battery-v0.2","","""event"",""trial"",""time""
""fullscreenenter"",""1"",""1993""
","
","
","""event"",""trial"",""time""
""fullscreenenter"",""1"",""1993""
","
","","","-1","","","10","3560","2856","h","elianto","#f73b6a7A","-1","-1","1","0","[]","0","2","","","3560","31","3","4","lose","no-go","0"
"pit-trial","150","1218129","0.0-36.0","battery-v0.2","","""event"",""trial"",""time""
""fullscreenenter"",""1"",""1993""
","
","
","""event"",""trial"",""time""
""fullscreenenter"",""1"",""1993""
","
","","","498.40000009536743","","","10","3560","2856","r","elianto","#3366ff99","-1"," ","0","0","[1349]","1","2","","","3560","32","1","2","win","no-go","0"
"pit-trial","151","1223007","0.0-37.0","battery-v0.2","","""event"",""trial"",""time""
""fullscreenenter"",""1"",""1993""
","
","
","""event"",""trial"",""time""
""fullscreenenter"",""1"",""1993""
","
","","","-1","","","10","3560","2856","h","elianto","#f73b6a7A","-1","-1","1","0","[]","0","2","","","3560","33","3","4","lose","no-go","0"
"pit-trial","152","1226577","0.0-38.0","battery-v0.2","","""event"",""trial"",""time""
""fullscreenenter"",""1"",""1993""
","
","
","""event"",""trial"",""time""
""fullscreenenter"",""1"",""1993""
","
","","","704.9000000953674","","","10","3560","2856","r","elianto","#3366ff99","-1"," ","0","0","[1561.3000001907349]","1","2","","","3560","34","1","2","win","no-go","0"
"pit-trial","153","1230607","0.0-39.0","battery-v0.2","","""event"",""trial"",""time""
""fullscreenenter"",""1"",""1993""
","
","
","""event"",""trial"",""time""
""fullscreenenter"",""1"",""1993""
","
","","","1151.5","","","10","3560","2856","y","elianto","#f73b6a7A"," "," ","1","-10","[2006.4000000953674]","1","2","","","3560","35","2","3","lose","go","1"
"pit-trial","154","1234289","0.0-40.0","battery-v0.2","","""event"",""trial"",""time""
""fullscreenenter"",""1"",""1993""
","
","
","""event"",""trial"",""time""
""fullscreenenter"",""1"",""1993""
","
","","","818.5","","","10","3560","2856","m","elianto","#f73b6a7A"," "," ","1","-10","[1675.3999998569489]","1","2","","","3560","36","0","3","lose","go","1"
"pit-trial","155","1239163","0.0-41.0","battery-v0.2","","""event"",""trial"",""time""
""fullscreenenter"",""1"",""1993""
","
","
","""event"",""trial"",""time""
""fullscreenenter"",""1"",""1993""
","
","","","-1","","","10","3560","2856","m","elianto","#f73b6a7A"," ","-1","0","-10","[]","0","2","","","3560","37","0","3","lose","go","0"
"pit-trial","156","1242641","0.0-42.0","battery-v0.2","","""event"",""trial"",""time""
""fullscreenenter"",""1"",""1993""
","
","
","""event"",""trial"",""time""
""fullscreenenter"",""1"",""1993""
","
","","","620.7999999523163","","","10","3560","2856","y","elianto","#f73b6a7A"," "," ","1","0","[1474]","1","2","","","3560","38","2","3","lose","go","0"
"pit-trial","157","1245994","0.0-43.0","battery-v0.2","","""event"",""trial"",""time""
""fullscreenenter"",""1"",""1993""
","
","
","""event"",""trial"",""time""
""fullscreenenter"",""1"",""1993""
","
","","","487.60000014305115","","","10","3560","2856","r","elianto","#3366ff99","-1"," ","0","0","[1343.6000001430511]","1","2","","","3560","39","1","2","win","no-go","0"
"pit-trial","158","1250857","0.0-44.0","battery-v0.2","","""event"",""trial"",""time""
""fullscreenenter"",""1"",""1993""
","
","
","""event"",""trial"",""time""
""fullscreenenter"",""1"",""1993""
","
","","","-1","","","10","3560","2856","h","elianto","#f73b6a7A","-1","-1","1","0","[]","0","2","","","3560","40","3","4","lose","no-go","0"
"pit-trial","159","1254721","0.0-45.0","battery-v0.2","","""event"",""trial"",""time""
""fullscreenenter"",""1"",""1993""
","
","
","""event"",""trial"",""time""
""fullscreenenter"",""1"",""1993""
","
","","","1003.2000000476837","","","10","3560","2856","m","elianto","#f73b6a7A"," "," ","1","0","[1857.5]","1","2","","","3560","41","0","3","lose","go","0"
"pit-trial","160","1259591","0.0-46.0","battery-v0.2","","""event"",""trial"",""time""
""fullscreenenter"",""1"",""1993""
","
","
","""event"",""trial"",""time""
""fullscreenenter"",""1"",""1993""
","
","","","-1","","","10","3560","2856","h","elianto","#f73b6a7A","-1","-1","1","-10","[]","0","2","","","3560","42","3","4","lose","no-go","1"
"pit-trial","161","1263274","0.0-47.0","battery-v0.2","","""event"",""trial"",""time""
""fullscreenenter"",""1"",""1993""
","
","
","""event"",""trial"",""time""
""fullscreenenter"",""1"",""1993""
","
","","","814.7999999523163","","","10","3560","2856","y","elianto","#f73b6a7A"," "," ","1","0","[1672]","1","2","","","3560","43","2","3","lose","go","0"
"pit-trial","162","1266800","0.0-48.0","battery-v0.2","","""event"",""trial"",""time""
""fullscreenenter"",""1"",""1993""
","
","
","""event"",""trial"",""time""
""fullscreenenter"",""1"",""1993""
","
","","","657.6000001430511","","","10","3560","2856","r","elianto","#3366ff99","-1"," ","0","0","[1512.7000000476837]","1","2","","","3560","44","1","2","win","no-go","0"
"pit-trial","163","1271058","0.0-49.0","battery-v0.2","","""event"",""trial"",""time""
""fullscreenenter"",""1"",""1993""
","
","
","""event"",""trial"",""time""
""fullscreenenter"",""1"",""1993""
","
","","","1403.5","","","10","3560","2856","h","elianto","#f73b6a7A","-1"," ","0","-10","[2254.800000190735]","1","2","","","3560","45","3","4","lose","no-go","0"
"pit-trial","164","1274646","0.0-50.0","battery-v0.2","","""event"",""trial"",""time""
""fullscreenenter"",""1"",""1993""
","
","
","""event"",""trial"",""time""
""fullscreenenter"",""1"",""1993""
","
","","","718.4000000953674","","","10","3560","2856","m","elianto","#f73b6a7A"," "," ","1","0","[1572.9000000953674]","1","2","","","3560","46","0","3","lose","go","0"
"pit-trial","165","1278041","0.0-51.0","battery-v0.2","","""event"",""trial"",""time""
""fullscreenenter"",""1"",""1993""
","
","
","""event"",""trial"",""time""
""fullscreenenter"",""1"",""1993""
","
","","","536.4000000953674","","","10","3560","2856","r","elianto","#3366ff99","-1"," ","0","0","[1391.4000000953674]","1","2","","","3560","47","1","2","win","no-go","0"
"pit-trial","166","1282103","0.0-52.0","battery-v0.2","","""event"",""trial"",""time""
""fullscreenenter"",""1"",""1993""
","
","
","""event"",""trial"",""time""
""fullscreenenter"",""1"",""1993""
","
","","","1194.5","","","10","3560","2856","y","elianto","#f73b6a7A"," "," ","1","-10","[2050.2000000476837]","1","2","","","3560","48","2","3","lose","go","1"
"pit-trial","167","1285521","0.0-53.0","battery-v0.2","","""event"",""trial"",""time""
""fullscreenenter"",""1"",""1993""
","
","
","""event"",""trial"",""time""
""fullscreenenter"",""1"",""1993""
","
","","","551.5","","","10","3560","2856","h","elianto","#f73b6a7A","-1"," ","0","-10","[1408.5]","1","2","","","3560","49","3","4","lose","no-go","0"
"pit-trial","168","1289430","0.0-54.0","battery-v0.2","","""event"",""trial"",""time""
""fullscreenenter"",""1"",""1993""
","
","
","""event"",""trial"",""time""
""fullscreenenter"",""1"",""1993""
","
","","","1042.4000000953674","","","10","3560","2856","m","elianto","#f73b6a7A"," "," ","1","-10","[1897.6000001430511]","1","2","","","3560","50","0","3","lose","go","1"
"pit-trial","169","1292882","0.0-55.0","battery-v0.2","","""event"",""trial"",""time""
""fullscreenenter"",""1"",""1993""
","
","
","""event"",""trial"",""time""
""fullscreenenter"",""1"",""1993""
","
","","","595.6999998092651","","","10","3560","2856","r","elianto","#3366ff99","-1"," ","0","0","[1448.4000000953674]","1","2","","","3560","51","1","2","win","no-go","0"
"pit-trial","170","1297745","0.0-56.0","battery-v0.2","","""event"",""trial"",""time""
""fullscreenenter"",""1"",""1993""
","
","
","""event"",""trial"",""time""
""fullscreenenter"",""1"",""1993""
","
","","","-1","","","10","3560","2856","y","elianto","#f73b6a7A"," ","-1","0","-10","[]","0","2","","","3560","52","2","3","lose","go","0"
"pit-trial","171","1301281","0.0-57.0","battery-v0.2","","""event"",""trial"",""time""
""fullscreenenter"",""1"",""1993""
","
","
","""event"",""trial"",""time""
""fullscreenenter"",""1"",""1993""
","
","","","674.3000001907349","","","10","3560","2856","h","elianto","#f73b6a7A","-1"," ","0","0","[1530.3000001907349]","1","2","","","3560","53","3","4","lose","no-go","1"
"pit-trial","172","1305185","0.0-58.0","battery-v0.2","","""event"",""trial"",""time""
""fullscreenenter"",""1"",""1993""
","
","
","""event"",""trial"",""time""
""fullscreenenter"",""1"",""1993""
","
","","","1046.0999999046326","","","10","3560","2856","y","elianto","#f73b6a7A"," "," ","1","0","[1897.9000000953674]","1","2","","","3560","54","2","3","lose","go","0"
"pit-trial","173","1308618","0.0-59.0","battery-v0.2","","""event"",""trial"",""time""
""fullscreenenter"",""1"",""1993""
","
","
","""event"",""trial"",""time""
""fullscreenenter"",""1"",""1993""
","
","","","570.9000000953674","","","10","3560","2856","r","elianto","#3366ff99","-1"," ","0","0","[1425]","1","2","","","3560","55","1","2","win","no-go","0"
"pit-trial","174","1312566","0.0-60.0","battery-v0.2","","""event"",""trial"",""time""
""fullscreenenter"",""1"",""1993""
","
","
","""event"",""trial"",""time""
""fullscreenenter"",""1"",""1993""
","
","","","1073.5999999046326","","","10","3560","2856","m","elianto","#f73b6a7A"," "," ","1","0","[1927.6999998092651]","1","2","","","3560","56","0","3","lose","go","0"
"pit-trial","175","1316201","0.0-61.0","battery-v0.2","","""event"",""trial"",""time""
""fullscreenenter"",""1"",""1993""
","
","
","""event"",""trial"",""time""
""fullscreenenter"",""1"",""1993""
","
","","","776.7000000476837","","","10","3560","2856","m","elianto","#f73b6a7A"," "," ","1","0","[1626.9000000953674]","1","2","","","3560","57","0","3","lose","go","0"
"pit-trial","176","1321066","0.0-62.0","battery-v0.2","","""event"",""trial"",""time""
""fullscreenenter"",""1"",""1993""
","
","
","""event"",""trial"",""time""
""fullscreenenter"",""1"",""1993""
","
","","","-1","","","10","3560","2856","h","elianto","#f73b6a7A","-1","-1","1","0","[]","0","2","","","3560","58","3","4","lose","no-go","0"
"pit-trial","177","1324953","0.0-63.0","battery-v0.2","","""event"",""trial"",""time""
""fullscreenenter"",""1"",""1993""
","
","
","""event"",""trial"",""time""
""fullscreenenter"",""1"",""1993""
","
","","","1025.9000000953674","","","10","3560","2856","y","elianto","#f73b6a7A"," "," ","1","-10","[1880.7000000476837]","1","2","","","3560","59","2","3","lose","go","1"
"pit-trial","178","1328500","0.0-64.0","battery-v0.2","","""event"",""trial"",""time""
""fullscreenenter"",""1"",""1993""
","
","
","""event"",""trial"",""time""
""fullscreenenter"",""1"",""1993""
","
","","","673.5","","","10","3560","2856","z","elianto","#3366ff99"," "," ","1","+10","[1527.3999998569489]","1","2","","","3560","60","4","1","win","go","0"
"pit-trial","179","1333361","0.0-65.0","battery-v0.2","","""event"",""trial"",""time""
""fullscreenenter"",""1"",""1993""
","
","
","""event"",""trial"",""time""
""fullscreenenter"",""1"",""1993""
","
","","","-1","","","10","3560","2856","y","elianto","#f73b6a7A"," ","-1","0","-10","[2857.5]","1","2","","","3560","61","2","3","lose","go","0"
"pit-trial","180","1336777","0.0-66.0","battery-v0.2","","""event"",""trial"",""time""
""fullscreenenter"",""1"",""1993""
","
","
","""event"",""trial"",""time""
""fullscreenenter"",""1"",""1993""
","
","","","556.7000000476837","","","10","3560","2856","r","elianto","#3366ff99","-1"," ","0","0","[1409.5]","1","2","","","3560","62","1","2","win","no-go","0"
"pit-trial","181","1341642","0.0-67.0","battery-v0.2","","""event"",""trial"",""time""
""fullscreenenter"",""1"",""1993""
","
","
","""event"",""trial"",""time""
""fullscreenenter"",""1"",""1993""
","
","","","-1","","","10","3560","2856","h","elianto","#f73b6a7A","-1","-1","1","-10","[]","0","2","","","3560","63","3","4","lose","no-go","1"
"pit-trial","182","1344985","0.0-68.0","battery-v0.2","","""event"",""trial"",""time""
""fullscreenenter"",""1"",""1993""
","
","
","""event"",""trial"",""time""
""fullscreenenter"",""1"",""1993""
","
","","","481.90000009536743","","","10","3560","2856","z","elianto","#3366ff99"," "," ","1","+10","[1336.3000001907349]","1","2","","","3560","64","4","1","win","go","0"
"pit-trial","183","1348681","0.0-69.0","battery-v0.2","","""event"",""trial"",""time""
""fullscreenenter"",""1"",""1993""
","
","
","""event"",""trial"",""time""
""fullscreenenter"",""1"",""1993""
","
","","","831.8999998569489","","","10","3560","2856","h","elianto","#f73b6a7A","-1"," ","0","-10","[1685.5999999046326]","1","2","","","3560","65","3","4","lose","no-go","0"
"pit-trial","184","1352049","0.0-70.0","battery-v0.2","","""event"",""trial"",""time""
""fullscreenenter"",""1"",""1993""
","
","
","""event"",""trial"",""time""
""fullscreenenter"",""1"",""1993""
","
","","","507.59999990463257","","","10","3560","2856","c","elianto","#3366ff99","-1"," ","0","+10","[1357.6999998092651]","1","2","","","3560","66","5","2","win","no-go","1"
"pit-trial","185","1355441","0.0-71.0","battery-v0.2","","""event"",""trial"",""time""
""fullscreenenter"",""1"",""1993""
","
","
","""event"",""trial"",""time""
""fullscreenenter"",""1"",""1993""
","
","","","529","","","10","3560","2856","z","elianto","#3366ff99"," "," ","1","+10","[1383.5]","1","2","","","3560","67","4","1","win","go","0"
"pit-trial","186","1359210","0.0-72.0","battery-v0.2","","""event"",""trial"",""time""
""fullscreenenter"",""1"",""1993""
","
","
","""event"",""trial"",""time""
""fullscreenenter"",""1"",""1993""
","
","","","908.2000000476837","","","10","3560","2856","r","elianto","#3366ff99","-1"," ","0","0","[1762.7000000476837]","1","2","","","3560","68","1","2","win","no-go","0"
"pit-trial","187","1362569","0.0-73.0","battery-v0.2","","""event"",""trial"",""time""
""fullscreenenter"",""1"",""1993""
","
","
","""event"",""trial"",""time""
""fullscreenenter"",""1"",""1993""
","
","","","496.7000000476837","","","10","3560","2856","r","elianto","#3366ff99","-1"," ","0","0","[1349]","1","2","","","3560","69","1","2","win","no-go","0"
"pit-trial","188","1367074","0.0-74.0","battery-v0.2","","""event"",""trial"",""time""
""fullscreenenter"",""1"",""1993""
","
","
","""event"",""trial"",""time""
""fullscreenenter"",""1"",""1993""
","
","","","1640.9000000953674","","","10","3560","2856","y","elianto","#f73b6a7A"," "," ","1","0","[2495.5]","1","2","","","3560","70","2","3","lose","go","0"
"pit-trial","189","1370929","0.0-75.0","battery-v0.2","","""event"",""trial"",""time""
""fullscreenenter"",""1"",""1993""
","
","
","""event"",""trial"",""time""
""fullscreenenter"",""1"",""1993""
","
","","","999.2999999523163","","","10","3560","2856","c","elianto","#3366ff99","-1"," ","0","0","[1852.7999999523163]","1","2","","","3560","71","5","2","win","no-go","0"
"pit-trial","190","1374326","0.0-76.0","battery-v0.2","","""event"",""trial"",""time""
""fullscreenenter"",""1"",""1993""
","
","
","""event"",""trial"",""time""
""fullscreenenter"",""1"",""1993""
","
","","","535.2000000476837","","","10","3560","2856","z","elianto","#3366ff99"," "," ","1","+10","[1385.5]","1","2","","","3560","72","4","1","win","go","0"
"pit-trial","191","1379194","0.0-77.0","battery-v0.2","","""event"",""trial"",""time""
""fullscreenenter"",""1"",""1993""
","
","
","""event"",""trial"",""time""
""fullscreenenter"",""1"",""1993""
","
","","","-1","","","10","3560","2856","h","elianto","#f73b6a7A","-1","-1","1","0","[]","0","2","","","3560","73","3","4","lose","no-go","0"
"pit-trial","192","1382657","0.0-78.0","battery-v0.2","","""event"",""trial"",""time""
""fullscreenenter"",""1"",""1993""
","
","
","""event"",""trial"",""time""
""fullscreenenter"",""1"",""1993""
","
","","","604.4000000953674","","","10","3560","2856","c","elianto","#3366ff99","-1"," ","0","+10","[1455.9000000953674]","1","2","","","3560","74","5","2","win","no-go","1"
"pit-trial","193","1386049","0.0-79.0","battery-v0.2","","""event"",""trial"",""time""
""fullscreenenter"",""1"",""1993""
","
","
","""event"",""trial"",""time""
""fullscreenenter"",""1"",""1993""
","
","","","530.3000001907349","","","10","3560","2856","r","elianto","#3366ff99","-1"," ","0","0","[1384]","1","2","","","3560","75","1","2","win","no-go","0"
"pit-trial","194","1389456","0.0-80.0","battery-v0.2","","""event"",""trial"",""time""
""fullscreenenter"",""1"",""1993""
","
","
","""event"",""trial"",""time""
""fullscreenenter"",""1"",""1993""
","
","","","527.4000000953674","","","10","3560","2856","z","elianto","#3366ff99"," "," ","1","+10","[1382.6999998092651]","1","2","","","3560","76","4","1","win","go","0"
"pit-trial","195","1392809","0.0-81.0","battery-v0.2","","""event"",""trial"",""time""
""fullscreenenter"",""1"",""1993""
","
","
","""event"",""trial"",""time""
""fullscreenenter"",""1"",""1993""
","
","","","487.90000009536743","","","10","3560","2856","c","elianto","#3366ff99","-1"," ","0","0","[1343.5]","1","2","","","3560","77","5","2","win","no-go","0"
"pit-trial","196","1396225","0.0-82.0","battery-v0.2","","""event"",""trial"",""time""
""fullscreenenter"",""1"",""1993""
","
","
","""event"",""trial"",""time""
""fullscreenenter"",""1"",""1993""
","
","","","559.2000000476837","","","10","3560","2856","z","elianto","#3366ff99"," "," ","1","0","[1412.2000000476837]","1","2","","","3560","78","4","1","win","go","1"
"pit-trial","197","1399809","0.0-83.0","battery-v0.2","","""event"",""trial"",""time""
""fullscreenenter"",""1"",""1993""
","
","
","""event"",""trial"",""time""
""fullscreenenter"",""1"",""1993""
","
","","","727.1999998092651","","","10","3560","2856","z","elianto","#3366ff99"," "," ","1","+10","[1578.5999999046326]","1","2","","","3560","79","4","1","win","go","0"
"pit-trial","198","1404672","0.0-84.0","battery-v0.2","","""event"",""trial"",""time""
""fullscreenenter"",""1"",""1993""
","
","
","""event"",""trial"",""time""
""fullscreenenter"",""1"",""1993""
","
","","","-1","","","10","3560","2856","h","elianto","#f73b6a7A","-1","-1","1","0","[]","0","2","","","3560","80","3","4","lose","no-go","0"
"pit-trial","199","1408090","0.0-85.0","battery-v0.2","","""event"",""trial"",""time""
""fullscreenenter"",""1"",""1993""
","
","
","""event"",""trial"",""time""
""fullscreenenter"",""1"",""1993""
","
","","","554.4000000953674","","","10","3560","2856","z","elianto","#3366ff99"," "," ","1","+10","[1408.0999999046326]","1","2","","","3560","81","4","1","win","go","0"
"pit-trial","200","1412953","0.0-86.0","battery-v0.2","","""event"",""trial"",""time""
""fullscreenenter"",""1"",""1993""
","
","
","""event"",""trial"",""time""
""fullscreenenter"",""1"",""1993""
","
","","","-1","","","10","3560","2856","t","elianto","#f73b6a7A","-1","-1","1","0","[]","0","2","","","3560","82","7","4","lose","no-go","0"
"pit-trial","201","1416473","0.0-87.0","battery-v0.2","","""event"",""trial"",""time""
""fullscreenenter"",""1"",""1993""
","
","
","""event"",""trial"",""time""
""fullscreenenter"",""1"",""1993""
","
","","","655.4000000953674","","","10","3560","2856","c","elianto","#3366ff99","-1"," ","0","0","[1509.8999998569489]","1","2","","","3560","83","5","2","win","no-go","0"
"pit-trial","202","1421338","0.0-88.0","battery-v0.2","","""event"",""trial"",""time""
""fullscreenenter"",""1"",""1993""
","
","
","""event"",""trial"",""time""
""fullscreenenter"",""1"",""1993""
","
","","","-1","","","10","3560","2856","h","elianto","#f73b6a7A","-1","-1","1","0","[]","0","2","","","3560","84","3","4","lose","no-go","0"
"pit-trial","203","1424665","0.0-89.0","battery-v0.2","","""event"",""trial"",""time""
""fullscreenenter"",""1"",""1993""
","
","
","""event"",""trial"",""time""
""fullscreenenter"",""1"",""1993""
","
","","","465","","","10","3560","2856","c","elianto","#3366ff99","-1"," ","0","0","[1320.2000000476837]","1","2","","","3560","85","5","2","win","no-go","0"
"pit-trial","204","1429169","0.0-90.0","battery-v0.2","","""event"",""trial"",""time""
""fullscreenenter"",""1"",""1993""
","
","
","""event"",""trial"",""time""
""fullscreenenter"",""1"",""1993""
","
","","","1640.7000000476837","","","10","3560","2856","b","elianto","#f73b6a7A"," "," ","1","0","[2495.4000000953674]","1","2","","","3560","86","6","3","lose","go","0"
"pit-trial","205","1434033","0.0-91.0","battery-v0.2","","""event"",""trial"",""time""
""fullscreenenter"",""1"",""1993""
","
","
","""event"",""trial"",""time""
""fullscreenenter"",""1"",""1993""
","
","","","-1","","","10","3560","2856","t","elianto","#f73b6a7A","-1","-1","1","0","[]","0","2","","","3560","87","7","4","lose","no-go","0"
"pit-trial","206","1437625","0.0-92.0","battery-v0.2","","""event"",""trial"",""time""
""fullscreenenter"",""1"",""1993""
","
","
","""event"",""trial"",""time""
""fullscreenenter"",""1"",""1993""
","
","","","733","","","10","3560","2856","z","elianto","#3366ff99"," "," ","1","+10","[1586.7999999523163]","1","2","","","3560","88","4","1","win","go","0"
"pit-trial","207","1442497","0.0-93.0","battery-v0.2","","""event"",""trial"",""time""
""fullscreenenter"",""1"",""1993""
","
","
","""event"",""trial"",""time""
""fullscreenenter"",""1"",""1993""
","
","","","-1","","","10","3560","2856","b","elianto","#f73b6a7A"," ","-1","0","-10","[]","0","2","","","3560","89","6","3","lose","go","0"
"pit-trial","208","1445881","0.0-94.0","battery-v0.2","","""event"",""trial"",""time""
""fullscreenenter"",""1"",""1993""
","
","
","""event"",""trial"",""time""
""fullscreenenter"",""1"",""1993""
","
","","","525.1999998092651","","","10","3560","2856","z","elianto","#3366ff99"," "," ","1","+10","[1379.6999998092651]","1","2","","","3560","90","4","1","win","go","0"
"pit-trial","209","1449329","0.0-95.0","battery-v0.2","","""event"",""trial"",""time""
""fullscreenenter"",""1"",""1993""
","
","
","""event"",""trial"",""time""
""fullscreenenter"",""1"",""1993""
","
","","","585.9000000953674","","","10","3560","2856","c","elianto","#3366ff99","-1"," ","0","0","[1441.1000001430511]","1","2","","","3560","91","5","2","win","no-go","0"
"pit-trial","210","1454193","0.0-96.0","battery-v0.2","","""event"",""trial"",""time""
""fullscreenenter"",""1"",""1993""
","
","
","""event"",""trial"",""time""
""fullscreenenter"",""1"",""1993""
","
","","","-1","","","10","3560","2856","t","elianto","#f73b6a7A","-1","-1","1","0","[]","0","2","","","3560","92","7","4","lose","no-go","0"
"pit-trial","211","1457579","0.0-97.0","battery-v0.2","","""event"",""trial"",""time""
""fullscreenenter"",""1"",""1993""
","
","
","""event"",""trial"",""time""
""fullscreenenter"",""1"",""1993""
","
","","","517.3999998569489","","","10","3560","2856","c","elianto","#3366ff99","-1"," ","0","0","[1371.3999998569489]","1","2","","","3560","93","5","2","win","no-go","0"
"pit-trial","212","1460969","0.0-98.0","battery-v0.2","","""event"",""trial"",""time""
""fullscreenenter"",""1"",""1993""
","
","
","""event"",""trial"",""time""
""fullscreenenter"",""1"",""1993""
","
","","","531.2000000476837","","","10","3560","2856","f","elianto","#3366ff99"," "," ","1","+10","[1384.2999999523163]","1","2","","","3560","94","8","1","win","go","0"
"pit-trial","213","1465234","0.0-99.0","battery-v0.2","","""event"",""trial"",""time""
""fullscreenenter"",""1"",""1993""
","
","
","""event"",""trial"",""time""
""fullscreenenter"",""1"",""1993""
","
","","","1404.4000000953674","","","10","3560","2856","b","elianto","#f73b6a7A"," "," ","1","-10","[2257.600000143051]","1","2","","","3560","95","6","3","lose","go","1"
"pit-trial","214","1469418","0.0-100.0","battery-v0.2","","""event"",""trial"",""time""
""fullscreenenter"",""1"",""1993""
","
","
","""event"",""trial"",""time""
""fullscreenenter"",""1"",""1993""
","
","","","1324.5999999046326","","","10","3560","2856","t","elianto","#f73b6a7A","-1"," ","0","-10","[2179.199999809265]","1","2","","","3560","96","7","4","lose","no-go","0"
"pit-trial","215","1473017","0.0-101.0","battery-v0.2","","""event"",""trial"",""time""
""fullscreenenter"",""1"",""1993""
","
","
","""event"",""trial"",""time""
""fullscreenenter"",""1"",""1993""
","
","","","742.2999999523163","","","10","3560","2856","f","elianto","#3366ff99"," "," ","1","+10","[1596.7000000476837]","1","2","","","3560","97","8","1","win","go","0"
"pit-trial","216","1476482","0.0-102.0","battery-v0.2","","""event"",""trial"",""time""
""fullscreenenter"",""1"",""1993""
","
","
","""event"",""trial"",""time""
""fullscreenenter"",""1"",""1993""
","
","","","602","","","10","3560","2856","c","elianto","#3366ff99","-1"," ","0","0","[1457]","1","2","","","3560","98","5","2","win","no-go","0"
"pit-trial","217","1481345","0.0-103.0","battery-v0.2","","""event"",""trial"",""time""
""fullscreenenter"",""1"",""1993""
","
","
","""event"",""trial"",""time""
""fullscreenenter"",""1"",""1993""
","
","","","-1","","","10","3560","2856","t","elianto","#f73b6a7A","-1","-1","1","0","[]","0","2","","","3560","99","7","4","lose","no-go","0"
"pit-trial","218","1486209","0.0-104.0","battery-v0.2","","""event"",""trial"",""time""
""fullscreenenter"",""1"",""1993""
","
","
","""event"",""trial"",""time""
""fullscreenenter"",""1"",""1993""
","
","","","-1","","","10","3560","2856","b","elianto","#f73b6a7A"," ","-1","0","0","[]","0","2","","","3560","100","6","3","lose","go","1"
"pit-trial","219","1489577","0.0-105.0","battery-v0.2","","""event"",""trial"",""time""
""fullscreenenter"",""1"",""1993""
","
","
","""event"",""trial"",""time""
""fullscreenenter"",""1"",""1993""
","
","","","504.59999990463257","","","10","3560","2856","f","elianto","#3366ff99"," "," ","1","+10","[1359]","1","2","","","3560","101","8","1","win","go","0"
"pit-trial","220","1492978","0.0-106.0","battery-v0.2","","""event"",""trial"",""time""
""fullscreenenter"",""1"",""1993""
","
","
","""event"",""trial"",""time""
""fullscreenenter"",""1"",""1993""
","
","","","541.7999999523163","","","10","3560","2856","n","elianto","#3366ff99"," "," ","1","+10","[1396.2000000476837]","1","2","","","3560","102","9","1","win","go","0"
"pit-trial","221","1496362","0.0-107.0","battery-v0.2","","""event"",""trial"",""time""
""fullscreenenter"",""1"",""1993""
","
","
","""event"",""trial"",""time""
""fullscreenenter"",""1"",""1993""
","
","","","523.1999998092651","","","10","3560","2856","c","elianto","#3366ff99","-1"," ","0","0","[1377.2999999523163]","1","2","","","3560","103","5","2","win","no-go","0"
"pit-trial","222","1501228","0.0-108.0","battery-v0.2","","""event"",""trial"",""time""
""fullscreenenter"",""1"",""1993""
","
","
","""event"",""trial"",""time""
""fullscreenenter"",""1"",""1993""
","
","","","-1","","","10","3560","2856","t","elianto","#f73b6a7A","-1","-1","1","-10","[]","0","2","","","3560","104","7","4","lose","no-go","1"
"pit-trial","223","1506090","0.0-109.0","battery-v0.2","","""event"",""trial"",""time""
""fullscreenenter"",""1"",""1993""
","
","
","""event"",""trial"",""time""
""fullscreenenter"",""1"",""1993""
","
","","","-1","","","10","3560","2856","b","elianto","#f73b6a7A"," ","-1","0","-10","[]","0","2","","","3560","105","6","3","lose","go","0"
"pit-trial","224","1509458","0.0-110.0","battery-v0.2","","""event"",""trial"",""time""
""fullscreenenter"",""1"",""1993""
","
","
","""event"",""trial"",""time""
""fullscreenenter"",""1"",""1993""
","
","","","503","","","10","3560","2856","f","elianto","#3366ff99"," "," ","1","0","[1357.7000000476837]","1","2","","","3560","106","8","1","win","go","1"
"pit-trial","225","1512822","0.0-111.0","battery-v0.2","","""event"",""trial"",""time""
""fullscreenenter"",""1"",""1993""
","
","
","""event"",""trial"",""time""
""fullscreenenter"",""1"",""1993""
","
","","","490.7000000476837","","","10","3560","2856","n","elianto","#3366ff99"," "," ","1","0","[1344.5]","1","2","","","3560","107","9","1","win","go","1"
"pit-trial","226","1516169","0.0-112.0","battery-v0.2","","""event"",""trial"",""time""
""fullscreenenter"",""1"",""1993""
","
","
","""event"",""trial"",""time""
""fullscreenenter"",""1"",""1993""
","
","","","481.7000000476837","","","10","3560","2856","z","elianto","#3366ff99"," "," ","1","+10","[1339.2000000476837]","1","2","","","3560","108","4","1","win","go","0"
"pit-trial","227","1519538","0.0-113.0","battery-v0.2","","""event"",""trial"",""time""
""fullscreenenter"",""1"",""1993""
","
","
","""event"",""trial"",""time""
""fullscreenenter"",""1"",""1993""
","
","","","506.5","","","10","3560","2856","f","elianto","#3366ff99"," "," ","1","+10","[1358]","1","2","","","3560","109","8","1","win","go","0"
"pit-trial","228","1522833","0.0-114.0","battery-v0.2","","""event"",""trial"",""time""
""fullscreenenter"",""1"",""1993""
","
","
","""event"",""trial"",""time""
""fullscreenenter"",""1"",""1993""
","
","","","442.40000009536743","","","10","3560","2856","c","elianto","#3366ff99","-1"," ","0","0","[1292.7999999523163]","1","2","","","3560","110","5","2","win","no-go","0"
"pit-trial","229","1527698","0.0-115.0","battery-v0.2","","""event"",""trial"",""time""
""fullscreenenter"",""1"",""1993""
","
","
","""event"",""trial"",""time""
""fullscreenenter"",""1"",""1993""
","
","","","-1","","","10","3560","2856","b","elianto","#f73b6a7A"," ","-1","0","-10","[]","0","2","","","3560","111","6","3","lose","go","0"
"pit-trial","230","1531226","0.0-116.0","battery-v0.2","","""event"",""trial"",""time""
""fullscreenenter"",""1"",""1993""
","
","
","""event"",""trial"",""time""
""fullscreenenter"",""1"",""1993""
","
","","","666.2999999523163","","","10","3560","2856","n","elianto","#3366ff99"," "," ","1","+10","[1520.6999998092651]","1","2","","","3560","112","9","1","win","go","0"
"pit-trial","231","1534601","0.0-117.0","battery-v0.2","","""event"",""trial"",""time""
""fullscreenenter"",""1"",""1993""
","
","
","""event"",""trial"",""time""
""fullscreenenter"",""1"",""1993""
","
","","","515.1000001430511","","","10","3560","2856","n","elianto","#3366ff99"," "," ","1","+10","[1370]","1","2","","","3560","113","9","1","win","go","0"
"pit-trial","232","1538441","0.0-118.0","battery-v0.2","","""event"",""trial"",""time""
""fullscreenenter"",""1"",""1993""
","
","
","""event"",""trial"",""time""
""fullscreenenter"",""1"",""1993""
","
","","","984.2000000476837","","","10","3560","2856","b","elianto","#f73b6a7A"," "," ","1","0","[1836.2000000476837]","1","2","","","3560","114","6","3","lose","go","0"
"pit-trial","233","1541898","0.0-119.0","battery-v0.2","","""event"",""trial"",""time""
""fullscreenenter"",""1"",""1993""
","
","
","""event"",""trial"",""time""
""fullscreenenter"",""1"",""1993""
","
","","","590.6000001430511","","","10","3560","2856","c","elianto","#3366ff99","-1"," ","0","0","[1445.2999999523163]","1","2","","","3560","115","5","2","win","no-go","0"
"pit-trial","234","1545442","0.0-120.0","battery-v0.2","","""event"",""trial"",""time""
""fullscreenenter"",""1"",""1993""
","
","
","""event"",""trial"",""time""
""fullscreenenter"",""1"",""1993""
","
","","","681.3000001907349","","","10","3560","2856","f","elianto","#3366ff99"," "," ","1","+10","[1534.2000000476837]","1","2","","","3560","116","8","1","win","go","0"
"pit-trial","235","1548832","0.0-121.0","battery-v0.2","","""event"",""trial"",""time""
""fullscreenenter"",""1"",""1993""
","
","
","""event"",""trial"",""time""
""fullscreenenter"",""1"",""1993""
","
","","","527.9000000953674","","","10","3560","2856","c","elianto","#3366ff99","-1"," ","0","+10","[1381.7000000476837]","1","2","","","3560","117","5","2","win","no-go","1"
"pit-trial","236","1552201","0.0-122.0","battery-v0.2","","""event"",""trial"",""time""
""fullscreenenter"",""1"",""1993""
","
","
","""event"",""trial"",""time""
""fullscreenenter"",""1"",""1993""
","
","","","507.90000009536743","","","10","3560","2856","f","elianto","#3366ff99"," "," ","1","+10","[1359.9000000953674]","1","2","","","3560","118","8","1","win","go","0"
"pit-trial","237","1555569","0.0-123.0","battery-v0.2","","""event"",""trial"",""time""
""fullscreenenter"",""1"",""1993""
","
","
","""event"",""trial"",""time""
""fullscreenenter"",""1"",""1993""
","
","","","511.7000000476837","","","10","3560","2856","n","elianto","#3366ff99"," "," ","1","0","[1362.5]","1","2","","","3560","119","9","1","win","go","1"
"pit-trial","238","1559856","0.0-124.0","battery-v0.2","","""event"",""trial"",""time""
""fullscreenenter"",""1"",""1993""
","
","
","""event"",""trial"",""time""
""fullscreenenter"",""1"",""1993""
","
","","","1421.7000000476837","","","10","3560","2856","b","elianto","#f73b6a7A"," "," ","1","0","[2276.800000190735]","1","2","","","3560","120","6","3","lose","go","0"
"pit-trial","239","1563388","0.0-125.0","battery-v0.2","","""event"",""trial"",""time""
""fullscreenenter"",""1"",""1993""
","
","
","""event"",""trial"",""time""
""fullscreenenter"",""1"",""1993""
","
","","","669.2999999523163","","","10","3560","2856","n","elianto","#3366ff99"," "," ","1","0","[1524.9000000953674]","1","2","","","3560","121","9","1","win","go","1"
"pit-trial","240","1567241","0.0-126.0","battery-v0.2","","""event"",""trial"",""time""
""fullscreenenter"",""1"",""1993""
","
","
","""event"",""trial"",""time""
""fullscreenenter"",""1"",""1993""
","
","","","994.7999999523163","","","10","3560","2856","b","elianto","#f73b6a7A"," "," ","1","0","[1846.7000000476837]","1","2","","","3560","122","6","3","lose","go","0"
"pit-trial","241","1570667","0.0-127.0","battery-v0.2","","""event"",""trial"",""time""
""fullscreenenter"",""1"",""1993""
","
","
","""event"",""trial"",""time""
""fullscreenenter"",""1"",""1993""
","
","","","562.6000001430511","","","10","3560","2856","f","elianto","#3366ff99"," "," ","1","+10","[1417.4000000953674]","1","2","","","3560","123","8","1","win","go","0"
"pit-trial","242","1575529","0.0-128.0","battery-v0.2","","""event"",""trial"",""time""
""fullscreenenter"",""1"",""1993""
","
","
","""event"",""trial"",""time""
""fullscreenenter"",""1"",""1993""
","
","","","-1","","","10","3560","2856","t","elianto","#f73b6a7A","-1","-1","1","0","[]","0","2","","","3560","124","7","4","lose","no-go","0"
"pit-trial","243","1579041","0.0-129.0","battery-v0.2","","""event"",""trial"",""time""
""fullscreenenter"",""1"",""1993""
","
","
","""event"",""trial"",""time""
""fullscreenenter"",""1"",""1993""
","
","","","651","","","10","3560","2856","b","elianto","#f73b6a7A"," "," ","1","0","[1505]","1","2","","","3560","125","6","3","lose","go","0"
"pit-trial","244","1582489","0.0-130.0","battery-v0.2","","""event"",""trial"",""time""
""fullscreenenter"",""1"",""1993""
","
","
","""event"",""trial"",""time""
""fullscreenenter"",""1"",""1993""
","
","","","585.2000000476837","","","10","3560","2856","f","elianto","#3366ff99"," "," ","1","+10","[1440.2000000476837]","1","2","","","3560","126","8","1","win","go","0"
"pit-trial","245","1587368","0.0-131.0","battery-v0.2","","""event"",""trial"",""time""
""fullscreenenter"",""1"",""1993""
","
","
","""event"",""trial"",""time""
""fullscreenenter"",""1"",""1993""
","
","","","-1","","","10","3560","2856","t","elianto","#f73b6a7A","-1","-1","1","0","[]","0","2","","","3560","127","7","4","lose","no-go","0"
"pit-trial","246","1590728","0.0-132.0","battery-v0.2","","""event"",""trial"",""time""
""fullscreenenter"",""1"",""1993""
","
","
","""event"",""trial"",""time""
""fullscreenenter"",""1"",""1993""
","
","","","490.10000014305115","","","10","3560","2856","n","elianto","#3366ff99"," "," ","1","+10","[1345.3999998569489]","1","2","","","3560","128","9","1","win","go","0"
"pit-trial","247","1594177","0.0-133.0","battery-v0.2","","""event"",""trial"",""time""
""fullscreenenter"",""1"",""1993""
","
","
","""event"",""trial"",""time""
""fullscreenenter"",""1"",""1993""
","
","","","588.3999998569489","","","10","3560","2856","f","elianto","#3366ff99"," "," ","1","+10","[1441.2999999523163]","1","2","","","3560","129","8","1","win","go","0"
"pit-trial","248","1598489","0.0-134.0","battery-v0.2","","""event"",""trial"",""time""
""fullscreenenter"",""1"",""1993""
","
","
","""event"",""trial"",""time""
""fullscreenenter"",""1"",""1993""
","
","","","1449.9000000953674","","","10","3560","2856","b","elianto","#f73b6a7A"," "," ","1","-10","[2304.600000143051]","1","2","","","3560","130","6","3","lose","go","1"
"pit-trial","249","1601919","0.0-135.0","battery-v0.2","","""event"",""trial"",""time""
""fullscreenenter"",""1"",""1993""
","
","
","""event"",""trial"",""time""
""fullscreenenter"",""1"",""1993""
","
","","","557.2000000476837","","","10","3560","2856","n","elianto","#3366ff99"," "," ","1","+10","[1411.5]","1","2","","","3560","131","9","1","win","go","0"
"pit-trial","250","1605817","0.0-136.0","battery-v0.2","","""event"",""trial"",""time""
""fullscreenenter"",""1"",""1993""
","
","
","""event"",""trial"",""time""
""fullscreenenter"",""1"",""1993""
","
","","","1036.8999998569489","","","10","3560","2856","t","elianto","#f73b6a7A","-1"," ","0","-10","[1893.5]","1","2","","","3560","132","7","4","lose","no-go","0"
"pit-trial","251","1610685","0.0-137.0","battery-v0.2","","""event"",""trial"",""time""
""fullscreenenter"",""1"",""1993""
","
","
","""event"",""trial"",""time""
""fullscreenenter"",""1"",""1993""
","
","","","-1","","","10","3560","2856","t","elianto","#f73b6a7A","-1","-1","1","0","[]","0","2","","","3560","133","7","4","lose","no-go","0"
"pit-trial","252","1614041","0.0-138.0","battery-v0.2","","""event"",""trial"",""time""
""fullscreenenter"",""1"",""1993""
","
","
","""event"",""trial"",""time""
""fullscreenenter"",""1"",""1993""
","
","","","502","","","10","3560","2856","f","elianto","#3366ff99"," "," ","1","+10","[1353.2999999523163]","1","2","","","3560","134","8","1","win","go","0"
"pit-trial","253","1618619","0.0-139.0","battery-v0.2","","""event"",""trial"",""time""
""fullscreenenter"",""1"",""1993""
","
","
","""event"",""trial"",""time""
""fullscreenenter"",""1"",""1993""
","
","","","1715.2000000476837","","","10","3560","2856","b","elianto","#f73b6a7A"," "," ","1","-10","[2570.399999856949]","1","2","","","3560","135","6","3","lose","go","1"
"pit-trial","254","1621951","0.0-140.0","battery-v0.2","","""event"",""trial"",""time""
""fullscreenenter"",""1"",""1993""
","
","
","""event"",""trial"",""time""
""fullscreenenter"",""1"",""1993""
","
","","","470.7999999523163","","","10","3560","2856","n","elianto","#3366ff99"," "," ","1","0","[1324.1000001430511]","1","2","","","3560","136","9","1","win","go","1"
"pit-trial","255","1625273","0.0-141.0","battery-v0.2","","""event"",""trial"",""time""
""fullscreenenter"",""1"",""1993""
","
","
","""event"",""trial"",""time""
""fullscreenenter"",""1"",""1993""
","
","","","460","","","10","3560","2856","n","elianto","#3366ff99"," "," ","1","0","[1316.7000000476837]","1","2","","","3560","137","9","1","win","go","1"
"pit-trial","256","1630137","0.0-142.0","battery-v0.2","","""event"",""trial"",""time""
""fullscreenenter"",""1"",""1993""
","
","
","""event"",""trial"",""time""
""fullscreenenter"",""1"",""1993""
","
","","","-1","","","10","3560","2856","b","elianto","#f73b6a7A"," ","-1","0","-10","[]","0","2","","","3560","138","6","3","lose","go","0"
"pit-trial","257","1635002","0.0-143.0","battery-v0.2","","""event"",""trial"",""time""
""fullscreenenter"",""1"",""1993""
","
","
","""event"",""trial"",""time""
""fullscreenenter"",""1"",""1993""
","
","","","-1","","","10","3560","2856","t","elianto","#f73b6a7A","-1","-1","1","0","[]","0","2","","","3560","139","7","4","lose","no-go","0"
"pit-trial","258","1638322","0.0-144.0","battery-v0.2","","""event"",""trial"",""time""
""fullscreenenter"",""1"",""1993""
","
","
","""event"",""trial"",""time""
""fullscreenenter"",""1"",""1993""
","
","","","461.59999990463257","","","10","3560","2856","f","elianto","#3366ff99"," "," ","1","0","[1316.4000000953674]","1","2","","","3560","140","8","1","win","go","1"
"pit-instructions","259","1672366","0.0-145.0","battery-v0.2","","""event"",""trial"",""time""
""fullscreenenter"",""1"",""1993""
","
","
","""event"",""trial"",""time""
""fullscreenenter"",""1"",""1993""
","
","","[{""page_index"":0,""viewing_time"":24724.800000190735},{""page_index"":1,""viewing_time"":9317.5}]","34042.700000047684","","","","","","","","","","","","","","","","","","","","","","","",""
"pit-trial","260","1677242","0.0-146.0","battery-v0.2","","""event"",""trial"",""time""
""fullscreenenter"",""1"",""1993""
","
","
","""event"",""trial"",""time""
""fullscreenenter"",""1"",""1993""
","
","","","-1","","","10","3560","2856","w","elianto","#f73b6a7A"," ","-1","0","-10","[]","0","3","","","3560","141","3","3","lose","go","0"
"pit-trial","261","1680763","0.0-147.0","battery-v0.2","","""event"",""trial"",""time""
""fullscreenenter"",""1"",""1993""
","
","
","""event"",""trial"",""time""
""fullscreenenter"",""1"",""1993""
","
","","","653.2000000476837","","","10","3560","2856","d","elianto","#3366ff99"," "," ","1","+10","[1504.7000000476837]","1","3","","","3560","142","1","1","win","go","0"
"pit-trial","262","1684585","0.0-148.0","battery-v0.2","","""event"",""trial"",""time""
""fullscreenenter"",""1"",""1993""
","
","
","""event"",""trial"",""time""
""fullscreenenter"",""1"",""1993""
","
","","","953.6000001430511","","","10","3560","2856","j","elianto","#f73b6a7A","-1"," ","0","-10","[1806.3000001907349]","1","3","","","3560","143","0","4","lose","no-go","0"
"pit-trial","263","1688317","0.0-149.0","battery-v0.2","","""event"",""trial"",""time""
""fullscreenenter"",""1"",""1993""
","
","
","""event"",""trial"",""time""
""fullscreenenter"",""1"",""1993""
","
","","","865","","","10","3560","2856","e","elianto","#f73b6a7A","-1"," ","0","-10","[1719.4000000953674]","1","3","","","3560","144","2","4","lose","no-go","0"
"pit-trial","264","1691860","0.0-150.0","battery-v0.2","","""event"",""trial"",""time""
""fullscreenenter"",""1"",""1993""
","
","
","""event"",""trial"",""time""
""fullscreenenter"",""1"",""1993""
","
","","","675.5999999046326","","","10","3560","2856","w","elianto","#f73b6a7A"," "," ","1","-10","[1526.7000000476837]","1","3","","","3560","145","3","3","lose","go","1"
"pit-trial","265","1695391","0.0-151.0","battery-v0.2","","""event"",""trial"",""time""
""fullscreenenter"",""1"",""1993""
","
","
","""event"",""trial"",""time""
""fullscreenenter"",""1"",""1993""
","
","","","660.0999999046326","","","10","3560","2856","e","elianto","#f73b6a7A","-1"," ","0","-10","[1511.0999999046326]","1","3","","","3560","146","2","4","lose","no-go","0"
"pit-trial","266","1699240","0.0-152.0","battery-v0.2","","""event"",""trial"",""time""
""fullscreenenter"",""1"",""1993""
","
","
