"trial_type","trial_index","time_elapsed","internal_node_id","task_version","subject_id","interactions","blur_events","focus_events","fullscreenenter_events","fullscreenexit_events","success","view_history","rt","responses","num_errors","age","subject","participantId","rune","rune_set","hex","correct","choice","accuracy","outcome","keys","total_keys","block","practice","value","sub","trial","stimulus","robot","valence","action","sham"
"pavlovia","0","8","0.0-0.0","battery-v0.2","","""event"",""trial"",""time""
""fullscreenenter"",""1"",""2181""
","
","
","""event"",""trial"",""time""
""fullscreenenter"",""1"",""2181""
","
","","","","","","","","","","","","","","","","","","","","","","","","","","",""
"fullscreen","1","3157","0.0-1.0","battery-v0.2","","""event"",""trial"",""time""
""fullscreenenter"",""1"",""2181""
","
","
","""event"",""trial"",""time""
""fullscreenenter"",""1"",""2181""
","
","true","","","","","","","","","","","","","","","","","","","","","","","","","",""
"pit-instructions","2","10779","0.0-2.0-0.0","battery-v0.2","","""event"",""trial"",""time""
""fullscreenenter"",""1"",""2181""
","
","
","""event"",""trial"",""time""
""fullscreenenter"",""1"",""2181""
","
","","[{""page_index"":0,""viewing_time"":7615}]","7615.599999964237","","","","","","","","","","","","","","","","","","","","","","","",""
"pit-comprehension","3","15350","0.0-2.0-1.0-0.0","battery-v0.2","","""event"",""trial"",""time""
""fullscreenenter"",""1"",""2181""
","
","
","""event"",""trial"",""time""
""fullscreenenter"",""1"",""2181""
","
","","","4565.900000035763","[""shark""]","0","11","10861","5045","","","","","","","","","","","","","","","","","","",""
"pit-instructions","4","16782","0.0-2.0-1.0-1.0","battery-v0.2","","""event"",""trial"",""time""
""fullscreenenter"",""1"",""2181""
","
","
","""event"",""trial"",""time""
""fullscreenenter"",""1"",""2181""
","
","","[{""page_index"":0,""viewing_time"":1424}]","1424.199999988079","","","","","","","","","","","","","","","","","","","","","","","",""
"pit-comprehension","5","20263","0.0-2.0-2.0-0.0","battery-v0.2","","""event"",""trial"",""time""
""fullscreenenter"",""1"",""2181""
","
","
","""event"",""trial"",""time""
""fullscreenenter"",""1"",""2181""
","
","","","3477.800000011921","[""tiger""]","0","11","10861","5045","","","","","","","","","","","","","","","","","","",""
"pit-instructions","6","22279","0.0-2.0-2.0-1.0","battery-v0.2","","""event"",""trial"",""time""
""fullscreenenter"",""1"",""2181""
","
","
","""event"",""trial"",""time""
""fullscreenenter"",""1"",""2181""
","
","","[{""page_index"":0,""viewing_time"":2009.8999999761581}]","2010.300000011921","","","","","","","","","","","","","","","","","","","","","","","",""
"pit-instructions","7","122367","0.0-2.0-3.0","battery-v0.2","","""event"",""trial"",""time""
""fullscreenenter"",""1"",""2181""
","
","
","""event"",""trial"",""time""
""fullscreenenter"",""1"",""2181""
","
","","[{""page_index"":0,""viewing_time"":7816.699999988079},{""page_index"":1,""viewing_time"":6826.5},{""page_index"":2,""viewing_time"":6756.300000011921},{""page_index"":3,""viewing_time"":6413.800000011921},{""page_index"":4,""viewing_time"":7400.100000023842},{""page_index"":5,""viewing_time"":6130.899999976158},{""page_index"":6,""viewing_time"":9847.100000023842},{""page_index"":7,""viewing_time"":8032.299999952316},{""page_index"":8,""viewing_time"":6844.400000035763},{""page_index"":9,""viewing_time"":7674.300000011921},{""page_index"":10,""viewing_time"":7946.199999988079},{""page_index"":11,""viewing_time"":6529.800000011921},{""page_index"":12,""viewing_time"":7146.5},{""page_index"":13,""viewing_time"":4717.5}]","100083.10000002384","","","","","","","","","","","","","","","","","","","","","","","",""
"pit-trial","8","125321","0.0-2.0-4.0-0.0","battery-v0.2","","""event"",""trial"",""time""
""fullscreenenter"",""1"",""2181""
","
","
","""event"",""trial"",""time""
""fullscreenenter"",""1"",""2181""
","
","","","86.90000003576279","","","11","10861","5045","&#9784;","elianto","#FFFFF080"," "," ","1","&#10004","[943]","1","0","0","","","","","","","",""
"pit-trial","9","128337","0.0-2.0-4.1-0.1","battery-v0.2","","""event"",""trial"",""time""
""fullscreenenter"",""1"",""2181""
","
","
","""event"",""trial"",""time""
""fullscreenenter"",""1"",""2181""
","
","","","148.80000001192093","","","11","10861","5045","&#9784;","elianto","#FFFFF080"," "," ","1","&#10004","[1006.6999999880791]","1","0","0","","","","","","","",""
"pit-trial","10","131384","0.0-2.0-4.2-0.2","battery-v0.2","","""event"",""trial"",""time""
""fullscreenenter"",""1"",""2181""
","
","
","""event"",""trial"",""time""
""fullscreenenter"",""1"",""2181""
","
","","","185","","","11","10861","5045","&#9784;","elianto","#FFFFF080"," "," ","1","&#10004","[1036.5]","1","0","0","","","","","","","",""
"pit-trial","11","134390","0.0-2.0-4.3-0.3","battery-v0.2","","""event"",""trial"",""time""
""fullscreenenter"",""1"",""2181""
","
","
","""event"",""trial"",""time""
""fullscreenenter"",""1"",""2181""
","
","","","136","","","11","10861","5045","&#9784;","elianto","#FFFFF080"," "," ","1","&#10004","[987.3999999761581]","1","0","0","","","","","","","",""
"pit-trial","12","137452","0.0-2.0-4.4-0.4","battery-v0.2","","""event"",""trial"",""time""
""fullscreenenter"",""1"",""2181""
","
","
","""event"",""trial"",""time""
""fullscreenenter"",""1"",""2181""
","
","","","187.60000002384186","","","11","10861","5045","&#9784;","elianto","#FFFFF080"," "," ","1","&#10004","[1041.800000011921]","1","0","0","","","","","","","",""
"pit-instructions","13","159447","0.0-2.0-5.0","battery-v0.2","","""event"",""trial"",""time""
""fullscreenenter"",""1"",""2181""
","
","
","""event"",""trial"",""time""
""fullscreenenter"",""1"",""2181""
","
","","[{""page_index"":0,""viewing_time"":5637.300000011921},{""page_index"":1,""viewing_time"":5152.899999976158},{""page_index"":2,""viewing_time"":4805.100000023842},{""page_index"":3,""viewing_time"":6392}]","21987.899999976158","","","","","","","","","","","","","","","","","","","","","","","",""
"pit-trial","14","164327","0.0-2.0-6.0-0.0","battery-v0.2","","""event"",""trial"",""time""
""fullscreenenter"",""1"",""2181""
","
","
","""event"",""trial"",""time""
""fullscreenenter"",""1"",""2181""
","
","","","-1","","","11","10861","5045","&#9854;","elianto","#FFFFF080","-1","-1","1","&#10004","[]","0","0","1","","","","","","","",""
"pit-trial","15","169187","0.0-2.0-6.1-0.1","battery-v0.2","","""event"",""trial"",""time""
""fullscreenenter"",""1"",""2181""
","
","
","""event"",""trial"",""time""
""fullscreenenter"",""1"",""2181""
","
","","","-1","","","11","10861","5045","&#9854;","elianto","#FFFFF080","-1","-1","1","&#10004","[]","0","0","1","","","","","","","",""
"pit-trial","16","174059","0.0-2.0-6.2-0.2","battery-v0.2","","""event"",""trial"",""time""
""fullscreenenter"",""1"",""2181""
","
","
","""event"",""trial"",""time""
""fullscreenenter"",""1"",""2181""
","
","","","-1","","","11","10861","5045","&#9854;","elianto","#FFFFF080","-1","-1","1","&#10004","[]","0","0","1","","","","","","","",""
"pit-trial","17","178932","0.0-2.0-6.3-0.3","battery-v0.2","","""event"",""trial"",""time""
""fullscreenenter"",""1"",""2181""
","
","
","""event"",""trial"",""time""
""fullscreenenter"",""1"",""2181""
","
","","","-1","","","11","10861","5045","&#9854;","elianto","#FFFFF080","-1","-1","1","&#10004","[]","0","0","1","","","","","","","",""
"pit-trial","18","183803","0.0-2.0-6.4-0.4","battery-v0.2","","""event"",""trial"",""time""
""fullscreenenter"",""1"",""2181""
","
","
","""event"",""trial"",""time""
""fullscreenenter"",""1"",""2181""
","
","","","-1","","","11","10861","5045","&#9854;","elianto","#FFFFF080","-1","-1","1","&#10004","[]","0","0","1","","","","","","","",""
"pit-instructions","19","294215","0.0-2.0-7.0","battery-v0.2","","""event"",""trial"",""time""
""fullscreenenter"",""1"",""2181""
","
","
","""event"",""trial"",""time""
""fullscreenenter"",""1"",""2181""
","
","","[{""page_index"":0,""viewing_time"":5434.100000023842},{""page_index"":1,""viewing_time"":7348.199999988079},{""page_index"":2,""viewing_time"":5089.600000023842},{""page_index"":3,""viewing_time"":6431.800000011921},{""page_index"":4,""viewing_time"":5588.699999988079},{""page_index"":5,""viewing_time"":5552.5},{""page_index"":6,""viewing_time"":4169.800000011921},{""page_index"":7,""viewing_time"":7168.099999964237},{""page_index"":8,""viewing_time"":6558.699999988079},{""page_index"":9,""viewing_time"":5623.100000023842},{""page_index"":10,""viewing_time"":6021.699999988079},{""page_index"":11,""viewing_time"":5428.800000011921},{""page_index"":12,""viewing_time"":6292.800000011921},{""page_index"":13,""viewing_time"":7498.099999964237},{""page_index"":14,""viewing_time"":6578.400000035763},{""page_index"":15,""viewing_time"":6587.699999988079},{""page_index"":16,""viewing_time"":6223.199999988079},{""page_index"":17,""viewing_time"":6810.800000011921}]","110406.60000002384","","","","","","","","","","","","","","","","","","","","","","","",""
"pit-trial","20","297376","0.0-2.0-8.0-0.0","battery-v0.2","","""event"",""trial"",""time""
""fullscreenenter"",""1"",""2181""
","
","
","""event"",""trial"",""time""
""fullscreenenter"",""1"",""2181""
","
","","","290.7999999523163","","","11","10861","5045","&#9776;","elianto","#3366ff99"," "," ","1","+10","[1147.6000000238419,2660]","2","0","1","","","","","","","",""
"pit-trial","21","300362","0.0-2.0-8.0-1.0","battery-v0.2","","""event"",""trial"",""time""
""fullscreenenter"",""1"",""2181""
","
","
","""event"",""trial"",""time""
""fullscreenenter"",""1"",""2181""
","
","","","119.69999998807907","","","11","10861","5045","&#9776;","elianto","#3366ff99"," "," ","1","+10","[977.1999999880791]","1","0","1","","","","","","","",""
"pit-trial","22","303645","0.0-2.0-8.0-2.0","battery-v0.2","","""event"",""trial"",""time""
""fullscreenenter"",""1"",""2181""
","
","
","""event"",""trial"",""time""
""fullscreenenter"",""1"",""2181""
","
","","","421.30000001192093","","","11","10861","5045","&#9776;","elianto","#3366ff99"," "," ","1","+10","[1274.1000000238419]","1","0","1","","","","","","","",""
"pit-trial","23","306652","0.0-2.0-8.0-3.0","battery-v0.2","","""event"",""trial"",""time""
""fullscreenenter"",""1"",""2181""
","
","
","""event"",""trial"",""time""
""fullscreenenter"",""1"",""2181""
","
","","","141.19999998807907","","","11","10861","5045","&#9776;","elianto","#3366ff99"," "," ","1","0","[1000.4000000357628]","1","0","1","","","","","","","",""
"pit-trial","24","309605","0.0-2.0-8.0-4.0","battery-v0.2","","""event"",""trial"",""time""
""fullscreenenter"",""1"",""2181""
","
","
","""event"",""trial"",""time""
""fullscreenenter"",""1"",""2181""
","
","","","89","","","11","10861","5045","&#9776;","elianto","#3366ff99"," "," ","1","+10","[942.8000000119209]","1","0","1","","","","","","","",""
"pit-trial","25","314478","0.0-2.0-8.1-0.1","battery-v0.2","","""event"",""trial"",""time""
""fullscreenenter"",""1"",""2181""
","
","
","""event"",""trial"",""time""
""fullscreenenter"",""1"",""2181""
","
","","","-1","","","11","10861","5045","&#9776;","elianto","#3366ff99"," ","-1","0","0","[777.1999999880791,4233.5]","2","0","1","","","","","","","",""
"pit-trial","26","317807","0.0-2.0-8.1-1.1","battery-v0.2","","""event"",""trial"",""time""
""fullscreenenter"",""1"",""2181""
","
","
","""event"",""trial"",""time""
""fullscreenenter"",""1"",""2181""
","
","","","468","","","11","10861","5045","&#9776;","elianto","#3366ff99"," "," ","1","+10","[1322.1000000238419]","1","0","1","","","","","","","",""
"pit-trial","27","320881","0.0-2.0-8.1-2.1","battery-v0.2","","""event"",""trial"",""time""
""fullscreenenter"",""1"",""2181""
","
","
","""event"",""trial"",""time""
""fullscreenenter"",""1"",""2181""
","
","","","214.9000000357628","","","11","10861","5045","&#9776;","elianto","#3366ff99"," "," ","1","+10","[1066.199999988079]","1","0","1","","","","","","","",""
"pit-trial","28","324188","0.0-2.0-8.1-3.1","battery-v0.2","","""event"",""trial"",""time""
""fullscreenenter"",""1"",""2181""
","
","
","""event"",""trial"",""time""
""fullscreenenter"",""1"",""2181""
","
","","","446.19999998807907","","","11","10861","5045","&#9776;","elianto","#3366ff99"," "," ","1","0","[1299.699999988079]","1","0","1","","","","","","","",""
"pit-trial","29","327262","0.0-2.0-8.1-4.1","battery-v0.2","","""event"",""trial"",""time""
""fullscreenenter"",""1"",""2181""
","
","
","""event"",""trial"",""time""
""fullscreenenter"",""1"",""2181""
","
","","","220.19999998807907","","","11","10861","5045","&#9776;","elianto","#3366ff99"," "," ","1","+10","[1070.3999999761581]","1","0","1","","","","","","","",""
"pit-trial","30","332117","0.0-2.0-8.2-0.2","battery-v0.2","","""event"",""trial"",""time""
""fullscreenenter"",""1"",""2181""
","
","
","""event"",""trial"",""time""
""fullscreenenter"",""1"",""2181""
","
","","","-1","","","11","10861","5045","&#9776;","elianto","#3366ff99"," ","-1","0","0","[551.3000000119209]","1","0","1","","","","","","","",""
"pit-trial","31","335283","0.0-2.0-8.2-1.2","battery-v0.2","","""event"",""trial"",""time""
""fullscreenenter"",""1"",""2181""
","
","
","""event"",""trial"",""time""
""fullscreenenter"",""1"",""2181""
","
","","","309.89999997615814","","","11","10861","5045","&#9776;","elianto","#3366ff99"," "," ","1","+10","[1160.5999999642372]","1","0","1","","","","","","","",""
"pit-trial","32","338533","0.0-2.0-8.2-2.2","battery-v0.2","","""event"",""trial"",""time""
""fullscreenenter"",""1"",""2181""
","
","
","""event"",""trial"",""time""
""fullscreenenter"",""1"",""2181""
","
","","","394.2000000476837","","","11","10861","5045","&#9776;","elianto","#3366ff99"," "," ","1","+10","[1245.300000011921]","1","0","1","","","","","","","",""
"pit-trial","33","341744","0.0-2.0-8.2-3.2","battery-v0.2","","""event"",""trial"",""time""
""fullscreenenter"",""1"",""2181""
","
","
","""event"",""trial"",""time""
""fullscreenenter"",""1"",""2181""
","
","","","353","","","11","10861","5045","&#9776;","elianto","#3366ff99"," "," ","1","0","[1203.300000011921]","1","0","1","","","","","","","",""
"pit-trial","34","344775","0.0-2.0-8.2-4.2","battery-v0.2","","""event"",""trial"",""time""
""fullscreenenter"",""1"",""2181""
","
","
","""event"",""trial"",""time""
""fullscreenenter"",""1"",""2181""
","
","","","175","","","11","10861","5045","&#9776;","elianto","#3366ff99"," "," ","1","+10","[1026.2000000476837]","1","0","1","","","","","","","",""
"call-function","35","344778","0.0-2.0-9.0","battery-v0.2","","""event"",""trial"",""time""
""fullscreenenter"",""1"",""2181""
","
","
","""event"",""trial"",""time""
""fullscreenenter"",""1"",""2181""
","
","","","","","","","","","","","","","","","","","","","","","","","","","","",""
"pit-instructions","36","386657","0.0-2.0-10.0","battery-v0.2","","""event"",""trial"",""time""
""fullscreenenter"",""1"",""2181""
","
","
","""event"",""trial"",""time""
""fullscreenenter"",""1"",""2181""
","
","","[{""page_index"":0,""viewing_time"":5729.5},{""page_index"":1,""viewing_time"":11310.099999964237},{""page_index"":2,""viewing_time"":9256.5},{""page_index"":3,""viewing_time"":8551.700000047684},{""page_index"":4,""viewing_time"":7030}]","41878.30000001192","","","","","","","","","","","","","","","","","","","","","","","",""
"pit-trial","37","391522","0.0-2.0-11.0-0.0","battery-v0.2","","""event"",""trial"",""time""
""fullscreenenter"",""1"",""2181""
","
","
","""event"",""trial"",""time""
""fullscreenenter"",""1"",""2181""
","
","","","-1","","","11","10861","5045","&#9761;","elianto","#3366ff99","-1","-1","1","+10","[]","0","0","2","","","","","","","",""
"pit-trial","38","396385","0.0-2.0-11.0-1.0","battery-v0.2","","""event"",""trial"",""time""
""fullscreenenter"",""1"",""2181""
","
","
","""event"",""trial"",""time""
""fullscreenenter"",""1"",""2181""
","
","","","-1","","","11","10861","5045","&#9761;","elianto","#3366ff99","-1","-1","1","+10","[]","0","0","2","","","","","","","",""
"pit-trial","39","401248","0.0-2.0-11.0-2.0","battery-v0.2","","""event"",""trial"",""time""
""fullscreenenter"",""1"",""2181""
","
","
","""event"",""trial"",""time""
""fullscreenenter"",""1"",""2181""
","
","","","-1","","","11","10861","5045","&#9761;","elianto","#3366ff99","-1","-1","1","+10","[]","0","0","2","","","","","","","",""
"pit-trial","40","406124","0.0-2.0-11.0-3.0","battery-v0.2","","""event"",""trial"",""time""
""fullscreenenter"",""1"",""2181""
","
","
","""event"",""trial"",""time""
""fullscreenenter"",""1"",""2181""
","
","","","-1","","","11","10861","5045","&#9761;","elianto","#3366ff99","-1","-1","1","0","[]","0","0","2","","","","","","","",""
"pit-trial","41","410994","0.0-2.0-11.0-4.0","battery-v0.2","","""event"",""trial"",""time""
""fullscreenenter"",""1"",""2181""
","
","
","""event"",""trial"",""time""
""fullscreenenter"",""1"",""2181""
","
","","","-1","","","11","10861","5045","&#9761;","elianto","#3366ff99","-1","-1","1","+10","[]","0","0","2","","","","","","","",""
"pit-trial","42","415861","0.0-2.0-11.1-0.1","battery-v0.2","","""event"",""trial"",""time""
""fullscreenenter"",""1"",""2181""
","
","
","""event"",""trial"",""time""
""fullscreenenter"",""1"",""2181""
","
","","","-1","","","11","10861","5045","&#9761;","elianto","#3366ff99","-1","-1","1","+10","[]","0","0","2","","","","","","","",""
"pit-trial","43","420718","0.0-2.0-11.1-1.1","battery-v0.2","","""event"",""trial"",""time""
""fullscreenenter"",""1"",""2181""
","
","
","""event"",""trial"",""time""
""fullscreenenter"",""1"",""2181""
","
","","","-1","","","11","10861","5045","&#9761;","elianto","#3366ff99","-1","-1","1","+10","[]","0","0","2","","","","","","","",""
"pit-trial","44","425576","0.0-2.0-11.1-2.1","battery-v0.2","","""event"",""trial"",""time""
""fullscreenenter"",""1"",""2181""
","
","
","""event"",""trial"",""time""
""fullscreenenter"",""1"",""2181""
","
","","","-1","","","11","10861","5045","&#9761;","elianto","#3366ff99","-1","-1","1","+10","[]","0","0","2","","","","","","","",""
"pit-trial","45","430433","0.0-2.0-11.1-3.1","battery-v0.2","","""event"",""trial"",""time""
""fullscreenenter"",""1"",""2181""
","
","
","""event"",""trial"",""time""
""fullscreenenter"",""1"",""2181""
","
","","","-1","","","11","10861","5045","&#9761;","elianto","#3366ff99","-1","-1","1","0","[]","0","0","2","","","","","","","",""
"pit-trial","46","435292","0.0-2.0-11.1-4.1","battery-v0.2","","""event"",""trial"",""time""
""fullscreenenter"",""1"",""2181""
","
","
","""event"",""trial"",""time""
""fullscreenenter"",""1"",""2181""
","
","","","-1","","","11","10861","5045","&#9761;","elianto","#3366ff99","-1","-1","1","+10","[]","0","0","2","","","","","","","",""
"pit-trial","47","440149","0.0-2.0-11.2-0.2","battery-v0.2","","""event"",""trial"",""time""
""fullscreenenter"",""1"",""2181""
","
","
","""event"",""trial"",""time""
""fullscreenenter"",""1"",""2181""
","
","","","-1","","","11","10861","5045","&#9761;","elianto","#3366ff99","-1","-1","1","+10","[]","0","0","2","","","","","","","",""
"pit-trial","48","445009","0.0-2.0-11.2-1.2","battery-v0.2","","""event"",""trial"",""time""
""fullscreenenter"",""1"",""2181""
","
","
","""event"",""trial"",""time""
""fullscreenenter"",""1"",""2181""
","
","","","-1","","","11","10861","5045","&#9761;","elianto","#3366ff99","-1","-1","1","+10","[]","0","0","2","","","","","","","",""
"pit-trial","49","449865","0.0-2.0-11.2-2.2","battery-v0.2","","""event"",""trial"",""time""
""fullscreenenter"",""1"",""2181""
","
","
","""event"",""trial"",""time""
""fullscreenenter"",""1"",""2181""
","
","","","-1","","","11","10861","5045","&#9761;","elianto","#3366ff99","-1","-1","1","+10","[]","0","0","2","","","","","","","",""
"pit-trial","50","454730","0.0-2.0-11.2-3.2","battery-v0.2","","""event"",""trial"",""time""
""fullscreenenter"",""1"",""2181""
","
","
","""event"",""trial"",""time""
""fullscreenenter"",""1"",""2181""
","
","","","-1","","","11","10861","5045","&#9761;","elianto","#3366ff99","-1","-1","1","0","[]","0","0","2","","","","","","","",""
"pit-trial","51","459588","0.0-2.0-11.2-4.2","battery-v0.2","","""event"",""trial"",""time""
""fullscreenenter"",""1"",""2181""
","
","
","""event"",""trial"",""time""
""fullscreenenter"",""1"",""2181""
","
","","","-1","","","11","10861","5045","&#9761;","elianto","#3366ff99","-1","-1","1","+10","[]","0","0","2","","","","","","","",""
"pit-trial","52","462548","0.0-2.0-11.3-0.3","battery-v0.2","","""event"",""trial"",""time""
""fullscreenenter"",""1"",""2181""
","
","
","""event"",""trial"",""time""
""fullscreenenter"",""1"",""2181""
","
","","","102.30000001192093","","","11","10861","5045","&#9761;","elianto","#3366ff99","-1"," ","0","0","[953.1999999880791]","1","0","2","","","","","","","",""
"pit-trial","53","465567","0.0-2.0-11.3-1.3","battery-v0.2","","""event"",""trial"",""time""
""fullscreenenter"",""1"",""2181""
","
","
","""event"",""trial"",""time""
""fullscreenenter"",""1"",""2181""
","
","","","160.69999998807907","","","11","10861","5045","&#9761;","elianto","#3366ff99","-1"," ","0","0","[1013.2000000476837]","1","0","2","","","","","","","",""
"pit-trial","54","470426","0.0-2.0-11.3-2.3","battery-v0.2","","""event"",""trial"",""time""
""fullscreenenter"",""1"",""2181""
","
","
","""event"",""trial"",""time""
""fullscreenenter"",""1"",""2181""
","
","","","-1","","","11","10861","5045","&#9761;","elianto","#3366ff99","-1","-1","1","+10","[]","0","0","2","","","","","","","",""
"pit-trial","55","475285","0.0-2.0-11.3-3.3","battery-v0.2","","""event"",""trial"",""time""
""fullscreenenter"",""1"",""2181""
","
","
","""event"",""trial"",""time""
""fullscreenenter"",""1"",""2181""
","
","","","-1","","","11","10861","5045","&#9761;","elianto","#3366ff99","-1","-1","1","0","[]","0","0","2","","","","","","","",""
"pit-trial","56","480144","0.0-2.0-11.3-4.3","battery-v0.2","","""event"",""trial"",""time""
""fullscreenenter"",""1"",""2181""
","
","
","""event"",""trial"",""time""
""fullscreenenter"",""1"",""2181""
","
","","","-1","","","11","10861","5045","&#9761;","elianto","#3366ff99","-1","-1","1","+10","[]","0","0","2","","","","","","","",""
"call-function","57","480148","0.0-2.0-12.0","battery-v0.2","","""event"",""trial"",""time""
""fullscreenenter"",""1"",""2181""
","
","
","""event"",""trial"",""time""
""fullscreenenter"",""1"",""2181""
","
","","","","","","","","","","","","","","","","","","","","","","","","","","",""
"pit-instructions","58","511920","0.0-2.0-13.0","battery-v0.2","","""event"",""trial"",""time""
""fullscreenenter"",""1"",""2181""
","
","
","""event"",""trial"",""time""
""fullscreenenter"",""1"",""2181""
","
","","[{""page_index"":0,""viewing_time"":5494.199999988079},{""page_index"":1,""viewing_time"":6812.800000011921},{""page_index"":2,""viewing_time"":4918},{""page_index"":3,""viewing_time"":10392.899999976158},{""page_index"":4,""viewing_time"":4152.899999976158}]","31771.399999976158","","","","","","","","","","","","","","","","","","","","","","","",""
"pit-trial","59","516331","0.0-2.0-14.0-0.0","battery-v0.2","","""event"",""trial"",""time""
""fullscreenenter"",""1"",""2181""
","
","
","""event"",""trial"",""time""
""fullscreenenter"",""1"",""2181""
","
","","","1543.3999999761581","","","11","10861","5045","&#9826;","elianto","#f73b6a7A","-1"," ","0","-10","[2395.699999988079]","1","0","3","","","","","","","",""
"pit-trial","60","521202","0.0-2.0-14.0-1.0","battery-v0.2","","""event"",""trial"",""time""
""fullscreenenter"",""1"",""2181""
","
","
","""event"",""trial"",""time""
""fullscreenenter"",""1"",""2181""
","
","","","-1","","","11","10861","5045","&#9826;","elianto","#f73b6a7A","-1","-1","1","0","[]","0","0","3","","","","","","","",""
"pit-trial","61","524497","0.0-2.0-14.0-2.0","battery-v0.2","","""event"",""trial"",""time""
""fullscreenenter"",""1"",""2181""
","
","
","""event"",""trial"",""time""
""fullscreenenter"",""1"",""2181""
","
","","","430.80000001192093","","","11","10861","5045","&#9826;","elianto","#f73b6a7A","-1"," ","0","-10","[1284.699999988079]","1","0","3","","","","","","","",""
"pit-trial","62","529367","0.0-2.0-14.0-3.0","battery-v0.2","","""event"",""trial"",""time""
""fullscreenenter"",""1"",""2181""
","
","
","""event"",""trial"",""time""
""fullscreenenter"",""1"",""2181""
","
","","","-1","","","11","10861","5045","&#9826;","elianto","#f73b6a7A","-1","-1","1","-10","[]","0","0","3","","","","","","","",""
"pit-trial","63","534244","0.0-2.0-14.0-4.0","battery-v0.2","","""event"",""trial"",""time""
""fullscreenenter"",""1"",""2181""
","
","
","""event"",""trial"",""time""
""fullscreenenter"",""1"",""2181""
","
","","","-1","","","11","10861","5045","&#9826;","elianto","#f73b6a7A","-1","-1","1","0","[]","0","0","3","","","","","","","",""
"pit-trial","64","539118","0.0-2.0-14.1-0.1","battery-v0.2","","""event"",""trial"",""time""
""fullscreenenter"",""1"",""2181""
","
","
","""event"",""trial"",""time""
""fullscreenenter"",""1"",""2181""
","
","","","-1","","","11","10861","5045","&#9826;","elianto","#f73b6a7A","-1","-1","1","0","[]","0","0","3","","","","","","","",""
"pit-trial","65","543975","0.0-2.0-14.1-1.1","battery-v0.2","","""event"",""trial"",""time""
""fullscreenenter"",""1"",""2181""
","
","
","""event"",""trial"",""time""
""fullscreenenter"",""1"",""2181""
","
","","","-1","","","11","10861","5045","&#9826;","elianto","#f73b6a7A","-1","-1","1","0","[]","0","0","3","","","","","","","",""
"pit-trial","66","548834","0.0-2.0-14.1-2.1","battery-v0.2","","""event"",""trial"",""time""
""fullscreenenter"",""1"",""2181""
","
","
","""event"",""trial"",""time""
""fullscreenenter"",""1"",""2181""
","
","","","-1","","","11","10861","5045","&#9826;","elianto","#f73b6a7A","-1","-1","1","0","[]","0","0","3","","","","","","","",""
"pit-trial","67","553692","0.0-2.0-14.1-3.1","battery-v0.2","","""event"",""trial"",""time""
""fullscreenenter"",""1"",""2181""
","
","
","""event"",""trial"",""time""
""fullscreenenter"",""1"",""2181""
","
","","","-1","","","11","10861","5045","&#9826;","elianto","#f73b6a7A","-1","-1","1","-10","[]","0","0","3","","","","","","","",""
"pit-trial","68","558550","0.0-2.0-14.1-4.1","battery-v0.2","","""event"",""trial"",""time""
""fullscreenenter"",""1"",""2181""
","
","
","""event"",""trial"",""time""
""fullscreenenter"",""1"",""2181""
","
","","","-1","","","11","10861","5045","&#9826;","elianto","#f73b6a7A","-1","-1","1","0","[]","0","0","3","","","","","","","",""
"pit-trial","69","563406","0.0-2.0-14.2-0.2","battery-v0.2","","""event"",""trial"",""time""
""fullscreenenter"",""1"",""2181""
","
","
","""event"",""trial"",""time""
""fullscreenenter"",""1"",""2181""
","
","","","-1","","","11","10861","5045","&#9826;","elianto","#f73b6a7A","-1","-1","1","0","[]","0","0","3","","","","","","","",""
"pit-trial","70","568265","0.0-2.0-14.2-1.2","battery-v0.2","","""event"",""trial"",""time""
""fullscreenenter"",""1"",""2181""
","
","
","""event"",""trial"",""time""
""fullscreenenter"",""1"",""2181""
","
","","","-1","","","11","10861","5045","&#9826;","elianto","#f73b6a7A","-1","-1","1","0","[]","0","0","3","","","","","","","",""
"pit-trial","71","573122","0.0-2.0-14.2-2.2","battery-v0.2","","""event"",""trial"",""time""
""fullscreenenter"",""1"",""2181""
","
","
","""event"",""trial"",""time""
""fullscreenenter"",""1"",""2181""
","
","","","-1","","","11","10861","5045","&#9826;","elianto","#f73b6a7A","-1","-1","1","0","[]","0","0","3","","","","","","","",""
"pit-trial","72","577980","0.0-2.0-14.2-3.2","battery-v0.2","","""event"",""trial"",""time""
""fullscreenenter"",""1"",""2181""
","
","
","""event"",""trial"",""time""
""fullscreenenter"",""1"",""2181""
","
","","","-1","","","11","10861","5045","&#9826;","elianto","#f73b6a7A","-1","-1","1","-10","[]","0","0","3","","","","","","","",""
"pit-trial","73","582838","0.0-2.0-14.2-4.2","battery-v0.2","","""event"",""trial"",""time""
""fullscreenenter"",""1"",""2181""
","
","
","""event"",""trial"",""time""
""fullscreenenter"",""1"",""2181""
","
","","","-1","","","11","10861","5045","&#9826;","elianto","#f73b6a7A","-1","-1","1","0","[]","0","0","3","","","","","","","",""
"pit-trial","74","587698","0.0-2.0-14.3-0.3","battery-v0.2","","""event"",""trial"",""time""
""fullscreenenter"",""1"",""2181""
","
","
","""event"",""trial"",""time""
""fullscreenenter"",""1"",""2181""
","
","","","-1","","","11","10861","5045","&#9826;","elianto","#f73b6a7A","-1","-1","1","0","[]","0","0","3","","","","","","","",""
"pit-trial","75","592557","0.0-2.0-14.3-1.3","battery-v0.2","","""event"",""trial"",""time""
""fullscreenenter"",""1"",""2181""
","
","
","""event"",""trial"",""time""
""fullscreenenter"",""1"",""2181""
","
","","","-1","","","11","10861","5045","&#9826;","elianto","#f73b6a7A","-1","-1","1","0","[]","0","0","3","","","","","","","",""
"pit-trial","76","597413","0.0-2.0-14.3-2.3","battery-v0.2","","""event"",""trial"",""time""
""fullscreenenter"",""1"",""2181""
","
","
","""event"",""trial"",""time""
""fullscreenenter"",""1"",""2181""
","
","","","-1","","","11","10861","5045","&#9826;","elianto","#f73b6a7A","-1","-1","1","0","[]","0","0","3","","","","","","","",""
"pit-trial","77","602268","0.0-2.0-14.3-3.3","battery-v0.2","","""event"",""trial"",""time""
""fullscreenenter"",""1"",""2181""
","
","
","""event"",""trial"",""time""
""fullscreenenter"",""1"",""2181""
","
","","","-1","","","11","10861","5045","&#9826;","elianto","#f73b6a7A","-1","-1","1","-10","[]","0","0","3","","","","","","","",""
"pit-trial","78","607126","0.0-2.0-14.3-4.3","battery-v0.2","","""event"",""trial"",""time""
""fullscreenenter"",""1"",""2181""
","
","
","""event"",""trial"",""time""
""fullscreenenter"",""1"",""2181""
","
","","","-1","","","11","10861","5045","&#9826;","elianto","#f73b6a7A","-1","-1","1","0","[]","0","0","3","","","","","","","",""
"call-function","79","607129","0.0-2.0-15.0","battery-v0.2","","""event"",""trial"",""time""
""fullscreenenter"",""1"",""2181""
","
","
","""event"",""trial"",""time""
""fullscreenenter"",""1"",""2181""
","
","","","","","","","","","","","","","","","","","","","","","","","","","","",""
"pit-instructions","80","631199","0.0-2.0-16.0","battery-v0.2","","""event"",""trial"",""time""
""fullscreenenter"",""1"",""2181""
","
","
","""event"",""trial"",""time""
""fullscreenenter"",""1"",""2181""
","
","","[{""page_index"":0,""viewing_time"":6637.5},{""page_index"":1,""viewing_time"":8202.100000023842},{""page_index"":2,""viewing_time"":4058.2999999523163},{""page_index"":3,""viewing_time"":5171.200000047684}]","24069.5","","","","","","","","","","","","","","","","","","","","","","","",""
"pit-trial","81","634881","0.0-2.0-17.0-0.0","battery-v0.2","","""event"",""trial"",""time""
""fullscreenenter"",""1"",""2181""
","
","
","""event"",""trial"",""time""
""fullscreenenter"",""1"",""2181""
","
","","","818.6000000238419","","","11","10861","5045","&#9789;","elianto","#f73b6a7A"," "," ","1","0","[1674.2000000476837]","1","0","4","","","","","","","",""
"pit-trial","82","637816","0.0-2.0-17.0-1.0","battery-v0.2","","""event"",""trial"",""time""
""fullscreenenter"",""1"",""2181""
","
","
","""event"",""trial"",""time""
""fullscreenenter"",""1"",""2181""
","
","","","59.80000001192093","","","11","10861","5045","&#9789;","elianto","#f73b6a7A"," "," ","1","0","[917.5999999642372]","1","0","4","","","","","","","",""
"pit-trial","83","642686","0.0-2.0-17.0-2.0","battery-v0.2","","""event"",""trial"",""time""
""fullscreenenter"",""1"",""2181""
","
","
","""event"",""trial"",""time""
""fullscreenenter"",""1"",""2181""
","
","","","-1","","","11","10861","5045","&#9789;","elianto","#f73b6a7A"," ","-1","0","-10","[]","0","0","4","","","","","","","",""
"pit-trial","84","645654","0.0-2.0-17.0-3.0","battery-v0.2","","""event"",""trial"",""time""
""fullscreenenter"",""1"",""2181""
","
","
","""event"",""trial"",""time""
""fullscreenenter"",""1"",""2181""
","
","","","105.69999998807907","","","11","10861","5045","&#9789;","elianto","#f73b6a7A"," "," ","1","-10","[956.7999999523163]","1","0","4","","","","","","","",""
"pit-trial","85","648678","0.0-2.0-17.0-4.0","battery-v0.2","","""event"",""trial"",""time""
""fullscreenenter"",""1"",""2181""
","
","
","""event"",""trial"",""time""
""fullscreenenter"",""1"",""2181""
","
","","","154.69999998807907","","","11","10861","5045","&#9789;","elianto","#f73b6a7A"," "," ","1","0","[1005.5]","1","0","4","","","","","","","",""
"pit-trial","86","651624","0.0-2.0-17.1-0.1","battery-v0.2","","""event"",""trial"",""time""
""fullscreenenter"",""1"",""2181""
","
","
","""event"",""trial"",""time""
""fullscreenenter"",""1"",""2181""
","
","","","62.69999998807907","","","11","10861","5045","&#9789;","elianto","#f73b6a7A"," "," ","1","0","[495.7000000476837,923]","2","0","4","","","","","","","",""
"pit-trial","87","654607","0.0-2.0-17.1-1.1","battery-v0.2","","""event"",""trial"",""time""
""fullscreenenter"",""1"",""2181""
","
","
","""event"",""trial"",""time""
""fullscreenenter"",""1"",""2181""
","
","","","123.39999997615814","","","11","10861","5045","&#9789;","elianto","#f73b6a7A"," "," ","1","0","[975]","1","0","4","","","","","","","",""
"pit-trial","88","657619","0.0-2.0-17.1-2.1","battery-v0.2","","""event"",""trial"",""time""
""fullscreenenter"",""1"",""2181""
","
","
","""event"",""trial"",""time""
""fullscreenenter"",""1"",""2181""
","
","","","143","","","11","10861","5045","&#9789;","elianto","#f73b6a7A"," "," ","1","0","[1001.5]","1","0","4","","","","","","","",""
"pit-trial","89","660579","0.0-2.0-17.1-3.1","battery-v0.2","","""event"",""trial"",""time""
""fullscreenenter"",""1"",""2181""
","
","
","""event"",""trial"",""time""
""fullscreenenter"",""1"",""2181""
","
","","","100.19999998807907","","","11","10861","5045","&#9789;","elianto","#f73b6a7A"," "," ","1","-10","[955.6999999880791]","1","0","4","","","","","","","",""
"pit-trial","90","663491","0.0-2.0-17.1-4.1","battery-v0.2","","""event"",""trial"",""time""
""fullscreenenter"",""1"",""2181""
","
","
","""event"",""trial"",""time""
""fullscreenenter"",""1"",""2181""
","
","","","53.10000002384186","","","11","10861","5045","&#9789;","elianto","#f73b6a7A"," "," ","1","0","[903.8000000119209]","1","0","4","","","","","","","",""
"pit-trial","91","668351","0.0-2.0-17.2-0.2","battery-v0.2","","""event"",""trial"",""time""
""fullscreenenter"",""1"",""2181""
","
","
","""event"",""trial"",""time""
""fullscreenenter"",""1"",""2181""
","
","","","-1","","","11","10861","5045","&#9789;","elianto","#f73b6a7A"," ","-1","0","-10","[766.1999999880791]","1","0","4","","","","","","","",""
"pit-trial","92","671319","0.0-2.0-17.2-1.2","battery-v0.2","","""event"",""trial"",""time""
""fullscreenenter"",""1"",""2181""
","
","
","""event"",""trial"",""time""
""fullscreenenter"",""1"",""2181""
","
","","","112.09999996423721","","","11","10861","5045","&#9789;","elianto","#f73b6a7A"," "," ","1","0","[963.1999999880791]","1","0","4","","","","","","","",""
"pit-trial","93","674490","0.0-2.0-17.2-2.2","battery-v0.2","","""event"",""trial"",""time""
""fullscreenenter"",""1"",""2181""
","
","
","""event"",""trial"",""time""
""fullscreenenter"",""1"",""2181""
","
","","","315.89999997615814","","","11","10861","5045","&#9789;","elianto","#f73b6a7A"," "," ","1","0","[1166.1000000238419]","1","0","4","","","","","","","",""
"pit-trial","94","677431","0.0-2.0-17.2-3.2","battery-v0.2","","""event"",""trial"",""time""
""fullscreenenter"",""1"",""2181""
","
","
","""event"",""trial"",""time""
""fullscreenenter"",""1"",""2181""
","
","","","82.80000001192093","","","11","10861","5045","&#9789;","elianto","#f73b6a7A"," "," ","1","-10","[933.9000000357628]","1","0","4","","","","","","","",""
"pit-trial","95","680736","0.0-2.0-17.2-4.2","battery-v0.2","","""event"",""trial"",""time""
""fullscreenenter"",""1"",""2181""
","
","
","""event"",""trial"",""time""
""fullscreenenter"",""1"",""2181""
","
","","","447.80000001192093","","","11","10861","5045","&#9789;","elianto","#f73b6a7A"," "," ","1","0","[1298.8999999761581]","1","0","4","","","","","","","",""
"pit-trial","96","683876","0.0-2.0-17.3-0.3","battery-v0.2","","""event"",""trial"",""time""
""fullscreenenter"",""1"",""2181""
","
","
","""event"",""trial"",""time""
""fullscreenenter"",""1"",""2181""
","
","","","281.4000000357628","","","11","10861","5045","&#9789;","elianto","#f73b6a7A"," "," ","1","0","[1134.300000011921]","1","0","4","","","","","","","",""
"pit-trial","97","686897","0.0-2.0-17.3-1.3","battery-v0.2","","""event"",""trial"",""time""
""fullscreenenter"",""1"",""2181""
","
","
","""event"",""trial"",""time""
""fullscreenenter"",""1"",""2181""
","
","","","163.5999999642372","","","11","10861","5045","&#9789;","elianto","#f73b6a7A"," "," ","1","0","[1014.8999999761581]","1","0","4","","","","","","","",""
"pit-trial","98","689832","0.0-2.0-17.3-2.3","battery-v0.2","","""event"",""trial"",""time""
""fullscreenenter"",""1"",""2181""
","
","
","""event"",""trial"",""time""
""fullscreenenter"",""1"",""2181""
","
","","","78.30000001192093","","","11","10861","5045","&#9789;","elianto","#f73b6a7A"," "," ","1","0","[436.60000002384186,928.6999999880791]","2","0","4","","","","","","","",""
"pit-trial","99","692773","0.0-2.0-17.3-3.3","battery-v0.2","","""event"",""trial"",""time""
""fullscreenenter"",""1"",""2181""
","
","
","""event"",""trial"",""time""
""fullscreenenter"",""1"",""2181""
","
","","","85.70000004768372","","","11","10861","5045","&#9789;","elianto","#f73b6a7A"," "," ","1","-10","[936.4000000357628]","1","0","4","","","","","","","",""
"pit-trial","100","696490","0.0-2.0-17.3-4.3","battery-v0.2","","""event"",""trial"",""time""
""fullscreenenter"",""1"",""2181""
","
","
","""event"",""trial"",""time""
""fullscreenenter"",""1"",""2181""
","
","","","861.1000000238419","","","11","10861","5045","&#9789;","elianto","#f73b6a7A"," "," ","1","0","[1711.4000000357628]","1","0","4","","","","","","","",""
"call-function","101","696493","0.0-2.0-18.0","battery-v0.2","","""event"",""trial"",""time""
""fullscreenenter"",""1"",""2181""
","
","
","""event"",""trial"",""time""
""fullscreenenter"",""1"",""2181""
","
","","","","","","","","","","","","","","","","","","","","","","","","","","",""
"pit-instructions","102","765024","0.0-2.0-19.0","battery-v0.2","","""event"",""trial"",""time""
""fullscreenenter"",""1"",""2181""
","
","
","""event"",""trial"",""time""
""fullscreenenter"",""1"",""2181""
","
","","[{""page_index"":0,""viewing_time"":7269.300000011921},{""page_index"":1,""viewing_time"":4659},{""page_index"":2,""viewing_time"":8080.199999988079},{""page_index"":3,""viewing_time"":7721.800000011921},{""page_index"":4,""viewing_time"":7205.5},{""page_index"":5,""viewing_time"":8189.199999988079},{""page_index"":6,""viewing_time"":7307.600000023842},{""page_index"":7,""viewing_time"":10672.899999976158},{""page_index"":8,""viewing_time"":7423.600000023842}]","68529.80000001192","","","","","","","","","","","","","","","","","","","","","","","",""
"pit-comprehension","103","775169","0.0-2.0-20.0-0.0","battery-v0.2","","""event"",""trial"",""time""
""fullscreenenter"",""1"",""2181""
","
","
","""event"",""trial"",""time""
""fullscreenenter"",""1"",""2181""
","
","","","10138.5","[""SPACE""]","0","11","10861","5045","","","","","","","","","","","","","","","","","","",""
"pit-instructions","104","779234","0.0-2.0-20.0-1.0","battery-v0.2","","""event"",""trial"",""time""
""fullscreenenter"",""1"",""2181""
","
","
","""event"",""trial"",""time""
""fullscreenenter"",""1"",""2181""
","
","","[{""page_index"":0,""viewing_time"":4035}]","4035.800000011921","","","","","","","","","","","","","","","","","","","","","","","",""
"pit-comprehension","105","787014","0.0-2.0-21.0-0.0","battery-v0.2","","""event"",""trial"",""time""
""fullscreenenter"",""1"",""2181""
","
","
","""event"",""trial"",""time""
""fullscreenenter"",""1"",""2181""
","
","","","7770","[""10""]","0","11","10861","5045","","","","","","","","","","","","","","","","","","",""
"pit-instructions","106","789138","0.0-2.0-21.0-1.0","battery-v0.2","","""event"",""trial"",""time""
""fullscreenenter"",""1"",""2181""
","
","
","""event"",""trial"",""time""
""fullscreenenter"",""1"",""2181""
","
","","[{""page_index"":0,""viewing_time"":2098.600000023842}]","2099.199999988079","","","","","","","","","","","","","","","","","","","","","","","",""
"pit-comprehension","107","795764","0.0-2.0-22.0-0.0","battery-v0.2","","""event"",""trial"",""time""
""fullscreenenter"",""1"",""2181""
","
","
","""event"",""trial"",""time""
""fullscreenenter"",""1"",""2181""
","
","","","6618.600000023842","[""0""]","0","11","10861","5045","","","","","","","","","","","","","","","","","","",""
"pit-instructions","108","797501","0.0-2.0-22.0-1.0","battery-v0.2","","""event"",""trial"",""time""
""fullscreenenter"",""1"",""2181""
","
","
","""event"",""trial"",""time""
""fullscreenenter"",""1"",""2181""
","
","","[{""page_index"":0,""viewing_time"":1705.1000000238419}]","1705.9000000357628","","","","","","","","","","","","","","","","","","","","","","","",""
"pit-comprehension","109","806297","0.0-2.0-23.0-0.0","battery-v0.2","","""event"",""trial"",""time""
""fullscreenenter"",""1"",""2181""
","
","
","""event"",""trial"",""time""
""fullscreenenter"",""1"",""2181""
","
","","","8787.300000011921","[""True""]","0","11","10861","5045","","","","","","","","","","","","","","","","","","",""
"pit-instructions","110","808125","0.0-2.0-23.0-1.0","battery-v0.2","","""event"",""trial"",""time""
""fullscreenenter"",""1"",""2181""
","
","
","""event"",""trial"",""time""
""fullscreenenter"",""1"",""2181""
","
","","[{""page_index"":0,""viewing_time"":1801.8999999761581}]","1802.5","","","","","","","","","","","","","","","","","","","","","","","",""
"pit-comprehension","111","819655","0.0-2.0-24.0-0.0","battery-v0.2","","""event"",""trial"",""time""
""fullscreenenter"",""1"",""2181""
","
","
","""event"",""trial"",""time""
""fullscreenenter"",""1"",""2181""
","
","","","11523.200000047684","[""True""]","0","11","10861","5045","","","","","","","","","","","","","","","","","","",""
"pit-instructions","112","828146","0.0-2.0-24.0-1.0","battery-v0.2","","""event"",""trial"",""time""
""fullscreenenter"",""1"",""2181""
","
","
","""event"",""trial"",""time""
""fullscreenenter"",""1"",""2181""
","
","","[{""page_index"":0,""viewing_time"":8467.699999988079}]","8468.599999964237","","","","","","","","","","","","","","","","","","","","","","","",""
"pit-comprehension","113","837944","0.0-2.0-25.0-0.0","battery-v0.2","","""event"",""trial"",""time""
""fullscreenenter"",""1"",""2181""
","
","
","""event"",""trial"",""time""
""fullscreenenter"",""1"",""2181""
","
","","","9791.100000023842","[""True""]","0","11","10861","5045","","","","","","","","","","","","","","","","","","",""
"pit-instructions","114","839613","0.0-2.0-25.0-1.0","battery-v0.2","","""event"",""trial"",""time""
""fullscreenenter"",""1"",""2181""
","
","
","""event"",""trial"",""time""
""fullscreenenter"",""1"",""2181""
","
","","[{""page_index"":0,""viewing_time"":1643.800000011921}]","1644.6000000238419","","","","","","","","","","","","","","","","","","","","","","","",""
"pit-comprehension","115","847114","0.0-2.0-26.0-0.0","battery-v0.2","","""event"",""trial"",""time""
""fullscreenenter"",""1"",""2181""
","
","
","""event"",""trial"",""time""
""fullscreenenter"",""1"",""2181""
","
","","","7491.699999988079","[""False""]","0","11","10861","5045","","","","","","","","","","","","","","","","","","",""
"pit-instructions","116","848916","0.0-2.0-26.0-1.0","battery-v0.2","","""event"",""trial"",""time""
""fullscreenenter"",""1"",""2181""
","
","
","""event"",""trial"",""time""
""fullscreenenter"",""1"",""2181""
","
","","[{""page_index"":0,""viewing_time"":1779.6000000238419}]","1780.4000000357628","","","","","","","","","","","","","","","","","","","","","","","",""
"pit-instructions","117","869219","0.0-3.0","battery-v0.2","","""event"",""trial"",""time""
""fullscreenenter"",""1"",""2181""
","
","
","""event"",""trial"",""time""
""fullscreenenter"",""1"",""2181""
","
","","[{""page_index"":0,""viewing_time"":7245.299999952316},{""page_index"":1,""viewing_time"":5556.300000011921},{""page_index"":2,""viewing_time"":7495.800000011921}]","20297.799999952316","","","","","","","","","","","","","","","","","","","","","","","",""
"pit-trial","118","872281","0.0-4.0","battery-v0.2","","""event"",""trial"",""time""
""fullscreenenter"",""1"",""2181""
","
","
","""event"",""trial"",""time""
""fullscreenenter"",""1"",""2181""
","
","","","195.5","","","11","10861","5045","&#9730;","elianto","#3366ff99"," "," ","1","+10","[1055.9000000357628]","1","1","","","10861","1","1","1","win","go","0"
"pit-trial","119","877152","0.0-5.0","battery-v0.2","","""event"",""trial"",""time""
""fullscreenenter"",""1"",""2181""
","
","
","""event"",""trial"",""time""
""fullscreenenter"",""1"",""2181""
","
","","","-1","","","11","10861","5045","&#9752;","elianto","#f73b6a7A"," ","-1","0","-10","[]","0","1","","","10861","2","3","3","lose","go","0"
"pit-trial","120","880608","0.0-6.0","battery-v0.2","","""event"",""trial"",""time""
""fullscreenenter"",""1"",""2181""
","
","
","""event"",""trial"",""time""
""fullscreenenter"",""1"",""2181""
","
","","","587.5999999642372","","","11","10861","5045","&#9728;","elianto","#f73b6a7A","-1"," ","0","0","[1439.0999999642372]","1","1","","","10861","3","0","4","lose","no-go","1"
"pit-trial","121","885483","0.0-7.0","battery-v0.2","","""event"",""trial"",""time""
""fullscreenenter"",""1"",""2181""
","
","
","""event"",""trial"",""time""
""fullscreenenter"",""1"",""2181""
","
","","","-1","","","11","10861","5045","&#9733;","elianto","#3366ff99","-1","-1","1","+10","[]","0","1","","","10861","4","2","2","win","no-go","0"
"pit-trial","122","888851","0.0-8.0","battery-v0.2","","""event"",""trial"",""time""
""fullscreenenter"",""1"",""2181""
","
","
","""event"",""trial"",""time""
""fullscreenenter"",""1"",""2181""
","
","","","510.30000001192093","","","11","10861","5045","&#9730;","elianto","#3366ff99"," "," ","1","0","[1361.800000011921]","1","1","","","10861","5","1","1","win","go","1"
"pit-trial","123","892654","0.0-9.0","battery-v0.2","","""event"",""trial"",""time""
""fullscreenenter"",""1"",""2181""
","
","
","""event"",""trial"",""time""
""fullscreenenter"",""1"",""2181""
","
","","","934.1000000238419","","","11","10861","5045","&#9733;","elianto","#3366ff99","-1"," ","0","0","[1786.6000000238419]","1","1","","","10861","6","2","2","win","no-go","0"
"pit-trial","124","896267","0.0-10.0","battery-v0.2","","""event"",""trial"",""time""
""fullscreenenter"",""1"",""2181""
","
","
","""event"",""trial"",""time""
""fullscreenenter"",""1"",""2181""
","
","","","747.6999999880791","","","11","10861","5045","&#9752;","elianto","#f73b6a7A"," "," ","1","0","[1604.300000011921]","1","1","","","10861","7","3","3","lose","go","0"
"pit-trial","125","901126","0.0-11.0","battery-v0.2","","""event"",""trial"",""time""
""fullscreenenter"",""1"",""2181""
","
","
","""event"",""trial"",""time""
""fullscreenenter"",""1"",""2181""
","
","","","-1","","","11","10861","5045","&#9728;","elianto","#f73b6a7A","-1","-1","1","0","[]","0","1","","","10861","8","0","4","lose","no-go","0"
"pit-trial","126","904527","0.0-12.0","battery-v0.2","","""event"",""trial"",""time""
""fullscreenenter"",""1"",""2181""
","
","
","""event"",""trial"",""time""
""fullscreenenter"",""1"",""2181""
","
","","","542","","","11","10861","5045","&#9733;","elianto","#3366ff99","-1"," ","0","+10","[1392.300000011921]","1","1","","","10861","9","2","2","win","no-go","1"
"pit-trial","127","908408","0.0-13.0","battery-v0.2","","""event"",""trial"",""time""
""fullscreenenter"",""1"",""2181""
","
","
","""event"",""trial"",""time""
""fullscreenenter"",""1"",""2181""
","
","","","1024.1000000238419","","","11","10861","5045","&#9730;","elianto","#3366ff99"," "," ","1","+10","[425.5,1876.4000000357628]","2","1","","","10861","10","1","1","win","go","0"
"pit-trial","128","912121","0.0-14.0","battery-v0.2","","""event"",""trial"",""time""
""fullscreenenter"",""1"",""2181""
","
","
","""event"",""trial"",""time""
""fullscreenenter"",""1"",""2181""
","
","","","857","","","11","10861","5045","&#9728;","elianto","#f73b6a7A","-1"," ","0","-10","[1708.4000000357628]","1","1","","","10861","11","0","4","lose","no-go","0"
"pit-trial","129","916979","0.0-15.0","battery-v0.2","","""event"",""trial"",""time""
""fullscreenenter"",""1"",""2181""
","
","
","""event"",""trial"",""time""
""fullscreenenter"",""1"",""2181""
","
","","","-1","","","11","10861","5045","&#9752;","elianto","#f73b6a7A"," ","-1","0","-10","[]","0","1","","","10861","12","3","3","lose","go","0"
"pit-trial","130","920623","0.0-16.0","battery-v0.2","","""event"",""trial"",""time""
""fullscreenenter"",""1"",""2181""
","
","
","""event"",""trial"",""time""
""fullscreenenter"",""1"",""2181""
","
","","","770.1000000238419","","","11","10861","5045","&#9733;","elianto","#3366ff99","-1"," ","0","0","[1620.800000011921]","1","1","","","10861","13","2","2","win","no-go","0"
"pit-trial","131","925480","0.0-17.0","battery-v0.2","","""event"",""trial"",""time""
""fullscreenenter"",""1"",""2181""
","
","
","""event"",""trial"",""time""
""fullscreenenter"",""1"",""2181""
","
","","","-1","","","11","10861","5045","&#9752;","elianto","#f73b6a7A"," ","-1","0","-10","[]","0","1","","","10861","14","3","3","lose","go","0"
"pit-trial","132","929033","0.0-18.0","battery-v0.2","","""event"",""trial"",""time""
""fullscreenenter"",""1"",""2181""
","
","
","""event"",""trial"",""time""
""fullscreenenter"",""1"",""2181""
","
","","","697.6000000238419","","","11","10861","5045","&#9730;","elianto","#3366ff99"," "," ","1","+10","[1548.6000000238419]","1","1","","","10861","15","1","1","win","go","0"
"pit-trial","133","933165","0.0-19.0","battery-v0.2","","""event"",""trial"",""time""
""fullscreenenter"",""1"",""2181""
","
","
","""event"",""trial"",""time""
""fullscreenenter"",""1"",""2181""
","
","","","1275.0999999642372","","","11","10861","5045","&#9728;","elianto","#f73b6a7A","-1"," ","0","0","[2125.300000011921]","1","1","","","10861","16","0","4","lose","no-go","1"
"pit-trial","134","938019","0.0-20.0","battery-v0.2","","""event"",""trial"",""time""
""fullscreenenter"",""1"",""2181""
","
","
","""event"",""trial"",""time""
""fullscreenenter"",""1"",""2181""
","
","","","-1","","","11","10861","5045","&#9752;","elianto","#f73b6a7A"," ","-1","0","0","[]","0","1","","","10861","17","3","3","lose","go","1"
"pit-trial","135","941959","0.0-21.0","battery-v0.2","","""event"",""trial"",""time""
""fullscreenenter"",""1"",""2181""
","
","
","""event"",""trial"",""time""
""fullscreenenter"",""1"",""2181""
","
","","","1082.300000011921","","","11","10861","5045","&#9733;","elianto","#3366ff99","-1"," ","0","0","[1933.4000000357628]","1","1","","","10861","18","2","2","win","no-go","0"
"pit-trial","136","945577","0.0-22.0","battery-v0.2","","""event"",""trial"",""time""
""fullscreenenter"",""1"",""2181""
","
","
","""event"",""trial"",""time""
""fullscreenenter"",""1"",""2181""
","
","","","761.3999999761581","","","11","10861","5045","&#9730;","elianto","#3366ff99"," "," ","1","+10","[1611.5999999642372]","1","1","","","10861","19","1","1","win","go","0"
"pit-trial","137","949491","0.0-23.0","battery-v0.2","","""event"",""trial"",""time""
""fullscreenenter"",""1"",""2181""
","
","
","""event"",""trial"",""time""
""fullscreenenter"",""1"",""2181""
","
","","","1057.3999999761581","","","11","10861","5045","&#9728;","elianto","#f73b6a7A","-1"," ","0","-10","[1908]","1","1","","","10861","20","0","4","lose","no-go","0"
"pit-instructions","138","965273","0.0-24.0","battery-v0.2","","""event"",""trial"",""time""
""fullscreenenter"",""1"",""2181""
","
","
","""event"",""trial"",""time""
""fullscreenenter"",""1"",""2181""
","
","","[{""page_index"":0,""viewing_time"":6255.600000023842},{""page_index"":1,""viewing_time"":9521.099999964237}]","15777.300000011921","","","","","","","","","","","","","","","","","","","","","","","",""
"pit-trial","139","968882","0.0-25.0","battery-v0.2","","""event"",""trial"",""time""
""fullscreenenter"",""1"",""2181""
","
","
","""event"",""trial"",""time""
""fullscreenenter"",""1"",""2181""
","
","","","736","","","11","10861","5045","r","elianto","#3366ff99","-1"," ","0","0","[1586]","1","2","","","10861","21","1","2","win","no-go","0"
"pit-trial","140","973755","0.0-26.0","battery-v0.2","","""event"",""trial"",""time""
""fullscreenenter"",""1"",""2181""
","
","
","""event"",""trial"",""time""
""fullscreenenter"",""1"",""2181""
","
","","","-1","","","11","10861","5045","h","elianto","#f73b6a7A","-1","-1","1","0","[]","0","2","","","10861","22","3","4","lose","no-go","0"
"pit-trial","141","977881","0.0-27.0","battery-v0.2","","""event"",""trial"",""time""
""fullscreenenter"",""1"",""2181""
","
","
","""event"",""trial"",""time""
""fullscreenenter"",""1"",""2181""
","
","","","1262.5999999642372","","","11","10861","5045","y","elianto","#f73b6a7A"," "," ","1","0","[2114.399999976158]","1","2","","","10861","23","2","3","lose","go","0"
"pit-trial","142","980846","0.0-28.0","battery-v0.2","","""event"",""trial"",""time""
""fullscreenenter"",""1"",""2181""
","
","
","""event"",""trial"",""time""
""fullscreenenter"",""1"",""2181""
","
","","","100.69999998807907","","","11","10861","5045","m","elianto","#f73b6a7A"," "," ","1","-10","[958.3000000119209]","1","2","","","10861","24","0","3","lose","go","1"
"pit-trial","143","984344","0.0-29.0","battery-v0.2","","""event"",""trial"",""time""
""fullscreenenter"",""1"",""2181""
","
","
","""event"",""trial"",""time""
""fullscreenenter"",""1"",""2181""
","
","","","623.6999999880791","","","11","10861","5045","r","elianto","#3366ff99","-1"," ","0","0","[1482.8999999761581]","1","2","","","10861","25","1","2","win","no-go","0"
"pit-trial","144","987686","0.0-30.0","battery-v0.2","","""event"",""trial"",""time""
""fullscreenenter"",""1"",""2181""
","
","
","""event"",""trial"",""time""
""fullscreenenter"",""1"",""2181""
","
","","","474.39999997615814","","","11","10861","5045","y","elianto","#f73b6a7A"," "," ","1","0","[1325.5]","1","2","","","10861","26","2","3","lose","go","0"
"pit-trial","145","991358","0.0-31.0","battery-v0.2","","""event"",""trial"",""time""
""fullscreenenter"",""1"",""2181""
","
","
","""event"",""trial"",""time""
""fullscreenenter"",""1"",""2181""
","
","","","799.1000000238419","","","11","10861","5045","m","elianto","#f73b6a7A"," "," ","1","0","[1652.300000011921]","1","2","","","10861","27","0","3","lose","go","0"
"pit-trial","146","995161","0.0-32.0","battery-v0.2","","""event"",""trial"",""time""
""fullscreenenter"",""1"",""2181""
","
","
","""event"",""trial"",""time""
""fullscreenenter"",""1"",""2181""
","
","","","945.1999999880791","","","11","10861","5045","h","elianto","#f73b6a7A","-1"," ","0","-10","[1796.300000011921]","1","2","","","10861","28","3","4","lose","no-go","0"
"pit-trial","147","1000019","0.0-33.0","battery-v0.2","","""event"",""trial"",""time""
""fullscreenenter"",""1"",""2181""
","
","
","""event"",""trial"",""time""
""fullscreenenter"",""1"",""2181""
","
","","","-1","","","11","10861","5045","y","elianto","#f73b6a7A"," ","-1","0","-10","[]","0","2","","","10861","29","2","3","lose","go","0"
"pit-trial","148","1003616","0.0-34.0","battery-v0.2","","""event"",""trial"",""time""
""fullscreenenter"",""1"",""2181""
","
","
","""event"",""trial"",""time""
""fullscreenenter"",""1"",""2181""
","
","","","740.5","","","11","10861","5045","m","elianto","#f73b6a7A"," "," ","1","0","[137.4000000357628,1591.5]","2","2","","","10861","30","0","3","lose","go","0"
"pit-trial","149","1006982","0.0-35.0","battery-v0.2","","""event"",""trial"",""time""
""fullscreenenter"",""1"",""2181""
","
","
","""event"",""trial"",""time""
""fullscreenenter"",""1"",""2181""
","
","","","509.30000001192093","","","11","10861","5045","r","elianto","#3366ff99","-1"," ","0","+10","[1359.9000000357628]","1","2","","","10861","31","1","2","win","no-go","1"
"pit-trial","150","1010341","0.0-36.0","battery-v0.2","","""event"",""trial"",""time""
""fullscreenenter"",""1"",""2181""
","
","
","""event"",""trial"",""time""
""fullscreenenter"",""1"",""2181""
","
","","","502.39999997615814","","","11","10861","5045","h","elianto","#f73b6a7A","-1"," ","0","-10","[1353.2999999523163]","1","2","","","10861","32","3","4","lose","no-go","0"
"pit-trial","151","1013959","0.0-37.0","battery-v0.2","","""event"",""trial"",""time""
""fullscreenenter"",""1"",""2181""
","
","
","""event"",""trial"",""time""
""fullscreenenter"",""1"",""2181""
","
","","","761.5","","","11","10861","5045","r","elianto","#3366ff99","-1"," ","0","0","[1612.4000000357628]","1","2","","","10861","33","1","2","win","no-go","0"
"pit-trial","152","1018368","0.0-38.0","battery-v0.2","","""event"",""trial"",""time""
""fullscreenenter"",""1"",""2181""
","
","
","""event"",""trial"",""time""
""fullscreenenter"",""1"",""2181""
","
","","","1551.5","","","11","10861","5045","y","elianto","#f73b6a7A"," "," ","1","0","[2403]","1","2","","","10861","34","2","3","lose","go","0"
"pit-trial","153","1021886","0.0-39.0","battery-v0.2","","""event"",""trial"",""time""
""fullscreenenter"",""1"",""2181""
","
","
","""event"",""trial"",""time""
""fullscreenenter"",""1"",""2181""
","
","","","662.3999999761581","","","11","10861","5045","m","elianto","#f73b6a7A"," "," ","1","0","[1512.8999999761581]","1","2","","","10861","35","0","3","lose","go","0"
"pit-trial","154","1025658","0.0-40.0","battery-v0.2","","""event"",""trial"",""time""
""fullscreenenter"",""1"",""2181""
","
","
","""event"",""trial"",""time""
""fullscreenenter"",""1"",""2181""
","
","","","914.8000000119209","","","11","10861","5045","h","elianto","#f73b6a7A","-1"," ","0","-10","[1765.199999988079]","1","2","","","10861","36","3","4","lose","no-go","0"
"pit-trial","155","1029008","0.0-41.0","battery-v0.2","","""event"",""trial"",""time""
""fullscreenenter"",""1"",""2181""
","
","
","""event"",""trial"",""time""
""fullscreenenter"",""1"",""2181""
","
","","","494.30000001192093","","","11","10861","5045","r","elianto","#3366ff99","-1"," ","0","+10","[1345.1000000238419]","1","2","","","10861","37","1","2","win","no-go","1"
"pit-trial","156","1032991","0.0-42.0","battery-v0.2","","""event"",""trial"",""time""
""fullscreenenter"",""1"",""2181""
","
","
","""event"",""trial"",""time""
""fullscreenenter"",""1"",""2181""
","
","","","1124.1000000238419","","","11","10861","5045","m","elianto","#f73b6a7A"," "," ","1","-10","[1974.9000000357628,3727.900000035763]","2","2","","","10861","38","0","3","lose","go","1"
"pit-trial","157","1037848","0.0-43.0","battery-v0.2","","""event"",""trial"",""time""
""fullscreenenter"",""1"",""2181""
","
","
","""event"",""trial"",""time""
""fullscreenenter"",""1"",""2181""
","
","","","-1","","","11","10861","5045","y","elianto","#f73b6a7A"," ","-1","0","-10","[4512]","1","2","","","10861","39","2","3","lose","go","0"
"pit-trial","158","1042707","0.0-44.0","battery-v0.2","","""event"",""trial"",""time""
""fullscreenenter"",""1"",""2181""
","
","
","""event"",""trial"",""time""
""fullscreenenter"",""1"",""2181""
","
","","","-1","","","11","10861","5045","h","elianto","#f73b6a7A","-1","-1","1","0","[3543.5]","1","2","","","10861","40","3","4","lose","no-go","0"
"pit-trial","159","1047565","0.0-45.0","battery-v0.2","","""event"",""trial"",""time""
""fullscreenenter"",""1"",""2181""
","
","
","""event"",""trial"",""time""
""fullscreenenter"",""1"",""2181""
","
","","","-1","","","11","10861","5045","h","elianto","#f73b6a7A","-1","-1","1","0","[601.9000000357628]","1","2","","","10861","41","3","4","lose","no-go","0"
"pit-trial","160","1052079","0.0-46.0","battery-v0.2","","""event"",""trial"",""time""
""fullscreenenter"",""1"",""2181""
","
","
","""event"",""trial"",""time""
""fullscreenenter"",""1"",""2181""
","
","","","1656","","","11","10861","5045","r","elianto","#3366ff99","-1"," ","0","0","[124.29999995231628,2507.2999999523163,2792.099999964237,3686.5]","4","2","","","10861","42","1","2","win","no-go","0"
"pit-trial","161","1056943","0.0-47.0","battery-v0.2","","""event"",""trial"",""time""
""fullscreenenter"",""1"",""2181""
","
","
","""event"",""trial"",""time""
""fullscreenenter"",""1"",""2181""
","
","","","-1","","","11","10861","5045","m","elianto","#f73b6a7A"," ","-1","0","-10","[16]","1","2","","","10861","43","0","3","lose","go","0"
"pit-trial","162","1061527","0.0-48.0","battery-v0.2","","""event"",""trial"",""time""
""fullscreenenter"",""1"",""2181""
","
","
","""event"",""trial"",""time""
""fullscreenenter"",""1"",""2181""
","
","","","1728.800000011921","","","11","10861","5045","y","elianto","#f73b6a7A"," "," ","1","0","[2579.5]","1","2","","","10861","44","2","3","lose","go","0"
"pit-trial","163","1066384","0.0-49.0","battery-v0.2","","""event"",""trial"",""time""
""fullscreenenter"",""1"",""2181""
","
","
","""event"",""trial"",""time""
""fullscreenenter"",""1"",""2181""
","
","","","-1","","","11","10861","5045","m","elianto","#f73b6a7A"," ","-1","0","0","[]","0","2","","","10861","45","0","3","lose","go","1"
"pit-trial","164","1071243","0.0-50.0","battery-v0.2","","""event"",""trial"",""time""
""fullscreenenter"",""1"",""2181""
","
","
","""event"",""trial"",""time""
""fullscreenenter"",""1"",""2181""
","
","","","-1","","","11","10861","5045","h","elianto","#f73b6a7A","-1","-1","1","0","[4260.600000023842]","1","2","","","10861","46","3","4","lose","no-go","0"
"pit-trial","165","1076101","0.0-51.0","battery-v0.2","","""event"",""trial"",""time""
""fullscreenenter"",""1"",""2181""
","
","
","""event"",""trial"",""time""
""fullscreenenter"",""1"",""2181""
","
","","","-1","","","11","10861","5045","y","elianto","#f73b6a7A"," ","-1","0","-10","[]","0","2","","","10861","47","2","3","lose","go","0"
"pit-trial","166","1080667","0.0-52.0","battery-v0.2","","""event"",""trial"",""time""
""fullscreenenter"",""1"",""2181""
","
","
","""event"",""trial"",""time""
""fullscreenenter"",""1"",""2181""
","
","","","1706.699999988079","","","11","10861","5045","r","elianto","#3366ff99","-1"," ","0","+10","[2557.199999988079,2860.300000011921]","2","2","","","10861","48","1","2","win","no-go","1"
"pit-trial","167","1085524","0.0-53.0","battery-v0.2","","""event"",""trial"",""time""
""fullscreenenter"",""1"",""2181""
","
","
","""event"",""trial"",""time""
""fullscreenenter"",""1"",""2181""
","
","","","-1","","","11","10861","5045","y","elianto","#f73b6a7A"," ","-1","0","-10","[]","0","2","","","10861","49","2","3","lose","go","0"
"pit-trial","168","1090381","0.0-54.0","battery-v0.2","","""event"",""trial"",""time""
""fullscreenenter"",""1"",""2181""
","
","
","""event"",""trial"",""time""
""fullscreenenter"",""1"",""2181""
","
","","","-1","","","11","10861","5045","h","elianto","#f73b6a7A","-1","-1","1","-10","[]","0","2","","","10861","50","3","4","lose","no-go","1"
"pit-trial","169","1094033","0.0-55.0","battery-v0.2","","""event"",""trial"",""time""
""fullscreenenter"",""1"",""2181""
","
","
","""event"",""trial"",""time""
""fullscreenenter"",""1"",""2181""
","
","","","793.8999999761581","","","11","10861","5045","m","elianto","#f73b6a7A"," "," ","1","0","[1645.3999999761581]","1","2","","","10861","51","0","3","lose","go","0"
"pit-trial","170","1098891","0.0-56.0","battery-v0.2","","""event"",""trial"",""time""
""fullscreenenter"",""1"",""2181""
","
","
","""event"",""trial"",""time""
""fullscreenenter"",""1"",""2181""
","
","","","-1","","","11","10861","5045","r","elianto","#3366ff99","-1","-1","1","+10","[]","0","2","","","10861","52","1","2","win","no-go","0"
"pit-trial","171","1103746","0.0-57.0","battery-v0.2","","""event"",""trial"",""time""
""fullscreenenter"",""1"",""2181""
","
","
","""event"",""trial"",""time""
""fullscreenenter"",""1"",""2181""
","
","","","-1","","","11","10861","5045","y","elianto","#f73b6a7A"," ","-1","0","-10","[489.30000001192093]","1","2","","","10861","53","2","3","lose","go","0"
"pit-trial","172","1108603","0.0-58.0","battery-v0.2","","""event"",""trial"",""time""
""fullscreenenter"",""1"",""2181""
","
","
","""event"",""trial"",""time""
""fullscreenenter"",""1"",""2181""
","
","","","-1","","","11","10861","5045","m","elianto","#f73b6a7A"," ","-1","0","0","[]","0","2","","","10861","54","0","3","lose","go","1"
"pit-trial","173","1111916","0.0-59.0","battery-v0.2","","""event"",""trial"",""time""
""fullscreenenter"",""1"",""2181""
","
","
","""event"",""trial"",""time""
""fullscreenenter"",""1"",""2181""
","
","","","456.80000001192093","","","11","10861","5045","h","elianto","#f73b6a7A","-1"," ","0","-10","[1307]","1","2","","","10861","55","3","4","lose","no-go","0"
"pit-trial","174","1116772","0.0-60.0","battery-v0.2","","""event"",""trial"",""time""
""fullscreenenter"",""1"",""2181""
","
","
","""event"",""trial"",""time""
""fullscreenenter"",""1"",""2181""
","
","","","-1","","","11","10861","5045","r","elianto","#3366ff99","-1","-1","1","+10","[]","0","2","","","10861","56","1","2","win","no-go","0"
"pit-trial","175","1121629","0.0-61.0","battery-v0.2","","""event"",""trial"",""time""
""fullscreenenter"",""1"",""2181""
","
","
","""event"",""trial"",""time""
""fullscreenenter"",""1"",""2181""
","
","","","-1","","","11","10861","5045","z","elianto","#3366ff99"," ","-1","0","0","[401.4000000357628]","1","2","","","10861","57","4","1","win","go","0"
"pit-trial","176","1126485","0.0-62.0","battery-v0.2","","""event"",""trial"",""time""
""fullscreenenter"",""1"",""2181""
","
","
","""event"",""trial"",""time""
""fullscreenenter"",""1"",""2181""
","
","","","-1","","","11","10861","5045","m","elianto","#f73b6a7A"," ","-1","0","-10","[579.9000000357628]","1","2","","","10861","58","0","3","lose","go","0"
"pit-trial","177","1131342","0.0-63.0","battery-v0.2","","""event"",""trial"",""time""
""fullscreenenter"",""1"",""2181""
","
","
","""event"",""trial"",""time""
""fullscreenenter"",""1"",""2181""
","
","","","-1","","","11","10861","5045","h","elianto","#f73b6a7A","-1","-1","1","-10","[]","0","2","","","10861","59","3","4","lose","no-go","1"
"pit-trial","178","1136204","0.0-64.0","battery-v0.2","","""event"",""trial"",""time""
""fullscreenenter"",""1"",""2181""
","
","
","""event"",""trial"",""time""
""fullscreenenter"",""1"",""2181""
","
","","","-1","","","11","10861","5045","y","elianto","#f73b6a7A"," ","-1","0","0","[4745.600000023842]","1","2","","","10861","60","2","3","lose","go","1"
"pit-trial","179","1141059","0.0-65.0","battery-v0.2","","""event"",""trial"",""time""
""fullscreenenter"",""1"",""2181""
","
","
","""event"",""trial"",""time""
""fullscreenenter"",""1"",""2181""
","
","","","-1","","","11","10861","5045","y","elianto","#f73b6a7A"," ","-1","0","-10","[]","0","2","","","10861","61","2","3","lose","go","0"
"pit-trial","180","1145920","0.0-66.0","battery-v0.2","","""event"",""trial"",""time""
""fullscreenenter"",""1"",""2181""
","
","
","""event"",""trial"",""time""
""fullscreenenter"",""1"",""2181""
","
","","","-1","","","11","10861","5045","z","elianto","#3366ff99"," ","-1","0","0","[]","0","2","","","10861","62","4","1","win","go","0"
"pit-trial","181","1148876","0.0-67.0","battery-v0.2","","""event"",""trial"",""time""
""fullscreenenter"",""1"",""2181""
","
","
","""event"",""trial"",""time""
""fullscreenenter"",""1"",""2181""
","
","","","98.89999997615814","","","11","10861","5045","h","elianto","#f73b6a7A","-1"," ","0","-10","[950.3000000119209]","1","2","","","10861","63","3","4","lose","no-go","0"
"pit-trial","182","1153735","0.0-68.0","battery-v0.2","","""event"",""trial"",""time""
""fullscreenenter"",""1"",""2181""
","
","
","""event"",""trial"",""time""
""fullscreenenter"",""1"",""2181""
","
","","","-1","","","11","10861","5045","r","elianto","#3366ff99","-1","-1","1","+10","[]","0","2","","","10861","64","1","2","win","no-go","0"
"pit-trial","183","1158593","0.0-69.0","battery-v0.2","","""event"",""trial"",""time""
""fullscreenenter"",""1"",""2181""
","
","
","""event"",""trial"",""time""
""fullscreenenter"",""1"",""2181""
","
","","","-1","","","11","10861","5045","c","elianto","#3366ff99","-1","-1","1","+10","[387.19999998807907]","1","2","","","10861","65","5","2","win","no-go","0"
"pit-trial","184","1163449","0.0-70.0","battery-v0.2","","""event"",""trial"",""time""
""fullscreenenter"",""1"",""2181""
","
","
","""event"",""trial"",""time""
""fullscreenenter"",""1"",""2181""
","
","","","-1","","","11","10861","5045","r","elianto","#3366ff99","-1","-1","1","+10","[744.2000000476837]","1","2","","","10861","66","1","2","win","no-go","0"
"pit-trial","185","1166358","0.0-71.0","battery-v0.2","","""event"",""trial"",""time""
""fullscreenenter"",""1"",""2181""
","
","
","""event"",""trial"",""time""
""fullscreenenter"",""1"",""2181""
","
","","","50.60000002384186","","","11","10861","5045","h","elianto","#f73b6a7A","-1"," ","0","-10","[903.0999999642372]","1","2","","","10861","67","3","4","lose","no-go","0"
"pit-trial","186","1171215","0.0-72.0","battery-v0.2","","""event"",""trial"",""time""
""fullscreenenter"",""1"",""2181""
","
","
","""event"",""trial"",""time""
""fullscreenenter"",""1"",""2181""
","
","","","-1","","","11","10861","5045","z","elianto","#3366ff99"," ","-1","0","0","[]","0","2","","","10861","68","4","1","win","go","0"
"pit-trial","187","1176070","0.0-73.0","battery-v0.2","","""event"",""trial"",""time""
""fullscreenenter"",""1"",""2181""
","
","
","""event"",""trial"",""time""
""fullscreenenter"",""1"",""2181""
","
","","","-1","","","11","10861","5045","y","elianto","#f73b6a7A"," ","-1","0","-10","[]","0","2","","","10861","69","2","3","lose","go","0"
"pit-trial","188","1179041","0.0-74.0","battery-v0.2","","""event"",""trial"",""time""
""fullscreenenter"",""1"",""2181""
","
","
","""event"",""trial"",""time""
""fullscreenenter"",""1"",""2181""
","
","","","114.69999998807907","","","11","10861","5045","r","elianto","#3366ff99","-1"," ","0","0","[965.7999999523163]","1","2","","","10861","70","1","2","win","no-go","0"
"pit-trial","189","1183899","0.0-75.0","battery-v0.2","","""event"",""trial"",""time""
""fullscreenenter"",""1"",""2181""
","
","
","""event"",""trial"",""time""
""fullscreenenter"",""1"",""2181""
","
","","","-1","","","11","10861","5045","z","elianto","#3366ff99"," ","-1","0","0","[]","0","2","","","10861","71","4","1","win","go","0"
"pit-trial","190","1188765","0.0-76.0","battery-v0.2","","""event"",""trial"",""time""
""fullscreenenter"",""1"",""2181""
","
","
","""event"",""trial"",""time""
""fullscreenenter"",""1"",""2181""
","
","","","-1","","","11","10861","5045","c","elianto","#3366ff99","-1","-1","1","+10","[4519.299999952316]","1","2","","","10861","72","5","2","win","no-go","0"
"pit-trial","191","1193624","0.0-77.0","battery-v0.2","","""event"",""trial"",""time""
""fullscreenenter"",""1"",""2181""
","
","
","""event"",""trial"",""time""
""fullscreenenter"",""1"",""2181""
","
","","","-1","","","11","10861","5045","h","elianto","#f73b6a7A","-1","-1","1","0","[]","0","2","","","10861","73","3","4","lose","no-go","0"
"pit-trial","192","1198481","0.0-78.0","battery-v0.2","","""event"",""trial"",""time""
""fullscreenenter"",""1"",""2181""
","
","
","""event"",""trial"",""time""
""fullscreenenter"",""1"",""2181""
","
","","","-1","","","11","10861","5045","c","elianto","#3366ff99","-1","-1","1","+10","[]","0","2","","","10861","74","5","2","win","no-go","0"
"pit-trial","193","1201539","0.0-79.0","battery-v0.2","","""event"",""trial"",""time""
""fullscreenenter"",""1"",""2181""
","
","
","""event"",""trial"",""time""
""fullscreenenter"",""1"",""2181""
","
","","","199.69999998807907","","","11","10861","5045","z","elianto","#3366ff99"," "," ","1","+10","[1051.199999988079]","1","2","","","10861","75","4","1","win","go","0"
"pit-trial","194","1206395","0.0-80.0","battery-v0.2","","""event"",""trial"",""time""
""fullscreenenter"",""1"",""2181""
","
","
","""event"",""trial"",""time""
""fullscreenenter"",""1"",""2181""
","
","","","-1","","","11","10861","5045","r","elianto","#3366ff99","-1","-1","1","+10","[]","0","2","","","10861","76","1","2","win","no-go","0"
"pit-trial","195","1211250","0.0-81.0","battery-v0.2","","""event"",""trial"",""time""
""fullscreenenter"",""1"",""2181""
","
","
","""event"",""trial"",""time""
""fullscreenenter"",""1"",""2181""
","
","","","-1","","","11","10861","5045","z","elianto","#3366ff99"," ","-1","0","+10","[]","0","2","","","10861","77","4","1","win","go","1"
"pit-trial","196","1215594","0.0-82.0","battery-v0.2","","""event"",""trial"",""time""
""fullscreenenter"",""1"",""2181""
","
","
","""event"",""trial"",""time""
""fullscreenenter"",""1"",""2181""
","
","","","1481.699999988079","","","11","10861","5045","z","elianto","#3366ff99"," "," ","1","0","[696.6000000238419,2332.100000023842]","2","2","","","10861","78","4","1","win","go","1"
"pit-trial","197","1220453","0.0-83.0","battery-v0.2","","""event"",""trial"",""time""
""fullscreenenter"",""1"",""2181""
","
","
","""event"",""trial"",""time""
""fullscreenenter"",""1"",""2181""
","
","","","-1","","","11","10861","5045","h","elianto","#f73b6a7A","-1","-1","1","0","[3137.899999976158,4345.399999976158]","2","2","","","10861","79","3","4","lose","no-go","0"
"pit-trial","198","1224854","0.0-84.0","battery-v0.2","","""event"",""trial"",""time""
""fullscreenenter"",""1"",""2181""
","
","
","""event"",""trial"",""time""
""fullscreenenter"",""1"",""2181""
","
","","","1543.699999988079","","","11","10861","5045","c","elianto","#3366ff99","-1"," ","0","+10","[2394.099999964237,2621.2999999523163,4261.099999964237]","3","2","","","10861","80","5","2","win","no-go","1"
"pit-trial","199","1228003","0.0-85.0","battery-v0.2","","""event"",""trial"",""time""
""fullscreenenter"",""1"",""2181""
","
","
","""event"",""trial"",""time""
""fullscreenenter"",""1"",""2181""
","
","","","292.5","","","11","10861","5045","h","elianto","#f73b6a7A","-1"," ","0","0","[1143.0999999642372]","1","2","","","10861","81","3","4","lose","no-go","1"
"pit-trial","200","1232694","0.0-86.0","battery-v0.2","","""event"",""trial"",""time""
""fullscreenenter"",""1"",""2181""
","
","
","""event"",""trial"",""time""
""fullscreenenter"",""1"",""2181""
","
","","","1835.8999999761581","","","11","10861","5045","z","elianto","#3366ff99"," "," ","1","+10","[2686.900000035763]","1","2","","","10861","82","4","1","win","go","0"
"pit-trial","201","1235827","0.0-87.0","battery-v0.2","","""event"",""trial"",""time""
""fullscreenenter"",""1"",""2181""
","
","
","""event"",""trial"",""time""
""fullscreenenter"",""1"",""2181""
","
","","","275","","","11","10861","5045","c","elianto","#3366ff99","-1"," ","0","0","[569.6999999880791,1127.5999999642372,1422.5,1660.7999999523163,1909.0999999642372]","5","2","","","10861","83","5","2","win","no-go","0"
"pit-trial","202","1238709","0.0-88.0","battery-v0.2","","""event"",""trial"",""time""
""fullscreenenter"",""1"",""2181""
","
","
","""event"",""trial"",""time""
""fullscreenenter"",""1"",""2181""
","
","","","28.399999976158142","","","11","10861","5045","t","elianto","#f73b6a7A","-1"," ","0","-10","[17.900000035762787,248.60000002384186,878.8000000119209,2680.300000011921]","4","2","","","10861","84","7","4","lose","no-go","0"
"pit-trial","203","1242536","0.0-89.0","battery-v0.2","","""event"",""trial"",""time""
""fullscreenenter"",""1"",""2181""
","
","
","""event"",""trial"",""time""
""fullscreenenter"",""1"",""2181""
","
","","","970.2000000476837","","","11","10861","5045","t","elianto","#f73b6a7A","-1"," ","0","-10","[829.8000000119209,1821.699999988079,2378.399999976158,2877.800000011921]","4","2","","","10861","85","7","4","lose","no-go","0"
"pit-trial","204","1247029","0.0-90.0","battery-v0.2","","""event"",""trial"",""time""
""fullscreenenter"",""1"",""2181""
","
","
","""event"",""trial"",""time""
""fullscreenenter"",""1"",""2181""
","
","","","1637.5","","","11","10861","5045","c","elianto","#3366ff99","-1"," ","0","0","[2488.399999976158]","1","2","","","10861","86","5","2","win","no-go","0"
"pit-trial","205","1251885","0.0-91.0","battery-v0.2","","""event"",""trial"",""time""
""fullscreenenter"",""1"",""2181""
","
","
","""event"",""trial"",""time""
""fullscreenenter"",""1"",""2181""
","
","","","-1","","","11","10861","5045","b","elianto","#f73b6a7A"," ","-1","0","-10","[]","0","2","","","10861","87","6","3","lose","go","0"
"pit-trial","206","1256740","0.0-92.0","battery-v0.2","","""event"",""trial"",""time""
""fullscreenenter"",""1"",""2181""
","
","
","""event"",""trial"",""time""
""fullscreenenter"",""1"",""2181""
","
","","","-1","","","11","10861","5045","z","elianto","#3366ff99"," ","-1","0","0","[540.0999999642372]","1","2","","","10861","88","4","1","win","go","0"
"pit-trial","207","1261597","0.0-93.0","battery-v0.2","","""event"",""trial"",""time""
""fullscreenenter"",""1"",""2181""
","
","
","""event"",""trial"",""time""
""fullscreenenter"",""1"",""2181""
","
","","","-1","","","11","10861","5045","c","elianto","#3366ff99","-1","-1","1","0","[]","0","2","","","10861","89","5","2","win","no-go","1"
"pit-trial","208","1265232","0.0-94.0","battery-v0.2","","""event"",""trial"",""time""
""fullscreenenter"",""1"",""2181""
","
","
","""event"",""trial"",""time""
""fullscreenenter"",""1"",""2181""
","
","","","774.1000000238419","","","11","10861","5045","t","elianto","#f73b6a7A","-1"," ","0","-10","[1624.800000011921]","1","2","","","10861","90","7","4","lose","no-go","0"
"pit-trial","209","1270088","0.0-95.0","battery-v0.2","","""event"",""trial"",""time""
""fullscreenenter"",""1"",""2181""
","
","
","""event"",""trial"",""time""
""fullscreenenter"",""1"",""2181""
","
","","","-1","","","11","10861","5045","b","elianto","#f73b6a7A"," ","-1","0","-10","[3982.199999988079]","1","2","","","10861","91","6","3","lose","go","0"
"pit-trial","210","1274946","0.0-96.0","battery-v0.2","","""event"",""trial"",""time""
""fullscreenenter"",""1"",""2181""
","
","
","""event"",""trial"",""time""
""fullscreenenter"",""1"",""2181""
","
","","","-1","","","11","10861","5045","z","elianto","#3366ff99"," ","-1","0","0","[]","0","2","","","10861","92","4","1","win","go","0"
"pit-trial","211","1279806","0.0-97.0","battery-v0.2","","""event"",""trial"",""time""
""fullscreenenter"",""1"",""2181""
","
","
","""event"",""trial"",""time""
""fullscreenenter"",""1"",""2181""
","
","","","-1","","","11","10861","5045","f","elianto","#3366ff99"," ","-1","0","0","[513.1000000238419]","1","2","","","10861","93","8","1","win","go","0"
"pit-trial","212","1283316","0.0-98.0","battery-v0.2","","""event"",""trial"",""time""
""fullscreenenter"",""1"",""2181""
","
","
","""event"",""trial"",""time""
""fullscreenenter"",""1"",""2181""
","
","","","653.5","","","11","10861","5045","b","elianto","#f73b6a7A"," "," ","1","0","[1504.699999988079,3373.399999976158]","2","2","","","10861","94","6","3","lose","go","0"
"pit-trial","213","1287205","0.0-99.0","battery-v0.2","","""event"",""trial"",""time""
""fullscreenenter"",""1"",""2181""
","
","
","""event"",""trial"",""time""
""fullscreenenter"",""1"",""2181""
","
","","","1029.9000000357628","","","11","10861","5045","t","elianto","#f73b6a7A","-1"," ","0","0","[1881.9000000357628,2418.900000035763,3181.800000011921]","3","2","","","10861","95","7","4","lose","no-go","1"
"pit-trial","214","1292063","0.0-100.0","battery-v0.2","","""event"",""trial"",""time""
""fullscreenenter"",""1"",""2181""
","
","
","""event"",""trial"",""time""
""fullscreenenter"",""1"",""2181""
","
","","","-1","","","11","10861","5045","c","elianto","#3366ff99","-1","-1","1","+10","[]","0","2","","","10861","96","5","2","win","no-go","0"
"pit-trial","215","1296921","0.0-101.0","battery-v0.2","","""event"",""trial"",""time""
""fullscreenenter"",""1"",""2181""
","
","
","""event"",""trial"",""time""
""fullscreenenter"",""1"",""2181""
","
","","","-1","","","11","10861","5045","t","elianto","#f73b6a7A","-1","-1","1","-10","[]","0","2","","","10861","97","7","4","lose","no-go","1"
"pit-trial","216","1300757","0.0-102.0","battery-v0.2","","""event"",""trial"",""time""
""fullscreenenter"",""1"",""2181""
","
","
","""event"",""trial"",""time""
""fullscreenenter"",""1"",""2181""
","
","","","979.3000000119209","","","11","10861","5045","c","elianto","#3366ff99","-1"," ","0","0","[1830.300000011921]","1","2","","","10861","98","5","2","win","no-go","0"
"pit-trial","217","1305615","0.0-103.0","battery-v0.2","","""event"",""trial"",""time""
""fullscreenenter"",""1"",""2181""
","
","
","""event"",""trial"",""time""
""fullscreenenter"",""1"",""2181""
","
","","","-1","","","11","10861","5045","f","elianto","#3366ff99"," ","-1","0","0","[]","0","2","","","10861","99","8","1","win","go","0"
"pit-trial","218","1310471","0.0-104.0","battery-v0.2","","""event"",""trial"",""time""
""fullscreenenter"",""1"",""2181""
","
","
","""event"",""trial"",""time""
""fullscreenenter"",""1"",""2181""
","
","","","-1","","","11","10861","5045","b","elianto","#f73b6a7A"," ","-1","0","-10","[278.80000001192093]","1","2","","","10861","100","6","3","lose","go","0"
"pit-trial","219","1315327","0.0-105.0","battery-v0.2","","""event"",""trial"",""time""
""fullscreenenter"",""1"",""2181""
","
","
","""event"",""trial"",""time""
""fullscreenenter"",""1"",""2181""
","
","","","-1","","","11","10861","5045","t","elianto","#f73b6a7A","-1","-1","1","0","[]","0","2","","","10861","101","7","4","lose","no-go","0"
"pit-trial","220","1320181","0.0-106.0","battery-v0.2","","""event"",""trial"",""time""
""fullscreenenter"",""1"",""2181""
","
","
","""event"",""trial"",""time""
""fullscreenenter"",""1"",""2181""
","
","","","-1","","","11","10861","5045","f","elianto","#3366ff99"," ","-1","0","0","[250.39999997615814]","1","2","","","10861","102","8","1","win","go","0"
"pit-trial","221","1323632","0.0-107.0","battery-v0.2","","""event"",""trial"",""time""
""fullscreenenter"",""1"",""2181""
","
","
","""event"",""trial"",""time""
""fullscreenenter"",""1"",""2181""
","
","","","592.3000000119209","","","11","10861","5045","c","elianto","#3366ff99","-1"," ","0","0","[1443]","1","2","","","10861","103","5","2","win","no-go","0"
"pit-trial","222","1328489","0.0-108.0","battery-v0.2","","""event"",""trial"",""time""
""fullscreenenter"",""1"",""2181""
","
","
","""event"",""trial"",""time""
""fullscreenenter"",""1"",""2181""
","
","","","-1","","","11","10861","5045","n","elianto","#3366ff99"," ","-1","0","+10","[3344.899999976158]","1","2","","","10861","104","9","1","win","go","1"
"pit-trial","223","1333345","0.0-109.0","battery-v0.2","","""event"",""trial"",""time""
""fullscreenenter"",""1"",""2181""
","
","
","""event"",""trial"",""time""
""fullscreenenter"",""1"",""2181""
","
","","","-1","","","11","10861","5045","f","elianto","#3366ff99"," ","-1","0","0","[]","0","2","","","10861","105","8","1","win","go","0"
"pit-trial","224","1336526","0.0-110.0","battery-v0.2","","""event"",""trial"",""time""
""fullscreenenter"",""1"",""2181""
","
","
","""event"",""trial"",""time""
""fullscreenenter"",""1"",""2181""
","
","","","322.5","","","11","10861","5045","n","elianto","#3366ff99"," "," ","1","+10","[1173.1000000238419]","1","2","","","10861","106","9","1","win","go","0"
"pit-trial","225","1341381","0.0-111.0","battery-v0.2","","""event"",""trial"",""time""
""fullscreenenter"",""1"",""2181""
","
","
","""event"",""trial"",""time""
""fullscreenenter"",""1"",""2181""
","
","","","-1","","","11","10861","5045","z","elianto","#3366ff99"," ","-1","0","0","[4577.299999952316]","1","2","","","10861","107","4","1","win","go","0"
"pit-trial","226","1346238","0.0-112.0","battery-v0.2","","""event"",""trial"",""time""
""fullscreenenter"",""1"",""2181""
","
","
","""event"",""trial"",""time""
""fullscreenenter"",""1"",""2181""
","
","","","-1","","","11","10861","5045","b","elianto","#f73b6a7A"," ","-1","0","-10","[]","0","2","","","10861","108","6","3","lose","go","0"
"pit-trial","227","1351092","0.0-113.0","battery-v0.2","","""event"",""trial"",""time""
""fullscreenenter"",""1"",""2181""
","
","
","""event"",""trial"",""time""
""fullscreenenter"",""1"",""2181""
","
","","","-1","","","11","10861","5045","n","elianto","#3366ff99"," ","-1","0","0","[]","0","2","","","10861","109","9","1","win","go","0"
"pit-trial","228","1355951","0.0-114.0","battery-v0.2","","""event"",""trial"",""time""
""fullscreenenter"",""1"",""2181""
","
","
","""event"",""trial"",""time""
""fullscreenenter"",""1"",""2181""
","
","","","-1","","","11","10861","5045","f","elianto","#3366ff99"," ","-1","0","0","[484.89999997615814]","1","2","","","10861","110","8","1","win","go","0"
"pit-trial","229","1360808","0.0-115.0","battery-v0.2","","""event"",""trial"",""time""
""fullscreenenter"",""1"",""2181""
","
","
","""event"",""trial"",""time""
""fullscreenenter"",""1"",""2181""
","
","","","-1","","","11","10861","5045","b","elianto","#f73b6a7A"," ","-1","0","-10","[]","0","2","","","10861","111","6","3","lose","go","0"
"pit-trial","230","1364370","0.0-116.0","battery-v0.2","","""event"",""trial"",""time""
""fullscreenenter"",""1"",""2181""
","
","
","""event"",""trial"",""time""
""fullscreenenter"",""1"",""2181""
","
","","","692.6000000238419","","","11","10861","5045","c","elianto","#3366ff99","-1"," ","0","0","[1548.5,3490.599999964237]","2","2","","","10861","112","5","2","win","no-go","0"
"pit-trial","231","1369120","0.0-117.0","battery-v0.2","","""event"",""trial"",""time""
""fullscreenenter"",""1"",""2181""
","
","
","""event"",""trial"",""time""
""fullscreenenter"",""1"",""2181""
","
","","","1893.5","","","11","10861","5045","n","elianto","#3366ff99"," "," ","1","+10","[2743.899999976158]","1","2","","","10861","113","9","1","win","go","0"
"pit-trial","232","1373976","0.0-118.0","battery-v0.2","","""event"",""trial"",""time""
""fullscreenenter"",""1"",""2181""
","
","
","""event"",""trial"",""time""
""fullscreenenter"",""1"",""2181""
","
","","","-1","","","11","10861","5045","f","elianto","#3366ff99"," ","-1","0","0","[]","0","2","","","10861","114","8","1","win","go","0"
"pit-trial","233","1378834","0.0-119.0","battery-v0.2","","""event"",""trial"",""time""
""fullscreenenter"",""1"",""2181""
","
","
","""event"",""trial"",""time""
""fullscreenenter"",""1"",""2181""
","
","","","-1","","","11","10861","5045","b","elianto","#f73b6a7A"," ","-1","0","-10","[]","0","2","","","10861","115","6","3","lose","go","0"
"pit-trial","234","1383689","0.0-120.0","battery-v0.2","","""event"",""trial"",""time""
""fullscreenenter"",""1"",""2181""
","
","
","""event"",""trial"",""time""
""fullscreenenter"",""1"",""2181""
","
","","","-1","","","11","10861","5045","c","elianto","#3366ff99","-1","-1","1","+10","[]","0","2","","","10861","116","5","2","win","no-go","0"
"pit-trial","235","1388547","0.0-121.0","battery-v0.2","","""event"",""trial"",""time""
""fullscreenenter"",""1"",""2181""
","
","
","""event"",""trial"",""time""
""fullscreenenter"",""1"",""2181""
","
","","","-1","","","11","10861","5045","b","elianto","#f73b6a7A"," ","-1","0","-10","[4739.899999976158]","1","2","","","10861","117","6","3","lose","go","0"
"pit-trial","236","1393406","0.0-122.0","battery-v0.2","","""event"",""trial"",""time""
""fullscreenenter"",""1"",""2181""
","
","
","""event"",""trial"",""time""
""fullscreenenter"",""1"",""2181""
","
","","","-1","","","11","10861","5045","c","elianto","#3366ff99","-1","-1","1","+10","[]","0","2","","","10861","118","5","2","win","no-go","0"
"pit-trial","237","1398265","0.0-123.0","battery-v0.2","","""event"",""trial"",""time""
""fullscreenenter"",""1"",""2181""
","
","
","""event"",""trial"",""time""
""fullscreenenter"",""1"",""2181""
","
","","","-1","","","11","10861","5045","n","elianto","#3366ff99"," ","-1","0","0","[677.6999999880791,2894]","2","2","","","10861","119","9","1","win","go","0"
"pit-trial","238","1403120","0.0-124.0","battery-v0.2","","""event"",""trial"",""time""
""fullscreenenter"",""1"",""2181""
","
","
","""event"",""trial"",""time""
""fullscreenenter"",""1"",""2181""
","
","","","-1","","","11","10861","5045","f","elianto","#3366ff99"," ","-1","0","0","[]","0","2","","","10861","120","8","1","win","go","0"
"pit-trial","239","1407434","0.0-125.0","battery-v0.2","","""event"",""trial"",""time""
""fullscreenenter"",""1"",""2181""
","
","
","""event"",""trial"",""time""
""fullscreenenter"",""1"",""2181""
","
","","","1458.5","","","11","10861","5045","b","elianto","#f73b6a7A"," "," ","1","0","[2309.399999976158]","1","2","","","10861","121","6","3","lose","go","0"
"pit-trial","240","1412307","0.0-126.0","battery-v0.2","","""event"",""trial"",""time""
""fullscreenenter"",""1"",""2181""
","
","
","""event"",""trial"",""time""
""fullscreenenter"",""1"",""2181""
","
","","","-1","","","11","10861","5045","f","elianto","#3366ff99"," ","-1","0","0","[]","0","2","","","10861","122","8","1","win","go","0"
"pit-trial","241","1417165","0.0-127.0","battery-v0.2","","""event"",""trial"",""time""
""fullscreenenter"",""1"",""2181""
","
","
","""event"",""trial"",""time""
""fullscreenenter"",""1"",""2181""
","
","","","-1","","","11","10861","5045","t","elianto","#f73b6a7A","-1","-1","1","-10","[732.5999999642372,3486.399999976158]","2","2","","","10861","123","7","4","lose","no-go","1"
"pit-trial","242","1422021","0.0-128.0","battery-v0.2","","""event"",""trial"",""time""
""fullscreenenter"",""1"",""2181""
","
","
","""event"",""trial"",""time""
""fullscreenenter"",""1"",""2181""
","
","","","-1","","","11","10861","5045","n","elianto","#3366ff99"," ","-1","0","+10","[]","0","2","","","10861","124","9","1","win","go","1"
"pit-trial","243","1426877","0.0-129.0","battery-v0.2","","""event"",""trial"",""time""
""fullscreenenter"",""1"",""2181""
","
","
","""event"",""trial"",""time""
""fullscreenenter"",""1"",""2181""
","
","","","-1","","","11","10861","5045","t","elianto","#f73b6a7A","-1","-1","1","0","[]","0","2","","","10861","125","7","4","lose","no-go","0"
"pit-trial","244","1431735","0.0-130.0","battery-v0.2","","""event"",""trial"",""time""
""fullscreenenter"",""1"",""2181""
","
","
","""event"",""trial"",""time""
""fullscreenenter"",""1"",""2181""
","
","","","-1","","","11","10861","5045","b","elianto","#f73b6a7A"," ","-1","0","-10","[27.900000035762787]","1","2","","","10861","126","6","3","lose","go","0"
"pit-trial","245","1436595","0.0-131.0","battery-v0.2","","""event"",""trial"",""time""
""fullscreenenter"",""1"",""2181""
","
","
","""event"",""trial"",""time""
""fullscreenenter"",""1"",""2181""
","
","","","-1","","","11","10861","5045","n","elianto","#3366ff99"," ","-1","0","+10","[3361.699999988079]","1","2","","","10861","127","9","1","win","go","1"
"pit-trial","246","1439909","0.0-132.0","battery-v0.2","","""event"",""trial"",""time""
""fullscreenenter"",""1"",""2181""
","
","
","""event"",""trial"",""time""
""fullscreenenter"",""1"",""2181""
","
","","","457","","","11","10861","5045","f","elianto","#3366ff99"," "," ","1","+10","[1307.699999988079,2042]","2","2","","","10861","128","8","1","win","go","0"
"pit-trial","247","1444765","0.0-133.0","battery-v0.2","","""event"",""trial"",""time""
""fullscreenenter"",""1"",""2181""
","
","
","""event"",""trial"",""time""
""fullscreenenter"",""1"",""2181""
","
","","","-1","","","11","10861","5045","t","elianto","#f73b6a7A","-1","-1","1","0","[]","0","2","","","10861","129","7","4","lose","no-go","0"
"pit-trial","248","1449620","0.0-134.0","battery-v0.2","","""event"",""trial"",""time""
""fullscreenenter"",""1"",""2181""
","
","
","""event"",""trial"",""time""
""fullscreenenter"",""1"",""2181""
","
","","","-1","","","11","10861","5045","f","elianto","#3366ff99"," ","-1","0","0","[660.1999999880791]","1","2","","","10861","130","8","1","win","go","0"
"pit-trial","249","1454476","0.0-135.0","battery-v0.2","","""event"",""trial"",""time""
""fullscreenenter"",""1"",""2181""
","
","
","""event"",""trial"",""time""
""fullscreenenter"",""1"",""2181""
","
","","","-1","","","11","10861","5045","n","elianto","#3366ff99"," ","-1","0","0","[]","0","2","","","10861","131","9","1","win","go","0"
"pit-trial","250","1458090","0.0-136.0","battery-v0.2","","""event"",""trial"",""time""
""fullscreenenter"",""1"",""2181""
","
","
","""event"",""trial"",""time""
""fullscreenenter"",""1"",""2181""
","
","","","759.1999999880791","","","11","10861","5045","b","elianto","#f73b6a7A"," "," ","1","0","[1609.199999988079,2059.399999976158]","2","2","","","10861","132","6","3","lose","go","0"
"pit-trial","251","1461809","0.0-137.0","battery-v0.2","","""event"",""trial"",""time""
""fullscreenenter"",""1"",""2181""
","
","
","""event"",""trial"",""time""
""fullscreenenter"",""1"",""2181""
","
","","","863.1000000238419","","","11","10861","5045","t","elianto","#f73b6a7A","-1"," ","0","-10","[1713.300000011921]","1","2","","","10861","133","7","4","lose","no-go","0"
"pit-trial","252","1466391","0.0-138.0","battery-v0.2","","""event"",""trial"",""time""
""fullscreenenter"",""1"",""2181""
","
","
","""event"",""trial"",""time""
""fullscreenenter"",""1"",""2181""
","
","","","1724.6000000238419","","","11","10861","5045","n","elianto","#3366ff99"," "," ","1","+10","[2575.800000011921]","1","2","","","10861","134","9","1","win","go","0"
"pit-trial","253","1471248","0.0-139.0","battery-v0.2","","""event"",""trial"",""time""
""fullscreenenter"",""1"",""2181""
","
","
","""event"",""trial"",""time""
""fullscreenenter"",""1"",""2181""
","
","","","-1","","","11","10861","5045","b","elianto","#f73b6a7A"," ","-1","0","-10","[3089.699999988079]","1","2","","","10861","135","6","3","lose","go","0"
"pit-trial","254","1476105","0.0-140.0","battery-v0.2","","""event"",""trial"",""time""
""fullscreenenter"",""1"",""2181""
","
","
","""event"",""trial"",""time""
""fullscreenenter"",""1"",""2181""
","
","","","-1","","","11","10861","5045","f","elianto","#3366ff99"," ","-1","0","0","[4304.899999976158]","1","2","","","10861","136","8","1","win","go","0"
"pit-trial","255","1480960","0.0-141.0","battery-v0.2","","""event"",""trial"",""time""
""fullscreenenter"",""1"",""2181""
","
","
","""event"",""trial"",""time""
""fullscreenenter"",""1"",""2181""
","
","","","-1","","","11","10861","5045","f","elianto","#3366ff99"," ","-1","0","+10","[]","0","2","","","10861","137","8","1","win","go","1"
"pit-trial","256","1485817","0.0-142.0","battery-v0.2","","""event"",""trial"",""time""
""fullscreenenter"",""1"",""2181""
","
","
","""event"",""trial"",""time""
""fullscreenenter"",""1"",""2181""
","
","","","-1","","","11","10861","5045","n","elianto","#3366ff99"," ","-1","0","0","[]","0","2","","","10861","138","9","1","win","go","0"
"pit-trial","257","1490676","0.0-143.0","battery-v0.2","","""event"",""trial"",""time""
""fullscreenenter"",""1"",""2181""
","
","
","""event"",""trial"",""time""
""fullscreenenter"",""1"",""2181""
","
","","","-1","","","11","10861","5045","t","elianto","#f73b6a7A","-1","-1","1","0","[580.1000000238419]","1","2","","","10861","139","7","4","lose","no-go","0"
"pit-trial","258","1495533","0.0-144.0","battery-v0.2","","""event"",""trial"",""time""
""fullscreenenter"",""1"",""2181""
","
","
","""event"",""trial"",""time""
""fullscreenenter"",""1"",""2181""
","
","","","-1","","","11","10861","5045","b","elianto","#f73b6a7A"," ","-1","0","-10","[4703.399999976158]","1","2","","","10861","140","6","3","lose","go","0"
"pit-instructions","259","1642552","0.0-145.0","battery-v0.2","","""event"",""trial"",""time""
""fullscreenenter"",""1"",""2181""
","
","
","""event"",""trial"",""time""
""fullscreenenter"",""1"",""2181""
","
","","[{""page_index"":0,""viewing_time"":138635.80000001192},{""page_index"":1,""viewing_time"":8377.399999976158}]","147013.89999997616","","","","","","","","","","","","","","","","","","","","","","","",""
"pit-trial","260","1645899","0.0-146.0","battery-v0.2","","""event"",""trial"",""time""
""fullscreenenter"",""1"",""2181""
","
","
","""event"",""trial"",""time""
""fullscreenenter"",""1"",""2181""
","
","","","482","","","11","10861","5045","g","elianto","#f73b6a7A"," "," ","1","0","[1334.8999999761581,1565.3999999761581]","2","3","","","10861","141","3","3","lose","go","0"
"pit-trial","261","1650764","0.0-147.0","battery-v0.2","","""event"",""trial"",""time""
""fullscreenenter"",""1"",""2181""
","
","
","""event"",""trial"",""time""
""fullscreenenter"",""1"",""2181""
","
","","","-1","","","11","10861","5045","u","elianto","#f73b6a7A","-1","-1","1","0","[]","0","3","","","10861","142","0","4","lose","no-go","0"
"pit-trial","262","1655635","0.0-148.0","battery-v0.2","","""event"",""trial"",""time""
""fullscreenenter"",""1"",""2181""
","
","
","""event"",""trial"",""time""
""fullscreenenter"",""1"",""2181""
","
","","","-1","","","11","10861","5045","l","elianto","#3366ff99"," ","-1","0","0","[3877.5]","1","3","","","10861","143","1","1","win","go","0"
"pit-trial","263","1660496","0.0-149.0","battery-v0.2","","""event"",""trial"",""time""
""fullscreenenter"",""1"",""2181""
","
","
","""event"",""trial"",""time""
""fullscreenenter"",""1"",""2181""
","
","","","-1","","","11","10861","5045","a","elianto","#f73b6a7A","-1","-1","1","0","[]","0","3","","","10861","144","2","4","lose","no-go","0"
"pit-trial","264","1665367","0.0-150.0","battery-v0.2","","""event"",""trial"",""time""
""fullscreenenter"",""1"",""2181""
","
","
","""event"",""trial"",""time""
""fullscreenenter"",""1"",""2181""
","
","","","-1","","","11","10861","5045","l","elianto","#3366ff99"," ","-1","0","0","[376.7999999523163]","1","3","","","10861","145","1","1","win","go","0"
"pit-trial","265","1670238","0.0-151.0","battery-v0.2","","""event"",""trial"",""time""
""fullscreenenter"",""1"",""2181""
","
","
","""event"",""trial"",""time""
""fullscreenenter"",""1"",""2181""
","
","","","-1","","","11","10861","5045","g","elianto","#f73b6a7A"," ","-1","0","-10","[]","0","3","","","10861","146","3","3","lose","go","0"
