"trial_type","trial_index","time_elapsed","internal_node_id","task_version","subject_id","interactions","blur_events","focus_events","fullscreenenter_events","fullscreenexit_events","success","view_history","rt","responses","num_errors","age","subject","participantId","rune","rune_set","hex","correct","choice","accuracy","outcome","keys","total_keys","block","practice","value","sub","trial","stimulus","robot","valence","action","sham"
"pavlovia","0","29","0.0-0.0","battery-v0.2","","""event"",""trial"",""time""
""fullscreenenter"",""1"",""2440""
","
","
","""event"",""trial"",""time""
""fullscreenenter"",""1"",""2440""
","
","","","","","","","","","","","","","","","","","","","","","","","","","","",""
"fullscreen","1","3435","0.0-1.0","battery-v0.2","","""event"",""trial"",""time""
""fullscreenenter"",""1"",""2440""
","
","
","""event"",""trial"",""time""
""fullscreenenter"",""1"",""2440""
","
","true","","","","","","","","","","","","","","","","","","","","","","","","","",""
"pit-instructions","2","35280","0.0-2.0-0.0","battery-v0.2","","""event"",""trial"",""time""
""fullscreenenter"",""1"",""2440""
","
","
","""event"",""trial"",""time""
""fullscreenenter"",""1"",""2440""
","
","","[{""page_index"":0,""viewing_time"":31839.10000014305}]","31840.5","","","","","","","","","","","","","","","","","","","","","","","",""
"pit-comprehension","3","39014","0.0-2.0-1.0-0.0","battery-v0.2","","""event"",""trial"",""time""
""fullscreenenter"",""1"",""2440""
","
","
","""event"",""trial"",""time""
""fullscreenenter"",""1"",""2440""
","
","","","3728.0999999046326","[""shark""]","0","18","4470","2792","","","","","","","","","","","","","","","","","","",""
"pit-instructions","4","40663","0.0-2.0-1.0-1.0","battery-v0.2","","""event"",""trial"",""time""
""fullscreenenter"",""1"",""2440""
","
","
","""event"",""trial"",""time""
""fullscreenenter"",""1"",""2440""
","
","","[{""page_index"":0,""viewing_time"":1642.2000000476837}]","1642.5","","","","","","","","","","","","","","","","","","","","","","","",""
"pit-comprehension","5","43566","0.0-2.0-2.0-0.0","battery-v0.2","","""event"",""trial"",""time""
""fullscreenenter"",""1"",""2440""
","
","
","""event"",""trial"",""time""
""fullscreenenter"",""1"",""2440""
","
","","","2899.2999999523163","[""tiger""]","0","18","4470","2792","","","","","","","","","","","","","","","","","","",""
"pit-instructions","6","44717","0.0-2.0-2.0-1.0","battery-v0.2","","""event"",""trial"",""time""
""fullscreenenter"",""1"",""2440""
","
","
","""event"",""trial"",""time""
""fullscreenenter"",""1"",""2440""
","
","","[{""page_index"":0,""viewing_time"":1145.2000000476837}]","1145.8000001907349","","","","","","","","","","","","","","","","","","","","","","","",""
"pit-instructions","7","138712","0.0-2.0-3.0","battery-v0.2","","""event"",""trial"",""time""
""fullscreenenter"",""1"",""2440""
","
","
","""event"",""trial"",""time""
""fullscreenenter"",""1"",""2440""
","
","","[{""page_index"":0,""viewing_time"":9449.5},{""page_index"":1,""viewing_time"":5981.799999952316},{""page_index"":2,""viewing_time"":6179.400000095367},{""page_index"":3,""viewing_time"":5237.5},{""page_index"":4,""viewing_time"":5603.599999904633},{""page_index"":5,""viewing_time"":5692.5},{""page_index"":6,""viewing_time"":7495.299999952316},{""page_index"":7,""viewing_time"":6388.600000143051},{""page_index"":8,""viewing_time"":6663.599999904633},{""page_index"":9,""viewing_time"":8610.200000047684},{""page_index"":10,""viewing_time"":7115},{""page_index"":11,""viewing_time"":8306.200000047684},{""page_index"":12,""viewing_time"":6061.899999856949},{""page_index"":13,""viewing_time"":5209}]","93994.5","","","","","","","","","","","","","","","","","","","","","","","",""
"pit-trial","8","142648","0.0-2.0-4.0-0.0","battery-v0.2","","""event"",""trial"",""time""
""fullscreenenter"",""1"",""2440""
","
","
","""event"",""trial"",""time""
""fullscreenenter"",""1"",""2440""
","
","","","1081.3999998569489","","","18","4470","2792","&#9784;","elianto","#FFFFF080"," "," ","1","&#10004","[1932.5]","1","0","0","","","","","","","",""
"pit-trial","9","146365","0.0-2.0-4.1-0.1","battery-v0.2","","""event"",""trial"",""time""
""fullscreenenter"",""1"",""2440""
","
","
","""event"",""trial"",""time""
""fullscreenenter"",""1"",""2440""
","
","","","860.5","","","18","4470","2792","&#9784;","elianto","#FFFFF080"," "," ","1","&#10004","[1710.5999999046326]","1","0","0","","","","","","","",""
"pit-trial","10","150037","0.0-2.0-4.2-0.2","battery-v0.2","","""event"",""trial"",""time""
""fullscreenenter"",""1"",""2440""
","
","
","""event"",""trial"",""time""
""fullscreenenter"",""1"",""2440""
","
","","","811.1000001430511","","","18","4470","2792","&#9784;","elianto","#FFFFF080"," "," ","1","&#10004","[1662.0999999046326]","1","0","0","","","","","","","",""
"pit-trial","11","153578","0.0-2.0-4.3-0.3","battery-v0.2","","""event"",""trial"",""time""
""fullscreenenter"",""1"",""2440""
","
","
","""event"",""trial"",""time""
""fullscreenenter"",""1"",""2440""
","
","","","682.4000000953674","","","18","4470","2792","&#9784;","elianto","#FFFFF080"," "," ","1","&#10004","[1533]","1","0","0","","","","","","","",""
"pit-trial","12","157569","0.0-2.0-4.4-0.4","battery-v0.2","","""event"",""trial"",""time""
""fullscreenenter"",""1"",""2440""
","
","
","""event"",""trial"",""time""
""fullscreenenter"",""1"",""2440""
","
","","","1135.5","","","18","4470","2792","&#9784;","elianto","#FFFFF080"," "," ","1","&#10004","[1985.7000000476837]","1","0","0","","","","","","","",""
"pit-instructions","13","179102","0.0-2.0-5.0","battery-v0.2","","""event"",""trial"",""time""
""fullscreenenter"",""1"",""2440""
","
","
","""event"",""trial"",""time""
""fullscreenenter"",""1"",""2440""
","
","","[{""page_index"":0,""viewing_time"":4914.900000095367},{""page_index"":1,""viewing_time"":5514.299999952316},{""page_index"":2,""viewing_time"":5024.400000095367},{""page_index"":3,""viewing_time"":6074.899999856949}]","21529.5","","","","","","","","","","","","","","","","","","","","","","","",""
"pit-trial","14","183961","0.0-2.0-6.0-0.0","battery-v0.2","","""event"",""trial"",""time""
""fullscreenenter"",""1"",""2440""
","
","
","""event"",""trial"",""time""
""fullscreenenter"",""1"",""2440""
","
","","","-1","","","18","4470","2792","&#9854;","elianto","#FFFFF080","-1","-1","1","&#10004","[]","0","0","1","","","","","","","",""
"pit-trial","15","188819","0.0-2.0-6.1-0.1","battery-v0.2","","""event"",""trial"",""time""
""fullscreenenter"",""1"",""2440""
","
","
","""event"",""trial"",""time""
""fullscreenenter"",""1"",""2440""
","
","","","-1","","","18","4470","2792","&#9854;","elianto","#FFFFF080","-1","-1","1","&#10004","[]","0","0","1","","","","","","","",""
"pit-trial","16","193677","0.0-2.0-6.2-0.2","battery-v0.2","","""event"",""trial"",""time""
""fullscreenenter"",""1"",""2440""
","
","
","""event"",""trial"",""time""
""fullscreenenter"",""1"",""2440""
","
","","","-1","","","18","4470","2792","&#9854;","elianto","#FFFFF080","-1","-1","1","&#10004","[]","0","0","1","","","","","","","",""
"pit-trial","17","198539","0.0-2.0-6.3-0.3","battery-v0.2","","""event"",""trial"",""time""
""fullscreenenter"",""1"",""2440""
","
","
","""event"",""trial"",""time""
""fullscreenenter"",""1"",""2440""
","
","","","-1","","","18","4470","2792","&#9854;","elianto","#FFFFF080","-1","-1","1","&#10004","[]","0","0","1","","","","","","","",""
"pit-trial","18","203404","0.0-2.0-6.4-0.4","battery-v0.2","","""event"",""trial"",""time""
""fullscreenenter"",""1"",""2440""
","
","
","""event"",""trial"",""time""
""fullscreenenter"",""1"",""2440""
","
","","","-1","","","18","4470","2792","&#9854;","elianto","#FFFFF080","-1","-1","1","&#10004","[]","0","0","1","","","","","","","",""
"pit-instructions","19","313630","0.0-2.0-7.0","battery-v0.2","","""event"",""trial"",""time""
""fullscreenenter"",""1"",""2440""
","
","
","""event"",""trial"",""time""
""fullscreenenter"",""1"",""2440""
","
","","[{""page_index"":0,""viewing_time"":5563.600000143051},{""page_index"":1,""viewing_time"":7200.399999856949},{""page_index"":2,""viewing_time"":5837},{""page_index"":3,""viewing_time"":6004.400000095367},{""page_index"":4,""viewing_time"":5694.299999952316},{""page_index"":5,""viewing_time"":5112.299999952316},{""page_index"":6,""viewing_time"":4164.100000143051},{""page_index"":7,""viewing_time"":7563.699999809265},{""page_index"":8,""viewing_time"":6348.300000190735},{""page_index"":9,""viewing_time"":5863.299999952316},{""page_index"":10,""viewing_time"":6732.5},{""page_index"":11,""viewing_time"":4318.099999904633},{""page_index"":12,""viewing_time"":6595.299999952316},{""page_index"":13,""viewing_time"":7099.700000047684},{""page_index"":14,""viewing_time"":6777.5},{""page_index"":15,""viewing_time"":6104.299999952316},{""page_index"":16,""viewing_time"":6182},{""page_index"":17,""viewing_time"":7065.800000190735}]","110227.20000004768","","","","","","","","","","","","","","","","","","","","","","","",""
"pit-trial","20","317125","0.0-2.0-8.0-0.0","battery-v0.2","","""event"",""trial"",""time""
""fullscreenenter"",""1"",""2440""
","
","
","""event"",""trial"",""time""
""fullscreenenter"",""1"",""2440""
","
","","","635.6999998092651","","","18","4470","2792","&#9776;","elianto","#3366ff99"," "," ","1","+10","[1486.7999999523163]","1","0","1","","","","","","","",""
"pit-trial","21","320535","0.0-2.0-8.0-1.0","battery-v0.2","","""event"",""trial"",""time""
""fullscreenenter"",""1"",""2440""
","
","
","""event"",""trial"",""time""
""fullscreenenter"",""1"",""2440""
","
","","","552","","","18","4470","2792","&#9776;","elianto","#3366ff99"," "," ","1","+10","[1402.5999999046326]","1","0","1","","","","","","","",""
"pit-trial","22","323901","0.0-2.0-8.0-2.0","battery-v0.2","","""event"",""trial"",""time""
""fullscreenenter"",""1"",""2440""
","
","
","""event"",""trial"",""time""
""fullscreenenter"",""1"",""2440""
","
","","","510.5","","","18","4470","2792","&#9776;","elianto","#3366ff99"," "," ","1","+10","[1360.7999999523163]","1","0","1","","","","","","","",""
"pit-trial","23","327279","0.0-2.0-8.0-3.0","battery-v0.2","","""event"",""trial"",""time""
""fullscreenenter"",""1"",""2440""
","
","
","""event"",""trial"",""time""
""fullscreenenter"",""1"",""2440""
","
","","","520.5","","","18","4470","2792","&#9776;","elianto","#3366ff99"," "," ","1","0","[1372]","1","0","1","","","","","","","",""
"pit-trial","24","330545","0.0-2.0-8.0-4.0","battery-v0.2","","""event"",""trial"",""time""
""fullscreenenter"",""1"",""2440""
","
","
","""event"",""trial"",""time""
""fullscreenenter"",""1"",""2440""
","
","","","409.59999990463257","","","18","4470","2792","&#9776;","elianto","#3366ff99"," "," ","1","+10","[1259.7999999523163]","1","0","1","","","","","","","",""
"pit-trial","25","334091","0.0-2.0-8.1-0.1","battery-v0.2","","""event"",""trial"",""time""
""fullscreenenter"",""1"",""2440""
","
","
","""event"",""trial"",""time""
""fullscreenenter"",""1"",""2440""
","
","","","687.4000000953674","","","18","4470","2792","&#9776;","elianto","#3366ff99"," "," ","1","+10","[1538.9000000953674]","1","0","1","","","","","","","",""
"pit-trial","26","337316","0.0-2.0-8.1-1.1","battery-v0.2","","""event"",""trial"",""time""
""fullscreenenter"",""1"",""2440""
","
","
","""event"",""trial"",""time""
""fullscreenenter"",""1"",""2440""
","
","","","365.39999985694885","","","18","4470","2792","&#9776;","elianto","#3366ff99"," "," ","1","+10","[1216.2999999523163]","1","0","1","","","","","","","",""
"pit-trial","27","340658","0.0-2.0-8.1-2.1","battery-v0.2","","""event"",""trial"",""time""
""fullscreenenter"",""1"",""2440""
","
","
","""event"",""trial"",""time""
""fullscreenenter"",""1"",""2440""
","
","","","483.5","","","18","4470","2792","&#9776;","elianto","#3366ff99"," "," ","1","+10","[1335.2000000476837]","1","0","1","","","","","","","",""
"pit-trial","28","344038","0.0-2.0-8.1-3.1","battery-v0.2","","""event"",""trial"",""time""
""fullscreenenter"",""1"",""2440""
","
","
","""event"",""trial"",""time""
""fullscreenenter"",""1"",""2440""
","
","","","524.5999999046326","","","18","4470","2792","&#9776;","elianto","#3366ff99"," "," ","1","0","[1376.5]","1","0","1","","","","","","","",""
"pit-trial","29","347367","0.0-2.0-8.1-4.1","battery-v0.2","","""event"",""trial"",""time""
""fullscreenenter"",""1"",""2440""
","
","
","""event"",""trial"",""time""
""fullscreenenter"",""1"",""2440""
","
","","","472.60000014305115","","","18","4470","2792","&#9776;","elianto","#3366ff99"," "," ","1","+10","[1323.7000000476837]","1","0","1","","","","","","","",""
"pit-trial","30","350711","0.0-2.0-8.2-0.2","battery-v0.2","","""event"",""trial"",""time""
""fullscreenenter"",""1"",""2440""
","
","
","""event"",""trial"",""time""
""fullscreenenter"",""1"",""2440""
","
","","","487.7999999523163","","","18","4470","2792","&#9776;","elianto","#3366ff99"," "," ","1","+10","[1339.4000000953674]","1","0","1","","","","","","","",""
"pit-trial","31","354012","0.0-2.0-8.2-1.2","battery-v0.2","","""event"",""trial"",""time""
""fullscreenenter"",""1"",""2440""
","
","
","""event"",""trial"",""time""
""fullscreenenter"",""1"",""2440""
","
","","","443.7999999523163","","","18","4470","2792","&#9776;","elianto","#3366ff99"," "," ","1","+10","[1294.0999999046326]","1","0","1","","","","","","","",""
"pit-trial","32","357558","0.0-2.0-8.2-2.2","battery-v0.2","","""event"",""trial"",""time""
""fullscreenenter"",""1"",""2440""
","
","
","""event"",""trial"",""time""
""fullscreenenter"",""1"",""2440""
","
","","","692.6999998092651","","","18","4470","2792","&#9776;","elianto","#3366ff99"," "," ","1","+10","[1543.2000000476837]","1","0","1","","","","","","","",""
"pit-trial","33","361105","0.0-2.0-8.2-3.2","battery-v0.2","","""event"",""trial"",""time""
""fullscreenenter"",""1"",""2440""
","
","
","""event"",""trial"",""time""
""fullscreenenter"",""1"",""2440""
","
","","","690.5999999046326","","","18","4470","2792","&#9776;","elianto","#3366ff99"," "," ","1","0","[1541]","1","0","1","","","","","","","",""
"pit-trial","34","364619","0.0-2.0-8.2-4.2","battery-v0.2","","""event"",""trial"",""time""
""fullscreenenter"",""1"",""2440""
","
","
","""event"",""trial"",""time""
""fullscreenenter"",""1"",""2440""
","
","","","657.5999999046326","","","18","4470","2792","&#9776;","elianto","#3366ff99"," "," ","1","+10","[1507.9000000953674]","1","0","1","","","","","","","",""
"call-function","35","364622","0.0-2.0-9.0","battery-v0.2","","""event"",""trial"",""time""
""fullscreenenter"",""1"",""2440""
","
","
","""event"",""trial"",""time""
""fullscreenenter"",""1"",""2440""
","
","","","","","","","","","","","","","","","","","","","","","","","","","","",""
"pit-instructions","36","403750","0.0-2.0-10.0","battery-v0.2","","""event"",""trial"",""time""
""fullscreenenter"",""1"",""2440""
","
","
","""event"",""trial"",""time""
""fullscreenenter"",""1"",""2440""
","
","","[{""page_index"":0,""viewing_time"":5511},{""page_index"":1,""viewing_time"":7231.399999856949},{""page_index"":2,""viewing_time"":9497.799999952316},{""page_index"":3,""viewing_time"":9349.600000143051},{""page_index"":4,""viewing_time"":7537.700000047684}]","39127.89999985695","","","","","","","","","","","","","","","","","","","","","","","",""
"pit-trial","37","407236","0.0-2.0-11.0-0.0","battery-v0.2","","""event"",""trial"",""time""
""fullscreenenter"",""1"",""2440""
","
","
","""event"",""trial"",""time""
""fullscreenenter"",""1"",""2440""
","
","","","626.3000001907349","","","18","4470","2792","&#9761;","elianto","#3366ff99","-1"," ","0","0","[1478.8000001907349]","1","0","2","","","","","","","",""
"pit-trial","38","410614","0.0-2.0-11.0-1.0","battery-v0.2","","""event"",""trial"",""time""
""fullscreenenter"",""1"",""2440""
","
","
","""event"",""trial"",""time""
""fullscreenenter"",""1"",""2440""
","
","","","519.9000000953674","","","18","4470","2792","&#9761;","elianto","#3366ff99","-1"," ","0","0","[1370.0999999046326]","1","0","2","","","","","","","",""
"pit-trial","39","415479","0.0-2.0-11.0-2.0","battery-v0.2","","""event"",""trial"",""time""
""fullscreenenter"",""1"",""2440""
","
","
","""event"",""trial"",""time""
""fullscreenenter"",""1"",""2440""
","
","","","-1","","","18","4470","2792","&#9761;","elianto","#3366ff99","-1","-1","1","+10","[]","0","0","2","","","","","","","",""
"pit-trial","40","420343","0.0-2.0-11.0-3.0","battery-v0.2","","""event"",""trial"",""time""
""fullscreenenter"",""1"",""2440""
","
","
","""event"",""trial"",""time""
""fullscreenenter"",""1"",""2440""
","
","","","-1","","","18","4470","2792","&#9761;","elianto","#3366ff99","-1","-1","1","0","[]","0","0","2","","","","","","","",""
"pit-trial","41","425201","0.0-2.0-11.0-4.0","battery-v0.2","","""event"",""trial"",""time""
""fullscreenenter"",""1"",""2440""
","
","
","""event"",""trial"",""time""
""fullscreenenter"",""1"",""2440""
","
","","","-1","","","18","4470","2792","&#9761;","elianto","#3366ff99","-1","-1","1","+10","[]","0","0","2","","","","","","","",""
"pit-trial","42","430066","0.0-2.0-11.1-0.1","battery-v0.2","","""event"",""trial"",""time""
""fullscreenenter"",""1"",""2440""
","
","
","""event"",""trial"",""time""
""fullscreenenter"",""1"",""2440""
","
","","","-1","","","18","4470","2792","&#9761;","elianto","#3366ff99","-1","-1","1","+10","[]","0","0","2","","","","","","","",""
"pit-trial","43","434923","0.0-2.0-11.1-1.1","battery-v0.2","","""event"",""trial"",""time""
""fullscreenenter"",""1"",""2440""
","
","
","""event"",""trial"",""time""
""fullscreenenter"",""1"",""2440""
","
","","","-1","","","18","4470","2792","&#9761;","elianto","#3366ff99","-1","-1","1","+10","[]","0","0","2","","","","","","","",""
"pit-trial","44","439779","0.0-2.0-11.1-2.1","battery-v0.2","","""event"",""trial"",""time""
""fullscreenenter"",""1"",""2440""
","
","
","""event"",""trial"",""time""
""fullscreenenter"",""1"",""2440""
","
","","","-1","","","18","4470","2792","&#9761;","elianto","#3366ff99","-1","-1","1","+10","[]","0","0","2","","","","","","","",""
"pit-trial","45","444640","0.0-2.0-11.1-3.1","battery-v0.2","","""event"",""trial"",""time""
""fullscreenenter"",""1"",""2440""
","
","
","""event"",""trial"",""time""
""fullscreenenter"",""1"",""2440""
","
","","","-1","","","18","4470","2792","&#9761;","elianto","#3366ff99","-1","-1","1","0","[]","0","0","2","","","","","","","",""
"pit-trial","46","449498","0.0-2.0-11.1-4.1","battery-v0.2","","""event"",""trial"",""time""
""fullscreenenter"",""1"",""2440""
","
","
","""event"",""trial"",""time""
""fullscreenenter"",""1"",""2440""
","
","","","-1","","","18","4470","2792","&#9761;","elianto","#3366ff99","-1","-1","1","+10","[]","0","0","2","","","","","","","",""
"pit-trial","47","454354","0.0-2.0-11.2-0.2","battery-v0.2","","""event"",""trial"",""time""
""fullscreenenter"",""1"",""2440""
","
","
","""event"",""trial"",""time""
""fullscreenenter"",""1"",""2440""
","
","","","-1","","","18","4470","2792","&#9761;","elianto","#3366ff99","-1","-1","1","+10","[]","0","0","2","","","","","","","",""
"pit-trial","48","459218","0.0-2.0-11.2-1.2","battery-v0.2","","""event"",""trial"",""time""
""fullscreenenter"",""1"",""2440""
","
","
","""event"",""trial"",""time""
""fullscreenenter"",""1"",""2440""
","
","","","-1","","","18","4470","2792","&#9761;","elianto","#3366ff99","-1","-1","1","+10","[]","0","0","2","","","","","","","",""
"pit-trial","49","464079","0.0-2.0-11.2-2.2","battery-v0.2","","""event"",""trial"",""time""
""fullscreenenter"",""1"",""2440""
","
","
","""event"",""trial"",""time""
""fullscreenenter"",""1"",""2440""
","
","","","-1","","","18","4470","2792","&#9761;","elianto","#3366ff99","-1","-1","1","+10","[]","0","0","2","","","","","","","",""
"pit-trial","50","468940","0.0-2.0-11.2-3.2","battery-v0.2","","""event"",""trial"",""time""
""fullscreenenter"",""1"",""2440""
","
","
","""event"",""trial"",""time""
""fullscreenenter"",""1"",""2440""
","
","","","-1","","","18","4470","2792","&#9761;","elianto","#3366ff99","-1","-1","1","0","[]","0","0","2","","","","","","","",""
"pit-trial","51","473804","0.0-2.0-11.2-4.2","battery-v0.2","","""event"",""trial"",""time""
""fullscreenenter"",""1"",""2440""
","
","
","""event"",""trial"",""time""
""fullscreenenter"",""1"",""2440""
","
","","","-1","","","18","4470","2792","&#9761;","elianto","#3366ff99","-1","-1","1","+10","[]","0","0","2","","","","","","","",""
"pit-trial","52","478665","0.0-2.0-11.3-0.3","battery-v0.2","","""event"",""trial"",""time""
""fullscreenenter"",""1"",""2440""
","
","
","""event"",""trial"",""time""
""fullscreenenter"",""1"",""2440""
","
","","","-1","","","18","4470","2792","&#9761;","elianto","#3366ff99","-1","-1","1","+10","[]","0","0","2","","","","","","","",""
"pit-trial","53","483524","0.0-2.0-11.3-1.3","battery-v0.2","","""event"",""trial"",""time""
""fullscreenenter"",""1"",""2440""
","
","
","""event"",""trial"",""time""
""fullscreenenter"",""1"",""2440""
","
","","","-1","","","18","4470","2792","&#9761;","elianto","#3366ff99","-1","-1","1","+10","[]","0","0","2","","","","","","","",""
"pit-trial","54","488382","0.0-2.0-11.3-2.3","battery-v0.2","","""event"",""trial"",""time""
""fullscreenenter"",""1"",""2440""
","
","
","""event"",""trial"",""time""
""fullscreenenter"",""1"",""2440""
","
","","","-1","","","18","4470","2792","&#9761;","elianto","#3366ff99","-1","-1","1","+10","[]","0","0","2","","","","","","","",""
"pit-trial","55","493243","0.0-2.0-11.3-3.3","battery-v0.2","","""event"",""trial"",""time""
""fullscreenenter"",""1"",""2440""
","
","
","""event"",""trial"",""time""
""fullscreenenter"",""1"",""2440""
","
","","","-1","","","18","4470","2792","&#9761;","elianto","#3366ff99","-1","-1","1","0","[]","0","0","2","","","","","","","",""
"pit-trial","56","498099","0.0-2.0-11.3-4.3","battery-v0.2","","""event"",""trial"",""time""
""fullscreenenter"",""1"",""2440""
","
","
","""event"",""trial"",""time""
""fullscreenenter"",""1"",""2440""
","
","","","-1","","","18","4470","2792","&#9761;","elianto","#3366ff99","-1","-1","1","+10","[]","0","0","2","","","","","","","",""
"call-function","57","498102","0.0-2.0-12.0","battery-v0.2","","""event"",""trial"",""time""
""fullscreenenter"",""1"",""2440""
","
","
","""event"",""trial"",""time""
""fullscreenenter"",""1"",""2440""
","
","","","","","","","","","","","","","","","","","","","","","","","","","","",""
"pit-instructions","58","527885","0.0-2.0-13.0","battery-v0.2","","""event"",""trial"",""time""
""fullscreenenter"",""1"",""2440""
","
","
","""event"",""trial"",""time""
""fullscreenenter"",""1"",""2440""
","
","","[{""page_index"":0,""viewing_time"":4749.200000047684},{""page_index"":1,""viewing_time"":7046.699999809265},{""page_index"":2,""viewing_time"":3075.4000000953674},{""page_index"":3,""viewing_time"":10171.5},{""page_index"":4,""viewing_time"":4663.299999952316}]","29706.700000047684","","","","","","","","","","","","","","","","","","","","","","","",""
"pit-trial","59","531415","0.0-2.0-14.0-0.0","battery-v0.2","","""event"",""trial"",""time""
""fullscreenenter"",""1"",""2440""
","
","
","""event"",""trial"",""time""
""fullscreenenter"",""1"",""2440""
","
","","","672.9000000953674","","","18","4470","2792","&#9826;","elianto","#f73b6a7A","-1"," ","0","-10","[1523.5]","1","0","3","","","","","","","",""
"pit-trial","60","534888","0.0-2.0-14.0-1.0","battery-v0.2","","""event"",""trial"",""time""
""fullscreenenter"",""1"",""2440""
","
","
","""event"",""trial"",""time""
""fullscreenenter"",""1"",""2440""
","
","","","616.9000000953674","","","18","4470","2792","&#9826;","elianto","#f73b6a7A","-1"," ","0","-10","[1467.0999999046326]","1","0","3","","","","","","","",""
"pit-trial","61","539744","0.0-2.0-14.0-2.0","battery-v0.2","","""event"",""trial"",""time""
""fullscreenenter"",""1"",""2440""
","
","
","""event"",""trial"",""time""
""fullscreenenter"",""1"",""2440""
","
","","","-1","","","18","4470","2792","&#9826;","elianto","#f73b6a7A","-1","-1","1","0","[]","0","0","3","","","","","","","",""
"pit-trial","62","544605","0.0-2.0-14.0-3.0","battery-v0.2","","""event"",""trial"",""time""
""fullscreenenter"",""1"",""2440""
","
","
","""event"",""trial"",""time""
""fullscreenenter"",""1"",""2440""
","
","","","-1","","","18","4470","2792","&#9826;","elianto","#f73b6a7A","-1","-1","1","-10","[]","0","0","3","","","","","","","",""
"pit-trial","63","549464","0.0-2.0-14.0-4.0","battery-v0.2","","""event"",""trial"",""time""
""fullscreenenter"",""1"",""2440""
","
","
","""event"",""trial"",""time""
""fullscreenenter"",""1"",""2440""
","
","","","-1","","","18","4470","2792","&#9826;","elianto","#f73b6a7A","-1","-1","1","0","[]","0","0","3","","","","","","","",""
"pit-trial","64","554327","0.0-2.0-14.1-0.1","battery-v0.2","","""event"",""trial"",""time""
""fullscreenenter"",""1"",""2440""
","
","
","""event"",""trial"",""time""
""fullscreenenter"",""1"",""2440""
","
","","","-1","","","18","4470","2792","&#9826;","elianto","#f73b6a7A","-1","-1","1","0","[]","0","0","3","","","","","","","",""
"pit-trial","65","559190","0.0-2.0-14.1-1.1","battery-v0.2","","""event"",""trial"",""time""
""fullscreenenter"",""1"",""2440""
","
","
","""event"",""trial"",""time""
""fullscreenenter"",""1"",""2440""
","
","","","-1","","","18","4470","2792","&#9826;","elianto","#f73b6a7A","-1","-1","1","0","[]","0","0","3","","","","","","","",""
"pit-trial","66","564049","0.0-2.0-14.1-2.1","battery-v0.2","","""event"",""trial"",""time""
""fullscreenenter"",""1"",""2440""
","
","
","""event"",""trial"",""time""
""fullscreenenter"",""1"",""2440""
","
","","","-1","","","18","4470","2792","&#9826;","elianto","#f73b6a7A","-1","-1","1","0","[]","0","0","3","","","","","","","",""
"pit-trial","67","568907","0.0-2.0-14.1-3.1","battery-v0.2","","""event"",""trial"",""time""
""fullscreenenter"",""1"",""2440""
","
","
","""event"",""trial"",""time""
""fullscreenenter"",""1"",""2440""
","
","","","-1","","","18","4470","2792","&#9826;","elianto","#f73b6a7A","-1","-1","1","-10","[]","0","0","3","","","","","","","",""
"pit-trial","68","573766","0.0-2.0-14.1-4.1","battery-v0.2","","""event"",""trial"",""time""
""fullscreenenter"",""1"",""2440""
","
","
","""event"",""trial"",""time""
""fullscreenenter"",""1"",""2440""
","
","","","-1","","","18","4470","2792","&#9826;","elianto","#f73b6a7A","-1","-1","1","0","[]","0","0","3","","","","","","","",""
"pit-trial","69","578624","0.0-2.0-14.2-0.2","battery-v0.2","","""event"",""trial"",""time""
""fullscreenenter"",""1"",""2440""
","
","
","""event"",""trial"",""time""
""fullscreenenter"",""1"",""2440""
","
","","","-1","","","18","4470","2792","&#9826;","elianto","#f73b6a7A","-1","-1","1","0","[]","0","0","3","","","","","","","",""
"pit-trial","70","583482","0.0-2.0-14.2-1.2","battery-v0.2","","""event"",""trial"",""time""
""fullscreenenter"",""1"",""2440""
","
","
","""event"",""trial"",""time""
""fullscreenenter"",""1"",""2440""
","
","","","-1","","","18","4470","2792","&#9826;","elianto","#f73b6a7A","-1","-1","1","0","[]","0","0","3","","","","","","","",""
"pit-trial","71","588340","0.0-2.0-14.2-2.2","battery-v0.2","","""event"",""trial"",""time""
""fullscreenenter"",""1"",""2440""
","
","
","""event"",""trial"",""time""
""fullscreenenter"",""1"",""2440""
","
","","","-1","","","18","4470","2792","&#9826;","elianto","#f73b6a7A","-1","-1","1","0","[]","0","0","3","","","","","","","",""
"pit-trial","72","593201","0.0-2.0-14.2-3.2","battery-v0.2","","""event"",""trial"",""time""
""fullscreenenter"",""1"",""2440""
","
","
","""event"",""trial"",""time""
""fullscreenenter"",""1"",""2440""
","
","","","-1","","","18","4470","2792","&#9826;","elianto","#f73b6a7A","-1","-1","1","-10","[]","0","0","3","","","","","","","",""
"pit-trial","73","598061","0.0-2.0-14.2-4.2","battery-v0.2","","""event"",""trial"",""time""
""fullscreenenter"",""1"",""2440""
","
","
","""event"",""trial"",""time""
""fullscreenenter"",""1"",""2440""
","
","","","-1","","","18","4470","2792","&#9826;","elianto","#f73b6a7A","-1","-1","1","0","[]","0","0","3","","","","","","","",""
"pit-trial","74","602923","0.0-2.0-14.3-0.3","battery-v0.2","","""event"",""trial"",""time""
""fullscreenenter"",""1"",""2440""
","
","
","""event"",""trial"",""time""
""fullscreenenter"",""1"",""2440""
","
","","","-1","","","18","4470","2792","&#9826;","elianto","#f73b6a7A","-1","-1","1","0","[]","0","0","3","","","","","","","",""
"pit-trial","75","607785","0.0-2.0-14.3-1.3","battery-v0.2","","""event"",""trial"",""time""
""fullscreenenter"",""1"",""2440""
","
","
","""event"",""trial"",""time""
""fullscreenenter"",""1"",""2440""
","
","","","-1","","","18","4470","2792","&#9826;","elianto","#f73b6a7A","-1","-1","1","0","[]","0","0","3","","","","","","","",""
"pit-trial","76","612644","0.0-2.0-14.3-2.3","battery-v0.2","","""event"",""trial"",""time""
""fullscreenenter"",""1"",""2440""
","
","
","""event"",""trial"",""time""
""fullscreenenter"",""1"",""2440""
","
","","","-1","","","18","4470","2792","&#9826;","elianto","#f73b6a7A","-1","-1","1","0","[]","0","0","3","","","","","","","",""
"pit-trial","77","617501","0.0-2.0-14.3-3.3","battery-v0.2","","""event"",""trial"",""time""
""fullscreenenter"",""1"",""2440""
","
","
","""event"",""trial"",""time""
""fullscreenenter"",""1"",""2440""
","
","","","-1","","","18","4470","2792","&#9826;","elianto","#f73b6a7A","-1","-1","1","-10","[]","0","0","3","","","","","","","",""
"pit-trial","78","622360","0.0-2.0-14.3-4.3","battery-v0.2","","""event"",""trial"",""time""
""fullscreenenter"",""1"",""2440""
","
","
","""event"",""trial"",""time""
""fullscreenenter"",""1"",""2440""
","
","","","-1","","","18","4470","2792","&#9826;","elianto","#f73b6a7A","-1","-1","1","0","[]","0","0","3","","","","","","","",""
"call-function","79","622361","0.0-2.0-15.0","battery-v0.2","","""event"",""trial"",""time""
""fullscreenenter"",""1"",""2440""
","
","
","""event"",""trial"",""time""
""fullscreenenter"",""1"",""2440""
","
","","","","","","","","","","","","","","","","","","","","","","","","","","",""
"pit-instructions","80","647525","0.0-2.0-16.0","battery-v0.2","","""event"",""trial"",""time""
""fullscreenenter"",""1"",""2440""
","
","
","""event"",""trial"",""time""
""fullscreenenter"",""1"",""2440""
","
","","[{""page_index"":0,""viewing_time"":6630.899999856949},{""page_index"":1,""viewing_time"":9687.100000143051},{""page_index"":2,""viewing_time"":4194.899999856949},{""page_index"":3,""viewing_time"":4651.5}]","25164.89999985695","","","","","","","","","","","","","","","","","","","","","","","",""
"pit-trial","81","650952","0.0-2.0-17.0-0.0","battery-v0.2","","""event"",""trial"",""time""
""fullscreenenter"",""1"",""2440""
","
","
","""event"",""trial"",""time""
""fullscreenenter"",""1"",""2440""
","
","","","568.7000000476837","","","18","4470","2792","&#9789;","elianto","#f73b6a7A"," "," ","1","0","[1419]","1","0","4","","","","","","","",""
"pit-trial","82","654292","0.0-2.0-17.0-1.0","battery-v0.2","","""event"",""trial"",""time""
""fullscreenenter"",""1"",""2440""
","
","
","""event"",""trial"",""time""
""fullscreenenter"",""1"",""2440""
","
","","","485.40000009536743","","","18","4470","2792","&#9789;","elianto","#f73b6a7A"," "," ","1","0","[1336.7000000476837]","1","0","4","","","","","","","",""
"pit-trial","83","657671","0.0-2.0-17.0-2.0","battery-v0.2","","""event"",""trial"",""time""
""fullscreenenter"",""1"",""2440""
","
","
","""event"",""trial"",""time""
""fullscreenenter"",""1"",""2440""
","
","","","523.1000001430511","","","18","4470","2792","&#9789;","elianto","#f73b6a7A"," "," ","1","0","[1373.2000000476837]","1","0","4","","","","","","","",""
"pit-trial","84","660937","0.0-2.0-17.0-3.0","battery-v0.2","","""event"",""trial"",""time""
""fullscreenenter"",""1"",""2440""
","
","
","""event"",""trial"",""time""
""fullscreenenter"",""1"",""2440""
","
","","","407.2000000476837","","","18","4470","2792","&#9789;","elianto","#f73b6a7A"," "," ","1","-10","[1257.2999999523163]","1","0","4","","","","","","","",""
"pit-trial","85","664291","0.0-2.0-17.0-4.0","battery-v0.2","","""event"",""trial"",""time""
""fullscreenenter"",""1"",""2440""
","
","
","""event"",""trial"",""time""
""fullscreenenter"",""1"",""2440""
","
","","","497.90000009536743","","","18","4470","2792","&#9789;","elianto","#f73b6a7A"," "," ","1","0","[1349.4000000953674]","1","0","4","","","","","","","",""
"pit-trial","86","667705","0.0-2.0-17.1-0.1","battery-v0.2","","""event"",""trial"",""time""
""fullscreenenter"",""1"",""2440""
","
","
","""event"",""trial"",""time""
""fullscreenenter"",""1"",""2440""
","
","","","556.2999999523163","","","18","4470","2792","&#9789;","elianto","#f73b6a7A"," "," ","1","0","[1407.4000000953674]","1","0","4","","","","","","","",""
"pit-trial","87","671170","0.0-2.0-17.1-1.1","battery-v0.2","","""event"",""trial"",""time""
""fullscreenenter"",""1"",""2440""
","
","
","""event"",""trial"",""time""
""fullscreenenter"",""1"",""2440""
","
","","","609.7999999523163","","","18","4470","2792","&#9789;","elianto","#f73b6a7A"," "," ","1","0","[1460.7999999523163]","1","0","4","","","","","","","",""
"pit-trial","88","674478","0.0-2.0-17.1-2.1","battery-v0.2","","""event"",""trial"",""time""
""fullscreenenter"",""1"",""2440""
","
","
","""event"",""trial"",""time""
""fullscreenenter"",""1"",""2440""
","
","","","448.7999999523163","","","18","4470","2792","&#9789;","elianto","#f73b6a7A"," "," ","1","0","[1299.4000000953674]","1","0","4","","","","","","","",""
"pit-trial","89","677968","0.0-2.0-17.1-3.1","battery-v0.2","","""event"",""trial"",""time""
""fullscreenenter"",""1"",""2440""
","
","
","""event"",""trial"",""time""
""fullscreenenter"",""1"",""2440""
","
","","","636","","","18","4470","2792","&#9789;","elianto","#f73b6a7A"," "," ","1","-10","[1487.1000001430511]","1","0","4","","","","","","","",""
"pit-trial","90","681192","0.0-2.0-17.1-4.1","battery-v0.2","","""event"",""trial"",""time""
""fullscreenenter"",""1"",""2440""
","
","
","""event"",""trial"",""time""
""fullscreenenter"",""1"",""2440""
","
","","","367.7000000476837","","","18","4470","2792","&#9789;","elianto","#f73b6a7A"," "," ","1","0","[1219]","1","0","4","","","","","","","",""
"pit-trial","91","684542","0.0-2.0-17.2-0.2","battery-v0.2","","""event"",""trial"",""time""
""fullscreenenter"",""1"",""2440""
","
","
","""event"",""trial"",""time""
""fullscreenenter"",""1"",""2440""
","
","","","496.5","","","18","4470","2792","&#9789;","elianto","#f73b6a7A"," "," ","1","0","[1346.7999999523163]","1","0","4","","","","","","","",""
"pit-trial","92","687944","0.0-2.0-17.2-1.2","battery-v0.2","","""event"",""trial"",""time""
""fullscreenenter"",""1"",""2440""
","
","
","""event"",""trial"",""time""
""fullscreenenter"",""1"",""2440""
","
","","","546.7000000476837","","","18","4470","2792","&#9789;","elianto","#f73b6a7A"," "," ","1","0","[1397]","1","0","4","","","","","","","",""
"pit-trial","93","691432","0.0-2.0-17.2-2.2","battery-v0.2","","""event"",""trial"",""time""
""fullscreenenter"",""1"",""2440""
","
","
","""event"",""trial"",""time""
""fullscreenenter"",""1"",""2440""
","
","","","626.9000000953674","","","18","4470","2792","&#9789;","elianto","#f73b6a7A"," "," ","1","0","[1479.2000000476837]","1","0","4","","","","","","","",""
"pit-trial","94","694755","0.0-2.0-17.2-3.2","battery-v0.2","","""event"",""trial"",""time""
""fullscreenenter"",""1"",""2440""
","
","
","""event"",""trial"",""time""
""fullscreenenter"",""1"",""2440""
","
","","","466.5","","","18","4470","2792","&#9789;","elianto","#f73b6a7A"," "," ","1","-10","[1316.7999999523163]","1","0","4","","","","","","","",""
"pit-trial","95","698458","0.0-2.0-17.2-4.2","battery-v0.2","","""event"",""trial"",""time""
""fullscreenenter"",""1"",""2440""
","
","
","""event"",""trial"",""time""
""fullscreenenter"",""1"",""2440""
","
","","","843.7999999523163","","","18","4470","2792","&#9789;","elianto","#f73b6a7A"," "," ","1","0","[1694.1000001430511]","1","0","4","","","","","","","",""
"pit-trial","96","701597","0.0-2.0-17.3-0.3","battery-v0.2","","""event"",""trial"",""time""
""fullscreenenter"",""1"",""2440""
","
","
","""event"",""trial"",""time""
""fullscreenenter"",""1"",""2440""
","
","","","280","","","18","4470","2792","&#9789;","elianto","#f73b6a7A"," "," ","1","0","[1130.2999999523163]","1","0","4","","","","","","","",""
"pit-trial","97","705106","0.0-2.0-17.3-1.3","battery-v0.2","","""event"",""trial"",""time""
""fullscreenenter"",""1"",""2440""
","
","
","""event"",""trial"",""time""
""fullscreenenter"",""1"",""2440""
","
","","","655.3999998569489","","","18","4470","2792","&#9789;","elianto","#f73b6a7A"," "," ","1","0","[1506]","1","0","4","","","","","","","",""
"pit-trial","98","708673","0.0-2.0-17.3-2.3","battery-v0.2","","""event"",""trial"",""time""
""fullscreenenter"",""1"",""2440""
","
","
","""event"",""trial"",""time""
""fullscreenenter"",""1"",""2440""
","
","","","711.2000000476837","","","18","4470","2792","&#9789;","elianto","#f73b6a7A"," "," ","1","0","[1562.2999999523163]","1","0","4","","","","","","","",""
"pit-trial","99","712470","0.0-2.0-17.3-3.3","battery-v0.2","","""event"",""trial"",""time""
""fullscreenenter"",""1"",""2440""
","
","
","""event"",""trial"",""time""
""fullscreenenter"",""1"",""2440""
","
","","","939.2999999523163","","","18","4470","2792","&#9789;","elianto","#f73b6a7A"," "," ","1","-10","[1791.0999999046326]","1","0","4","","","","","","","",""
"pit-trial","100","716406","0.0-2.0-17.3-4.3","battery-v0.2","","""event"",""trial"",""time""
""fullscreenenter"",""1"",""2440""
","
","
","""event"",""trial"",""time""
""fullscreenenter"",""1"",""2440""
","
","","","1078.3999998569489","","","18","4470","2792","&#9789;","elianto","#f73b6a7A"," "," ","1","0","[1929]","1","0","4","","","","","","","",""
"call-function","101","716408","0.0-2.0-18.0","battery-v0.2","","""event"",""trial"",""time""
""fullscreenenter"",""1"",""2440""
","
","
","""event"",""trial"",""time""
""fullscreenenter"",""1"",""2440""
","
","","","","","","","","","","","","","","","","","","","","","","","","","","",""
"pit-instructions","102","786904","0.0-2.0-19.0","battery-v0.2","","""event"",""trial"",""time""
""fullscreenenter"",""1"",""2440""
","
","
","""event"",""trial"",""time""
""fullscreenenter"",""1"",""2440""
","
","","[{""page_index"":0,""viewing_time"":6840.5},{""page_index"":1,""viewing_time"":6788.799999952316},{""page_index"":2,""viewing_time"":13972.200000047684},{""page_index"":3,""viewing_time"":7795},{""page_index"":4,""viewing_time"":8219.099999904633},{""page_index"":5,""viewing_time"":8028.200000047684},{""page_index"":6,""viewing_time"":9212.399999856949},{""page_index"":7,""viewing_time"":5965},{""page_index"":8,""viewing_time"":3676.600000143051}]","70498.29999995232","","","","","","","","","","","","","","","","","","","","","","","",""
"pit-comprehension","103","791513","0.0-2.0-20.0-0.0","battery-v0.2","","""event"",""trial"",""time""
""fullscreenenter"",""1"",""2440""
","
","
","""event"",""trial"",""time""
""fullscreenenter"",""1"",""2440""
","
","","","4606","[""SPACE""]","0","18","4470","2792","","","","","","","","","","","","","","","","","","",""
"pit-instructions","104","794148","0.0-2.0-20.0-1.0","battery-v0.2","","""event"",""trial"",""time""
""fullscreenenter"",""1"",""2440""
","
","
","""event"",""trial"",""time""
""fullscreenenter"",""1"",""2440""
","
","","[{""page_index"":0,""viewing_time"":2589.899999856949}]","2590.7000000476837","","","","","","","","","","","","","","","","","","","","","","","",""
"pit-comprehension","105","800190","0.0-2.0-21.0-0.0","battery-v0.2","","""event"",""trial"",""time""
""fullscreenenter"",""1"",""2440""
","
","
","""event"",""trial"",""time""
""fullscreenenter"",""1"",""2440""
","
","","","6036.900000095367","[""10""]","0","18","4470","2792","","","","","","","","","","","","","","","","","","",""
"pit-instructions","106","802095","0.0-2.0-21.0-1.0","battery-v0.2","","""event"",""trial"",""time""
""fullscreenenter"",""1"",""2440""
","
","
","""event"",""trial"",""time""
""fullscreenenter"",""1"",""2440""
","
","","[{""page_index"":0,""viewing_time"":1859.9000000953674}]","1860.4000000953674","","","","","","","","","","","","","","","","","","","","","","","",""
"pit-comprehension","107","808503","0.0-2.0-22.0-0.0","battery-v0.2","","""event"",""trial"",""time""
""fullscreenenter"",""1"",""2440""
","
","
","""event"",""trial"",""time""
""fullscreenenter"",""1"",""2440""
","
","","","6404.299999952316","[""0""]","0","18","4470","2792","","","","","","","","","","","","","","","","","","",""
"pit-instructions","108","809980","0.0-2.0-22.0-1.0","battery-v0.2","","""event"",""trial"",""time""
""fullscreenenter"",""1"",""2440""
","
","
","""event"",""trial"",""time""
""fullscreenenter"",""1"",""2440""
","
","","[{""page_index"":0,""viewing_time"":1443.0999999046326}]","1443.2999999523163","","","","","","","","","","","","","","","","","","","","","","","",""
"pit-comprehension","109","819513","0.0-2.0-23.0-0.0","battery-v0.2","","""event"",""trial"",""time""
""fullscreenenter"",""1"",""2440""
","
","
","""event"",""trial"",""time""
""fullscreenenter"",""1"",""2440""
","
","","","9529.899999856949","[""True""]","0","18","4470","2792","","","","","","","","","","","","","","","","","","",""
"pit-instructions","110","821901","0.0-2.0-23.0-1.0","battery-v0.2","","""event"",""trial"",""time""
""fullscreenenter"",""1"",""2440""
","
","
","""event"",""trial"",""time""
""fullscreenenter"",""1"",""2440""
","
","","[{""page_index"":0,""viewing_time"":2342.100000143051}]","2342.7999999523163","","","","","","","","","","","","","","","","","","","","","","","",""
"pit-comprehension","111","829182","0.0-2.0-24.0-0.0","battery-v0.2","","""event"",""trial"",""time""
""fullscreenenter"",""1"",""2440""
","
","
","""event"",""trial"",""time""
""fullscreenenter"",""1"",""2440""
","
","","","7277.399999856949","[""True""]","0","18","4470","2792","","","","","","","","","","","","","","","","","","",""
"pit-instructions","112","831083","0.0-2.0-24.0-1.0","battery-v0.2","","""event"",""trial"",""time""
""fullscreenenter"",""1"",""2440""
","
","
","""event"",""trial"",""time""
""fullscreenenter"",""1"",""2440""
","
","","[{""page_index"":0,""viewing_time"":1853.9000000953674}]","1854.7000000476837","","","","","","","","","","","","","","","","","","","","","","","",""
"pit-comprehension","113","837459","0.0-2.0-25.0-0.0","battery-v0.2","","""event"",""trial"",""time""
""fullscreenenter"",""1"",""2440""
","
","
","""event"",""trial"",""time""
""fullscreenenter"",""1"",""2440""
","
","","","6371.900000095367","[""True""]","0","18","4470","2792","","","","","","","","","","","","","","","","","","",""
"pit-instructions","114","839702","0.0-2.0-25.0-1.0","battery-v0.2","","""event"",""trial"",""time""
""fullscreenenter"",""1"",""2440""
","
","
","""event"",""trial"",""time""
""fullscreenenter"",""1"",""2440""
","
","","[{""page_index"":0,""viewing_time"":2196.7000000476837}]","2197.2999999523163","","","","","","","","","","","","","","","","","","","","","","","",""
"pit-comprehension","115","844577","0.0-2.0-26.0-0.0","battery-v0.2","","""event"",""trial"",""time""
""fullscreenenter"",""1"",""2440""
","
","
","""event"",""trial"",""time""
""fullscreenenter"",""1"",""2440""
","
","","","4870.400000095367","[""False""]","0","18","4470","2792","","","","","","","","","","","","","","","","","","",""
"pit-instructions","116","846534","0.0-2.0-26.0-1.0","battery-v0.2","","""event"",""trial"",""time""
""fullscreenenter"",""1"",""2440""
","
","
","""event"",""trial"",""time""
""fullscreenenter"",""1"",""2440""
","
","","[{""page_index"":0,""viewing_time"":1922}]","1922.5999999046326","","","","","","","","","","","","","","","","","","","","","","","",""
"pit-instructions","117","862892","0.0-3.0","battery-v0.2","","""event"",""trial"",""time""
""fullscreenenter"",""1"",""2440""
","
","
","""event"",""trial"",""time""
""fullscreenenter"",""1"",""2440""
","
","","[{""page_index"":0,""viewing_time"":3470.899999856949},{""page_index"":1,""viewing_time"":5521.900000095367},{""page_index"":2,""viewing_time"":7363.5}]","16356.700000047684","","","","","","","","","","","","","","","","","","","","","","","",""
"pit-trial","118","866669","0.0-4.0","battery-v0.2","","""event"",""trial"",""time""
""fullscreenenter"",""1"",""2440""
","
","
","""event"",""trial"",""time""
""fullscreenenter"",""1"",""2440""
","
","","","912.9000000953674","","","18","4470","2792","&#9733;","elianto","#3366ff99","-1"," ","0","0","[1764.7999999523163]","1","1","","","4470","1","2","2","win","no-go","0"
"pit-trial","119","870573","0.0-5.0","battery-v0.2","","""event"",""trial"",""time""
""fullscreenenter"",""1"",""2440""
","
","
","""event"",""trial"",""time""
""fullscreenenter"",""1"",""2440""
","
","","","1050.7000000476837","","","18","4470","2792","&#9752;","elianto","#f73b6a7A"," "," ","1","0","[1900.9000000953674]","1","1","","","4470","2","3","3","lose","go","0"
"pit-trial","120","874291","0.0-6.0","battery-v0.2","","""event"",""trial"",""time""
""fullscreenenter"",""1"",""2440""
","
","
","""event"",""trial"",""time""
""fullscreenenter"",""1"",""2440""
","
","","","859.7999999523163","","","18","4470","2792","&#9728;","elianto","#f73b6a7A","-1"," ","0","-10","[1710.5]","1","1","","","4470","3","0","4","lose","no-go","0"
"pit-trial","121","878056","0.0-7.0","battery-v0.2","","""event"",""trial"",""time""
""fullscreenenter"",""1"",""2440""
","
","
","""event"",""trial"",""time""
""fullscreenenter"",""1"",""2440""
","
","","","907","","","18","4470","2792","&#9730;","elianto","#3366ff99"," "," ","1","+10","[1758.5]","1","1","","","4470","4","1","1","win","go","0"
"pit-trial","122","881842","0.0-8.0","battery-v0.2","","""event"",""trial"",""time""
""fullscreenenter"",""1"",""2440""
","
","
","""event"",""trial"",""time""
""fullscreenenter"",""1"",""2440""
","
","","","927.4000000953674","","","18","4470","2792","&#9730;","elianto","#3366ff99"," "," ","1","+10","[1779.6999998092651]","1","1","","","4470","5","1","1","win","go","0"
"pit-trial","123","886701","0.0-9.0","battery-v0.2","","""event"",""trial"",""time""
""fullscreenenter"",""1"",""2440""
","
","
","""event"",""trial"",""time""
""fullscreenenter"",""1"",""2440""
","
","","","-1","","","18","4470","2792","&#9728;","elianto","#f73b6a7A","-1","-1","1","-10","[]","0","1","","","4470","6","0","4","lose","no-go","1"
"pit-trial","124","890700","0.0-10.0","battery-v0.2","","""event"",""trial"",""time""
""fullscreenenter"",""1"",""2440""
","
","
","""event"",""trial"",""time""
""fullscreenenter"",""1"",""2440""
","
","","","1144.3999998569489","","","18","4470","2792","&#9733;","elianto","#3366ff99","-1"," ","0","0","[1994.7000000476837]","1","1","","","4470","7","2","2","win","no-go","0"
"pit-trial","125","895384","0.0-11.0","battery-v0.2","","""event"",""trial"",""time""
""fullscreenenter"",""1"",""2440""
","
","
","""event"",""trial"",""time""
""fullscreenenter"",""1"",""2440""
","
","","","1827.7999999523163","","","18","4470","2792","&#9752;","elianto","#f73b6a7A"," "," ","1","-10","[2678.9000000953674]","1","1","","","4470","8","3","3","lose","go","1"
"pit-trial","126","900242","0.0-12.0","battery-v0.2","","""event"",""trial"",""time""
""fullscreenenter"",""1"",""2440""
","
","
","""event"",""trial"",""time""
""fullscreenenter"",""1"",""2440""
","
","","","-1","","","18","4470","2792","&#9728;","elianto","#f73b6a7A","-1","-1","1","0","[]","0","1","","","4470","9","0","4","lose","no-go","0"
"pit-trial","127","905098","0.0-13.0","battery-v0.2","","""event"",""trial"",""time""
""fullscreenenter"",""1"",""2440""
","
","
","""event"",""trial"",""time""
""fullscreenenter"",""1"",""2440""
","
","","","-1","","","18","4470","2792","&#9752;","elianto","#f73b6a7A"," ","-1","0","-10","[]","0","1","","","4470","10","3","3","lose","go","0"
"pit-trial","128","909028","0.0-14.0","battery-v0.2","","""event"",""trial"",""time""
""fullscreenenter"",""1"",""2440""
","
","
","""event"",""trial"",""time""
""fullscreenenter"",""1"",""2440""
","
","","","1073","","","18","4470","2792","&#9730;","elianto","#3366ff99"," "," ","1","+10","[1924.7999999523163]","1","1","","","4470","11","1","1","win","go","0"
"pit-trial","129","912996","0.0-15.0","battery-v0.2","","""event"",""trial"",""time""
""fullscreenenter"",""1"",""2440""
","
","
","""event"",""trial"",""time""
""fullscreenenter"",""1"",""2440""
","
","","","1112.7000000476837","","","18","4470","2792","&#9733;","elianto","#3366ff99","-1"," ","0","0","[1963.7000000476837]","1","1","","","4470","12","2","2","win","no-go","0"
"pit-trial","130","917858","0.0-16.0","battery-v0.2","","""event"",""trial"",""time""
""fullscreenenter"",""1"",""2440""
","
","
","""event"",""trial"",""time""
""fullscreenenter"",""1"",""2440""
","
","","","-1","","","18","4470","2792","&#9728;","elianto","#f73b6a7A","-1","-1","1","-10","[]","0","1","","","4470","13","0","4","lose","no-go","1"
"pit-trial","131","922444","0.0-17.0","battery-v0.2","","""event"",""trial"",""time""
""fullscreenenter"",""1"",""2440""
","
","
","""event"",""trial"",""time""
""fullscreenenter"",""1"",""2440""
","
","","","1732.5","","","18","4470","2792","&#9733;","elianto","#3366ff99","-1"," ","0","0","[2582.7999999523163]","1","1","","","4470","14","2","2","win","no-go","0"
"pit-trial","132","926236","0.0-18.0","battery-v0.2","","""event"",""trial"",""time""
""fullscreenenter"",""1"",""2440""
","
","
","""event"",""trial"",""time""
""fullscreenenter"",""1"",""2440""
","
","","","934.3999998569489","","","18","4470","2792","&#9730;","elianto","#3366ff99"," "," ","1","+10","[1784.2999999523163]","1","1","","","4470","15","1","1","win","go","0"
"pit-trial","133","930966","0.0-19.0","battery-v0.2","","""event"",""trial"",""time""
""fullscreenenter"",""1"",""2440""
","
","
","""event"",""trial"",""time""
""fullscreenenter"",""1"",""2440""
","
","","","1873.2999999523163","","","18","4470","2792","&#9752;","elianto","#f73b6a7A"," "," ","1","-10","[2725.7999999523163]","1","1","","","4470","16","3","3","lose","go","1"
"pit-trial","134","935825","0.0-20.0","battery-v0.2","","""event"",""trial"",""time""
""fullscreenenter"",""1"",""2440""
","
","
","""event"",""trial"",""time""
""fullscreenenter"",""1"",""2440""
","
","","","-1","","","18","4470","2792","&#9733;","elianto","#3366ff99","-1","-1","1","+10","[]","0","1","","","4470","17","2","2","win","no-go","0"
"pit-trial","135","940691","0.0-21.0","battery-v0.2","","""event"",""trial"",""time""
""fullscreenenter"",""1"",""2440""
","
","
","""event"",""trial"",""time""
""fullscreenenter"",""1"",""2440""
","
","","","-1","","","18","4470","2792","&#9752;","elianto","#f73b6a7A"," ","-1","0","-10","[]","0","1","","","4470","18","3","3","lose","go","0"
"pit-trial","136","944859","0.0-22.0","battery-v0.2","","""event"",""trial"",""time""
""fullscreenenter"",""1"",""2440""
","
","
","""event"",""trial"",""time""
""fullscreenenter"",""1"",""2440""
","
","","","1313.4000000953674","","","18","4470","2792","&#9730;","elianto","#3366ff99"," "," ","1","+10","[2163.699999809265]","1","1","","","4470","19","1","1","win","go","0"
"pit-trial","137","949723","0.0-23.0","battery-v0.2","","""event"",""trial"",""time""
""fullscreenenter"",""1"",""2440""
","
","
","""event"",""trial"",""time""
""fullscreenenter"",""1"",""2440""
","
","","","-1","","","18","4470","2792","&#9728;","elianto","#f73b6a7A","-1","-1","1","0","[]","0","1","","","4470","20","0","4","lose","no-go","0"
"pit-instructions","138","962608","0.0-24.0","battery-v0.2","","""event"",""trial"",""time""
""fullscreenenter"",""1"",""2440""
","
","
","""event"",""trial"",""time""
""fullscreenenter"",""1"",""2440""
","
","","[{""page_index"":0,""viewing_time"":5850.300000190735},{""page_index"":1,""viewing_time"":7031.399999856949}]","12882.5","","","","","","","","","","","","","","","","","","","","","","","",""
"pit-trial","139","966770","0.0-25.0","battery-v0.2","","""event"",""trial"",""time""
""fullscreenenter"",""1"",""2440""
","
","
","""event"",""trial"",""time""
""fullscreenenter"",""1"",""2440""
","
","","","1302.2000000476837","","","18","4470","2792","a","elianto","#f73b6a7A"," "," ","1","0","[2152.7999999523163]","1","2","","","4470","21","2","3","lose","go","0"
"pit-trial","140","970829","0.0-26.0","battery-v0.2","","""event"",""trial"",""time""
""fullscreenenter"",""1"",""2440""
","
","
","""event"",""trial"",""time""
""fullscreenenter"",""1"",""2440""
","
","","","1199.8999998569489","","","18","4470","2792","g","elianto","#f73b6a7A","-1"," ","0","-10","[2051.399999856949]","1","2","","","4470","22","3","4","lose","no-go","0"
"pit-trial","141","975377","0.0-27.0","battery-v0.2","","""event"",""trial"",""time""
""fullscreenenter"",""1"",""2440""
","
","
","""event"",""trial"",""time""
""fullscreenenter"",""1"",""2440""
","
","","","1694.5","","","18","4470","2792","u","elianto","#f73b6a7A"," "," ","1","0","[2545.100000143051]","1","2","","","4470","23","0","3","lose","go","0"
"pit-trial","142","979361","0.0-28.0","battery-v0.2","","""event"",""trial"",""time""
""fullscreenenter"",""1"",""2440""
","
","
","""event"",""trial"",""time""
""fullscreenenter"",""1"",""2440""
","
","","","1130.0999999046326","","","18","4470","2792","l","elianto","#3366ff99","-1"," ","0","0","[1980.2000000476837]","1","2","","","4470","24","1","2","win","no-go","0"
"pit-trial","143","983537","0.0-29.0","battery-v0.2","","""event"",""trial"",""time""
""fullscreenenter"",""1"",""2440""
","
","
","""event"",""trial"",""time""
""fullscreenenter"",""1"",""2440""
","
","","","1319.3000001907349","","","18","4470","2792","u","elianto","#f73b6a7A"," "," ","1","-10","[2170.2000000476837]","1","2","","","4470","25","0","3","lose","go","1"
"pit-trial","144","988395","0.0-30.0","battery-v0.2","","""event"",""trial"",""time""
""fullscreenenter"",""1"",""2440""
","
","
","""event"",""trial"",""time""
""fullscreenenter"",""1"",""2440""
","
","","","-1","","","18","4470","2792","l","elianto","#3366ff99","-1","-1","1","+10","[]","0","2","","","4470","26","1","2","win","no-go","0"
"pit-trial","145","992218","0.0-31.0","battery-v0.2","","""event"",""trial"",""time""
""fullscreenenter"",""1"",""2440""
","
","
","""event"",""trial"",""time""
""fullscreenenter"",""1"",""2440""
","
","","","967.7000000476837","","","18","4470","2792","a","elianto","#f73b6a7A"," "," ","1","0","[1818.0999999046326]","1","2","","","4470","27","2","3","lose","go","0"
"pit-trial","146","997078","0.0-32.0","battery-v0.2","","""event"",""trial"",""time""
""fullscreenenter"",""1"",""2440""
","
","
","""event"",""trial"",""time""
""fullscreenenter"",""1"",""2440""
","
","","","-1","","","18","4470","2792","g","elianto","#f73b6a7A","-1","-1","1","0","[]","0","2","","","4470","28","3","4","lose","no-go","0"
"pit-trial","147","1001712","0.0-33.0","battery-v0.2","","""event"",""trial"",""time""
""fullscreenenter"",""1"",""2440""
","
","
","""event"",""trial"",""time""
""fullscreenenter"",""1"",""2440""
","
","","","1779","","","18","4470","2792","a","elianto","#f73b6a7A"," "," ","1","0","[2629.100000143051]","1","2","","","4470","29","2","3","lose","go","0"
"pit-trial","148","1006568","0.0-34.0","battery-v0.2","","""event"",""trial"",""time""
""fullscreenenter"",""1"",""2440""
","
","
","""event"",""trial"",""time""
""fullscreenenter"",""1"",""2440""
","
","","","-1","","","18","4470","2792","g","elianto","#f73b6a7A","-1","-1","1","0","[]","0","2","","","4470","30","3","4","lose","no-go","0"
"pit-trial","149","1010491","0.0-35.0","battery-v0.2","","""event"",""trial"",""time""
""fullscreenenter"",""1"",""2440""
","
","
","""event"",""trial"",""time""
""fullscreenenter"",""1"",""2440""
","
","","","1066.2000000476837","","","18","4470","2792","u","elianto","#f73b6a7A"," "," ","1","0","[1917]","1","2","","","4470","31","0","3","lose","go","0"
"pit-trial","150","1015349","0.0-36.0","battery-v0.2","","""event"",""trial"",""time""
""fullscreenenter"",""1"",""2440""
","
","
","""event"",""trial"",""time""
""fullscreenenter"",""1"",""2440""
","
","","","-1","","","18","4470","2792","l","elianto","#3366ff99","-1","-1","1","+10","[]","0","2","","","4470","32","1","2","win","no-go","0"
"pit-trial","151","1020205","0.0-37.0","battery-v0.2","","""event"",""trial"",""time""
""fullscreenenter"",""1"",""2440""
","
","
","""event"",""trial"",""time""
""fullscreenenter"",""1"",""2440""
","
","","","-1","","","18","4470","2792","l","elianto","#3366ff99","-1","-1","1","0","[]","0","2","","","4470","33","1","2","win","no-go","1"
"pit-trial","152","1025068","0.0-38.0","battery-v0.2","","""event"",""trial"",""time""
""fullscreenenter"",""1"",""2440""
","
","
","""event"",""trial"",""time""
""fullscreenenter"",""1"",""2440""
","
","","","-1","","","18","4470","2792","g","elianto","#f73b6a7A","-1","-1","1","0","[]","0","2","","","4470","34","3","4","lose","no-go","0"
"pit-trial","153","1028911","0.0-39.0","battery-v0.2","","""event"",""trial"",""time""
""fullscreenenter"",""1"",""2440""
","
","
","""event"",""trial"",""time""
""fullscreenenter"",""1"",""2440""
","
","","","985.3999998569489","","","18","4470","2792","u","elianto","#f73b6a7A"," "," ","1","-10","[1837.0999999046326]","1","2","","","4470","35","0","3","lose","go","1"
"pit-trial","154","1032735","0.0-40.0","battery-v0.2","","""event"",""trial"",""time""
""fullscreenenter"",""1"",""2440""
","
","
","""event"",""trial"",""time""
""fullscreenenter"",""1"",""2440""
","
","","","967.4000000953674","","","18","4470","2792","a","elianto","#f73b6a7A"," "," ","1","0","[1817.9000000953674]","1","2","","","4470","36","2","3","lose","go","0"
"pit-trial","155","1036433","0.0-41.0","battery-v0.2","","""event"",""trial"",""time""
""fullscreenenter"",""1"",""2440""
","
","
","""event"",""trial"",""time""
""fullscreenenter"",""1"",""2440""
","
","","","844.2999999523163","","","18","4470","2792","u","elianto","#f73b6a7A"," "," ","1","0","[1694.2000000476837]","1","2","","","4470","37","0","3","lose","go","0"
"pit-trial","156","1041297","0.0-42.0","battery-v0.2","","""event"",""trial"",""time""
""fullscreenenter"",""1"",""2440""
","
","
","""event"",""trial"",""time""
""fullscreenenter"",""1"",""2440""
","
","","","-1","","","18","4470","2792","l","elianto","#3366ff99","-1","-1","1","+10","[]","0","2","","","4470","38","1","2","win","no-go","0"
"pit-trial","157","1045023","0.0-43.0","battery-v0.2","","""event"",""trial"",""time""
""fullscreenenter"",""1"",""2440""
","
","
","""event"",""trial"",""time""
""fullscreenenter"",""1"",""2440""
","
","","","866.5","","","18","4470","2792","a","elianto","#f73b6a7A"," "," ","1","0","[1717.2000000476837]","1","2","","","4470","39","2","3","lose","go","0"
"pit-trial","158","1049883","0.0-44.0","battery-v0.2","","""event"",""trial"",""time""
""fullscreenenter"",""1"",""2440""
","
","
","""event"",""trial"",""time""
""fullscreenenter"",""1"",""2440""
","
","","","-1","","","18","4470","2792","g","elianto","#f73b6a7A","-1","-1","1","0","[]","0","2","","","4470","40","3","4","lose","no-go","0"
"pit-trial","159","1054745","0.0-45.0","battery-v0.2","","""event"",""trial"",""time""
""fullscreenenter"",""1"",""2440""
","
","
","""event"",""trial"",""time""
""fullscreenenter"",""1"",""2440""
","
","","","-1","","","18","4470","2792","g","elianto","#f73b6a7A","-1","-1","1","0","[]","0","2","","","4470","41","3","4","lose","no-go","0"
"pit-trial","160","1058392","0.0-46.0","battery-v0.2","","""event"",""trial"",""time""
""fullscreenenter"",""1"",""2440""
","
","
","""event"",""trial"",""time""
""fullscreenenter"",""1"",""2440""
","
","","","787.8999998569489","","","18","4470","2792","u","elianto","#f73b6a7A"," "," ","1","-10","[1639.4000000953674]","1","2","","","4470","42","0","3","lose","go","1"
"pit-trial","161","1062032","0.0-47.0","battery-v0.2","","""event"",""trial"",""time""
""fullscreenenter"",""1"",""2440""
","
","
","""event"",""trial"",""time""
""fullscreenenter"",""1"",""2440""
","
","","","779","","","18","4470","2792","a","elianto","#f73b6a7A"," "," ","1","0","[1631]","1","2","","","4470","43","2","3","lose","go","0"
"pit-trial","162","1066894","0.0-48.0","battery-v0.2","","""event"",""trial"",""time""
""fullscreenenter"",""1"",""2440""
","
","
","""event"",""trial"",""time""
""fullscreenenter"",""1"",""2440""
","
","","","-1","","","18","4470","2792","l","elianto","#3366ff99","-1","-1","1","+10","[]","0","2","","","4470","44","1","2","win","no-go","0"
"pit-trial","163","1070493","0.0-49.0","battery-v0.2","","""event"",""trial"",""time""
""fullscreenenter"",""1"",""2440""
","
","
","""event"",""trial"",""time""
""fullscreenenter"",""1"",""2440""
","
","","","744","","","18","4470","2792","u","elianto","#f73b6a7A"," "," ","1","0","[1594.0999999046326]","1","2","","","4470","45","0","3","lose","go","0"
"pit-trial","164","1074207","0.0-50.0","battery-v0.2","","""event"",""trial"",""time""
""fullscreenenter"",""1"",""2440""
","
","
","""event"",""trial"",""time""
""fullscreenenter"",""1"",""2440""
","
","","","854.5","","","18","4470","2792","a","elianto","#f73b6a7A"," "," ","1","0","[1705.1000001430511]","1","2","","","4470","46","2","3","lose","go","0"
"pit-trial","165","1079071","0.0-51.0","battery-v0.2","","""event"",""trial"",""time""
""fullscreenenter"",""1"",""2440""
","
","
","""event"",""trial"",""time""
""fullscreenenter"",""1"",""2440""
","
","","","-1","","","18","4470","2792","g","elianto","#f73b6a7A","-1","-1","1","0","[]","0","2","","","4470","47","3","4","lose","no-go","0"
"pit-trial","166","1083927","0.0-52.0","battery-v0.2","","""event"",""trial"",""time""
""fullscreenenter"",""1"",""2440""
","
","
","""event"",""trial"",""time""
""fullscreenenter"",""1"",""2440""
","
","","","-1","","","18","4470","2792","l","elianto","#3366ff99","-1","-1","1","+10","[]","0","2","","","4470","48","1","2","win","no-go","0"
"pit-trial","167","1087624","0.0-53.0","battery-v0.2","","""event"",""trial"",""time""
""fullscreenenter"",""1"",""2440""
","
","
","""event"",""trial"",""time""
""fullscreenenter"",""1"",""2440""
","
","","","842","","","18","4470","2792","a","elianto","#f73b6a7A"," "," ","1","0","[1692.4000000953674]","1","2","","","4470","49","2","3","lose","go","0"
"pit-trial","168","1092478","0.0-54.0","battery-v0.2","","""event"",""trial"",""time""
""fullscreenenter"",""1"",""2440""
","
","
","""event"",""trial"",""time""
""fullscreenenter"",""1"",""2440""
","
","","","-1","","","18","4470","2792","g","elianto","#f73b6a7A","-1","-1","1","0","[]","0","2","","","4470","50","3","4","lose","no-go","0"
"pit-trial","169","1096204","0.0-55.0","battery-v0.2","","""event"",""trial"",""time""
""fullscreenenter"",""1"",""2440""
","
","
","""event"",""trial"",""time""
""fullscreenenter"",""1"",""2440""
","
","","","869.1000001430511","","","18","4470","2792","u","elianto","#f73b6a7A"," "," ","1","0","[1720.4000000953674]","1","2","","","4470","51","0","3","lose","go","0"
"pit-trial","170","1101062","0.0-56.0","battery-v0.2","","""event"",""trial"",""time""
""fullscreenenter"",""1"",""2440""
","
","
","""event"",""trial"",""time""
""fullscreenenter"",""1"",""2440""
","
","","","-1","","","18","4470","2792","l","elianto","#3366ff99","-1","-1","1","0","[]","0","2","","","4470","52","1","2","win","no-go","1"
"pit-trial","171","1104828","0.0-57.0","battery-v0.2","","""event"",""trial"",""time""
""fullscreenenter"",""1"",""2440""
","
","
","""event"",""trial"",""time""
""fullscreenenter"",""1"",""2440""
","
","","","909.1000001430511","","","18","4470","2792","a","elianto","#f73b6a7A"," "," ","1","0","[1759.4000000953674]","1","2","","","4470","53","2","3","lose","go","0"
"pit-trial","172","1109686","0.0-58.0","battery-v0.2","","""event"",""trial"",""time""
""fullscreenenter"",""1"",""2440""
","
","
","""event"",""trial"",""time""
""fullscreenenter"",""1"",""2440""
","
","","","-1","","","18","4470","2792","g","elianto","#f73b6a7A","-1","-1","1","0","[]","0","2","","","4470","54","3","4","lose","no-go","0"
"pit-trial","173","1114541","0.0-59.0","battery-v0.2","","""event"",""trial"",""time""
""fullscreenenter"",""1"",""2440""
","
","
","""event"",""trial"",""time""
""fullscreenenter"",""1"",""2440""
","
","","","-1","","","18","4470","2792","l","elianto","#3366ff99","-1","-1","1","0","[]","0","2","","","4470","55","1","2","win","no-go","1"
"pit-trial","174","1118246","0.0-60.0","battery-v0.2","","""event"",""trial"",""time""
""fullscreenenter"",""1"",""2440""
","
","
","""event"",""trial"",""time""
""fullscreenenter"",""1"",""2440""
","
","","","848.6000001430511","","","18","4470","2792","u","elianto","#f73b6a7A"," "," ","1","0","[1698.9000000953674]","1","2","","","4470","56","0","3","lose","go","0"
"pit-trial","175","1122096","0.0-61.0","battery-v0.2","","""event"",""trial"",""time""
""fullscreenenter"",""1"",""2440""
","
","
","""event"",""trial"",""time""
""fullscreenenter"",""1"",""2440""
","
","","","995.2999999523163","","","18","4470","2792","a","elianto","#f73b6a7A"," "," ","1","0","[1845.7000000476837]","1","2","","","4470","57","2","3","lose","go","0"
"pit-trial","176","1126653","0.0-62.0","battery-v0.2","","""event"",""trial"",""time""
""fullscreenenter"",""1"",""2440""
","
","
","""event"",""trial"",""time""
""fullscreenenter"",""1"",""2440""
","
","","","1700","","","18","4470","2792","p","elianto","#3366ff99"," "," ","1","+10","[2550.5999999046326]","1","2","","","4470","58","4","1","win","go","0"
"pit-trial","177","1131514","0.0-63.0","battery-v0.2","","""event"",""trial"",""time""
""fullscreenenter"",""1"",""2440""
","
","
","""event"",""trial"",""time""
""fullscreenenter"",""1"",""2440""
","
","","","-1","","","18","4470","2792","g","elianto","#f73b6a7A","-1","-1","1","-10","[]","0","2","","","4470","59","3","4","lose","no-go","1"
"pit-trial","178","1135354","0.0-64.0","battery-v0.2","","""event"",""trial"",""time""
""fullscreenenter"",""1"",""2440""
","
","
","""event"",""trial"",""time""
""fullscreenenter"",""1"",""2440""
","
","","","982.5","","","18","4470","2792","u","elianto","#f73b6a7A"," "," ","1","0","[1833]","1","2","","","4470","60","0","3","lose","go","0"
"pit-trial","179","1140212","0.0-65.0","battery-v0.2","","""event"",""trial"",""time""
""fullscreenenter"",""1"",""2440""
","
","
","""event"",""trial"",""time""
""fullscreenenter"",""1"",""2440""
","
","","","-1","","","18","4470","2792","l","elianto","#3366ff99","-1","-1","1","+10","[]","0","2","","","4470","61","1","2","win","no-go","0"
"pit-trial","180","1145071","0.0-66.0","battery-v0.2","","""event"",""trial"",""time""
""fullscreenenter"",""1"",""2440""
","
","
","""event"",""trial"",""time""
""fullscreenenter"",""1"",""2440""
","
","","","-1","","","18","4470","2792","g","elianto","#f73b6a7A","-1","-1","1","0","[]","0","2","","","4470","62","3","4","lose","no-go","0"
"pit-trial","181","1148809","0.0-67.0","battery-v0.2","","""event"",""trial"",""time""
""fullscreenenter"",""1"",""2440""
","
","
","""event"",""trial"",""time""
""fullscreenenter"",""1"",""2440""
","
","","","880.7999999523163","","","18","4470","2792","a","elianto","#f73b6a7A"," "," ","1","0","[1731.3000001907349]","1","2","","","4470","63","2","3","lose","go","0"
"pit-trial","182","1152479","0.0-68.0","battery-v0.2","","""event"",""trial"",""time""
""fullscreenenter"",""1"",""2440""
","
","
","""event"",""trial"",""time""
""fullscreenenter"",""1"",""2440""
","
","","","812.8999998569489","","","18","4470","2792","p","elianto","#3366ff99"," "," ","1","+10","[1663.0999999046326]","1","2","","","4470","64","4","1","win","go","0"
"pit-trial","183","1157342","0.0-69.0","battery-v0.2","","""event"",""trial"",""time""
""fullscreenenter"",""1"",""2440""
","
","
","""event"",""trial"",""time""
""fullscreenenter"",""1"",""2440""
","
","","","-1","","","18","4470","2792","l","elianto","#3366ff99","-1","-1","1","+10","[]","0","2","","","4470","65","1","2","win","no-go","0"
"pit-trial","184","1160923","0.0-70.0","battery-v0.2","","""event"",""trial"",""time""
""fullscreenenter"",""1"",""2440""
","
","
","""event"",""trial"",""time""
""fullscreenenter"",""1"",""2440""
","
","","","726.2999999523163","","","18","4470","2792","p","elianto","#3366ff99"," "," ","1","0","[1577.5]","1","2","","","4470","66","4","1","win","go","1"
"pit-trial","185","1164888","0.0-71.0","battery-v0.2","","""event"",""trial"",""time""
""fullscreenenter"",""1"",""2440""
","
","
","""event"",""trial"",""time""
""fullscreenenter"",""1"",""2440""
","
","","","1108.7000000476837","","","18","4470","2792","s","elianto","#3366ff99","-1"," ","0","0","[1961.4000000953674]","1","2","","","4470","67","5","2","win","no-go","0"
"pit-trial","186","1169749","0.0-72.0","battery-v0.2","","""event"",""trial"",""time""
""fullscreenenter"",""1"",""2440""
","
","
","""event"",""trial"",""time""
""fullscreenenter"",""1"",""2440""
","
","","","-1","","","18","4470","2792","g","elianto","#f73b6a7A","-1","-1","1","0","[]","0","2","","","4470","68","3","4","lose","no-go","0"
"pit-trial","187","1174605","0.0-73.0","battery-v0.2","","""event"",""trial"",""time""
""fullscreenenter"",""1"",""2440""
","
","
","""event"",""trial"",""time""
""fullscreenenter"",""1"",""2440""
","
","","","-1","","","18","4470","2792","l","elianto","#3366ff99","-1","-1","1","+10","[]","0","2","","","4470","69","1","2","win","no-go","0"
"pit-trial","188","1178424","0.0-74.0","battery-v0.2","","""event"",""trial"",""time""
""fullscreenenter"",""1"",""2440""
","
","
","""event"",""trial"",""time""
""fullscreenenter"",""1"",""2440""
","
","","","961.5999999046326","","","18","4470","2792","a","elianto","#f73b6a7A"," "," ","1","0","[1812.6000001430511]","1","2","","","4470","70","2","3","lose","go","0"
"pit-trial","189","1183282","0.0-75.0","battery-v0.2","","""event"",""trial"",""time""
""fullscreenenter"",""1"",""2440""
","
","
","""event"",""trial"",""time""
""fullscreenenter"",""1"",""2440""
","
","","","-1","","","18","4470","2792","s","elianto","#3366ff99","-1","-1","1","+10","[]","0","2","","","4470","71","5","2","win","no-go","0"
"pit-trial","190","1186933","0.0-76.0","battery-v0.2","","""event"",""trial"",""time""
""fullscreenenter"",""1"",""2440""
","
","
","""event"",""trial"",""time""
""fullscreenenter"",""1"",""2440""
","
","","","793","","","18","4470","2792","p","elianto","#3366ff99"," "," ","1","+10","[1643.4000000953674]","1","2","","","4470","72","4","1","win","go","0"
"pit-trial","191","1191794","0.0-77.0","battery-v0.2","","""event"",""trial"",""time""
""fullscreenenter"",""1"",""2440""
","
","
","""event"",""trial"",""time""
""fullscreenenter"",""1"",""2440""
","
","","","-1","","","18","4470","2792","g","elianto","#f73b6a7A","-1","-1","1","0","[]","0","2","","","4470","73","3","4","lose","no-go","0"
"pit-trial","192","1196649","0.0-78.0","battery-v0.2","","""event"",""trial"",""time""
""fullscreenenter"",""1"",""2440""
","
","
","""event"",""trial"",""time""
""fullscreenenter"",""1"",""2440""
","
","","","-1","","","18","4470","2792","s","elianto","#3366ff99","-1","-1","1","+10","[]","0","2","","","4470","74","5","2","win","no-go","0"
"pit-trial","193","1201511","0.0-79.0","battery-v0.2","","""event"",""trial"",""time""
""fullscreenenter"",""1"",""2440""
","
","
","""event"",""trial"",""time""
""fullscreenenter"",""1"",""2440""
","
","","","-1","","","18","4470","2792","l","elianto","#3366ff99","-1","-1","1","+10","[]","0","2","","","4470","75","1","2","win","no-go","0"
"pit-trial","194","1205251","0.0-80.0","battery-v0.2","","""event"",""trial"",""time""
""fullscreenenter"",""1"",""2440""
","
","
","""event"",""trial"",""time""
""fullscreenenter"",""1"",""2440""
","
","","","886","","","18","4470","2792","p","elianto","#3366ff99"," "," ","1","0","[1736.2999999523163]","1","2","","","4470","76","4","1","win","go","1"
"pit-trial","195","1208977","0.0-81.0","battery-v0.2","","""event"",""trial"",""time""
""fullscreenenter"",""1"",""2440""
","
","
","""event"",""trial"",""time""
""fullscreenenter"",""1"",""2440""
","
","","","866.7999999523163","","","18","4470","2792","p","elianto","#3366ff99"," "," ","1","+10","[1717.7999999523163]","1","2","","","4470","77","4","1","win","go","0"
"pit-trial","196","1213835","0.0-82.0","battery-v0.2","","""event"",""trial"",""time""
""fullscreenenter"",""1"",""2440""
","
","
","""event"",""trial"",""time""
""fullscreenenter"",""1"",""2440""
","
","","","-1","","","18","4470","2792","g","elianto","#f73b6a7A","-1","-1","1","0","[]","0","2","","","4470","78","3","4","lose","no-go","0"
"pit-trial","197","1218694","0.0-83.0","battery-v0.2","","""event"",""trial"",""time""
""fullscreenenter"",""1"",""2440""
","
","
","""event"",""trial"",""time""
""fullscreenenter"",""1"",""2440""
","
","","","-1","","","18","4470","2792","s","elianto","#3366ff99","-1","-1","1","+10","[]","0","2","","","4470","79","5","2","win","no-go","0"
"pit-trial","198","1222582","0.0-84.0","battery-v0.2","","""event"",""trial"",""time""
""fullscreenenter"",""1"",""2440""
","
","
","""event"",""trial"",""time""
""fullscreenenter"",""1"",""2440""
","
","","","1030.4000000953674","","","18","4470","2792","p","elianto","#3366ff99"," "," ","1","+10","[1881.2000000476837]","1","2","","","4470","80","4","1","win","go","0"
"pit-trial","199","1227446","0.0-85.0","battery-v0.2","","""event"",""trial"",""time""
""fullscreenenter"",""1"",""2440""
","
","
","""event"",""trial"",""time""
""fullscreenenter"",""1"",""2440""
","
","","","-1","","","18","4470","2792","s","elianto","#3366ff99","-1","-1","1","0","[]","0","2","","","4470","81","5","2","win","no-go","1"
"pit-trial","200","1231058","0.0-86.0","battery-v0.2","","""event"",""trial"",""time""
""fullscreenenter"",""1"",""2440""
","
","
","""event"",""trial"",""time""
""fullscreenenter"",""1"",""2440""
","
","","","754.0999999046326","","","18","4470","2792","p","elianto","#3366ff99"," "," ","1","+10","[1604.1000001430511]","1","2","","","4470","82","4","1","win","go","0"
"pit-trial","201","1235920","0.0-87.0","battery-v0.2","","""event"",""trial"",""time""
""fullscreenenter"",""1"",""2440""
","
","
","""event"",""trial"",""time""
""fullscreenenter"",""1"",""2440""
","
","","","-1","","","18","4470","2792","g","elianto","#f73b6a7A","-1","-1","1","-10","[]","0","2","","","4470","83","3","4","lose","no-go","1"
"pit-trial","202","1239765","0.0-88.0","battery-v0.2","","""event"",""trial"",""time""
""fullscreenenter"",""1"",""2440""
","
","
","""event"",""trial"",""time""
""fullscreenenter"",""1"",""2440""
","
","","","989.3999998569489","","","18","4470","2792","e","elianto","#f73b6a7A","-1"," ","0","0","[1841.5999999046326]","1","2","","","4470","84","7","4","lose","no-go","1"
"pit-trial","203","1243628","0.0-89.0","battery-v0.2","","""event"",""trial"",""time""
""fullscreenenter"",""1"",""2440""
","
","
","""event"",""trial"",""time""
""fullscreenenter"",""1"",""2440""
","
","","","1006.8999998569489","","","18","4470","2792","e","elianto","#f73b6a7A","-1"," ","0","-10","[1857.7000000476837]","1","2","","","4470","85","7","4","lose","no-go","0"
"pit-trial","204","1248489","0.0-90.0","battery-v0.2","","""event"",""trial"",""time""
""fullscreenenter"",""1"",""2440""
","
","
","""event"",""trial"",""time""
""fullscreenenter"",""1"",""2440""
","
","","","-1","","","18","4470","2792","w","elianto","#f73b6a7A"," ","-1","0","-10","[]","0","2","","","4470","86","6","3","lose","go","0"
"pit-trial","205","1252265","0.0-91.0","battery-v0.2","","""event"",""trial"",""time""
""fullscreenenter"",""1"",""2440""
","
","
","""event"",""trial"",""time""
""fullscreenenter"",""1"",""2440""
","
","","","921.7000000476837","","","18","4470","2792","p","elianto","#3366ff99"," "," ","1","0","[1772.9000000953674]","1","2","","","4470","87","4","1","win","go","1"
"pit-trial","206","1257124","0.0-92.0","battery-v0.2","","""event"",""trial"",""time""
""fullscreenenter"",""1"",""2440""
","
","
","""event"",""trial"",""time""
""fullscreenenter"",""1"",""2440""
","
","","","-1","","","18","4470","2792","s","elianto","#3366ff99","-1","-1","1","+10","[]","0","2","","","4470","88","5","2","win","no-go","0"
"pit-trial","207","1261387","0.0-93.0","battery-v0.2","","""event"",""trial"",""time""
""fullscreenenter"",""1"",""2440""
","
","
","""event"",""trial"",""time""
""fullscreenenter"",""1"",""2440""
","
","","","1402.5","","","18","4470","2792","e","elianto","#f73b6a7A","-1"," ","0","-10","[2252.5999999046326]","1","2","","","4470","89","7","4","lose","no-go","0"
"pit-trial","208","1265689","0.0-94.0","battery-v0.2","","""event"",""trial"",""time""
""fullscreenenter"",""1"",""2440""
","
","
","""event"",""trial"",""time""
""fullscreenenter"",""1"",""2440""
","
","","","1445.2000000476837","","","18","4470","2792","w","elianto","#f73b6a7A"," "," ","1","0","[2295.5]","1","2","","","4470","90","6","3","lose","go","0"
"pit-trial","209","1269358","0.0-95.0","battery-v0.2","","""event"",""trial"",""time""
""fullscreenenter"",""1"",""2440""
","
","
","""event"",""trial"",""time""
""fullscreenenter"",""1"",""2440""
","
","","","811.2000000476837","","","18","4470","2792","p","elianto","#3366ff99"," "," ","1","+10","[1661.4000000953674]","1","2","","","4470","91","4","1","win","go","0"
"pit-trial","210","1274211","0.0-96.0","battery-v0.2","","""event"",""trial"",""time""
""fullscreenenter"",""1"",""2440""
","
","
","""event"",""trial"",""time""
""fullscreenenter"",""1"",""2440""
","
","","","-1","","","18","4470","2792","s","elianto","#3366ff99","-1","-1","1","0","[]","0","2","","","4470","92","5","2","win","no-go","1"
"pit-trial","211","1279069","0.0-97.0","battery-v0.2","","""event"",""trial"",""time""
""fullscreenenter"",""1"",""2440""
","
","
","""event"",""trial"",""time""
""fullscreenenter"",""1"",""2440""
","
","","","-1","","","18","4470","2792","e","elianto","#f73b6a7A","-1","-1","1","0","[]","0","2","","","4470","93","7","4","lose","no-go","0"
"pit-trial","212","1283925","0.0-98.0","battery-v0.2","","""event"",""trial"",""time""
""fullscreenenter"",""1"",""2440""
","
","
","""event"",""trial"",""time""
""fullscreenenter"",""1"",""2440""
","
","","","-1","","","18","4470","2792","s","elianto","#3366ff99","-1","-1","1","0","[]","0","2","","","4470","94","5","2","win","no-go","1"
"pit-trial","213","1287961","0.0-99.0","battery-v0.2","","""event"",""trial"",""time""
""fullscreenenter"",""1"",""2440""
","
","
","""event"",""trial"",""time""
""fullscreenenter"",""1"",""2440""
","
","","","1181.3000001907349","","","18","4470","2792","d","elianto","#3366ff99"," "," ","1","+10","[2032.0999999046326]","1","2","","","4470","95","8","1","win","go","0"
"pit-trial","214","1292311","0.0-100.0","battery-v0.2","","""event"",""trial"",""time""
""fullscreenenter"",""1"",""2440""
","
","
","""event"",""trial"",""time""
""fullscreenenter"",""1"",""2440""
","
","","","1495.2999999523163","","","18","4470","2792","w","elianto","#f73b6a7A"," "," ","1","-10","[2346.100000143051]","1","2","","","4470","96","6","3","lose","go","1"
"pit-trial","215","1296033","0.0-101.0","battery-v0.2","","""event"",""trial"",""time""
""fullscreenenter"",""1"",""2440""
","
","
","""event"",""trial"",""time""
""fullscreenenter"",""1"",""2440""
","
","","","864.9000000953674","","","18","4470","2792","w","elianto","#f73b6a7A"," "," ","1","0","[1715.6000001430511]","1","2","","","4470","97","6","3","lose","go","0"
"pit-trial","216","1300172","0.0-102.0","battery-v0.2","","""event"",""trial"",""time""
""fullscreenenter"",""1"",""2440""
","
","
","""event"",""trial"",""time""
""fullscreenenter"",""1"",""2440""
","
","","","1283.5","","","18","4470","2792","d","elianto","#3366ff99"," "," ","1","+10","[2134.2999999523163]","1","2","","","4470","98","8","1","win","go","0"
"pit-trial","217","1305033","0.0-103.0","battery-v0.2","","""event"",""trial"",""time""
""fullscreenenter"",""1"",""2440""
","
","
","""event"",""trial"",""time""
""fullscreenenter"",""1"",""2440""
","
","","","-1","","","18","4470","2792","s","elianto","#3366ff99","-1","-1","1","0","[]","0","2","","","4470","99","5","2","win","no-go","1"
"pit-trial","218","1309895","0.0-104.0","battery-v0.2","","""event"",""trial"",""time""
""fullscreenenter"",""1"",""2440""
","
","
","""event"",""trial"",""time""
""fullscreenenter"",""1"",""2440""
","
","","","-1","","","18","4470","2792","e","elianto","#f73b6a7A","-1","-1","1","0","[]","0","2","","","4470","100","7","4","lose","no-go","0"
"pit-trial","219","1314755","0.0-105.0","battery-v0.2","","""event"",""trial"",""time""
""fullscreenenter"",""1"",""2440""
","
","
","""event"",""trial"",""time""
""fullscreenenter"",""1"",""2440""
","
","","","-1","","","18","4470","2792","e","elianto","#f73b6a7A","-1","-1","1","0","[]","0","2","","","4470","101","7","4","lose","no-go","0"
"pit-trial","220","1319617","0.0-106.0","battery-v0.2","","""event"",""trial"",""time""
""fullscreenenter"",""1"",""2440""
","
","
","""event"",""trial"",""time""
""fullscreenenter"",""1"",""2440""
","
","","","-1","","","18","4470","2792","s","elianto","#3366ff99","-1","-1","1","+10","[]","0","2","","","4470","102","5","2","win","no-go","0"
"pit-trial","221","1323641","0.0-107.0","battery-v0.2","","""event"",""trial"",""time""
""fullscreenenter"",""1"",""2440""
","
","
","""event"",""trial"",""time""
""fullscreenenter"",""1"",""2440""
","
","","","1168.7000000476837","","","18","4470","2792","j","elianto","#3366ff99"," "," ","1","+10","[2019]","1","2","","","4470","103","9","1","win","go","0"
"pit-trial","222","1328451","0.0-108.0","battery-v0.2","","""event"",""trial"",""time""
""fullscreenenter"",""1"",""2440""
","
","
","""event"",""trial"",""time""
""fullscreenenter"",""1"",""2440""
","
","","","1948.1000001430511","","","18","4470","2792","d","elianto","#3366ff99"," "," ","1","+10","[2800.0999999046326]","1","2","","","4470","104","8","1","win","go","0"
"pit-trial","223","1333312","0.0-109.0","battery-v0.2","","""event"",""trial"",""time""
""fullscreenenter"",""1"",""2440""
","
","
","""event"",""trial"",""time""
""fullscreenenter"",""1"",""2440""
","
","","","-1","","","18","4470","2792","w","elianto","#f73b6a7A"," ","-1","0","0","[]","0","2","","","4470","105","6","3","lose","go","1"
"pit-trial","224","1337685","0.0-110.0","battery-v0.2","","""event"",""trial"",""time""
""fullscreenenter"",""1"",""2440""
","
","
","""event"",""trial"",""time""
""fullscreenenter"",""1"",""2440""
","
","","","1516.3999998569489","","","18","4470","2792","j","elianto","#3366ff99"," "," ","1","+10","[2369.0999999046326]","1","2","","","4470","106","9","1","win","go","0"
"pit-trial","225","1341802","0.0-111.0","battery-v0.2","","""event"",""trial"",""time""
""fullscreenenter"",""1"",""2440""
","
","
","""event"",""trial"",""time""
""fullscreenenter"",""1"",""2440""
","
","","","1262.7999999523163","","","18","4470","2792","p","elianto","#3366ff99"," "," ","1","+10","[2113.100000143051]","1","2","","","4470","107","4","1","win","go","0"
"pit-trial","226","1346663","0.0-112.0","battery-v0.2","","""event"",""trial"",""time""
""fullscreenenter"",""1"",""2440""
","
","
","""event"",""trial"",""time""
""fullscreenenter"",""1"",""2440""
","
","","","-1","","","18","4470","2792","d","elianto","#3366ff99"," ","-1","0","0","[2892.2999999523163]","1","2","","","4470","108","8","1","win","go","0"
"pit-trial","227","1351525","0.0-113.0","battery-v0.2","","""event"",""trial"",""time""
""fullscreenenter"",""1"",""2440""
","
","
","""event"",""trial"",""time""
""fullscreenenter"",""1"",""2440""
","
","","","-1","","","18","4470","2792","s","elianto","#3366ff99","-1","-1","1","0","[]","0","2","","","4470","109","5","2","win","no-go","1"
"pit-trial","228","1356391","0.0-114.0","battery-v0.2","","""event"",""trial"",""time""
""fullscreenenter"",""1"",""2440""
","
","
","""event"",""trial"",""time""
""fullscreenenter"",""1"",""2440""
","
","","","-1","","","18","4470","2792","j","elianto","#3366ff99"," ","-1","0","0","[]","0","2","","","4470","110","9","1","win","go","0"
"pit-trial","229","1360473","0.0-115.0","battery-v0.2","","""event"",""trial"",""time""
""fullscreenenter"",""1"",""2440""
","
","
","""event"",""trial"",""time""
""fullscreenenter"",""1"",""2440""
","
","","","1228.2000000476837","","","18","4470","2792","w","elianto","#f73b6a7A"," "," ","1","0","[2078.5]","1","2","","","4470","111","6","3","lose","go","0"
"pit-trial","230","1364607","0.0-116.0","battery-v0.2","","""event"",""trial"",""time""
""fullscreenenter"",""1"",""2440""
","
","
","""event"",""trial"",""time""
""fullscreenenter"",""1"",""2440""
","
","","","1278","","","18","4470","2792","d","elianto","#3366ff99"," "," ","1","+10","[2129.0999999046326]","1","2","","","4470","112","8","1","win","go","0"
"pit-trial","231","1369434","0.0-117.0","battery-v0.2","","""event"",""trial"",""time""
""fullscreenenter"",""1"",""2440""
","
","
","""event"",""trial"",""time""
""fullscreenenter"",""1"",""2440""
","
","","","1972.2000000476837","","","18","4470","2792","d","elianto","#3366ff99"," "," ","1","+10","[2822.4000000953674]","1","2","","","4470","113","8","1","win","go","0"
"pit-trial","232","1373225","0.0-118.0","battery-v0.2","","""event"",""trial"",""time""
""fullscreenenter"",""1"",""2440""
","
","
","""event"",""trial"",""time""
""fullscreenenter"",""1"",""2440""
","
","","","931.5999999046326","","","18","4470","2792","j","elianto","#3366ff99"," "," ","1","+10","[1783.2999999523163]","1","2","","","4470","114","9","1","win","go","0"
"pit-trial","233","1378078","0.0-119.0","battery-v0.2","","""event"",""trial"",""time""
""fullscreenenter"",""1"",""2440""
","
","
","""event"",""trial"",""time""
""fullscreenenter"",""1"",""2440""
","
","","","-1","","","18","4470","2792","s","elianto","#3366ff99","-1","-1","1","0","[]","0","2","","","4470","115","5","2","win","no-go","1"
"pit-trial","234","1382163","0.0-120.0","battery-v0.2","","""event"",""trial"",""time""
""fullscreenenter"",""1"",""2440""
","
","
","""event"",""trial"",""time""
""fullscreenenter"",""1"",""2440""
","
","","","1228","","","18","4470","2792","w","elianto","#f73b6a7A"," "," ","1","-10","[2078.2999999523163]","1","2","","","4470","116","6","3","lose","go","1"
"pit-trial","235","1385912","0.0-121.0","battery-v0.2","","""event"",""trial"",""time""
""fullscreenenter"",""1"",""2440""
","
","
","""event"",""trial"",""time""
""fullscreenenter"",""1"",""2440""
","
","","","890.6000001430511","","","18","4470","2792","j","elianto","#3366ff99"," "," ","1","0","[1741.4000000953674]","1","2","","","4470","117","9","1","win","go","1"
"pit-trial","236","1390770","0.0-122.0","battery-v0.2","","""event"",""trial"",""time""
""fullscreenenter"",""1"",""2440""
","
","
","""event"",""trial"",""time""
""fullscreenenter"",""1"",""2440""
","
","","","-1","","","18","4470","2792","s","elianto","#3366ff99","-1","-1","1","+10","[]","0","2","","","4470","118","5","2","win","no-go","0"
"pit-trial","237","1394520","0.0-123.0","battery-v0.2","","""event"",""trial"",""time""
""fullscreenenter"",""1"",""2440""
","
","
","""event"",""trial"",""time""
""fullscreenenter"",""1"",""2440""
","
","","","895.2000000476837","","","18","4470","2792","d","elianto","#3366ff99"," "," ","1","0","[1745.5]","1","2","","","4470","119","8","1","win","go","1"
"pit-trial","238","1398431","0.0-124.0","battery-v0.2","","""event"",""trial"",""time""
""fullscreenenter"",""1"",""2440""
","
","
","""event"",""trial"",""time""
""fullscreenenter"",""1"",""2440""
","
","","","1051.4000000953674","","","18","4470","2792","w","elianto","#f73b6a7A"," "," ","1","-10","[1902.4000000953674]","1","2","","","4470","120","6","3","lose","go","1"
"pit-trial","239","1402114","0.0-125.0","battery-v0.2","","""event"",""trial"",""time""
""fullscreenenter"",""1"",""2440""
","
","
","""event"",""trial"",""time""
""fullscreenenter"",""1"",""2440""
","
","","","825.1000001430511","","","18","4470","2792","w","elianto","#f73b6a7A"," "," ","1","0","[1676.9000000953674]","1","2","","","4470","121","6","3","lose","go","0"
"pit-trial","240","1405836","0.0-126.0","battery-v0.2","","""event"",""trial"",""time""
""fullscreenenter"",""1"",""2440""
","
","
","""event"",""trial"",""time""
""fullscreenenter"",""1"",""2440""
","
","","","866.1999998092651","","","18","4470","2792","d","elianto","#3366ff99"," "," ","1","+10","[1716.8999998569489]","1","2","","","4470","122","8","1","win","go","0"
"pit-trial","241","1409665","0.0-127.0","battery-v0.2","","""event"",""trial"",""time""
""fullscreenenter"",""1"",""2440""
","
","
","""event"",""trial"",""time""
""fullscreenenter"",""1"",""2440""
","
","","","973.9000000953674","","","18","4470","2792","j","elianto","#3366ff99"," "," ","1","+10","[1824.1000001430511]","1","2","","","4470","123","9","1","win","go","0"
"pit-trial","242","1414524","0.0-128.0","battery-v0.2","","""event"",""trial"",""time""
""fullscreenenter"",""1"",""2440""
","
","
","""event"",""trial"",""time""
""fullscreenenter"",""1"",""2440""
","
","","","-1","","","18","4470","2792","e","elianto","#f73b6a7A","-1","-1","1","0","[]","0","2","","","4470","124","7","4","lose","no-go","0"
"pit-trial","243","1418620","0.0-129.0","battery-v0.2","","""event"",""trial"",""time""
""fullscreenenter"",""1"",""2440""
","
","
","""event"",""trial"",""time""
""fullscreenenter"",""1"",""2440""
","
","","","1240.8000001907349","","","18","4470","2792","w","elianto","#f73b6a7A"," "," ","1","0","[2091.2000000476837]","1","2","","","4470","125","6","3","lose","go","0"
"pit-trial","244","1423481","0.0-130.0","battery-v0.2","","""event"",""trial"",""time""
""fullscreenenter"",""1"",""2440""
","
","
","""event"",""trial"",""time""
""fullscreenenter"",""1"",""2440""
","
","","","-1","","","18","4470","2792","e","elianto","#f73b6a7A","-1","-1","1","0","[]","0","2","","","4470","126","7","4","lose","no-go","0"
"pit-trial","245","1427355","0.0-131.0","battery-v0.2","","""event"",""trial"",""time""
""fullscreenenter"",""1"",""2440""
","
","
","""event"",""trial"",""time""
""fullscreenenter"",""1"",""2440""
","
","","","1019.2999999523163","","","18","4470","2792","d","elianto","#3366ff99"," "," ","1","+10","[1869.7000000476837]","1","2","","","4470","127","8","1","win","go","0"
"pit-trial","246","1431149","0.0-132.0","battery-v0.2","","""event"",""trial"",""time""
""fullscreenenter"",""1"",""2440""
","
","
","""event"",""trial"",""time""
""fullscreenenter"",""1"",""2440""
","
","","","937.5999999046326","","","18","4470","2792","j","elianto","#3366ff99"," "," ","1","+10","[1787.7000000476837]","1","2","","","4470","128","9","1","win","go","0"
"pit-trial","247","1434977","0.0-133.0","battery-v0.2","","""event"",""trial"",""time""
""fullscreenenter"",""1"",""2440""
","
","
","""event"",""trial"",""time""
""fullscreenenter"",""1"",""2440""
","
","","","969.2000000476837","","","18","4470","2792","j","elianto","#3366ff99"," "," ","1","+10","[1819.2000000476837]","1","2","","","4470","129","9","1","win","go","0"
"pit-trial","248","1439835","0.0-134.0","battery-v0.2","","""event"",""trial"",""time""
""fullscreenenter"",""1"",""2440""
","
","
","""event"",""trial"",""time""
""fullscreenenter"",""1"",""2440""
","
","","","-1","","","18","4470","2792","e","elianto","#f73b6a7A","-1","-1","1","0","[]","0","2","","","4470","130","7","4","lose","no-go","0"
"pit-trial","249","1443626","0.0-135.0","battery-v0.2","","""event"",""trial"",""time""
""fullscreenenter"",""1"",""2440""
","
","
","""event"",""trial"",""time""
""fullscreenenter"",""1"",""2440""
","
","","","937.3999998569489","","","18","4470","2792","d","elianto","#3366ff99"," "," ","1","+10","[1787.5999999046326]","1","2","","","4470","131","8","1","win","go","0"
"pit-trial","250","1448235","0.0-136.0","battery-v0.2","","""event"",""trial"",""time""
""fullscreenenter"",""1"",""2440""
","
","
","""event"",""trial"",""time""
""fullscreenenter"",""1"",""2440""
","
","","","1751.7999999523163","","","18","4470","2792","w","elianto","#f73b6a7A"," "," ","1","0","[2601.9000000953674]","1","2","","","4470","132","6","3","lose","go","0"
"pit-trial","251","1452448","0.0-137.0","battery-v0.2","","""event"",""trial"",""time""
""fullscreenenter"",""1"",""2440""
","
","
","""event"",""trial"",""time""
""fullscreenenter"",""1"",""2440""
","
","","","1358.2000000476837","","","18","4470","2792","j","elianto","#3366ff99"," "," ","1","+10","[2208.300000190735]","1","2","","","4470","133","9","1","win","go","0"
"pit-trial","252","1456391","0.0-138.0","battery-v0.2","","""event"",""trial"",""time""
""fullscreenenter"",""1"",""2440""
","
","
","""event"",""trial"",""time""
""fullscreenenter"",""1"",""2440""
","
","","","1083.1000001430511","","","18","4470","2792","d","elianto","#3366ff99"," "," ","1","+10","[1936]","1","2","","","4470","134","8","1","win","go","0"
"pit-trial","253","1461254","0.0-139.0","battery-v0.2","","""event"",""trial"",""time""
""fullscreenenter"",""1"",""2440""
","
","
","""event"",""trial"",""time""
""fullscreenenter"",""1"",""2440""
","
","","","-1","","","18","4470","2792","e","elianto","#f73b6a7A","-1","-1","1","0","[]","0","2","","","4470","135","7","4","lose","no-go","0"
"pit-trial","254","1465321","0.0-140.0","battery-v0.2","","""event"",""trial"",""time""
""fullscreenenter"",""1"",""2440""
","
","
","""event"",""trial"",""time""
""fullscreenenter"",""1"",""2440""
","
","","","1210.4000000953674","","","18","4470","2792","w","elianto","#f73b6a7A"," "," ","1","0","[2060.9000000953674]","1","2","","","4470","136","6","3","lose","go","0"
"pit-trial","255","1470182","0.0-141.0","battery-v0.2","","""event"",""trial"",""time""
""fullscreenenter"",""1"",""2440""
","
","
","""event"",""trial"",""time""
""fullscreenenter"",""1"",""2440""
","
","","","-1","","","18","4470","2792","e","elianto","#f73b6a7A","-1","-1","1","-10","[]","0","2","","","4470","137","7","4","lose","no-go","1"
"pit-trial","256","1473886","0.0-142.0","battery-v0.2","","""event"",""trial"",""time""
""fullscreenenter"",""1"",""2440""
","
","
","""event"",""trial"",""time""
""fullscreenenter"",""1"",""2440""
","
","","","848.2000000476837","","","18","4470","2792","d","elianto","#3366ff99"," "," ","1","+10","[1699.6999998092651]","1","2","","","4470","138","8","1","win","go","0"
"pit-trial","257","1477955","0.0-143.0","battery-v0.2","","""event"",""trial"",""time""
""fullscreenenter"",""1"",""2440""
","
","
","""event"",""trial"",""time""
""fullscreenenter"",""1"",""2440""
","
","","","1213","","","18","4470","2792","w","elianto","#f73b6a7A"," "," ","1","0","[2063.5]","1","2","","","4470","139","6","3","lose","go","0"
"pit-trial","258","1481635","0.0-144.0","battery-v0.2","","""event"",""trial"",""time""
""fullscreenenter"",""1"",""2440""
","
","
","""event"",""trial"",""time""
""fullscreenenter"",""1"",""2440""
","
","","","824.4000000953674","","","18","4470","2792","j","elianto","#3366ff99"," "," ","1","+10","[1675.5999999046326]","1","2","","","4470","140","9","1","win","go","0"
"pit-instructions","259","1496017","0.0-145.0","battery-v0.2","","""event"",""trial"",""time""
""fullscreenenter"",""1"",""2440""
","
","
","""event"",""trial"",""time""
""fullscreenenter"",""1"",""2440""
","
","","[{""page_index"":0,""viewing_time"":5428.299999952316},{""page_index"":1,""viewing_time"":8952}]","14380.5","","","","","","","","","","","","","","","","","","","","","","","",""
"pit-trial","260","1500117","0.0-146.0","battery-v0.2","","""event"",""trial"",""time""
""fullscreenenter"",""1"",""2440""
","
","
","""event"",""trial"",""time""
""fullscreenenter"",""1"",""2440""
","
","","","1235","","","18","4470","2792","r","elianto","#3366ff99"," "," ","1","0","[2088.2999999523163]","1","3","","","4470","141","1","1","win","go","1"
"pit-trial","261","1504675","0.0-147.0","battery-v0.2","","""event"",""trial"",""time""
""fullscreenenter"",""1"",""2440""
","
","
","""event"",""trial"",""time""
""fullscreenenter"",""1"",""2440""
","
","","","1703.4000000953674","","","18","4470","2792","h","elianto","#f73b6a7A"," "," ","1","0","[2554.4000000953674]","1","3","","","4470","142","3","3","lose","go","0"
"pit-trial","262","1509231","0.0-148.0","battery-v0.2","","""event"",""trial"",""time""
""fullscreenenter"",""1"",""2440""
","
","
","""event"",""trial"",""time""
""fullscreenenter"",""1"",""2440""
","
","","","1697.7000000476837","","","18","4470","2792","y","elianto","#f73b6a7A","-1"," ","0","-10","[2548.0999999046326]","1","3","","","4470","143","2","4","lose","no-go","0"
"pit-trial","263","1512887","0.0-149.0","battery-v0.2","","""event"",""trial"",""time""
""fullscreenenter"",""1"",""2440""
","
","
","""event"",""trial"",""time""
""fullscreenenter"",""1"",""2440""
","
","","","800.2999999523163","","","18","4470","2792","m","elianto","#f73b6a7A","-1"," ","0","-10","[1650.5]","1","3","","","4470","144","0","4","lose","no-go","0"
"pit-trial","264","1517278","0.0-150.0","battery-v0.2","","""event"",""trial"",""time""
""fullscreenenter"",""1"",""2440""
","
","
","""event"",""trial"",""time""
""fullscreenenter"",""1"",""2440""
","
","","","1536.7000000476837","","","18","4470","2792","h","elianto","#f73b6a7A"," "," ","1","0","[2388.7000000476837]","1","3","","","4470","145","3","3","lose","go","0"
"pit-trial","265","1522141","0.0-151.0","battery-v0.2","","""event"",""trial"",""time""
""fullscreenenter"",""1"",""2440""
","
","
","""event"",""trial"",""time""
""fullscreenenter"",""1"",""2440""
","
","","","-1","","","18","4470","2792","m","elianto","#f73b6a7A","-1","-1","1","0","[]","0","3","","","4470","146","0","4","lose","no-go","0"
"pit-trial","266","1527000","0.0-152.0","battery-v0.2","","""event"",""trial"",""time""
""fullscreenenter"",""1"",""2440""
","
","
","""event"",""trial"",""time""
""fullscreenenter"",""1"",""2440""
","
","","","-1","","","18","4470","2792","y","elianto","#f73b6a7A","-1","-1","1","0","[]","0","3","","","4470","147","2","4","lose","no-go","0"
"pit-trial","267","1531858","0.0-153.0","battery-v0.2","","""event"",""trial"",""time""
""fullscreenenter"",""1"",""2440""
","
","
","""event"",""trial"",""time""
""fullscreenenter"",""1"",""2440""
","
