"trial_type","trial_index","time_elapsed","internal_node_id","task_version","subject_id","interactions","blur_events","focus_events","fullscreenenter_events","fullscreenexit_events","success","view_history","rt","responses","num_errors","age","subject","participantId","rune","rune_set","hex","correct","choice","accuracy","outcome","keys","total_keys","block","practice","value","sub","trial","stimulus","robot","valence","action","sham"
"pavlovia","0","8","0.0-0.0","battery-v0.2","","""event"",""trial"",""time""
""fullscreenenter"",""1"",""2006""
","
","
","""event"",""trial"",""time""
""fullscreenenter"",""1"",""2006""
","
","","","","","","","","","","","","","","","","","","","","","","","","","","",""
"fullscreen","1","3004","0.0-1.0","battery-v0.2","","""event"",""trial"",""time""
""fullscreenenter"",""1"",""2006""
","
","
","""event"",""trial"",""time""
""fullscreenenter"",""1"",""2006""
","
","true","","","","","","","","","","","","","","","","","","","","","","","","","",""
"pit-instructions","2","6510","0.0-2.0-0.0","battery-v0.2","","""event"",""trial"",""time""
""fullscreenenter"",""1"",""2006""
","
","
","""event"",""trial"",""time""
""fullscreenenter"",""1"",""2006""
","
","","[{""page_index"":0,""viewing_time"":3501.100000023842}]","3501.5","","","","","","","","","","","","","","","","","","","","","","","",""
"pit-comprehension","3","10316","0.0-2.0-1.0-0.0","battery-v0.2","","""event"",""trial"",""time""
""fullscreenenter"",""1"",""2006""
","
","
","""event"",""trial"",""time""
""fullscreenenter"",""1"",""2006""
","
","","","3801.399999976158","[""shark""]","0","25","9103","1734","","","","","","","","","","","","","","","","","","",""
"pit-instructions","4","11659","0.0-2.0-1.0-1.0","battery-v0.2","","""event"",""trial"",""time""
""fullscreenenter"",""1"",""2006""
","
","
","""event"",""trial"",""time""
""fullscreenenter"",""1"",""2006""
","
","","[{""page_index"":0,""viewing_time"":1328.4000000357628}]","1328.7000000476837","","","","","","","","","","","","","","","","","","","","","","","",""
"pit-comprehension","5","13927","0.0-2.0-2.0-0.0","battery-v0.2","","""event"",""trial"",""time""
""fullscreenenter"",""1"",""2006""
","
","
","""event"",""trial"",""time""
""fullscreenenter"",""1"",""2006""
","
","","","2264.400000035763","[""tiger""]","0","25","9103","1734","","","","","","","","","","","","","","","","","","",""
"pit-instructions","6","16794","0.0-2.0-2.0-1.0","battery-v0.2","","""event"",""trial"",""time""
""fullscreenenter"",""1"",""2006""
""fullscreenexit"",""7"",""23409""
""blur"",""7"",""28066""
""focus"",""7"",""115665""
""blur"",""7"",""130729""
""focus"",""7"",""131201""
""blur"",""7"",""169679""
""focus"",""7"",""172893""
""blur"",""7"",""174137""
""focus"",""7"",""177110""
""blur"",""7"",""177881""
""focus"",""7"",""182694""
""blur"",""7"",""184728""
""focus"",""7"",""189277""
""blur"",""7"",""191185""
""focus"",""7"",""192988""
""blur"",""7"",""196594""
""focus"",""7"",""197311""
""blur"",""7"",""198188""
""focus"",""7"",""198621""
""blur"",""7"",""199057""
""focus"",""7"",""230009""
""blur"",""7"",""230463""
""focus"",""7"",""231405""
""blur"",""7"",""235421""
""focus"",""7"",""236088""
""blur"",""7"",""242852""
""focus"",""7"",""248627""
""blur"",""7"",""251050""
""focus"",""7"",""251817""
","""event"",""trial"",""time""
""blur"",""7"",""28066""
""blur"",""7"",""130729""
""blur"",""7"",""169679""
""blur"",""7"",""174137""
""blur"",""7"",""177881""
""blur"",""7"",""184728""
""blur"",""7"",""191185""
""blur"",""7"",""196594""
""blur"",""7"",""198188""
""blur"",""7"",""199057""
""blur"",""7"",""230463""
""blur"",""7"",""235421""
""blur"",""7"",""242852""
""blur"",""7"",""251050""
","""event"",""trial"",""time""
""focus"",""7"",""115665""
""focus"",""7"",""131201""
""focus"",""7"",""172893""
""focus"",""7"",""177110""
""focus"",""7"",""182694""
""focus"",""7"",""189277""
""focus"",""7"",""192988""
""focus"",""7"",""197311""
""focus"",""7"",""198621""
""focus"",""7"",""230009""
""focus"",""7"",""231405""
""focus"",""7"",""236088""
""focus"",""7"",""248627""
""focus"",""7"",""251817""
","""event"",""trial"",""time""
""fullscreenenter"",""1"",""2006""
","""event"",""trial"",""time""
""fullscreenexit"",""7"",""23409""
","","[{""page_index"":0,""viewing_time"":2864.199999988079}]","2864.600000023842","","","","","","","","","","","","","","","","","","","","","","","",""
"pit-instructions","7","260999","0.0-2.0-3.0","battery-v0.2","","""event"",""trial"",""time""
""fullscreenenter"",""1"",""2006""
""fullscreenexit"",""7"",""23409""
""blur"",""7"",""28066""
""focus"",""7"",""115665""
""blur"",""7"",""130729""
""focus"",""7"",""131201""
""blur"",""7"",""169679""
""focus"",""7"",""172893""
""blur"",""7"",""174137""
""focus"",""7"",""177110""
""blur"",""7"",""177881""
""focus"",""7"",""182694""
""blur"",""7"",""184728""
""focus"",""7"",""189277""
""blur"",""7"",""191185""
""focus"",""7"",""192988""
""blur"",""7"",""196594""
""focus"",""7"",""197311""
""blur"",""7"",""198188""
""focus"",""7"",""198621""
""blur"",""7"",""199057""
""focus"",""7"",""230009""
""blur"",""7"",""230463""
""focus"",""7"",""231405""
""blur"",""7"",""235421""
""focus"",""7"",""236088""
""blur"",""7"",""242852""
""focus"",""7"",""248627""
""blur"",""7"",""251050""
""focus"",""7"",""251817""
""blur"",""8"",""263672""
""focus"",""8"",""264321""
","""event"",""trial"",""time""
""blur"",""7"",""28066""
""blur"",""7"",""130729""
""blur"",""7"",""169679""
""blur"",""7"",""174137""
""blur"",""7"",""177881""
""blur"",""7"",""184728""
""blur"",""7"",""191185""
""blur"",""7"",""196594""
""blur"",""7"",""198188""
""blur"",""7"",""199057""
""blur"",""7"",""230463""
""blur"",""7"",""235421""
""blur"",""7"",""242852""
""blur"",""7"",""251050""
""blur"",""8"",""263672""
","""event"",""trial"",""time""
""focus"",""7"",""115665""
""focus"",""7"",""131201""
""focus"",""7"",""172893""
""focus"",""7"",""177110""
""focus"",""7"",""182694""
""focus"",""7"",""189277""
""focus"",""7"",""192988""
""focus"",""7"",""197311""
""focus"",""7"",""198621""
""focus"",""7"",""230009""
""focus"",""7"",""231405""
""focus"",""7"",""236088""
""focus"",""7"",""248627""
""focus"",""7"",""251817""
""focus"",""8"",""264321""
","""event"",""trial"",""time""
""fullscreenenter"",""1"",""2006""
","""event"",""trial"",""time""
""fullscreenexit"",""7"",""23409""
","","[{""page_index"":0,""viewing_time"":8964.300000011921},{""page_index"":1,""viewing_time"":91037},{""page_index"":2,""viewing_time"":7629.899999976158},{""page_index"":3,""viewing_time"":7249.899999976158},{""page_index"":4,""viewing_time"":17784.5},{""page_index"":5,""viewing_time"":19736.700000047684},{""page_index"":6,""viewing_time"":8246.899999976158},{""page_index"":7,""viewing_time"":12150.300000011921},{""page_index"":8,""viewing_time"":6404.199999988079},{""page_index"":9,""viewing_time"":37680.30000001192},{""page_index"":10,""viewing_time"":7417.599999964237},{""page_index"":11,""viewing_time"":7981.800000011921},{""page_index"":12,""viewing_time"":7083.100000023842},{""page_index"":13,""viewing_time"":4835.899999976158}]","244203.5","","","","","","","","","","","","","","","","","","","","","","","",""
"pit-trial","8","264360","0.0-2.0-4.0-0.0","battery-v0.2","","""event"",""trial"",""time""
""fullscreenenter"",""1"",""2006""
""fullscreenexit"",""7"",""23409""
""blur"",""7"",""28066""
""focus"",""7"",""115665""
""blur"",""7"",""130729""
""focus"",""7"",""131201""
""blur"",""7"",""169679""
""focus"",""7"",""172893""
""blur"",""7"",""174137""
""focus"",""7"",""177110""
""blur"",""7"",""177881""
""focus"",""7"",""182694""
""blur"",""7"",""184728""
""focus"",""7"",""189277""
""blur"",""7"",""191185""
""focus"",""7"",""192988""
""blur"",""7"",""196594""
""focus"",""7"",""197311""
""blur"",""7"",""198188""
""focus"",""7"",""198621""
""blur"",""7"",""199057""
""focus"",""7"",""230009""
""blur"",""7"",""230463""
""focus"",""7"",""231405""
""blur"",""7"",""235421""
""focus"",""7"",""236088""
""blur"",""7"",""242852""
""focus"",""7"",""248627""
""blur"",""7"",""251050""
""focus"",""7"",""251817""
""blur"",""8"",""263672""
""focus"",""8"",""264321""
","""event"",""trial"",""time""
""blur"",""7"",""28066""
""blur"",""7"",""130729""
""blur"",""7"",""169679""
""blur"",""7"",""174137""
""blur"",""7"",""177881""
""blur"",""7"",""184728""
""blur"",""7"",""191185""
""blur"",""7"",""196594""
""blur"",""7"",""198188""
""blur"",""7"",""199057""
""blur"",""7"",""230463""
""blur"",""7"",""235421""
""blur"",""7"",""242852""
""blur"",""7"",""251050""
""blur"",""8"",""263672""
","""event"",""trial"",""time""
""focus"",""7"",""115665""
""focus"",""7"",""131201""
""focus"",""7"",""172893""
""focus"",""7"",""177110""
""focus"",""7"",""182694""
""focus"",""7"",""189277""
""focus"",""7"",""192988""
""focus"",""7"",""197311""
""focus"",""7"",""198621""
""focus"",""7"",""230009""
""focus"",""7"",""231405""
""focus"",""7"",""236088""
""focus"",""7"",""248627""
""focus"",""7"",""251817""
""focus"",""8"",""264321""
","""event"",""trial"",""time""
""fullscreenenter"",""1"",""2006""
","""event"",""trial"",""time""
""fullscreenexit"",""7"",""23409""
","","","484.2000000476837","","","25","9103","1734","&#9784;","elianto","#FFFFF080"," "," ","1","&#10004","[1337.3999999761581]","1","0","0","","","","","","","",""
"pit-trial","9","267715","0.0-2.0-4.1-0.1","battery-v0.2","","""event"",""trial"",""time""
""fullscreenenter"",""1"",""2006""
""fullscreenexit"",""7"",""23409""
""blur"",""7"",""28066""
""focus"",""7"",""115665""
""blur"",""7"",""130729""
""focus"",""7"",""131201""
""blur"",""7"",""169679""
""focus"",""7"",""172893""
""blur"",""7"",""174137""
""focus"",""7"",""177110""
""blur"",""7"",""177881""
""focus"",""7"",""182694""
""blur"",""7"",""184728""
""focus"",""7"",""189277""
""blur"",""7"",""191185""
""focus"",""7"",""192988""
""blur"",""7"",""196594""
""focus"",""7"",""197311""
""blur"",""7"",""198188""
""focus"",""7"",""198621""
""blur"",""7"",""199057""
""focus"",""7"",""230009""
""blur"",""7"",""230463""
""focus"",""7"",""231405""
""blur"",""7"",""235421""
""focus"",""7"",""236088""
""blur"",""7"",""242852""
""focus"",""7"",""248627""
""blur"",""7"",""251050""
""focus"",""7"",""251817""
""blur"",""8"",""263672""
""focus"",""8"",""264321""
","""event"",""trial"",""time""
""blur"",""7"",""28066""
""blur"",""7"",""130729""
""blur"",""7"",""169679""
""blur"",""7"",""174137""
""blur"",""7"",""177881""
""blur"",""7"",""184728""
""blur"",""7"",""191185""
""blur"",""7"",""196594""
""blur"",""7"",""198188""
""blur"",""7"",""199057""
""blur"",""7"",""230463""
""blur"",""7"",""235421""
""blur"",""7"",""242852""
""blur"",""7"",""251050""
""blur"",""8"",""263672""
","""event"",""trial"",""time""
""focus"",""7"",""115665""
""focus"",""7"",""131201""
""focus"",""7"",""172893""
""focus"",""7"",""177110""
""focus"",""7"",""182694""
""focus"",""7"",""189277""
""focus"",""7"",""192988""
""focus"",""7"",""197311""
""focus"",""7"",""198621""
""focus"",""7"",""230009""
""focus"",""7"",""231405""
""focus"",""7"",""236088""
""focus"",""7"",""248627""
""focus"",""7"",""251817""
""focus"",""8"",""264321""
","""event"",""trial"",""time""
""fullscreenenter"",""1"",""2006""
","""event"",""trial"",""time""
""fullscreenexit"",""7"",""23409""
","","","483.4000000357628","","","25","9103","1734","&#9784;","elianto","#FFFFF080"," "," ","1","&#10004","[1337.2999999523163]","1","0","0","","","","","","","",""
"pit-trial","10","271173","0.0-2.0-4.2-0.2","battery-v0.2","","""event"",""trial"",""time""
""fullscreenenter"",""1"",""2006""
""fullscreenexit"",""7"",""23409""
""blur"",""7"",""28066""
""focus"",""7"",""115665""
""blur"",""7"",""130729""
""focus"",""7"",""131201""
""blur"",""7"",""169679""
""focus"",""7"",""172893""
""blur"",""7"",""174137""
""focus"",""7"",""177110""
""blur"",""7"",""177881""
""focus"",""7"",""182694""
""blur"",""7"",""184728""
""focus"",""7"",""189277""
""blur"",""7"",""191185""
""focus"",""7"",""192988""
""blur"",""7"",""196594""
""focus"",""7"",""197311""
""blur"",""7"",""198188""
""focus"",""7"",""198621""
""blur"",""7"",""199057""
""focus"",""7"",""230009""
""blur"",""7"",""230463""
""focus"",""7"",""231405""
""blur"",""7"",""235421""
""focus"",""7"",""236088""
""blur"",""7"",""242852""
""focus"",""7"",""248627""
""blur"",""7"",""251050""
""focus"",""7"",""251817""
""blur"",""8"",""263672""
""focus"",""8"",""264321""
","""event"",""trial"",""time""
""blur"",""7"",""28066""
""blur"",""7"",""130729""
""blur"",""7"",""169679""
""blur"",""7"",""174137""
""blur"",""7"",""177881""
""blur"",""7"",""184728""
""blur"",""7"",""191185""
""blur"",""7"",""196594""
""blur"",""7"",""198188""
""blur"",""7"",""199057""
""blur"",""7"",""230463""
""blur"",""7"",""235421""
""blur"",""7"",""242852""
""blur"",""7"",""251050""
""blur"",""8"",""263672""
","""event"",""trial"",""time""
""focus"",""7"",""115665""
""focus"",""7"",""131201""
""focus"",""7"",""172893""
""focus"",""7"",""177110""
""focus"",""7"",""182694""
""focus"",""7"",""189277""
""focus"",""7"",""192988""
""focus"",""7"",""197311""
""focus"",""7"",""198621""
""focus"",""7"",""230009""
""focus"",""7"",""231405""
""focus"",""7"",""236088""
""focus"",""7"",""248627""
""focus"",""7"",""251817""
""focus"",""8"",""264321""
","""event"",""trial"",""time""
""fullscreenenter"",""1"",""2006""
","""event"",""trial"",""time""
""fullscreenexit"",""7"",""23409""
","","","580.6999999880791","","","25","9103","1734","&#9784;","elianto","#FFFFF080"," "," ","1","&#10004","[1439.800000011921]","1","0","0","","","","","","","",""
"pit-trial","11","274649","0.0-2.0-4.3-0.3","battery-v0.2","","""event"",""trial"",""time""
""fullscreenenter"",""1"",""2006""
""fullscreenexit"",""7"",""23409""
""blur"",""7"",""28066""
""focus"",""7"",""115665""
""blur"",""7"",""130729""
""focus"",""7"",""131201""
""blur"",""7"",""169679""
""focus"",""7"",""172893""
""blur"",""7"",""174137""
""focus"",""7"",""177110""
""blur"",""7"",""177881""
""focus"",""7"",""182694""
""blur"",""7"",""184728""
""focus"",""7"",""189277""
""blur"",""7"",""191185""
""focus"",""7"",""192988""
""blur"",""7"",""196594""
""focus"",""7"",""197311""
""blur"",""7"",""198188""
""focus"",""7"",""198621""
""blur"",""7"",""199057""
""focus"",""7"",""230009""
""blur"",""7"",""230463""
""focus"",""7"",""231405""
""blur"",""7"",""235421""
""focus"",""7"",""236088""
""blur"",""7"",""242852""
""focus"",""7"",""248627""
""blur"",""7"",""251050""
""focus"",""7"",""251817""
""blur"",""8"",""263672""
""focus"",""8"",""264321""
","""event"",""trial"",""time""
""blur"",""7"",""28066""
""blur"",""7"",""130729""
""blur"",""7"",""169679""
""blur"",""7"",""174137""
""blur"",""7"",""177881""
""blur"",""7"",""184728""
""blur"",""7"",""191185""
""blur"",""7"",""196594""
""blur"",""7"",""198188""
""blur"",""7"",""199057""
""blur"",""7"",""230463""
""blur"",""7"",""235421""
""blur"",""7"",""242852""
""blur"",""7"",""251050""
""blur"",""8"",""263672""
","""event"",""trial"",""time""
""focus"",""7"",""115665""
""focus"",""7"",""131201""
""focus"",""7"",""172893""
""focus"",""7"",""177110""
""focus"",""7"",""182694""
""focus"",""7"",""189277""
""focus"",""7"",""192988""
""focus"",""7"",""197311""
""focus"",""7"",""198621""
""focus"",""7"",""230009""
""focus"",""7"",""231405""
""focus"",""7"",""236088""
""focus"",""7"",""248627""
""focus"",""7"",""251817""
""focus"",""8"",""264321""
","""event"",""trial"",""time""
""fullscreenenter"",""1"",""2006""
","""event"",""trial"",""time""
""fullscreenexit"",""7"",""23409""
","","","605.6999999880791","","","25","9103","1734","&#9784;","elianto","#FFFFF080"," "," ","1","&#10004","[1463.800000011921]","1","0","0","","","","","","","",""
"pit-trial","12","278048","0.0-2.0-4.4-0.4","battery-v0.2","","""event"",""trial"",""time""
""fullscreenenter"",""1"",""2006""
""fullscreenexit"",""7"",""23409""
""blur"",""7"",""28066""
""focus"",""7"",""115665""
""blur"",""7"",""130729""
""focus"",""7"",""131201""
""blur"",""7"",""169679""
""focus"",""7"",""172893""
""blur"",""7"",""174137""
""focus"",""7"",""177110""
""blur"",""7"",""177881""
""focus"",""7"",""182694""
""blur"",""7"",""184728""
""focus"",""7"",""189277""
""blur"",""7"",""191185""
""focus"",""7"",""192988""
""blur"",""7"",""196594""
""focus"",""7"",""197311""
""blur"",""7"",""198188""
""focus"",""7"",""198621""
""blur"",""7"",""199057""
""focus"",""7"",""230009""
""blur"",""7"",""230463""
""focus"",""7"",""231405""
""blur"",""7"",""235421""
""focus"",""7"",""236088""
""blur"",""7"",""242852""
""focus"",""7"",""248627""
""blur"",""7"",""251050""
""focus"",""7"",""251817""
""blur"",""8"",""263672""
""focus"",""8"",""264321""
""blur"",""13"",""279484""
""focus"",""13"",""289458""
""blur"",""13"",""293969""
""focus"",""13"",""294787""
""blur"",""13"",""295596""
""focus"",""13"",""338877""
""blur"",""13"",""339369""
""focus"",""13"",""339972""
","""event"",""trial"",""time""
""blur"",""7"",""28066""
""blur"",""7"",""130729""
""blur"",""7"",""169679""
""blur"",""7"",""174137""
""blur"",""7"",""177881""
""blur"",""7"",""184728""
""blur"",""7"",""191185""
""blur"",""7"",""196594""
""blur"",""7"",""198188""
""blur"",""7"",""199057""
""blur"",""7"",""230463""
""blur"",""7"",""235421""
""blur"",""7"",""242852""
""blur"",""7"",""251050""
""blur"",""8"",""263672""
""blur"",""13"",""279484""
""blur"",""13"",""293969""
""blur"",""13"",""295596""
""blur"",""13"",""339369""
","""event"",""trial"",""time""
""focus"",""7"",""115665""
""focus"",""7"",""131201""
""focus"",""7"",""172893""
""focus"",""7"",""177110""
""focus"",""7"",""182694""
""focus"",""7"",""189277""
""focus"",""7"",""192988""
""focus"",""7"",""197311""
""focus"",""7"",""198621""
""focus"",""7"",""230009""
""focus"",""7"",""231405""
""focus"",""7"",""236088""
""focus"",""7"",""248627""
""focus"",""7"",""251817""
""focus"",""8"",""264321""
""focus"",""13"",""289458""
""focus"",""13"",""294787""
""focus"",""13"",""338877""
""focus"",""13"",""339972""
","""event"",""trial"",""time""
""fullscreenenter"",""1"",""2006""
","""event"",""trial"",""time""
""fullscreenexit"",""7"",""23409""
","","","533.6999999880791","","","25","9103","1734","&#9784;","elianto","#FFFFF080"," "," ","1","&#10004","[1388]","1","0","0","","","","","","","",""
"pit-instructions","13","356532","0.0-2.0-5.0","battery-v0.2","","""event"",""trial"",""time""
""fullscreenenter"",""1"",""2006""
""fullscreenexit"",""7"",""23409""
""blur"",""7"",""28066""
""focus"",""7"",""115665""
""blur"",""7"",""130729""
""focus"",""7"",""131201""
""blur"",""7"",""169679""
""focus"",""7"",""172893""
""blur"",""7"",""174137""
""focus"",""7"",""177110""
""blur"",""7"",""177881""
""focus"",""7"",""182694""
""blur"",""7"",""184728""
""focus"",""7"",""189277""
""blur"",""7"",""191185""
""focus"",""7"",""192988""
""blur"",""7"",""196594""
""focus"",""7"",""197311""
""blur"",""7"",""198188""
""focus"",""7"",""198621""
""blur"",""7"",""199057""
""focus"",""7"",""230009""
""blur"",""7"",""230463""
""focus"",""7"",""231405""
""blur"",""7"",""235421""
""focus"",""7"",""236088""
""blur"",""7"",""242852""
""focus"",""7"",""248627""
""blur"",""7"",""251050""
""focus"",""7"",""251817""
""blur"",""8"",""263672""
""focus"",""8"",""264321""
""blur"",""13"",""279484""
""focus"",""13"",""289458""
""blur"",""13"",""293969""
""focus"",""13"",""294787""
""blur"",""13"",""295596""
""focus"",""13"",""338877""
""blur"",""13"",""339369""
""focus"",""13"",""339972""
","""event"",""trial"",""time""
""blur"",""7"",""28066""
""blur"",""7"",""130729""
""blur"",""7"",""169679""
""blur"",""7"",""174137""
""blur"",""7"",""177881""
""blur"",""7"",""184728""
""blur"",""7"",""191185""
""blur"",""7"",""196594""
""blur"",""7"",""198188""
""blur"",""7"",""199057""
""blur"",""7"",""230463""
""blur"",""7"",""235421""
""blur"",""7"",""242852""
""blur"",""7"",""251050""
""blur"",""8"",""263672""
""blur"",""13"",""279484""
""blur"",""13"",""293969""
""blur"",""13"",""295596""
""blur"",""13"",""339369""
","""event"",""trial"",""time""
""focus"",""7"",""115665""
""focus"",""7"",""131201""
""focus"",""7"",""172893""
""focus"",""7"",""177110""
""focus"",""7"",""182694""
""focus"",""7"",""189277""
""focus"",""7"",""192988""
""focus"",""7"",""197311""
""focus"",""7"",""198621""
""focus"",""7"",""230009""
""focus"",""7"",""231405""
""focus"",""7"",""236088""
""focus"",""7"",""248627""
""focus"",""7"",""251817""
""focus"",""8"",""264321""
""focus"",""13"",""289458""
""focus"",""13"",""294787""
""focus"",""13"",""338877""
""focus"",""13"",""339972""
","""event"",""trial"",""time""
""fullscreenenter"",""1"",""2006""
","""event"",""trial"",""time""
""fullscreenexit"",""7"",""23409""
","","[{""page_index"":0,""viewing_time"":12256.300000011921},{""page_index"":1,""viewing_time"":50501.5},{""page_index"":2,""viewing_time"":10349.300000011921},{""page_index"":3,""viewing_time"":5367.399999976158}]","78475.30000001192","","","","","","","","","","","","","","","","","","","","","","","",""
"pit-trial","14","361403","0.0-2.0-6.0-0.0","battery-v0.2","","""event"",""trial"",""time""
""fullscreenenter"",""1"",""2006""
""fullscreenexit"",""7"",""23409""
""blur"",""7"",""28066""
""focus"",""7"",""115665""
""blur"",""7"",""130729""
""focus"",""7"",""131201""
""blur"",""7"",""169679""
""focus"",""7"",""172893""
""blur"",""7"",""174137""
""focus"",""7"",""177110""
""blur"",""7"",""177881""
""focus"",""7"",""182694""
""blur"",""7"",""184728""
""focus"",""7"",""189277""
""blur"",""7"",""191185""
""focus"",""7"",""192988""
""blur"",""7"",""196594""
""focus"",""7"",""197311""
""blur"",""7"",""198188""
""focus"",""7"",""198621""
""blur"",""7"",""199057""
""focus"",""7"",""230009""
""blur"",""7"",""230463""
""focus"",""7"",""231405""
""blur"",""7"",""235421""
""focus"",""7"",""236088""
""blur"",""7"",""242852""
""focus"",""7"",""248627""
""blur"",""7"",""251050""
""focus"",""7"",""251817""
""blur"",""8"",""263672""
""focus"",""8"",""264321""
""blur"",""13"",""279484""
""focus"",""13"",""289458""
""blur"",""13"",""293969""
""focus"",""13"",""294787""
""blur"",""13"",""295596""
""focus"",""13"",""338877""
""blur"",""13"",""339369""
""focus"",""13"",""339972""
","""event"",""trial"",""time""
""blur"",""7"",""28066""
""blur"",""7"",""130729""
""blur"",""7"",""169679""
""blur"",""7"",""174137""
""blur"",""7"",""177881""
""blur"",""7"",""184728""
""blur"",""7"",""191185""
""blur"",""7"",""196594""
""blur"",""7"",""198188""
""blur"",""7"",""199057""
""blur"",""7"",""230463""
""blur"",""7"",""235421""
""blur"",""7"",""242852""
""blur"",""7"",""251050""
""blur"",""8"",""263672""
""blur"",""13"",""279484""
""blur"",""13"",""293969""
""blur"",""13"",""295596""
""blur"",""13"",""339369""
","""event"",""trial"",""time""
""focus"",""7"",""115665""
""focus"",""7"",""131201""
""focus"",""7"",""172893""
""focus"",""7"",""177110""
""focus"",""7"",""182694""
""focus"",""7"",""189277""
""focus"",""7"",""192988""
""focus"",""7"",""197311""
""focus"",""7"",""198621""
""focus"",""7"",""230009""
""focus"",""7"",""231405""
""focus"",""7"",""236088""
""focus"",""7"",""248627""
""focus"",""7"",""251817""
""focus"",""8"",""264321""
""focus"",""13"",""289458""
""focus"",""13"",""294787""
""focus"",""13"",""338877""
""focus"",""13"",""339972""
","""event"",""trial"",""time""
""fullscreenenter"",""1"",""2006""
","""event"",""trial"",""time""
""fullscreenexit"",""7"",""23409""
","","","-1","","","25","9103","1734","&#9854;","elianto","#FFFFF080","-1","-1","1","&#10004","[]","0","0","1","","","","","","","",""
"pit-trial","15","366275","0.0-2.0-6.1-0.1","battery-v0.2","","""event"",""trial"",""time""
""fullscreenenter"",""1"",""2006""
""fullscreenexit"",""7"",""23409""
""blur"",""7"",""28066""
""focus"",""7"",""115665""
""blur"",""7"",""130729""
""focus"",""7"",""131201""
""blur"",""7"",""169679""
""focus"",""7"",""172893""
""blur"",""7"",""174137""
""focus"",""7"",""177110""
""blur"",""7"",""177881""
""focus"",""7"",""182694""
""blur"",""7"",""184728""
""focus"",""7"",""189277""
""blur"",""7"",""191185""
""focus"",""7"",""192988""
""blur"",""7"",""196594""
""focus"",""7"",""197311""
""blur"",""7"",""198188""
""focus"",""7"",""198621""
""blur"",""7"",""199057""
""focus"",""7"",""230009""
""blur"",""7"",""230463""
""focus"",""7"",""231405""
""blur"",""7"",""235421""
""focus"",""7"",""236088""
""blur"",""7"",""242852""
""focus"",""7"",""248627""
""blur"",""7"",""251050""
""focus"",""7"",""251817""
""blur"",""8"",""263672""
""focus"",""8"",""264321""
""blur"",""13"",""279484""
""focus"",""13"",""289458""
""blur"",""13"",""293969""
""focus"",""13"",""294787""
""blur"",""13"",""295596""
""focus"",""13"",""338877""
""blur"",""13"",""339369""
""focus"",""13"",""339972""
","""event"",""trial"",""time""
""blur"",""7"",""28066""
""blur"",""7"",""130729""
""blur"",""7"",""169679""
""blur"",""7"",""174137""
""blur"",""7"",""177881""
""blur"",""7"",""184728""
""blur"",""7"",""191185""
""blur"",""7"",""196594""
""blur"",""7"",""198188""
""blur"",""7"",""199057""
""blur"",""7"",""230463""
""blur"",""7"",""235421""
""blur"",""7"",""242852""
""blur"",""7"",""251050""
""blur"",""8"",""263672""
""blur"",""13"",""279484""
""blur"",""13"",""293969""
""blur"",""13"",""295596""
""blur"",""13"",""339369""
","""event"",""trial"",""time""
""focus"",""7"",""115665""
""focus"",""7"",""131201""
""focus"",""7"",""172893""
""focus"",""7"",""177110""
""focus"",""7"",""182694""
""focus"",""7"",""189277""
""focus"",""7"",""192988""
""focus"",""7"",""197311""
""focus"",""7"",""198621""
""focus"",""7"",""230009""
""focus"",""7"",""231405""
""focus"",""7"",""236088""
""focus"",""7"",""248627""
""focus"",""7"",""251817""
""focus"",""8"",""264321""
""focus"",""13"",""289458""
""focus"",""13"",""294787""
""focus"",""13"",""338877""
""focus"",""13"",""339972""
","""event"",""trial"",""time""
""fullscreenenter"",""1"",""2006""
","""event"",""trial"",""time""
""fullscreenexit"",""7"",""23409""
","","","-1","","","25","9103","1734","&#9854;","elianto","#FFFFF080","-1","-1","1","&#10004","[]","0","0","1","","","","","","","",""
"pit-trial","16","371148","0.0-2.0-6.2-0.2","battery-v0.2","","""event"",""trial"",""time""
""fullscreenenter"",""1"",""2006""
""fullscreenexit"",""7"",""23409""
""blur"",""7"",""28066""
""focus"",""7"",""115665""
""blur"",""7"",""130729""
""focus"",""7"",""131201""
""blur"",""7"",""169679""
""focus"",""7"",""172893""
""blur"",""7"",""174137""
""focus"",""7"",""177110""
""blur"",""7"",""177881""
""focus"",""7"",""182694""
""blur"",""7"",""184728""
""focus"",""7"",""189277""
""blur"",""7"",""191185""
""focus"",""7"",""192988""
""blur"",""7"",""196594""
""focus"",""7"",""197311""
""blur"",""7"",""198188""
""focus"",""7"",""198621""
""blur"",""7"",""199057""
""focus"",""7"",""230009""
""blur"",""7"",""230463""
""focus"",""7"",""231405""
""blur"",""7"",""235421""
""focus"",""7"",""236088""
""blur"",""7"",""242852""
""focus"",""7"",""248627""
""blur"",""7"",""251050""
""focus"",""7"",""251817""
""blur"",""8"",""263672""
""focus"",""8"",""264321""
""blur"",""13"",""279484""
""focus"",""13"",""289458""
""blur"",""13"",""293969""
""focus"",""13"",""294787""
""blur"",""13"",""295596""
""focus"",""13"",""338877""
""blur"",""13"",""339369""
""focus"",""13"",""339972""
","""event"",""trial"",""time""
""blur"",""7"",""28066""
""blur"",""7"",""130729""
""blur"",""7"",""169679""
""blur"",""7"",""174137""
""blur"",""7"",""177881""
""blur"",""7"",""184728""
""blur"",""7"",""191185""
""blur"",""7"",""196594""
""blur"",""7"",""198188""
""blur"",""7"",""199057""
""blur"",""7"",""230463""
""blur"",""7"",""235421""
""blur"",""7"",""242852""
""blur"",""7"",""251050""
""blur"",""8"",""263672""
""blur"",""13"",""279484""
""blur"",""13"",""293969""
""blur"",""13"",""295596""
""blur"",""13"",""339369""
","""event"",""trial"",""time""
""focus"",""7"",""115665""
""focus"",""7"",""131201""
""focus"",""7"",""172893""
""focus"",""7"",""177110""
""focus"",""7"",""182694""
""focus"",""7"",""189277""
""focus"",""7"",""192988""
""focus"",""7"",""197311""
""focus"",""7"",""198621""
""focus"",""7"",""230009""
""focus"",""7"",""231405""
""focus"",""7"",""236088""
""focus"",""7"",""248627""
""focus"",""7"",""251817""
""focus"",""8"",""264321""
""focus"",""13"",""289458""
""focus"",""13"",""294787""
""focus"",""13"",""338877""
""focus"",""13"",""339972""
","""event"",""trial"",""time""
""fullscreenenter"",""1"",""2006""
","""event"",""trial"",""time""
""fullscreenexit"",""7"",""23409""
","","","-1","","","25","9103","1734","&#9854;","elianto","#FFFFF080","-1","-1","1","&#10004","[]","0","0","1","","","","","","","",""
"pit-trial","17","376024","0.0-2.0-6.3-0.3","battery-v0.2","","""event"",""trial"",""time""
""fullscreenenter"",""1"",""2006""
""fullscreenexit"",""7"",""23409""
""blur"",""7"",""28066""
""focus"",""7"",""115665""
""blur"",""7"",""130729""
""focus"",""7"",""131201""
""blur"",""7"",""169679""
""focus"",""7"",""172893""
""blur"",""7"",""174137""
""focus"",""7"",""177110""
""blur"",""7"",""177881""
""focus"",""7"",""182694""
""blur"",""7"",""184728""
""focus"",""7"",""189277""
""blur"",""7"",""191185""
""focus"",""7"",""192988""
""blur"",""7"",""196594""
""focus"",""7"",""197311""
""blur"",""7"",""198188""
""focus"",""7"",""198621""
""blur"",""7"",""199057""
""focus"",""7"",""230009""
""blur"",""7"",""230463""
""focus"",""7"",""231405""
""blur"",""7"",""235421""
""focus"",""7"",""236088""
""blur"",""7"",""242852""
""focus"",""7"",""248627""
""blur"",""7"",""251050""
""focus"",""7"",""251817""
""blur"",""8"",""263672""
""focus"",""8"",""264321""
""blur"",""13"",""279484""
""focus"",""13"",""289458""
""blur"",""13"",""293969""
""focus"",""13"",""294787""
""blur"",""13"",""295596""
""focus"",""13"",""338877""
""blur"",""13"",""339369""
""focus"",""13"",""339972""
","""event"",""trial"",""time""
""blur"",""7"",""28066""
""blur"",""7"",""130729""
""blur"",""7"",""169679""
""blur"",""7"",""174137""
""blur"",""7"",""177881""
""blur"",""7"",""184728""
""blur"",""7"",""191185""
""blur"",""7"",""196594""
""blur"",""7"",""198188""
""blur"",""7"",""199057""
""blur"",""7"",""230463""
""blur"",""7"",""235421""
""blur"",""7"",""242852""
""blur"",""7"",""251050""
""blur"",""8"",""263672""
""blur"",""13"",""279484""
""blur"",""13"",""293969""
""blur"",""13"",""295596""
""blur"",""13"",""339369""
","""event"",""trial"",""time""
""focus"",""7"",""115665""
""focus"",""7"",""131201""
""focus"",""7"",""172893""
""focus"",""7"",""177110""
""focus"",""7"",""182694""
""focus"",""7"",""189277""
""focus"",""7"",""192988""
""focus"",""7"",""197311""
""focus"",""7"",""198621""
""focus"",""7"",""230009""
""focus"",""7"",""231405""
""focus"",""7"",""236088""
""focus"",""7"",""248627""
""focus"",""7"",""251817""
""focus"",""8"",""264321""
""focus"",""13"",""289458""
""focus"",""13"",""294787""
""focus"",""13"",""338877""
""focus"",""13"",""339972""
","""event"",""trial"",""time""
""fullscreenenter"",""1"",""2006""
","""event"",""trial"",""time""
""fullscreenexit"",""7"",""23409""
","","","-1","","","25","9103","1734","&#9854;","elianto","#FFFFF080","-1","-1","1","&#10004","[]","0","0","1","","","","","","","",""
"pit-trial","18","380908","0.0-2.0-6.4-0.4","battery-v0.2","","""event"",""trial"",""time""
""fullscreenenter"",""1"",""2006""
""fullscreenexit"",""7"",""23409""
""blur"",""7"",""28066""
""focus"",""7"",""115665""
""blur"",""7"",""130729""
""focus"",""7"",""131201""
""blur"",""7"",""169679""
""focus"",""7"",""172893""
""blur"",""7"",""174137""
""focus"",""7"",""177110""
""blur"",""7"",""177881""
""focus"",""7"",""182694""
""blur"",""7"",""184728""
""focus"",""7"",""189277""
""blur"",""7"",""191185""
""focus"",""7"",""192988""
""blur"",""7"",""196594""
""focus"",""7"",""197311""
""blur"",""7"",""198188""
""focus"",""7"",""198621""
""blur"",""7"",""199057""
""focus"",""7"",""230009""
""blur"",""7"",""230463""
""focus"",""7"",""231405""
""blur"",""7"",""235421""
""focus"",""7"",""236088""
""blur"",""7"",""242852""
""focus"",""7"",""248627""
""blur"",""7"",""251050""
""focus"",""7"",""251817""
""blur"",""8"",""263672""
""focus"",""8"",""264321""
""blur"",""13"",""279484""
""focus"",""13"",""289458""
""blur"",""13"",""293969""
""focus"",""13"",""294787""
""blur"",""13"",""295596""
""focus"",""13"",""338877""
""blur"",""13"",""339369""
""focus"",""13"",""339972""
""blur"",""19"",""401204""
""focus"",""19"",""401738""
""blur"",""19"",""403001""
""focus"",""19"",""415039""
""blur"",""19"",""416092""
""focus"",""19"",""439243""
""blur"",""19"",""440138""
""focus"",""19"",""442533""
""blur"",""19"",""446254""
""focus"",""19"",""451126""
""blur"",""19"",""451689""
""focus"",""19"",""453058""
""blur"",""19"",""492936""
""focus"",""19"",""498305""
""blur"",""19"",""554760""
""focus"",""19"",""562412""
""blur"",""19"",""563297""
""focus"",""19"",""569872""
""blur"",""19"",""570520""
""focus"",""19"",""577145""
""blur"",""19"",""582952""
""focus"",""19"",""585341""
","""event"",""trial"",""time""
""blur"",""7"",""28066""
""blur"",""7"",""130729""
""blur"",""7"",""169679""
""blur"",""7"",""174137""
""blur"",""7"",""177881""
""blur"",""7"",""184728""
""blur"",""7"",""191185""
""blur"",""7"",""196594""
""blur"",""7"",""198188""
""blur"",""7"",""199057""
""blur"",""7"",""230463""
""blur"",""7"",""235421""
""blur"",""7"",""242852""
""blur"",""7"",""251050""
""blur"",""8"",""263672""
""blur"",""13"",""279484""
""blur"",""13"",""293969""
""blur"",""13"",""295596""
""blur"",""13"",""339369""
""blur"",""19"",""401204""
""blur"",""19"",""403001""
""blur"",""19"",""416092""
""blur"",""19"",""440138""
""blur"",""19"",""446254""
""blur"",""19"",""451689""
""blur"",""19"",""492936""
""blur"",""19"",""554760""
""blur"",""19"",""563297""
""blur"",""19"",""570520""
""blur"",""19"",""582952""
","""event"",""trial"",""time""
""focus"",""7"",""115665""
""focus"",""7"",""131201""
""focus"",""7"",""172893""
""focus"",""7"",""177110""
""focus"",""7"",""182694""
""focus"",""7"",""189277""
""focus"",""7"",""192988""
""focus"",""7"",""197311""
""focus"",""7"",""198621""
""focus"",""7"",""230009""
""focus"",""7"",""231405""
""focus"",""7"",""236088""
""focus"",""7"",""248627""
""focus"",""7"",""251817""
""focus"",""8"",""264321""
""focus"",""13"",""289458""
""focus"",""13"",""294787""
""focus"",""13"",""338877""
""focus"",""13"",""339972""
""focus"",""19"",""401738""
""focus"",""19"",""415039""
""focus"",""19"",""439243""
""focus"",""19"",""442533""
""focus"",""19"",""451126""
""focus"",""19"",""453058""
""focus"",""19"",""498305""
""focus"",""19"",""562412""
""focus"",""19"",""569872""
""focus"",""19"",""577145""
""focus"",""19"",""585341""
","""event"",""trial"",""time""
""fullscreenenter"",""1"",""2006""
","""event"",""trial"",""time""
""fullscreenexit"",""7"",""23409""
","","","-1","","","25","9103","1734","&#9854;","elianto","#FFFFF080","-1","-1","1","&#10004","[]","0","0","1","","","","","","","",""
"pit-instructions","19","586235","0.0-2.0-7.0","battery-v0.2","","""event"",""trial"",""time""
""fullscreenenter"",""1"",""2006""
""fullscreenexit"",""7"",""23409""
""blur"",""7"",""28066""
""focus"",""7"",""115665""
""blur"",""7"",""130729""
""focus"",""7"",""131201""
""blur"",""7"",""169679""
""focus"",""7"",""172893""
""blur"",""7"",""174137""
""focus"",""7"",""177110""
""blur"",""7"",""177881""
""focus"",""7"",""182694""
""blur"",""7"",""184728""
""focus"",""7"",""189277""
""blur"",""7"",""191185""
""focus"",""7"",""192988""
""blur"",""7"",""196594""
""focus"",""7"",""197311""
""blur"",""7"",""198188""
""focus"",""7"",""198621""
""blur"",""7"",""199057""
""focus"",""7"",""230009""
""blur"",""7"",""230463""
""focus"",""7"",""231405""
""blur"",""7"",""235421""
""focus"",""7"",""236088""
""blur"",""7"",""242852""
""focus"",""7"",""248627""
""blur"",""7"",""251050""
""focus"",""7"",""251817""
""blur"",""8"",""263672""
""focus"",""8"",""264321""
""blur"",""13"",""279484""
""focus"",""13"",""289458""
""blur"",""13"",""293969""
""focus"",""13"",""294787""
""blur"",""13"",""295596""
""focus"",""13"",""338877""
""blur"",""13"",""339369""
""focus"",""13"",""339972""
""blur"",""19"",""401204""
""focus"",""19"",""401738""
""blur"",""19"",""403001""
""focus"",""19"",""415039""
""blur"",""19"",""416092""
""focus"",""19"",""439243""
""blur"",""19"",""440138""
""focus"",""19"",""442533""
""blur"",""19"",""446254""
""focus"",""19"",""451126""
""blur"",""19"",""451689""
""focus"",""19"",""453058""
""blur"",""19"",""492936""
""focus"",""19"",""498305""
""blur"",""19"",""554760""
""focus"",""19"",""562412""
""blur"",""19"",""563297""
""focus"",""19"",""569872""
""blur"",""19"",""570520""
""focus"",""19"",""577145""
""blur"",""19"",""582952""
""focus"",""19"",""585341""
","""event"",""trial"",""time""
""blur"",""7"",""28066""
""blur"",""7"",""130729""
""blur"",""7"",""169679""
""blur"",""7"",""174137""
""blur"",""7"",""177881""
""blur"",""7"",""184728""
""blur"",""7"",""191185""
""blur"",""7"",""196594""
""blur"",""7"",""198188""
""blur"",""7"",""199057""
""blur"",""7"",""230463""
""blur"",""7"",""235421""
""blur"",""7"",""242852""
""blur"",""7"",""251050""
""blur"",""8"",""263672""
""blur"",""13"",""279484""
""blur"",""13"",""293969""
""blur"",""13"",""295596""
""blur"",""13"",""339369""
""blur"",""19"",""401204""
""blur"",""19"",""403001""
""blur"",""19"",""416092""
""blur"",""19"",""440138""
""blur"",""19"",""446254""
""blur"",""19"",""451689""
""blur"",""19"",""492936""
""blur"",""19"",""554760""
""blur"",""19"",""563297""
""blur"",""19"",""570520""
""blur"",""19"",""582952""
","""event"",""trial"",""time""
""focus"",""7"",""115665""
""focus"",""7"",""131201""
""focus"",""7"",""172893""
""focus"",""7"",""177110""
""focus"",""7"",""182694""
""focus"",""7"",""189277""
""focus"",""7"",""192988""
""focus"",""7"",""197311""
""focus"",""7"",""198621""
""focus"",""7"",""230009""
""focus"",""7"",""231405""
""focus"",""7"",""236088""
""focus"",""7"",""248627""
""focus"",""7"",""251817""
""focus"",""8"",""264321""
""focus"",""13"",""289458""
""focus"",""13"",""294787""
""focus"",""13"",""338877""
""focus"",""13"",""339972""
""focus"",""19"",""401738""
""focus"",""19"",""415039""
""focus"",""19"",""439243""
""focus"",""19"",""442533""
""focus"",""19"",""451126""
""focus"",""19"",""453058""
""focus"",""19"",""498305""
""focus"",""19"",""562412""
""focus"",""19"",""569872""
""focus"",""19"",""577145""
""focus"",""19"",""585341""
","""event"",""trial"",""time""
""fullscreenenter"",""1"",""2006""
","""event"",""trial"",""time""
""fullscreenexit"",""7"",""23409""
","","[{""page_index"":0,""viewing_time"":7016.200000047684},{""page_index"":1,""viewing_time"":6031.5},{""page_index"":2,""viewing_time"":5500.199999988079},{""page_index"":3,""viewing_time"":44117},{""page_index"":4,""viewing_time"":9849.699999988079},{""page_index"":5,""viewing_time"":5318.699999988079},{""page_index"":6,""viewing_time"":5765.699999988079},{""page_index"":7,""viewing_time"":21753.400000035763},{""page_index"":8,""viewing_time"":12663},{""page_index"":9,""viewing_time"":16669.899999976158},{""page_index"":10,""viewing_time"":6532},{""page_index"":11,""viewing_time"":4399.600000023842},{""page_index"":12,""viewing_time"":12450.899999976158},{""page_index"":13,""viewing_time"":14669.400000035763},{""page_index"":14,""viewing_time"":9213.199999988079},{""page_index"":15,""viewing_time"":7315.5},{""page_index"":16,""viewing_time"":7633.5},{""page_index"":17,""viewing_time"":8420.5}]","205321","","","","","","","","","","","","","","","","","","","","","","","",""
"pit-trial","20","590258","0.0-2.0-8.0-0.0","battery-v0.2","","""event"",""trial"",""time""
""fullscreenenter"",""1"",""2006""
""fullscreenexit"",""7"",""23409""
""blur"",""7"",""28066""
""focus"",""7"",""115665""
""blur"",""7"",""130729""
""focus"",""7"",""131201""
""blur"",""7"",""169679""
""focus"",""7"",""172893""
""blur"",""7"",""174137""
""focus"",""7"",""177110""
""blur"",""7"",""177881""
""focus"",""7"",""182694""
""blur"",""7"",""184728""
""focus"",""7"",""189277""
""blur"",""7"",""191185""
""focus"",""7"",""192988""
""blur"",""7"",""196594""
""focus"",""7"",""197311""
""blur"",""7"",""198188""
""focus"",""7"",""198621""
""blur"",""7"",""199057""
""focus"",""7"",""230009""
""blur"",""7"",""230463""
""focus"",""7"",""231405""
""blur"",""7"",""235421""
""focus"",""7"",""236088""
""blur"",""7"",""242852""
""focus"",""7"",""248627""
""blur"",""7"",""251050""
""focus"",""7"",""251817""
""blur"",""8"",""263672""
""focus"",""8"",""264321""
""blur"",""13"",""279484""
""focus"",""13"",""289458""
""blur"",""13"",""293969""
""focus"",""13"",""294787""
""blur"",""13"",""295596""
""focus"",""13"",""338877""
""blur"",""13"",""339369""
""focus"",""13"",""339972""
""blur"",""19"",""401204""
""focus"",""19"",""401738""
""blur"",""19"",""403001""
""focus"",""19"",""415039""
""blur"",""19"",""416092""
""focus"",""19"",""439243""
""blur"",""19"",""440138""
""focus"",""19"",""442533""
""blur"",""19"",""446254""
""focus"",""19"",""451126""
""blur"",""19"",""451689""
""focus"",""19"",""453058""
""blur"",""19"",""492936""
""focus"",""19"",""498305""
""blur"",""19"",""554760""
""focus"",""19"",""562412""
""blur"",""19"",""563297""
""focus"",""19"",""569872""
""blur"",""19"",""570520""
""focus"",""19"",""577145""
""blur"",""19"",""582952""
""focus"",""19"",""585341""
","""event"",""trial"",""time""
""blur"",""7"",""28066""
""blur"",""7"",""130729""
""blur"",""7"",""169679""
""blur"",""7"",""174137""
""blur"",""7"",""177881""
""blur"",""7"",""184728""
""blur"",""7"",""191185""
""blur"",""7"",""196594""
""blur"",""7"",""198188""
""blur"",""7"",""199057""
""blur"",""7"",""230463""
""blur"",""7"",""235421""
""blur"",""7"",""242852""
""blur"",""7"",""251050""
""blur"",""8"",""263672""
""blur"",""13"",""279484""
""blur"",""13"",""293969""
""blur"",""13"",""295596""
""blur"",""13"",""339369""
""blur"",""19"",""401204""
""blur"",""19"",""403001""
""blur"",""19"",""416092""
""blur"",""19"",""440138""
""blur"",""19"",""446254""
""blur"",""19"",""451689""
""blur"",""19"",""492936""
""blur"",""19"",""554760""
""blur"",""19"",""563297""
""blur"",""19"",""570520""
""blur"",""19"",""582952""
","""event"",""trial"",""time""
""focus"",""7"",""115665""
""focus"",""7"",""131201""
""focus"",""7"",""172893""
""focus"",""7"",""177110""
""focus"",""7"",""182694""
""focus"",""7"",""189277""
""focus"",""7"",""192988""
""focus"",""7"",""197311""
""focus"",""7"",""198621""
""focus"",""7"",""230009""
""focus"",""7"",""231405""
""focus"",""7"",""236088""
""focus"",""7"",""248627""
""focus"",""7"",""251817""
""focus"",""8"",""264321""
""focus"",""13"",""289458""
""focus"",""13"",""294787""
""focus"",""13"",""338877""
""focus"",""13"",""339972""
""focus"",""19"",""401738""
""focus"",""19"",""415039""
""focus"",""19"",""439243""
""focus"",""19"",""442533""
""focus"",""19"",""451126""
""focus"",""19"",""453058""
""focus"",""19"",""498305""
""focus"",""19"",""562412""
""focus"",""19"",""569872""
""focus"",""19"",""577145""
""focus"",""19"",""585341""
","""event"",""trial"",""time""
""fullscreenenter"",""1"",""2006""
","""event"",""trial"",""time""
""fullscreenexit"",""7"",""23409""
","","","1155.300000011921","","","25","9103","1734","&#9776;","elianto","#3366ff99"," "," ","1","+10","[2009]","1","0","1","","","","","","","",""
"pit-trial","21","593793","0.0-2.0-8.0-1.0","battery-v0.2","","""event"",""trial"",""time""
""fullscreenenter"",""1"",""2006""
""fullscreenexit"",""7"",""23409""
""blur"",""7"",""28066""
""focus"",""7"",""115665""
""blur"",""7"",""130729""
""focus"",""7"",""131201""
""blur"",""7"",""169679""
""focus"",""7"",""172893""
""blur"",""7"",""174137""
""focus"",""7"",""177110""
""blur"",""7"",""177881""
""focus"",""7"",""182694""
""blur"",""7"",""184728""
""focus"",""7"",""189277""
""blur"",""7"",""191185""
""focus"",""7"",""192988""
""blur"",""7"",""196594""
""focus"",""7"",""197311""
""blur"",""7"",""198188""
""focus"",""7"",""198621""
""blur"",""7"",""199057""
""focus"",""7"",""230009""
""blur"",""7"",""230463""
""focus"",""7"",""231405""
""blur"",""7"",""235421""
""focus"",""7"",""236088""
""blur"",""7"",""242852""
""focus"",""7"",""248627""
""blur"",""7"",""251050""
""focus"",""7"",""251817""
""blur"",""8"",""263672""
""focus"",""8"",""264321""
""blur"",""13"",""279484""
""focus"",""13"",""289458""
""blur"",""13"",""293969""
""focus"",""13"",""294787""
""blur"",""13"",""295596""
""focus"",""13"",""338877""
""blur"",""13"",""339369""
""focus"",""13"",""339972""
""blur"",""19"",""401204""
""focus"",""19"",""401738""
""blur"",""19"",""403001""
""focus"",""19"",""415039""
""blur"",""19"",""416092""
""focus"",""19"",""439243""
""blur"",""19"",""440138""
""focus"",""19"",""442533""
""blur"",""19"",""446254""
""focus"",""19"",""451126""
""blur"",""19"",""451689""
""focus"",""19"",""453058""
""blur"",""19"",""492936""
""focus"",""19"",""498305""
""blur"",""19"",""554760""
""focus"",""19"",""562412""
""blur"",""19"",""563297""
""focus"",""19"",""569872""
""blur"",""19"",""570520""
""focus"",""19"",""577145""
""blur"",""19"",""582952""
""focus"",""19"",""585341""
","""event"",""trial"",""time""
""blur"",""7"",""28066""
""blur"",""7"",""130729""
""blur"",""7"",""169679""
""blur"",""7"",""174137""
""blur"",""7"",""177881""
""blur"",""7"",""184728""
""blur"",""7"",""191185""
""blur"",""7"",""196594""
""blur"",""7"",""198188""
""blur"",""7"",""199057""
""blur"",""7"",""230463""
""blur"",""7"",""235421""
""blur"",""7"",""242852""
""blur"",""7"",""251050""
""blur"",""8"",""263672""
""blur"",""13"",""279484""
""blur"",""13"",""293969""
""blur"",""13"",""295596""
""blur"",""13"",""339369""
""blur"",""19"",""401204""
""blur"",""19"",""403001""
""blur"",""19"",""416092""
""blur"",""19"",""440138""
""blur"",""19"",""446254""
""blur"",""19"",""451689""
""blur"",""19"",""492936""
""blur"",""19"",""554760""
""blur"",""19"",""563297""
""blur"",""19"",""570520""
""blur"",""19"",""582952""
","""event"",""trial"",""time""
""focus"",""7"",""115665""
""focus"",""7"",""131201""
""focus"",""7"",""172893""
""focus"",""7"",""177110""
""focus"",""7"",""182694""
""focus"",""7"",""189277""
""focus"",""7"",""192988""
""focus"",""7"",""197311""
""focus"",""7"",""198621""
""focus"",""7"",""230009""
""focus"",""7"",""231405""
""focus"",""7"",""236088""
""focus"",""7"",""248627""
""focus"",""7"",""251817""
""focus"",""8"",""264321""
""focus"",""13"",""289458""
""focus"",""13"",""294787""
""focus"",""13"",""338877""
""focus"",""13"",""339972""
""focus"",""19"",""401738""
""focus"",""19"",""415039""
""focus"",""19"",""439243""
""focus"",""19"",""442533""
""focus"",""19"",""451126""
""focus"",""19"",""453058""
""focus"",""19"",""498305""
""focus"",""19"",""562412""
""focus"",""19"",""569872""
""focus"",""19"",""577145""
""focus"",""19"",""585341""
","""event"",""trial"",""time""
""fullscreenenter"",""1"",""2006""
","""event"",""trial"",""time""
""fullscreenexit"",""7"",""23409""
","","","678.6999999880791","","","25","9103","1734","&#9776;","elianto","#3366ff99"," "," ","1","+10","[1529.2999999523163]","1","0","1","","","","","","","",""
"pit-trial","22","597174","0.0-2.0-8.0-2.0","battery-v0.2","","""event"",""trial"",""time""
""fullscreenenter"",""1"",""2006""
""fullscreenexit"",""7"",""23409""
""blur"",""7"",""28066""
""focus"",""7"",""115665""
""blur"",""7"",""130729""
""focus"",""7"",""131201""
""blur"",""7"",""169679""
""focus"",""7"",""172893""
""blur"",""7"",""174137""
""focus"",""7"",""177110""
""blur"",""7"",""177881""
""focus"",""7"",""182694""
""blur"",""7"",""184728""
""focus"",""7"",""189277""
""blur"",""7"",""191185""
""focus"",""7"",""192988""
""blur"",""7"",""196594""
""focus"",""7"",""197311""
""blur"",""7"",""198188""
""focus"",""7"",""198621""
""blur"",""7"",""199057""
""focus"",""7"",""230009""
""blur"",""7"",""230463""
""focus"",""7"",""231405""
""blur"",""7"",""235421""
""focus"",""7"",""236088""
""blur"",""7"",""242852""
""focus"",""7"",""248627""
""blur"",""7"",""251050""
""focus"",""7"",""251817""
""blur"",""8"",""263672""
""focus"",""8"",""264321""
""blur"",""13"",""279484""
""focus"",""13"",""289458""
""blur"",""13"",""293969""
""focus"",""13"",""294787""
""blur"",""13"",""295596""
""focus"",""13"",""338877""
""blur"",""13"",""339369""
""focus"",""13"",""339972""
""blur"",""19"",""401204""
""focus"",""19"",""401738""
""blur"",""19"",""403001""
""focus"",""19"",""415039""
""blur"",""19"",""416092""
""focus"",""19"",""439243""
""blur"",""19"",""440138""
""focus"",""19"",""442533""
""blur"",""19"",""446254""
""focus"",""19"",""451126""
""blur"",""19"",""451689""
""focus"",""19"",""453058""
""blur"",""19"",""492936""
""focus"",""19"",""498305""
""blur"",""19"",""554760""
""focus"",""19"",""562412""
""blur"",""19"",""563297""
""focus"",""19"",""569872""
""blur"",""19"",""570520""
""focus"",""19"",""577145""
""blur"",""19"",""582952""
""focus"",""19"",""585341""
","""event"",""trial"",""time""
""blur"",""7"",""28066""
""blur"",""7"",""130729""
""blur"",""7"",""169679""
""blur"",""7"",""174137""
""blur"",""7"",""177881""
""blur"",""7"",""184728""
""blur"",""7"",""191185""
""blur"",""7"",""196594""
""blur"",""7"",""198188""
""blur"",""7"",""199057""
""blur"",""7"",""230463""
""blur"",""7"",""235421""
""blur"",""7"",""242852""
""blur"",""7"",""251050""
""blur"",""8"",""263672""
""blur"",""13"",""279484""
""blur"",""13"",""293969""
""blur"",""13"",""295596""
""blur"",""13"",""339369""
""blur"",""19"",""401204""
""blur"",""19"",""403001""
""blur"",""19"",""416092""
""blur"",""19"",""440138""
""blur"",""19"",""446254""
""blur"",""19"",""451689""
""blur"",""19"",""492936""
""blur"",""19"",""554760""
""blur"",""19"",""563297""
""blur"",""19"",""570520""
""blur"",""19"",""582952""
","""event"",""trial"",""time""
""focus"",""7"",""115665""
""focus"",""7"",""131201""
""focus"",""7"",""172893""
""focus"",""7"",""177110""
""focus"",""7"",""182694""
""focus"",""7"",""189277""
""focus"",""7"",""192988""
""focus"",""7"",""197311""
""focus"",""7"",""198621""
""focus"",""7"",""230009""
""focus"",""7"",""231405""
""focus"",""7"",""236088""
""focus"",""7"",""248627""
""focus"",""7"",""251817""
""focus"",""8"",""264321""
""focus"",""13"",""289458""
""focus"",""13"",""294787""
""focus"",""13"",""338877""
""focus"",""13"",""339972""
""focus"",""19"",""401738""
""focus"",""19"",""415039""
""focus"",""19"",""439243""
""focus"",""19"",""442533""
""focus"",""19"",""451126""
""focus"",""19"",""453058""
""focus"",""19"",""498305""
""focus"",""19"",""562412""
""focus"",""19"",""569872""
""focus"",""19"",""577145""
""focus"",""19"",""585341""
","""event"",""trial"",""time""
""fullscreenenter"",""1"",""2006""
","""event"",""trial"",""time""
""fullscreenexit"",""7"",""23409""
","","","515.5999999642372","","","25","9103","1734","&#9776;","elianto","#3366ff99"," "," ","1","+10","[1372.3999999761581]","1","0","1","","","","","","","",""
"pit-trial","23","600568","0.0-2.0-8.0-3.0","battery-v0.2","","""event"",""trial"",""time""
""fullscreenenter"",""1"",""2006""
""fullscreenexit"",""7"",""23409""
""blur"",""7"",""28066""
""focus"",""7"",""115665""
""blur"",""7"",""130729""
""focus"",""7"",""131201""
""blur"",""7"",""169679""
""focus"",""7"",""172893""
""blur"",""7"",""174137""
""focus"",""7"",""177110""
""blur"",""7"",""177881""
""focus"",""7"",""182694""
""blur"",""7"",""184728""
""focus"",""7"",""189277""
""blur"",""7"",""191185""
""focus"",""7"",""192988""
""blur"",""7"",""196594""
""focus"",""7"",""197311""
""blur"",""7"",""198188""
""focus"",""7"",""198621""
""blur"",""7"",""199057""
""focus"",""7"",""230009""
""blur"",""7"",""230463""
""focus"",""7"",""231405""
""blur"",""7"",""235421""
""focus"",""7"",""236088""
""blur"",""7"",""242852""
""focus"",""7"",""248627""
""blur"",""7"",""251050""
""focus"",""7"",""251817""
""blur"",""8"",""263672""
""focus"",""8"",""264321""
""blur"",""13"",""279484""
""focus"",""13"",""289458""
""blur"",""13"",""293969""
""focus"",""13"",""294787""
""blur"",""13"",""295596""
""focus"",""13"",""338877""
""blur"",""13"",""339369""
""focus"",""13"",""339972""
""blur"",""19"",""401204""
""focus"",""19"",""401738""
""blur"",""19"",""403001""
""focus"",""19"",""415039""
""blur"",""19"",""416092""
""focus"",""19"",""439243""
""blur"",""19"",""440138""
""focus"",""19"",""442533""
""blur"",""19"",""446254""
""focus"",""19"",""451126""
""blur"",""19"",""451689""
""focus"",""19"",""453058""
""blur"",""19"",""492936""
""focus"",""19"",""498305""
""blur"",""19"",""554760""
""focus"",""19"",""562412""
""blur"",""19"",""563297""
""focus"",""19"",""569872""
""blur"",""19"",""570520""
""focus"",""19"",""577145""
""blur"",""19"",""582952""
""focus"",""19"",""585341""
","""event"",""trial"",""time""
""blur"",""7"",""28066""
""blur"",""7"",""130729""
""blur"",""7"",""169679""
""blur"",""7"",""174137""
""blur"",""7"",""177881""
""blur"",""7"",""184728""
""blur"",""7"",""191185""
""blur"",""7"",""196594""
""blur"",""7"",""198188""
""blur"",""7"",""199057""
""blur"",""7"",""230463""
""blur"",""7"",""235421""
""blur"",""7"",""242852""
""blur"",""7"",""251050""
""blur"",""8"",""263672""
""blur"",""13"",""279484""
""blur"",""13"",""293969""
""blur"",""13"",""295596""
""blur"",""13"",""339369""
""blur"",""19"",""401204""
""blur"",""19"",""403001""
""blur"",""19"",""416092""
""blur"",""19"",""440138""
""blur"",""19"",""446254""
""blur"",""19"",""451689""
""blur"",""19"",""492936""
""blur"",""19"",""554760""
""blur"",""19"",""563297""
""blur"",""19"",""570520""
""blur"",""19"",""582952""
","""event"",""trial"",""time""
""focus"",""7"",""115665""
""focus"",""7"",""131201""
""focus"",""7"",""172893""
""focus"",""7"",""177110""
""focus"",""7"",""182694""
""focus"",""7"",""189277""
""focus"",""7"",""192988""
""focus"",""7"",""197311""
""focus"",""7"",""198621""
""focus"",""7"",""230009""
""focus"",""7"",""231405""
""focus"",""7"",""236088""
""focus"",""7"",""248627""
""focus"",""7"",""251817""
""focus"",""8"",""264321""
""focus"",""13"",""289458""
""focus"",""13"",""294787""
""focus"",""13"",""338877""
""focus"",""13"",""339972""
""focus"",""19"",""401738""
""focus"",""19"",""415039""
""focus"",""19"",""439243""
""focus"",""19"",""442533""
""focus"",""19"",""451126""
""focus"",""19"",""453058""
""focus"",""19"",""498305""
""focus"",""19"",""562412""
""focus"",""19"",""569872""
""focus"",""19"",""577145""
""focus"",""19"",""585341""
","""event"",""trial"",""time""
""fullscreenenter"",""1"",""2006""
","""event"",""trial"",""time""
""fullscreenexit"",""7"",""23409""
","","","521.0999999642372","","","25","9103","1734","&#9776;","elianto","#3366ff99"," "," ","1","0","[1375.1000000238419]","1","0","1","","","","","","","",""
"pit-trial","24","605438","0.0-2.0-8.0-4.0","battery-v0.2","","""event"",""trial"",""time""
""fullscreenenter"",""1"",""2006""
""fullscreenexit"",""7"",""23409""
""blur"",""7"",""28066""
""focus"",""7"",""115665""
""blur"",""7"",""130729""
""focus"",""7"",""131201""
""blur"",""7"",""169679""
""focus"",""7"",""172893""
""blur"",""7"",""174137""
""focus"",""7"",""177110""
""blur"",""7"",""177881""
""focus"",""7"",""182694""
""blur"",""7"",""184728""
""focus"",""7"",""189277""
""blur"",""7"",""191185""
""focus"",""7"",""192988""
""blur"",""7"",""196594""
""focus"",""7"",""197311""
""blur"",""7"",""198188""
""focus"",""7"",""198621""
""blur"",""7"",""199057""
""focus"",""7"",""230009""
""blur"",""7"",""230463""
""focus"",""7"",""231405""
""blur"",""7"",""235421""
""focus"",""7"",""236088""
""blur"",""7"",""242852""
""focus"",""7"",""248627""
""blur"",""7"",""251050""
""focus"",""7"",""251817""
""blur"",""8"",""263672""
""focus"",""8"",""264321""
""blur"",""13"",""279484""
""focus"",""13"",""289458""
""blur"",""13"",""293969""
""focus"",""13"",""294787""
""blur"",""13"",""295596""
""focus"",""13"",""338877""
""blur"",""13"",""339369""
""focus"",""13"",""339972""
""blur"",""19"",""401204""
""focus"",""19"",""401738""
""blur"",""19"",""403001""
""focus"",""19"",""415039""
""blur"",""19"",""416092""
""focus"",""19"",""439243""
""blur"",""19"",""440138""
""focus"",""19"",""442533""
""blur"",""19"",""446254""
""focus"",""19"",""451126""
""blur"",""19"",""451689""
""focus"",""19"",""453058""
""blur"",""19"",""492936""
""focus"",""19"",""498305""
""blur"",""19"",""554760""
""focus"",""19"",""562412""
""blur"",""19"",""563297""
""focus"",""19"",""569872""
""blur"",""19"",""570520""
""focus"",""19"",""577145""
""blur"",""19"",""582952""
""focus"",""19"",""585341""
","""event"",""trial"",""time""
""blur"",""7"",""28066""
""blur"",""7"",""130729""
""blur"",""7"",""169679""
""blur"",""7"",""174137""
""blur"",""7"",""177881""
""blur"",""7"",""184728""
""blur"",""7"",""191185""
""blur"",""7"",""196594""
""blur"",""7"",""198188""
""blur"",""7"",""199057""
""blur"",""7"",""230463""
""blur"",""7"",""235421""
""blur"",""7"",""242852""
""blur"",""7"",""251050""
""blur"",""8"",""263672""
""blur"",""13"",""279484""
""blur"",""13"",""293969""
""blur"",""13"",""295596""
""blur"",""13"",""339369""
""blur"",""19"",""401204""
""blur"",""19"",""403001""
""blur"",""19"",""416092""
""blur"",""19"",""440138""
""blur"",""19"",""446254""
""blur"",""19"",""451689""
""blur"",""19"",""492936""
""blur"",""19"",""554760""
""blur"",""19"",""563297""
""blur"",""19"",""570520""
""blur"",""19"",""582952""
","""event"",""trial"",""time""
""focus"",""7"",""115665""
""focus"",""7"",""131201""
""focus"",""7"",""172893""
""focus"",""7"",""177110""
""focus"",""7"",""182694""
""focus"",""7"",""189277""
""focus"",""7"",""192988""
""focus"",""7"",""197311""
""focus"",""7"",""198621""
""focus"",""7"",""230009""
""focus"",""7"",""231405""
""focus"",""7"",""236088""
""focus"",""7"",""248627""
""focus"",""7"",""251817""
""focus"",""8"",""264321""
""focus"",""13"",""289458""
""focus"",""13"",""294787""
""focus"",""13"",""338877""
""focus"",""13"",""339972""
""focus"",""19"",""401738""
""focus"",""19"",""415039""
""focus"",""19"",""439243""
""focus"",""19"",""442533""
""focus"",""19"",""451126""
""focus"",""19"",""453058""
""focus"",""19"",""498305""
""focus"",""19"",""562412""
""focus"",""19"",""569872""
""focus"",""19"",""577145""
""focus"",""19"",""585341""
","""event"",""trial"",""time""
""fullscreenenter"",""1"",""2006""
","""event"",""trial"",""time""
""fullscreenexit"",""7"",""23409""
","","","-1","","","25","9103","1734","&#9776;","elianto","#3366ff99"," ","-1","0","0","[]","0","0","1","","","","","","","",""
"pit-trial","25","609442","0.0-2.0-8.1-0.1","battery-v0.2","","""event"",""trial"",""time""
""fullscreenenter"",""1"",""2006""
""fullscreenexit"",""7"",""23409""
""blur"",""7"",""28066""
""focus"",""7"",""115665""
""blur"",""7"",""130729""
""focus"",""7"",""131201""
""blur"",""7"",""169679""
""focus"",""7"",""172893""
""blur"",""7"",""174137""
""focus"",""7"",""177110""
""blur"",""7"",""177881""
""focus"",""7"",""182694""
""blur"",""7"",""184728""
""focus"",""7"",""189277""
""blur"",""7"",""191185""
""focus"",""7"",""192988""
""blur"",""7"",""196594""
""focus"",""7"",""197311""
""blur"",""7"",""198188""
""focus"",""7"",""198621""
""blur"",""7"",""199057""
""focus"",""7"",""230009""
""blur"",""7"",""230463""
""focus"",""7"",""231405""
""blur"",""7"",""235421""
""focus"",""7"",""236088""
""blur"",""7"",""242852""
""focus"",""7"",""248627""
""blur"",""7"",""251050""
""focus"",""7"",""251817""
""blur"",""8"",""263672""
""focus"",""8"",""264321""
""blur"",""13"",""279484""
""focus"",""13"",""289458""
""blur"",""13"",""293969""
""focus"",""13"",""294787""
""blur"",""13"",""295596""
""focus"",""13"",""338877""
""blur"",""13"",""339369""
""focus"",""13"",""339972""
""blur"",""19"",""401204""
""focus"",""19"",""401738""
""blur"",""19"",""403001""
""focus"",""19"",""415039""
""blur"",""19"",""416092""
""focus"",""19"",""439243""
""blur"",""19"",""440138""
""focus"",""19"",""442533""
""blur"",""19"",""446254""
""focus"",""19"",""451126""
""blur"",""19"",""451689""
""focus"",""19"",""453058""
""blur"",""19"",""492936""
""focus"",""19"",""498305""
""blur"",""19"",""554760""
""focus"",""19"",""562412""
""blur"",""19"",""563297""
""focus"",""19"",""569872""
""blur"",""19"",""570520""
""focus"",""19"",""577145""
""blur"",""19"",""582952""
""focus"",""19"",""585341""
","""event"",""trial"",""time""
""blur"",""7"",""28066""
""blur"",""7"",""130729""
""blur"",""7"",""169679""
""blur"",""7"",""174137""
""blur"",""7"",""177881""
""blur"",""7"",""184728""
""blur"",""7"",""191185""
""blur"",""7"",""196594""
""blur"",""7"",""198188""
""blur"",""7"",""199057""
""blur"",""7"",""230463""
""blur"",""7"",""235421""
""blur"",""7"",""242852""
""blur"",""7"",""251050""
""blur"",""8"",""263672""
""blur"",""13"",""279484""
""blur"",""13"",""293969""
""blur"",""13"",""295596""
""blur"",""13"",""339369""
""blur"",""19"",""401204""
""blur"",""19"",""403001""
""blur"",""19"",""416092""
""blur"",""19"",""440138""
""blur"",""19"",""446254""
""blur"",""19"",""451689""
""blur"",""19"",""492936""
""blur"",""19"",""554760""
""blur"",""19"",""563297""
""blur"",""19"",""570520""
""blur"",""19"",""582952""
","""event"",""trial"",""time""
""focus"",""7"",""115665""
""focus"",""7"",""131201""
""focus"",""7"",""172893""
""focus"",""7"",""177110""
""focus"",""7"",""182694""
""focus"",""7"",""189277""
""focus"",""7"",""192988""
""focus"",""7"",""197311""
""focus"",""7"",""198621""
""focus"",""7"",""230009""
""focus"",""7"",""231405""
""focus"",""7"",""236088""
""focus"",""7"",""248627""
""focus"",""7"",""251817""
""focus"",""8"",""264321""
""focus"",""13"",""289458""
""focus"",""13"",""294787""
""focus"",""13"",""338877""
""focus"",""13"",""339972""
""focus"",""19"",""401738""
""focus"",""19"",""415039""
""focus"",""19"",""439243""
""focus"",""19"",""442533""
""focus"",""19"",""451126""
""focus"",""19"",""453058""
""focus"",""19"",""498305""
""focus"",""19"",""562412""
""focus"",""19"",""569872""
""focus"",""19"",""577145""
""focus"",""19"",""585341""
","""event"",""trial"",""time""
""fullscreenenter"",""1"",""2006""
","""event"",""trial"",""time""
""fullscreenexit"",""7"",""23409""
","","","1138","","","25","9103","1734","&#9776;","elianto","#3366ff99"," "," ","1","+10","[1989.6000000238419]","1","0","1","","","","","","","",""
"pit-trial","26","612952","0.0-2.0-8.1-1.1","battery-v0.2","","""event"",""trial"",""time""
""fullscreenenter"",""1"",""2006""
""fullscreenexit"",""7"",""23409""
""blur"",""7"",""28066""
""focus"",""7"",""115665""
""blur"",""7"",""130729""
""focus"",""7"",""131201""
""blur"",""7"",""169679""
""focus"",""7"",""172893""
""blur"",""7"",""174137""
""focus"",""7"",""177110""
""blur"",""7"",""177881""
""focus"",""7"",""182694""
""blur"",""7"",""184728""
""focus"",""7"",""189277""
""blur"",""7"",""191185""
""focus"",""7"",""192988""
""blur"",""7"",""196594""
""focus"",""7"",""197311""
""blur"",""7"",""198188""
""focus"",""7"",""198621""
""blur"",""7"",""199057""
""focus"",""7"",""230009""
""blur"",""7"",""230463""
""focus"",""7"",""231405""
""blur"",""7"",""235421""
""focus"",""7"",""236088""
""blur"",""7"",""242852""
""focus"",""7"",""248627""
""blur"",""7"",""251050""
""focus"",""7"",""251817""
""blur"",""8"",""263672""
""focus"",""8"",""264321""
""blur"",""13"",""279484""
""focus"",""13"",""289458""
""blur"",""13"",""293969""
""focus"",""13"",""294787""
""blur"",""13"",""295596""
""focus"",""13"",""338877""
""blur"",""13"",""339369""
""focus"",""13"",""339972""
""blur"",""19"",""401204""
""focus"",""19"",""401738""
""blur"",""19"",""403001""
""focus"",""19"",""415039""
""blur"",""19"",""416092""
""focus"",""19"",""439243""
""blur"",""19"",""440138""
""focus"",""19"",""442533""
""blur"",""19"",""446254""
""focus"",""19"",""451126""
""blur"",""19"",""451689""
""focus"",""19"",""453058""
""blur"",""19"",""492936""
""focus"",""19"",""498305""
""blur"",""19"",""554760""
""focus"",""19"",""562412""
""blur"",""19"",""563297""
""focus"",""19"",""569872""
""blur"",""19"",""570520""
""focus"",""19"",""577145""
""blur"",""19"",""582952""
""focus"",""19"",""585341""
","""event"",""trial"",""time""
""blur"",""7"",""28066""
""blur"",""7"",""130729""
""blur"",""7"",""169679""
""blur"",""7"",""174137""
""blur"",""7"",""177881""
""blur"",""7"",""184728""
""blur"",""7"",""191185""
""blur"",""7"",""196594""
""blur"",""7"",""198188""
""blur"",""7"",""199057""
""blur"",""7"",""230463""
""blur"",""7"",""235421""
""blur"",""7"",""242852""
""blur"",""7"",""251050""
""blur"",""8"",""263672""
""blur"",""13"",""279484""
""blur"",""13"",""293969""
""blur"",""13"",""295596""
""blur"",""13"",""339369""
""blur"",""19"",""401204""
""blur"",""19"",""403001""
""blur"",""19"",""416092""
""blur"",""19"",""440138""
""blur"",""19"",""446254""
""blur"",""19"",""451689""
""blur"",""19"",""492936""
""blur"",""19"",""554760""
""blur"",""19"",""563297""
""blur"",""19"",""570520""
""blur"",""19"",""582952""
","""event"",""trial"",""time""
""focus"",""7"",""115665""
""focus"",""7"",""131201""
""focus"",""7"",""172893""
""focus"",""7"",""177110""
""focus"",""7"",""182694""
""focus"",""7"",""189277""
""focus"",""7"",""192988""
""focus"",""7"",""197311""
""focus"",""7"",""198621""
""focus"",""7"",""230009""
""focus"",""7"",""231405""
""focus"",""7"",""236088""
""focus"",""7"",""248627""
""focus"",""7"",""251817""
""focus"",""8"",""264321""
""focus"",""13"",""289458""
""focus"",""13"",""294787""
""focus"",""13"",""338877""
""focus"",""13"",""339972""
""focus"",""19"",""401738""
""focus"",""19"",""415039""
""focus"",""19"",""439243""
""focus"",""19"",""442533""
""focus"",""19"",""451126""
""focus"",""19"",""453058""
""focus"",""19"",""498305""
""focus"",""19"",""562412""
""focus"",""19"",""569872""
""focus"",""19"",""577145""
""focus"",""19"",""585341""
","""event"",""trial"",""time""
""fullscreenenter"",""1"",""2006""
","""event"",""trial"",""time""
""fullscreenexit"",""7"",""23409""
","","","641.3000000119209","","","25","9103","1734","&#9776;","elianto","#3366ff99"," "," ","1","+10","[1496.9000000357628]","1","0","1","","","","","","","",""
"pit-trial","27","616377","0.0-2.0-8.1-2.1","battery-v0.2","","""event"",""trial"",""time""
""fullscreenenter"",""1"",""2006""
""fullscreenexit"",""7"",""23409""
""blur"",""7"",""28066""
""focus"",""7"",""115665""
""blur"",""7"",""130729""
""focus"",""7"",""131201""
""blur"",""7"",""169679""
""focus"",""7"",""172893""
""blur"",""7"",""174137""
""focus"",""7"",""177110""
""blur"",""7"",""177881""
""focus"",""7"",""182694""
""blur"",""7"",""184728""
""focus"",""7"",""189277""
""blur"",""7"",""191185""
""focus"",""7"",""192988""
""blur"",""7"",""196594""
""focus"",""7"",""197311""
""blur"",""7"",""198188""
""focus"",""7"",""198621""
""blur"",""7"",""199057""
""focus"",""7"",""230009""
""blur"",""7"",""230463""
""focus"",""7"",""231405""
""blur"",""7"",""235421""
""focus"",""7"",""236088""
""blur"",""7"",""242852""
""focus"",""7"",""248627""
""blur"",""7"",""251050""
""focus"",""7"",""251817""
""blur"",""8"",""263672""
""focus"",""8"",""264321""
""blur"",""13"",""279484""
""focus"",""13"",""289458""
""blur"",""13"",""293969""
""focus"",""13"",""294787""
""blur"",""13"",""295596""
""focus"",""13"",""338877""
""blur"",""13"",""339369""
""focus"",""13"",""339972""
""blur"",""19"",""401204""
""focus"",""19"",""401738""
""blur"",""19"",""403001""
""focus"",""19"",""415039""
""blur"",""19"",""416092""
""focus"",""19"",""439243""
""blur"",""19"",""440138""
""focus"",""19"",""442533""
""blur"",""19"",""446254""
""focus"",""19"",""451126""
""blur"",""19"",""451689""
""focus"",""19"",""453058""
""blur"",""19"",""492936""
""focus"",""19"",""498305""
""blur"",""19"",""554760""
""focus"",""19"",""562412""
""blur"",""19"",""563297""
""focus"",""19"",""569872""
""blur"",""19"",""570520""
""focus"",""19"",""577145""
""blur"",""19"",""582952""
""focus"",""19"",""585341""
","""event"",""trial"",""time""
""blur"",""7"",""28066""
""blur"",""7"",""130729""
""blur"",""7"",""169679""
""blur"",""7"",""174137""
""blur"",""7"",""177881""
""blur"",""7"",""184728""
""blur"",""7"",""191185""
""blur"",""7"",""196594""
""blur"",""7"",""198188""
""blur"",""7"",""199057""
""blur"",""7"",""230463""
""blur"",""7"",""235421""
""blur"",""7"",""242852""
""blur"",""7"",""251050""
""blur"",""8"",""263672""
""blur"",""13"",""279484""
""blur"",""13"",""293969""
""blur"",""13"",""295596""
""blur"",""13"",""339369""
""blur"",""19"",""401204""
""blur"",""19"",""403001""
""blur"",""19"",""416092""
""blur"",""19"",""440138""
""blur"",""19"",""446254""
""blur"",""19"",""451689""
""blur"",""19"",""492936""
""blur"",""19"",""554760""
""blur"",""19"",""563297""
""blur"",""19"",""570520""
""blur"",""19"",""582952""
","""event"",""trial"",""time""
""focus"",""7"",""115665""
""focus"",""7"",""131201""
""focus"",""7"",""172893""
""focus"",""7"",""177110""
""focus"",""7"",""182694""
""focus"",""7"",""189277""
""focus"",""7"",""192988""
""focus"",""7"",""197311""
""focus"",""7"",""198621""
""focus"",""7"",""230009""
""focus"",""7"",""231405""
""focus"",""7"",""236088""
""focus"",""7"",""248627""
""focus"",""7"",""251817""
""focus"",""8"",""264321""
""focus"",""13"",""289458""
""focus"",""13"",""294787""
""focus"",""13"",""338877""
""focus"",""13"",""339972""
""focus"",""19"",""401738""
""focus"",""19"",""415039""
""focus"",""19"",""439243""
""focus"",""19"",""442533""
""focus"",""19"",""451126""
""focus"",""19"",""453058""
""focus"",""19"",""498305""
""focus"",""19"",""562412""
""focus"",""19"",""569872""
""focus"",""19"",""577145""
""focus"",""19"",""585341""
","""event"",""trial"",""time""
""fullscreenenter"",""1"",""2006""
","""event"",""trial"",""time""
""fullscreenexit"",""7"",""23409""
","","","562.1000000238419","","","25","9103","1734","&#9776;","elianto","#3366ff99"," "," ","1","+10","[1416.0999999642372]","1","0","1","","","","","","","",""
"pit-trial","28","620006","0.0-2.0-8.1-3.1","battery-v0.2","","""event"",""trial"",""time""
""fullscreenenter"",""1"",""2006""
""fullscreenexit"",""7"",""23409""
""blur"",""7"",""28066""
""focus"",""7"",""115665""
""blur"",""7"",""130729""
""focus"",""7"",""131201""
""blur"",""7"",""169679""
""focus"",""7"",""172893""
""blur"",""7"",""174137""
""focus"",""7"",""177110""
""blur"",""7"",""177881""
""focus"",""7"",""182694""
""blur"",""7"",""184728""
""focus"",""7"",""189277""
""blur"",""7"",""191185""
""focus"",""7"",""192988""
""blur"",""7"",""196594""
""focus"",""7"",""197311""
""blur"",""7"",""198188""
""focus"",""7"",""198621""
""blur"",""7"",""199057""
""focus"",""7"",""230009""
""blur"",""7"",""230463""
""focus"",""7"",""231405""
""blur"",""7"",""235421""
""focus"",""7"",""236088""
""blur"",""7"",""242852""
""focus"",""7"",""248627""
""blur"",""7"",""251050""
""focus"",""7"",""251817""
""blur"",""8"",""263672""
""focus"",""8"",""264321""
""blur"",""13"",""279484""
""focus"",""13"",""289458""
""blur"",""13"",""293969""
""focus"",""13"",""294787""
""blur"",""13"",""295596""
""focus"",""13"",""338877""
""blur"",""13"",""339369""
""focus"",""13"",""339972""
""blur"",""19"",""401204""
""focus"",""19"",""401738""
""blur"",""19"",""403001""
""focus"",""19"",""415039""
""blur"",""19"",""416092""
""focus"",""19"",""439243""
""blur"",""19"",""440138""
""focus"",""19"",""442533""
""blur"",""19"",""446254""
""focus"",""19"",""451126""
""blur"",""19"",""451689""
""focus"",""19"",""453058""
""blur"",""19"",""492936""
""focus"",""19"",""498305""
""blur"",""19"",""554760""
""focus"",""19"",""562412""
""blur"",""19"",""563297""
""focus"",""19"",""569872""
""blur"",""19"",""570520""
""focus"",""19"",""577145""
""blur"",""19"",""582952""
""focus"",""19"",""585341""
","""event"",""trial"",""time""
""blur"",""7"",""28066""
""blur"",""7"",""130729""
""blur"",""7"",""169679""
""blur"",""7"",""174137""
""blur"",""7"",""177881""
""blur"",""7"",""184728""
""blur"",""7"",""191185""
""blur"",""7"",""196594""
""blur"",""7"",""198188""
""blur"",""7"",""199057""
""blur"",""7"",""230463""
""blur"",""7"",""235421""
""blur"",""7"",""242852""
""blur"",""7"",""251050""
""blur"",""8"",""263672""
""blur"",""13"",""279484""
""blur"",""13"",""293969""
""blur"",""13"",""295596""
""blur"",""13"",""339369""
""blur"",""19"",""401204""
""blur"",""19"",""403001""
""blur"",""19"",""416092""
""blur"",""19"",""440138""
""blur"",""19"",""446254""
""blur"",""19"",""451689""
""blur"",""19"",""492936""
""blur"",""19"",""554760""
""blur"",""19"",""563297""
""blur"",""19"",""570520""
""blur"",""19"",""582952""
","""event"",""trial"",""time""
""focus"",""7"",""115665""
""focus"",""7"",""131201""
""focus"",""7"",""172893""
""focus"",""7"",""177110""
""focus"",""7"",""182694""
""focus"",""7"",""189277""
""focus"",""7"",""192988""
""focus"",""7"",""197311""
""focus"",""7"",""198621""
""focus"",""7"",""230009""
""focus"",""7"",""231405""
""focus"",""7"",""236088""
""focus"",""7"",""248627""
""focus"",""7"",""251817""
""focus"",""8"",""264321""
""focus"",""13"",""289458""
""focus"",""13"",""294787""
""focus"",""13"",""338877""
""focus"",""13"",""339972""
""focus"",""19"",""401738""
""focus"",""19"",""415039""
""focus"",""19"",""439243""
""focus"",""19"",""442533""
""focus"",""19"",""451126""
""focus"",""19"",""453058""
""focus"",""19"",""498305""
""focus"",""19"",""562412""
""focus"",""19"",""569872""
""focus"",""19"",""577145""
""focus"",""19"",""585341""
","""event"",""trial"",""time""
""fullscreenenter"",""1"",""2006""
","""event"",""trial"",""time""
""fullscreenexit"",""7"",""23409""
","","","761.1000000238419","","","25","9103","1734","&#9776;","elianto","#3366ff99"," "," ","1","0","[1621.0999999642372]","1","0","1","","","","","","","",""
"pit-trial","29","623290","0.0-2.0-8.1-4.1","battery-v0.2","","""event"",""trial"",""time""
""fullscreenenter"",""1"",""2006""
""fullscreenexit"",""7"",""23409""
""blur"",""7"",""28066""
""focus"",""7"",""115665""
""blur"",""7"",""130729""
""focus"",""7"",""131201""
""blur"",""7"",""169679""
""focus"",""7"",""172893""
""blur"",""7"",""174137""
""focus"",""7"",""177110""
""blur"",""7"",""177881""
""focus"",""7"",""182694""
""blur"",""7"",""184728""
""focus"",""7"",""189277""
""blur"",""7"",""191185""
""focus"",""7"",""192988""
""blur"",""7"",""196594""
""focus"",""7"",""197311""
""blur"",""7"",""198188""
""focus"",""7"",""198621""
""blur"",""7"",""199057""
""focus"",""7"",""230009""
""blur"",""7"",""230463""
""focus"",""7"",""231405""
""blur"",""7"",""235421""
""focus"",""7"",""236088""
""blur"",""7"",""242852""
""focus"",""7"",""248627""
""blur"",""7"",""251050""
""focus"",""7"",""251817""
""blur"",""8"",""263672""
""focus"",""8"",""264321""
""blur"",""13"",""279484""
""focus"",""13"",""289458""
""blur"",""13"",""293969""
""focus"",""13"",""294787""
""blur"",""13"",""295596""
""focus"",""13"",""338877""
""blur"",""13"",""339369""
""focus"",""13"",""339972""
""blur"",""19"",""401204""
""focus"",""19"",""401738""
""blur"",""19"",""403001""
""focus"",""19"",""415039""
""blur"",""19"",""416092""
""focus"",""19"",""439243""
""blur"",""19"",""440138""
""focus"",""19"",""442533""
""blur"",""19"",""446254""
""focus"",""19"",""451126""
""blur"",""19"",""451689""
""focus"",""19"",""453058""
""blur"",""19"",""492936""
""focus"",""19"",""498305""
""blur"",""19"",""554760""
""focus"",""19"",""562412""
""blur"",""19"",""563297""
""focus"",""19"",""569872""
""blur"",""19"",""570520""
""focus"",""19"",""577145""
""blur"",""19"",""582952""
""focus"",""19"",""585341""
","""event"",""trial"",""time""
""blur"",""7"",""28066""
""blur"",""7"",""130729""
""blur"",""7"",""169679""
""blur"",""7"",""174137""
""blur"",""7"",""177881""
""blur"",""7"",""184728""
""blur"",""7"",""191185""
""blur"",""7"",""196594""
""blur"",""7"",""198188""
""blur"",""7"",""199057""
""blur"",""7"",""230463""
""blur"",""7"",""235421""
""blur"",""7"",""242852""
""blur"",""7"",""251050""
""blur"",""8"",""263672""
""blur"",""13"",""279484""
""blur"",""13"",""293969""
""blur"",""13"",""295596""
""blur"",""13"",""339369""
""blur"",""19"",""401204""
""blur"",""19"",""403001""
""blur"",""19"",""416092""
""blur"",""19"",""440138""
""blur"",""19"",""446254""
""blur"",""19"",""451689""
""blur"",""19"",""492936""
""blur"",""19"",""554760""
""blur"",""19"",""563297""
""blur"",""19"",""570520""
""blur"",""19"",""582952""
","""event"",""trial"",""time""
""focus"",""7"",""115665""
""focus"",""7"",""131201""
""focus"",""7"",""172893""
""focus"",""7"",""177110""
""focus"",""7"",""182694""
""focus"",""7"",""189277""
""focus"",""7"",""192988""
""focus"",""7"",""197311""
""focus"",""7"",""198621""
""focus"",""7"",""230009""
""focus"",""7"",""231405""
""focus"",""7"",""236088""
""focus"",""7"",""248627""
""focus"",""7"",""251817""
""focus"",""8"",""264321""
""focus"",""13"",""289458""
""focus"",""13"",""294787""
""focus"",""13"",""338877""
""focus"",""13"",""339972""
""focus"",""19"",""401738""
""focus"",""19"",""415039""
""focus"",""19"",""439243""
""focus"",""19"",""442533""
""focus"",""19"",""451126""
""focus"",""19"",""453058""
""focus"",""19"",""498305""
""focus"",""19"",""562412""
""focus"",""19"",""569872""
""focus"",""19"",""577145""
""focus"",""19"",""585341""
","""event"",""trial"",""time""
""fullscreenenter"",""1"",""2006""
","""event"",""trial"",""time""
""fullscreenexit"",""7"",""23409""
","","","415.10000002384186","","","25","9103","1734","&#9776;","elianto","#3366ff99"," "," ","1","+10","[1267.1000000238419]","1","0","1","","","","","","","",""
"pit-trial","30","626537","0.0-2.0-8.2-0.2","battery-v0.2","","""event"",""trial"",""time""
""fullscreenenter"",""1"",""2006""
""fullscreenexit"",""7"",""23409""
""blur"",""7"",""28066""
""focus"",""7"",""115665""
""blur"",""7"",""130729""
""focus"",""7"",""131201""
""blur"",""7"",""169679""
""focus"",""7"",""172893""
""blur"",""7"",""174137""
""focus"",""7"",""177110""
""blur"",""7"",""177881""
""focus"",""7"",""182694""
""blur"",""7"",""184728""
""focus"",""7"",""189277""
""blur"",""7"",""191185""
""focus"",""7"",""192988""
""blur"",""7"",""196594""
""focus"",""7"",""197311""
""blur"",""7"",""198188""
""focus"",""7"",""198621""
""blur"",""7"",""199057""
""focus"",""7"",""230009""
""blur"",""7"",""230463""
""focus"",""7"",""231405""
""blur"",""7"",""235421""
""focus"",""7"",""236088""
""blur"",""7"",""242852""
""focus"",""7"",""248627""
""blur"",""7"",""251050""
""focus"",""7"",""251817""
""blur"",""8"",""263672""
""focus"",""8"",""264321""
""blur"",""13"",""279484""
""focus"",""13"",""289458""
""blur"",""13"",""293969""
""focus"",""13"",""294787""
""blur"",""13"",""295596""
""focus"",""13"",""338877""
""blur"",""13"",""339369""
""focus"",""13"",""339972""
""blur"",""19"",""401204""
""focus"",""19"",""401738""
""blur"",""19"",""403001""
""focus"",""19"",""415039""
""blur"",""19"",""416092""
""focus"",""19"",""439243""
""blur"",""19"",""440138""
""focus"",""19"",""442533""
""blur"",""19"",""446254""
""focus"",""19"",""451126""
""blur"",""19"",""451689""
""focus"",""19"",""453058""
""blur"",""19"",""492936""
""focus"",""19"",""498305""
""blur"",""19"",""554760""
""focus"",""19"",""562412""
""blur"",""19"",""563297""
""focus"",""19"",""569872""
""blur"",""19"",""570520""
""focus"",""19"",""577145""
""blur"",""19"",""582952""
""focus"",""19"",""585341""
","""event"",""trial"",""time""
""blur"",""7"",""28066""
""blur"",""7"",""130729""
""blur"",""7"",""169679""
""blur"",""7"",""174137""
""blur"",""7"",""177881""
""blur"",""7"",""184728""
""blur"",""7"",""191185""
""blur"",""7"",""196594""
""blur"",""7"",""198188""
""blur"",""7"",""199057""
""blur"",""7"",""230463""
""blur"",""7"",""235421""
""blur"",""7"",""242852""
""blur"",""7"",""251050""
""blur"",""8"",""263672""
""blur"",""13"",""279484""
""blur"",""13"",""293969""
""blur"",""13"",""295596""
""blur"",""13"",""339369""
""blur"",""19"",""401204""
""blur"",""19"",""403001""
""blur"",""19"",""416092""
""blur"",""19"",""440138""
""blur"",""19"",""446254""
""blur"",""19"",""451689""
""blur"",""19"",""492936""
""blur"",""19"",""554760""
""blur"",""19"",""563297""
""blur"",""19"",""570520""
""blur"",""19"",""582952""
","""event"",""trial"",""time""
""focus"",""7"",""115665""
""focus"",""7"",""131201""
""focus"",""7"",""172893""
""focus"",""7"",""177110""
""focus"",""7"",""182694""
""focus"",""7"",""189277""
""focus"",""7"",""192988""
""focus"",""7"",""197311""
""focus"",""7"",""198621""
""focus"",""7"",""230009""
""focus"",""7"",""231405""
""focus"",""7"",""236088""
""focus"",""7"",""248627""
""focus"",""7"",""251817""
""focus"",""8"",""264321""
""focus"",""13"",""289458""
""focus"",""13"",""294787""
""focus"",""13"",""338877""
""focus"",""13"",""339972""
""focus"",""19"",""401738""
""focus"",""19"",""415039""
""focus"",""19"",""439243""
""focus"",""19"",""442533""
""focus"",""19"",""451126""
""focus"",""19"",""453058""
""focus"",""19"",""498305""
""focus"",""19"",""562412""
""focus"",""19"",""569872""
""focus"",""19"",""577145""
""focus"",""19"",""585341""
","""event"",""trial"",""time""
""fullscreenenter"",""1"",""2006""
","""event"",""trial"",""time""
""fullscreenexit"",""7"",""23409""
","","","383.19999998807907","","","25","9103","1734","&#9776;","elianto","#3366ff99"," "," ","1","+10","[1234.5999999642372]","1","0","1","","","","","","","",""
"pit-trial","31","629777","0.0-2.0-8.2-1.2","battery-v0.2","","""event"",""trial"",""time""
""fullscreenenter"",""1"",""2006""
""fullscreenexit"",""7"",""23409""
""blur"",""7"",""28066""
""focus"",""7"",""115665""
""blur"",""7"",""130729""
""focus"",""7"",""131201""
""blur"",""7"",""169679""
""focus"",""7"",""172893""
""blur"",""7"",""174137""
""focus"",""7"",""177110""
""blur"",""7"",""177881""
""focus"",""7"",""182694""
""blur"",""7"",""184728""
""focus"",""7"",""189277""
""blur"",""7"",""191185""
""focus"",""7"",""192988""
""blur"",""7"",""196594""
""focus"",""7"",""197311""
""blur"",""7"",""198188""
""focus"",""7"",""198621""
""blur"",""7"",""199057""
""focus"",""7"",""230009""
""blur"",""7"",""230463""
""focus"",""7"",""231405""
""blur"",""7"",""235421""
""focus"",""7"",""236088""
""blur"",""7"",""242852""
""focus"",""7"",""248627""
""blur"",""7"",""251050""
""focus"",""7"",""251817""
""blur"",""8"",""263672""
""focus"",""8"",""264321""
""blur"",""13"",""279484""
""focus"",""13"",""289458""
""blur"",""13"",""293969""
""focus"",""13"",""294787""
""blur"",""13"",""295596""
""focus"",""13"",""338877""
""blur"",""13"",""339369""
""focus"",""13"",""339972""
""blur"",""19"",""401204""
""focus"",""19"",""401738""
""blur"",""19"",""403001""
""focus"",""19"",""415039""
""blur"",""19"",""416092""
""focus"",""19"",""439243""
""blur"",""19"",""440138""
""focus"",""19"",""442533""
""blur"",""19"",""446254""
""focus"",""19"",""451126""
""blur"",""19"",""451689""
""focus"",""19"",""453058""
""blur"",""19"",""492936""
""focus"",""19"",""498305""
""blur"",""19"",""554760""
""focus"",""19"",""562412""
""blur"",""19"",""563297""
""focus"",""19"",""569872""
""blur"",""19"",""570520""
""focus"",""19"",""577145""
""blur"",""19"",""582952""
""focus"",""19"",""585341""
","""event"",""trial"",""time""
""blur"",""7"",""28066""
""blur"",""7"",""130729""
""blur"",""7"",""169679""
""blur"",""7"",""174137""
""blur"",""7"",""177881""
""blur"",""7"",""184728""
""blur"",""7"",""191185""
""blur"",""7"",""196594""
""blur"",""7"",""198188""
""blur"",""7"",""199057""
""blur"",""7"",""230463""
""blur"",""7"",""235421""
""blur"",""7"",""242852""
""blur"",""7"",""251050""
""blur"",""8"",""263672""
""blur"",""13"",""279484""
""blur"",""13"",""293969""
""blur"",""13"",""295596""
""blur"",""13"",""339369""
""blur"",""19"",""401204""
""blur"",""19"",""403001""
""blur"",""19"",""416092""
""blur"",""19"",""440138""
""blur"",""19"",""446254""
""blur"",""19"",""451689""
""blur"",""19"",""492936""
""blur"",""19"",""554760""
""blur"",""19"",""563297""
""blur"",""19"",""570520""
""blur"",""19"",""582952""
","""event"",""trial"",""time""
""focus"",""7"",""115665""
""focus"",""7"",""131201""
""focus"",""7"",""172893""
""focus"",""7"",""177110""
""focus"",""7"",""182694""
""focus"",""7"",""189277""
""focus"",""7"",""192988""
""focus"",""7"",""197311""
""focus"",""7"",""198621""
""focus"",""7"",""230009""
""focus"",""7"",""231405""
""focus"",""7"",""236088""
""focus"",""7"",""248627""
""focus"",""7"",""251817""
""focus"",""8"",""264321""
""focus"",""13"",""289458""
""focus"",""13"",""294787""
""focus"",""13"",""338877""
""focus"",""13"",""339972""
""focus"",""19"",""401738""
""focus"",""19"",""415039""
""focus"",""19"",""439243""
""focus"",""19"",""442533""
""focus"",""19"",""451126""
""focus"",""19"",""453058""
""focus"",""19"",""498305""
""focus"",""19"",""562412""
""focus"",""19"",""569872""
""focus"",""19"",""577145""
""focus"",""19"",""585341""
","""event"",""trial"",""time""
""fullscreenenter"",""1"",""2006""
","""event"",""trial"",""time""
""fullscreenexit"",""7"",""23409""
","","","372.30000001192093","","","25","9103","1734","&#9776;","elianto","#3366ff99"," "," ","1","+10","[1227.5]","1","0","1","","","","","","","",""
"pit-trial","32","632942","0.0-2.0-8.2-2.2","battery-v0.2","","""event"",""trial"",""time""
""fullscreenenter"",""1"",""2006""
""fullscreenexit"",""7"",""23409""
""blur"",""7"",""28066""
""focus"",""7"",""115665""
""blur"",""7"",""130729""
""focus"",""7"",""131201""
""blur"",""7"",""169679""
""focus"",""7"",""172893""
""blur"",""7"",""174137""
""focus"",""7"",""177110""
""blur"",""7"",""177881""
""focus"",""7"",""182694""
""blur"",""7"",""184728""
""focus"",""7"",""189277""
""blur"",""7"",""191185""
""focus"",""7"",""192988""
""blur"",""7"",""196594""
""focus"",""7"",""197311""
""blur"",""7"",""198188""
""focus"",""7"",""198621""
""blur"",""7"",""199057""
""focus"",""7"",""230009""
""blur"",""7"",""230463""
""focus"",""7"",""231405""
""blur"",""7"",""235421""
""focus"",""7"",""236088""
""blur"",""7"",""242852""
""focus"",""7"",""248627""
""blur"",""7"",""251050""
""focus"",""7"",""251817""
""blur"",""8"",""263672""
""focus"",""8"",""264321""
""blur"",""13"",""279484""
""focus"",""13"",""289458""
""blur"",""13"",""293969""
""focus"",""13"",""294787""
""blur"",""13"",""295596""
""focus"",""13"",""338877""
""blur"",""13"",""339369""
""focus"",""13"",""339972""
""blur"",""19"",""401204""
""focus"",""19"",""401738""
""blur"",""19"",""403001""
""focus"",""19"",""415039""
""blur"",""19"",""416092""
""focus"",""19"",""439243""
""blur"",""19"",""440138""
""focus"",""19"",""442533""
""blur"",""19"",""446254""
""focus"",""19"",""451126""
""blur"",""19"",""451689""
""focus"",""19"",""453058""
""blur"",""19"",""492936""
""focus"",""19"",""498305""
""blur"",""19"",""554760""
""focus"",""19"",""562412""
""blur"",""19"",""563297""
""focus"",""19"",""569872""
""blur"",""19"",""570520""
""focus"",""19"",""577145""
""blur"",""19"",""582952""
""focus"",""19"",""585341""
","""event"",""trial"",""time""
""blur"",""7"",""28066""
""blur"",""7"",""130729""
""blur"",""7"",""169679""
""blur"",""7"",""174137""
""blur"",""7"",""177881""
""blur"",""7"",""184728""
""blur"",""7"",""191185""
""blur"",""7"",""196594""
""blur"",""7"",""198188""
""blur"",""7"",""199057""
""blur"",""7"",""230463""
""blur"",""7"",""235421""
""blur"",""7"",""242852""
""blur"",""7"",""251050""
""blur"",""8"",""263672""
""blur"",""13"",""279484""
""blur"",""13"",""293969""
""blur"",""13"",""295596""
""blur"",""13"",""339369""
""blur"",""19"",""401204""
""blur"",""19"",""403001""
""blur"",""19"",""416092""
""blur"",""19"",""440138""
""blur"",""19"",""446254""
""blur"",""19"",""451689""
""blur"",""19"",""492936""
""blur"",""19"",""554760""
""blur"",""19"",""563297""
""blur"",""19"",""570520""
""blur"",""19"",""582952""
","""event"",""trial"",""time""
""focus"",""7"",""115665""
""focus"",""7"",""131201""
""focus"",""7"",""172893""
""focus"",""7"",""177110""
""focus"",""7"",""182694""
""focus"",""7"",""189277""
""focus"",""7"",""192988""
""focus"",""7"",""197311""
""focus"",""7"",""198621""
""focus"",""7"",""230009""
""focus"",""7"",""231405""
""focus"",""7"",""236088""
""focus"",""7"",""248627""
""focus"",""7"",""251817""
""focus"",""8"",""264321""
""focus"",""13"",""289458""
""focus"",""13"",""294787""
""focus"",""13"",""338877""
""focus"",""13"",""339972""
""focus"",""19"",""401738""
""focus"",""19"",""415039""
""focus"",""19"",""439243""
""focus"",""19"",""442533""
""focus"",""19"",""451126""
""focus"",""19"",""453058""
""focus"",""19"",""498305""
""focus"",""19"",""562412""
""focus"",""19"",""569872""
""focus"",""19"",""577145""
""focus"",""19"",""585341""
","""event"",""trial"",""time""
""fullscreenenter"",""1"",""2006""
","""event"",""trial"",""time""
""fullscreenexit"",""7"",""23409""
","","","306","","","25","9103","1734","&#9776;","elianto","#3366ff99"," "," ","1","+10","[1156.300000011921]","1","0","1","","","","","","","",""
"pit-trial","33","636194","0.0-2.0-8.2-3.2","battery-v0.2","","""event"",""trial"",""time""
""fullscreenenter"",""1"",""2006""
""fullscreenexit"",""7"",""23409""
""blur"",""7"",""28066""
""focus"",""7"",""115665""
""blur"",""7"",""130729""
""focus"",""7"",""131201""
""blur"",""7"",""169679""
""focus"",""7"",""172893""
""blur"",""7"",""174137""
""focus"",""7"",""177110""
""blur"",""7"",""177881""
""focus"",""7"",""182694""
""blur"",""7"",""184728""
""focus"",""7"",""189277""
""blur"",""7"",""191185""
""focus"",""7"",""192988""
""blur"",""7"",""196594""
""focus"",""7"",""197311""
""blur"",""7"",""198188""
""focus"",""7"",""198621""
""blur"",""7"",""199057""
""focus"",""7"",""230009""
""blur"",""7"",""230463""
""focus"",""7"",""231405""
""blur"",""7"",""235421""
""focus"",""7"",""236088""
""blur"",""7"",""242852""
""focus"",""7"",""248627""
""blur"",""7"",""251050""
""focus"",""7"",""251817""
""blur"",""8"",""263672""
""focus"",""8"",""264321""
""blur"",""13"",""279484""
""focus"",""13"",""289458""
""blur"",""13"",""293969""
""focus"",""13"",""294787""
""blur"",""13"",""295596""
""focus"",""13"",""338877""
""blur"",""13"",""339369""
""focus"",""13"",""339972""
""blur"",""19"",""401204""
""focus"",""19"",""401738""
""blur"",""19"",""403001""
""focus"",""19"",""415039""
""blur"",""19"",""416092""
""focus"",""19"",""439243""
""blur"",""19"",""440138""
""focus"",""19"",""442533""
""blur"",""19"",""446254""
""focus"",""19"",""451126""
""blur"",""19"",""451689""
""focus"",""19"",""453058""
""blur"",""19"",""492936""
""focus"",""19"",""498305""
""blur"",""19"",""554760""
""focus"",""19"",""562412""
""blur"",""19"",""563297""
""focus"",""19"",""569872""
""blur"",""19"",""570520""
""focus"",""19"",""577145""
""blur"",""19"",""582952""
""focus"",""19"",""585341""
","""event"",""trial"",""time""
""blur"",""7"",""28066""
""blur"",""7"",""130729""
""blur"",""7"",""169679""
""blur"",""7"",""174137""
""blur"",""7"",""177881""
""blur"",""7"",""184728""
""blur"",""7"",""191185""
""blur"",""7"",""196594""
""blur"",""7"",""198188""
""blur"",""7"",""199057""
""blur"",""7"",""230463""
""blur"",""7"",""235421""
""blur"",""7"",""242852""
""blur"",""7"",""251050""
""blur"",""8"",""263672""
""blur"",""13"",""279484""
""blur"",""13"",""293969""
""blur"",""13"",""295596""
""blur"",""13"",""339369""
""blur"",""19"",""401204""
""blur"",""19"",""403001""
""blur"",""19"",""416092""
""blur"",""19"",""440138""
""blur"",""19"",""446254""
""blur"",""19"",""451689""
""blur"",""19"",""492936""
""blur"",""19"",""554760""
""blur"",""19"",""563297""
""blur"",""19"",""570520""
""blur"",""19"",""582952""
","""event"",""trial"",""time""
""focus"",""7"",""115665""
""focus"",""7"",""131201""
""focus"",""7"",""172893""
""focus"",""7"",""177110""
""focus"",""7"",""182694""
""focus"",""7"",""189277""
""focus"",""7"",""192988""
""focus"",""7"",""197311""
""focus"",""7"",""198621""
""focus"",""7"",""230009""
""focus"",""7"",""231405""
""focus"",""7"",""236088""
""focus"",""7"",""248627""
""focus"",""7"",""251817""
""focus"",""8"",""264321""
""focus"",""13"",""289458""
""focus"",""13"",""294787""
""focus"",""13"",""338877""
""focus"",""13"",""339972""
""focus"",""19"",""401738""
""focus"",""19"",""415039""
""focus"",""19"",""439243""
""focus"",""19"",""442533""
""focus"",""19"",""451126""
""focus"",""19"",""453058""
""focus"",""19"",""498305""
""focus"",""19"",""562412""
""focus"",""19"",""569872""
""focus"",""19"",""577145""
""focus"",""19"",""585341""
","""event"",""trial"",""time""
""fullscreenenter"",""1"",""2006""
","""event"",""trial"",""time""
""fullscreenexit"",""7"",""23409""
","","","390.19999998807907","","","25","9103","1734","&#9776;","elianto","#3366ff99"," "," ","1","0","[1242.6000000238419]","1","0","1","","","","","","","",""
"pit-trial","34","639601","0.0-2.0-8.2-4.2","battery-v0.2","","""event"",""trial"",""time""
""fullscreenenter"",""1"",""2006""
""fullscreenexit"",""7"",""23409""
""blur"",""7"",""28066""
""focus"",""7"",""115665""
""blur"",""7"",""130729""
""focus"",""7"",""131201""
""blur"",""7"",""169679""
""focus"",""7"",""172893""
""blur"",""7"",""174137""
""focus"",""7"",""177110""
""blur"",""7"",""177881""
""focus"",""7"",""182694""
""blur"",""7"",""184728""
""focus"",""7"",""189277""
""blur"",""7"",""191185""
""focus"",""7"",""192988""
""blur"",""7"",""196594""
""focus"",""7"",""197311""
""blur"",""7"",""198188""
""focus"",""7"",""198621""
""blur"",""7"",""199057""
""focus"",""7"",""230009""
""blur"",""7"",""230463""
""focus"",""7"",""231405""
""blur"",""7"",""235421""
""focus"",""7"",""236088""
""blur"",""7"",""242852""
""focus"",""7"",""248627""
""blur"",""7"",""251050""
""focus"",""7"",""251817""
""blur"",""8"",""263672""
""focus"",""8"",""264321""
""blur"",""13"",""279484""
""focus"",""13"",""289458""
""blur"",""13"",""293969""
""focus"",""13"",""294787""
""blur"",""13"",""295596""
""focus"",""13"",""338877""
""blur"",""13"",""339369""
""focus"",""13"",""339972""
""blur"",""19"",""401204""
""focus"",""19"",""401738""
""blur"",""19"",""403001""
""focus"",""19"",""415039""
""blur"",""19"",""416092""
""focus"",""19"",""439243""
""blur"",""19"",""440138""
""focus"",""19"",""442533""
""blur"",""19"",""446254""
""focus"",""19"",""451126""
""blur"",""19"",""451689""
""focus"",""19"",""453058""
""blur"",""19"",""492936""
""focus"",""19"",""498305""
""blur"",""19"",""554760""
""focus"",""19"",""562412""
""blur"",""19"",""563297""
""focus"",""19"",""569872""
""blur"",""19"",""570520""
""focus"",""19"",""577145""
""blur"",""19"",""582952""
""focus"",""19"",""585341""
","""event"",""trial"",""time""
""blur"",""7"",""28066""
""blur"",""7"",""130729""
""blur"",""7"",""169679""
""blur"",""7"",""174137""
""blur"",""7"",""177881""
""blur"",""7"",""184728""
""blur"",""7"",""191185""
""blur"",""7"",""196594""
""blur"",""7"",""198188""
""blur"",""7"",""199057""
""blur"",""7"",""230463""
""blur"",""7"",""235421""
""blur"",""7"",""242852""
""blur"",""7"",""251050""
""blur"",""8"",""263672""
""blur"",""13"",""279484""
""blur"",""13"",""293969""
""blur"",""13"",""295596""
""blur"",""13"",""339369""
""blur"",""19"",""401204""
""blur"",""19"",""403001""
""blur"",""19"",""416092""
""blur"",""19"",""440138""
""blur"",""19"",""446254""
""blur"",""19"",""451689""
""blur"",""19"",""492936""
""blur"",""19"",""554760""
""blur"",""19"",""563297""
""blur"",""19"",""570520""
""blur"",""19"",""582952""
","""event"",""trial"",""time""
""focus"",""7"",""115665""
""focus"",""7"",""131201""
""focus"",""7"",""172893""
""focus"",""7"",""177110""
""focus"",""7"",""182694""
""focus"",""7"",""189277""
""focus"",""7"",""192988""
""focus"",""7"",""197311""
""focus"",""7"",""198621""
""focus"",""7"",""230009""
""focus"",""7"",""231405""
""focus"",""7"",""236088""
""focus"",""7"",""248627""
""focus"",""7"",""251817""
""focus"",""8"",""264321""
""focus"",""13"",""289458""
""focus"",""13"",""294787""
""focus"",""13"",""338877""
""focus"",""13"",""339972""
""focus"",""19"",""401738""
""focus"",""19"",""415039""
""focus"",""19"",""439243""
""focus"",""19"",""442533""
""focus"",""19"",""451126""
""focus"",""19"",""453058""
""focus"",""19"",""498305""
""focus"",""19"",""562412""
""focus"",""19"",""569872""
""focus"",""19"",""577145""
""focus"",""19"",""585341""
","""event"",""trial"",""time""
""fullscreenenter"",""1"",""2006""
","""event"",""trial"",""time""
""fullscreenexit"",""7"",""23409""
","","","538.5","","","25","9103","1734","&#9776;","elianto","#3366ff99"," "," ","1","+10","[1393.5999999642372]","1","0","1","","","","","","","",""
"call-function","35","639605","0.0-2.0-9.0","battery-v0.2","","""event"",""trial"",""time""
""fullscreenenter"",""1"",""2006""
""fullscreenexit"",""7"",""23409""
""blur"",""7"",""28066""
""focus"",""7"",""115665""
""blur"",""7"",""130729""
""focus"",""7"",""131201""
""blur"",""7"",""169679""
""focus"",""7"",""172893""
""blur"",""7"",""174137""
""focus"",""7"",""177110""
""blur"",""7"",""177881""
""focus"",""7"",""182694""
""blur"",""7"",""184728""
""focus"",""7"",""189277""
""blur"",""7"",""191185""
""focus"",""7"",""192988""
""blur"",""7"",""196594""
""focus"",""7"",""197311""
""blur"",""7"",""198188""
""focus"",""7"",""198621""
""blur"",""7"",""199057""
""focus"",""7"",""230009""
""blur"",""7"",""230463""
""focus"",""7"",""231405""
""blur"",""7"",""235421""
""focus"",""7"",""236088""
""blur"",""7"",""242852""
""focus"",""7"",""248627""
""blur"",""7"",""251050""
""focus"",""7"",""251817""
""blur"",""8"",""263672""
""focus"",""8"",""264321""
""blur"",""13"",""279484""
""focus"",""13"",""289458""
""blur"",""13"",""293969""
""focus"",""13"",""294787""
""blur"",""13"",""295596""
""focus"",""13"",""338877""
""blur"",""13"",""339369""
""focus"",""13"",""339972""
