"trial_type","trial_index","time_elapsed","internal_node_id","task_version","subject_id","interactions","blur_events","focus_events","fullscreenenter_events","fullscreenexit_events","success","view_history","rt","responses","num_errors","age","subject","participantId","rune","rune_set","hex","correct","choice","accuracy","outcome","keys","total_keys","block","practice","value","sub","trial","stimulus","robot","valence","action","sham"
"pavlovia","0","9","0.0-0.0","battery-v0.2","","""event"",""trial"",""time""
""fullscreenenter"",""1"",""2015""
","
","
","""event"",""trial"",""time""
""fullscreenenter"",""1"",""2015""
","
","","","","","","","","","","","","","","","","","","","","","","","","","","",""
"fullscreen","1","2985","0.0-1.0","battery-v0.2","","""event"",""trial"",""time""
""fullscreenenter"",""1"",""2015""
","
","
","""event"",""trial"",""time""
""fullscreenenter"",""1"",""2015""
","
","true","","","","","","","","","","","","","","","","","","","","","","","","","",""
"pit-instructions","2","8276","0.0-2.0-0.0","battery-v0.2","","""event"",""trial"",""time""
""fullscreenenter"",""1"",""2015""
","
","
","""event"",""trial"",""time""
""fullscreenenter"",""1"",""2015""
","
","","[{""page_index"":0,""viewing_time"":5285.099999904633}]","5285.5","","","","","","","","","","","","","","","","","","","","","","","",""
"pit-comprehension","3","11077","0.0-2.0-1.0-0.0","battery-v0.2","","""event"",""trial"",""time""
""fullscreenenter"",""1"",""2015""
","
","
","""event"",""trial"",""time""
""fullscreenenter"",""1"",""2015""
","
","","","2799.0999999046326","[""shark""]","0","18","18055","6591","","","","","","","","","","","","","","","","","","",""
"pit-instructions","4","12031","0.0-2.0-1.0-1.0","battery-v0.2","","""event"",""trial"",""time""
""fullscreenenter"",""1"",""2015""
","
","
","""event"",""trial"",""time""
""fullscreenenter"",""1"",""2015""
","
","","[{""page_index"":0,""viewing_time"":950.0999999046326}]","950.2999999523163","","","","","","","","","","","","","","","","","","","","","","","",""
"pit-comprehension","5","15294","0.0-2.0-2.0-0.0","battery-v0.2","","""event"",""trial"",""time""
""fullscreenenter"",""1"",""2015""
","
","
","""event"",""trial"",""time""
""fullscreenenter"",""1"",""2015""
","
","","","3260.2999999523163","[""tiger""]","0","18","18055","6591","","","","","","","","","","","","","","","","","","",""
"pit-instructions","6","16256","0.0-2.0-2.0-1.0","battery-v0.2","","""event"",""trial"",""time""
""fullscreenenter"",""1"",""2015""
","
","
","""event"",""trial"",""time""
""fullscreenenter"",""1"",""2015""
","
","","[{""page_index"":0,""viewing_time"":960.2000000476837}]","960.4000000953674","","","","","","","","","","","","","","","","","","","","","","","",""
"pit-instructions","7","326224","0.0-2.0-3.0","battery-v0.2","","""event"",""trial"",""time""
""fullscreenenter"",""1"",""2015""
","
","
","""event"",""trial"",""time""
""fullscreenenter"",""1"",""2015""
","
","","[{""page_index"":0,""viewing_time"":23000.299999952316},{""page_index"":1,""viewing_time"":5808.299999952316},{""page_index"":2,""viewing_time"":7668.100000143051},{""page_index"":3,""viewing_time"":6449.799999952316},{""page_index"":4,""viewing_time"":14449.099999904633},{""page_index"":5,""viewing_time"":61348.40000009537},{""page_index"":6,""viewing_time"":6601.400000095367},{""page_index"":5,""viewing_time"":427.69999980926514},{""page_index"":4,""viewing_time"":437.2000000476837},{""page_index"":3,""viewing_time"":1186.4000000953674},{""page_index"":2,""viewing_time"":588.5999999046326},{""page_index"":1,""viewing_time"":4803.600000143051},{""page_index"":0,""viewing_time"":3498.5999999046326},{""page_index"":1,""viewing_time"":22497.099999904633},{""page_index"":2,""viewing_time"":9472.400000095367},{""page_index"":3,""viewing_time"":11363.900000095367},{""page_index"":4,""viewing_time"":15743.899999856949},{""page_index"":5,""viewing_time"":5125.600000143051},{""page_index"":6,""viewing_time"":30396.699999809265},{""page_index"":7,""viewing_time"":7763},{""page_index"":8,""viewing_time"":16104.900000095367},{""page_index"":9,""viewing_time"":10776.299999952316},{""page_index"":10,""viewing_time"":13409.600000143051},{""page_index"":11,""viewing_time"":18627.099999904633},{""page_index"":12,""viewing_time"":6370.099999904633},{""page_index"":13,""viewing_time"":6049.100000143051}]","309967.40000009537","","","","","","","","","","","","","","","","","","","","","","","",""
"pit-trial","8","329103","0.0-2.0-4.0-0.0","battery-v0.2","","""event"",""trial"",""time""
""fullscreenenter"",""1"",""2015""
","
","
","""event"",""trial"",""time""
""fullscreenenter"",""1"",""2015""
","
","","","23.700000047683716","","","18","18055","6591","&#9784;","elianto","#FFFFF080"," "," ","1","&#10004","[874.5999999046326]","1","0","0","","","","","","","",""
"pit-trial","9","332132","0.0-2.0-4.1-0.1","battery-v0.2","","""event"",""trial"",""time""
""fullscreenenter"",""1"",""2015""
","
","
","""event"",""trial"",""time""
""fullscreenenter"",""1"",""2015""
","
","","","170.29999995231628","","","18","18055","6591","&#9784;","elianto","#FFFFF080"," "," ","1","&#10004","[1022]","1","0","0","","","","","","","",""
"pit-trial","10","335116","0.0-2.0-4.2-0.2","battery-v0.2","","""event"",""trial"",""time""
""fullscreenenter"",""1"",""2015""
","
","
","""event"",""trial"",""time""
""fullscreenenter"",""1"",""2015""
","
","","","128","","","18","18055","6591","&#9784;","elianto","#FFFFF080"," "," ","1","&#10004","[979.1999998092651]","1","0","0","","","","","","","",""
"pit-trial","11","339143","0.0-2.0-4.3-0.3","battery-v0.2","","""event"",""trial"",""time""
""fullscreenenter"",""1"",""2015""
","
","
","""event"",""trial"",""time""
""fullscreenenter"",""1"",""2015""
","
","","","1171.2000000476837","","","18","18055","6591","&#9784;","elianto","#FFFFF080"," "," ","1","&#10004","[2021.6000001430511]","1","0","0","","","","","","","",""
"pit-trial","12","342667","0.0-2.0-4.4-0.4","battery-v0.2","","""event"",""trial"",""time""
""fullscreenenter"",""1"",""2015""
","
","
","""event"",""trial"",""time""
""fullscreenenter"",""1"",""2015""
","
","","","668.1000001430511","","","18","18055","6591","&#9784;","elianto","#FFFFF080"," "," ","1","&#10004","[1519.1999998092651]","1","0","0","","","","","","","",""
"pit-instructions","13","390959","0.0-2.0-5.0","battery-v0.2","","""event"",""trial"",""time""
""fullscreenenter"",""1"",""2015""
","
","
","""event"",""trial"",""time""
""fullscreenenter"",""1"",""2015""
","
","","[{""page_index"":0,""viewing_time"":31125.5},{""page_index"":1,""viewing_time"":5695},{""page_index"":2,""viewing_time"":5805.900000095367},{""page_index"":3,""viewing_time"":5660.400000095367}]","48287.300000190735","","","","","","","","","","","","","","","","","","","","","","","",""
"pit-trial","14","395815","0.0-2.0-6.0-0.0","battery-v0.2","","""event"",""trial"",""time""
""fullscreenenter"",""1"",""2015""
","
","
","""event"",""trial"",""time""
""fullscreenenter"",""1"",""2015""
","
","","","-1","","","18","18055","6591","&#9854;","elianto","#FFFFF080","-1","-1","1","&#10004","[]","0","0","1","","","","","","","",""
"pit-trial","15","400673","0.0-2.0-6.1-0.1","battery-v0.2","","""event"",""trial"",""time""
""fullscreenenter"",""1"",""2015""
","
","
","""event"",""trial"",""time""
""fullscreenenter"",""1"",""2015""
","
","","","-1","","","18","18055","6591","&#9854;","elianto","#FFFFF080","-1","-1","1","&#10004","[]","0","0","1","","","","","","","",""
"pit-trial","16","405530","0.0-2.0-6.2-0.2","battery-v0.2","","""event"",""trial"",""time""
""fullscreenenter"",""1"",""2015""
","
","
","""event"",""trial"",""time""
""fullscreenenter"",""1"",""2015""
","
","","","-1","","","18","18055","6591","&#9854;","elianto","#FFFFF080","-1","-1","1","&#10004","[]","0","0","1","","","","","","","",""
"pit-trial","17","410387","0.0-2.0-6.3-0.3","battery-v0.2","","""event"",""trial"",""time""
""fullscreenenter"",""1"",""2015""
","
","
","""event"",""trial"",""time""
""fullscreenenter"",""1"",""2015""
","
","","","-1","","","18","18055","6591","&#9854;","elianto","#FFFFF080","-1","-1","1","&#10004","[]","0","0","1","","","","","","","",""
"pit-trial","18","415243","0.0-2.0-6.4-0.4","battery-v0.2","","""event"",""trial"",""time""
""fullscreenenter"",""1"",""2015""
","
","
","""event"",""trial"",""time""
""fullscreenenter"",""1"",""2015""
","
","","","-1","","","18","18055","6591","&#9854;","elianto","#FFFFF080","-1","-1","1","&#10004","[]","0","0","1","","","","","","","",""
"pit-instructions","19","531916","0.0-2.0-7.0","battery-v0.2","","""event"",""trial"",""time""
""fullscreenenter"",""1"",""2015""
","
","
","""event"",""trial"",""time""
""fullscreenenter"",""1"",""2015""
","
","","[{""page_index"":0,""viewing_time"":5528.700000047684},{""page_index"":1,""viewing_time"":8823},{""page_index"":2,""viewing_time"":5399.599999904633},{""page_index"":3,""viewing_time"":5140.799999952316},{""page_index"":4,""viewing_time"":6456.5},{""page_index"":5,""viewing_time"":6058.800000190735},{""page_index"":6,""viewing_time"":4948.799999952316},{""page_index"":7,""viewing_time"":7833.599999904633},{""page_index"":8,""viewing_time"":6622},{""page_index"":9,""viewing_time"":6334.5},{""page_index"":10,""viewing_time"":7755.5},{""page_index"":11,""viewing_time"":4940.799999952316},{""page_index"":12,""viewing_time"":6217},{""page_index"":13,""viewing_time"":6376.200000047684},{""page_index"":14,""viewing_time"":6639.200000047684},{""page_index"":15,""viewing_time"":6140.599999904633},{""page_index"":16,""viewing_time"":9160.300000190735},{""page_index"":17,""viewing_time"":6292.799999952316}]","116669.09999990463","","","","","","","","","","","","","","","","","","","","","","","",""
"pit-trial","20","535247","0.0-2.0-8.0-0.0","battery-v0.2","","""event"",""trial"",""time""
""fullscreenenter"",""1"",""2015""
","
","
","""event"",""trial"",""time""
""fullscreenenter"",""1"",""2015""
","
","","","477.09999990463257","","","18","18055","6591","&#9776;","elianto","#3366ff99"," "," ","1","+10","[1327.2999999523163]","1","0","1","","","","","","","",""
"pit-trial","21","538599","0.0-2.0-8.0-1.0","battery-v0.2","","""event"",""trial"",""time""
""fullscreenenter"",""1"",""2015""
","
","
","""event"",""trial"",""time""
""fullscreenenter"",""1"",""2015""
","
","","","497.09999990463257","","","18","18055","6591","&#9776;","elianto","#3366ff99"," "," ","1","+10","[1348]","1","0","1","","","","","","","",""
"pit-trial","22","542073","0.0-2.0-8.0-2.0","battery-v0.2","","""event"",""trial"",""time""
""fullscreenenter"",""1"",""2015""
","
","
","""event"",""trial"",""time""
""fullscreenenter"",""1"",""2015""
","
","","","620.2000000476837","","","18","18055","6591","&#9776;","elianto","#3366ff99"," "," ","1","+10","[1470.9000000953674]","1","0","1","","","","","","","",""
"pit-trial","23","545235","0.0-2.0-8.0-3.0","battery-v0.2","","""event"",""trial"",""time""
""fullscreenenter"",""1"",""2015""
","
","
","""event"",""trial"",""time""
""fullscreenenter"",""1"",""2015""
","
","","","308.7999999523163","","","18","18055","6591","&#9776;","elianto","#3366ff99"," "," ","1","0","[1159.5]","1","0","1","","","","","","","",""
"pit-trial","24","548398","0.0-2.0-8.0-4.0","battery-v0.2","","""event"",""trial"",""time""
""fullscreenenter"",""1"",""2015""
","
","
","""event"",""trial"",""time""
""fullscreenenter"",""1"",""2015""
","
","","","307.59999990463257","","","18","18055","6591","&#9776;","elianto","#3366ff99"," "," ","1","+10","[1158.9000000953674]","1","0","1","","","","","","","",""
"pit-trial","25","551609","0.0-2.0-8.1-0.1","battery-v0.2","","""event"",""trial"",""time""
""fullscreenenter"",""1"",""2015""
","
","
","""event"",""trial"",""time""
""fullscreenenter"",""1"",""2015""
","
","","","353.30000019073486","","","18","18055","6591","&#9776;","elianto","#3366ff99"," "," ","1","+10","[1204.1000001430511]","1","0","1","","","","","","","",""
"pit-trial","26","554907","0.0-2.0-8.1-1.1","battery-v0.2","","""event"",""trial"",""time""
""fullscreenenter"",""1"",""2015""
","
","
","""event"",""trial"",""time""
""fullscreenenter"",""1"",""2015""
","
","","","442.2000000476837","","","18","18055","6591","&#9776;","elianto","#3366ff99"," "," ","1","+10","[1293.2000000476837]","1","0","1","","","","","","","",""
"pit-trial","27","558192","0.0-2.0-8.1-2.1","battery-v0.2","","""event"",""trial"",""time""
""fullscreenenter"",""1"",""2015""
","
","
","""event"",""trial"",""time""
""fullscreenenter"",""1"",""2015""
","
","","","429.2000000476837","","","18","18055","6591","&#9776;","elianto","#3366ff99"," "," ","1","+10","[1280.7999999523163]","1","0","1","","","","","","","",""
"pit-trial","28","561430","0.0-2.0-8.1-3.1","battery-v0.2","","""event"",""trial"",""time""
""fullscreenenter"",""1"",""2015""
","
","
","""event"",""trial"",""time""
""fullscreenenter"",""1"",""2015""
","
","","","383","","","18","18055","6591","&#9776;","elianto","#3366ff99"," "," ","1","0","[1234.1000001430511]","1","0","1","","","","","","","",""
"pit-trial","29","564406","0.0-2.0-8.1-4.1","battery-v0.2","","""event"",""trial"",""time""
""fullscreenenter"",""1"",""2015""
","
","
","""event"",""trial"",""time""
""fullscreenenter"",""1"",""2015""
","
","","","121.20000004768372","","","18","18055","6591","&#9776;","elianto","#3366ff99"," "," ","1","+10","[971.8000001907349]","1","0","1","","","","","","","",""
"pit-trial","30","567346","0.0-2.0-8.2-0.2","battery-v0.2","","""event"",""trial"",""time""
""fullscreenenter"",""1"",""2015""
","
","
","""event"",""trial"",""time""
""fullscreenenter"",""1"",""2015""
","
","","","83.40000009536743","","","18","18055","6591","&#9776;","elianto","#3366ff99"," "," ","1","+10","[934.6000001430511]","1","0","1","","","","","","","",""
"pit-trial","31","570289","0.0-2.0-8.2-1.2","battery-v0.2","","""event"",""trial"",""time""
""fullscreenenter"",""1"",""2015""
","
","
","""event"",""trial"",""time""
""fullscreenenter"",""1"",""2015""
","
","","","89.40000009536743","","","18","18055","6591","&#9776;","elianto","#3366ff99"," "," ","1","+10","[940.0999999046326]","1","0","1","","","","","","","",""
"pit-trial","32","573524","0.0-2.0-8.2-2.2","battery-v0.2","","""event"",""trial"",""time""
""fullscreenenter"",""1"",""2015""
","
","
","""event"",""trial"",""time""
""fullscreenenter"",""1"",""2015""
","
","","","378.7999999523163","","","18","18055","6591","&#9776;","elianto","#3366ff99"," "," ","1","+10","[1230.0999999046326]","1","0","1","","","","","","","",""
"pit-trial","33","576791","0.0-2.0-8.2-3.2","battery-v0.2","","""event"",""trial"",""time""
""fullscreenenter"",""1"",""2015""
","
","
","""event"",""trial"",""time""
""fullscreenenter"",""1"",""2015""
","
","","","411.40000009536743","","","18","18055","6591","&#9776;","elianto","#3366ff99"," "," ","1","0","[1262.6000001430511]","1","0","1","","","","","","","",""
"pit-trial","34","580045","0.0-2.0-8.2-4.2","battery-v0.2","","""event"",""trial"",""time""
""fullscreenenter"",""1"",""2015""
","
","
","""event"",""trial"",""time""
""fullscreenenter"",""1"",""2015""
","
","","","398.7999999523163","","","18","18055","6591","&#9776;","elianto","#3366ff99"," "," ","1","+10","[1250]","1","0","1","","","","","","","",""
"call-function","35","580049","0.0-2.0-9.0","battery-v0.2","","""event"",""trial"",""time""
""fullscreenenter"",""1"",""2015""
","
","
","""event"",""trial"",""time""
""fullscreenenter"",""1"",""2015""
","
","","","","","","","","","","","","","","","","","","","","","","","","","","",""
"pit-instructions","36","653847","0.0-2.0-10.0","battery-v0.2","","""event"",""trial"",""time""
""fullscreenenter"",""1"",""2015""
","
","
","""event"",""trial"",""time""
""fullscreenenter"",""1"",""2015""
","
","","[{""page_index"":0,""viewing_time"":10925},{""page_index"":1,""viewing_time"":10642.700000047684},{""page_index"":2,""viewing_time"":28203.60000014305},{""page_index"":3,""viewing_time"":9869},{""page_index"":4,""viewing_time"":14156.299999952316}]","73797.20000004768","","","","","","","","","","","","","","","","","","","","","","","",""
"pit-trial","37","657954","0.0-2.0-11.0-0.0","battery-v0.2","","""event"",""trial"",""time""
""fullscreenenter"",""1"",""2015""
","
","
","""event"",""trial"",""time""
""fullscreenenter"",""1"",""2015""
","
","","","1252.2000000476837","","","18","18055","6591","&#9761;","elianto","#3366ff99","-1"," ","0","0","[2102.4000000953674]","1","0","2","","","","","","","",""
"pit-trial","38","661407","0.0-2.0-11.0-1.0","battery-v0.2","","""event"",""trial"",""time""
""fullscreenenter"",""1"",""2015""
","
","
","""event"",""trial"",""time""
""fullscreenenter"",""1"",""2015""
","
","","","599.2000000476837","","","18","18055","6591","&#9761;","elianto","#3366ff99","-1"," ","0","0","[1450.1000001430511]","1","0","2","","","","","","","",""
"pit-trial","39","666263","0.0-2.0-11.0-2.0","battery-v0.2","","""event"",""trial"",""time""
""fullscreenenter"",""1"",""2015""
","
","
","""event"",""trial"",""time""
""fullscreenenter"",""1"",""2015""
","
","","","-1","","","18","18055","6591","&#9761;","elianto","#3366ff99","-1","-1","1","+10","[]","0","0","2","","","","","","","",""
"pit-trial","40","671116","0.0-2.0-11.0-3.0","battery-v0.2","","""event"",""trial"",""time""
""fullscreenenter"",""1"",""2015""
","
","
","""event"",""trial"",""time""
""fullscreenenter"",""1"",""2015""
","
","","","-1","","","18","18055","6591","&#9761;","elianto","#3366ff99","-1","-1","1","0","[]","0","0","2","","","","","","","",""
"pit-trial","41","675973","0.0-2.0-11.0-4.0","battery-v0.2","","""event"",""trial"",""time""
""fullscreenenter"",""1"",""2015""
","
","
","""event"",""trial"",""time""
""fullscreenenter"",""1"",""2015""
","
","","","-1","","","18","18055","6591","&#9761;","elianto","#3366ff99","-1","-1","1","+10","[]","0","0","2","","","","","","","",""
"pit-trial","42","680831","0.0-2.0-11.1-0.1","battery-v0.2","","""event"",""trial"",""time""
""fullscreenenter"",""1"",""2015""
","
","
","""event"",""trial"",""time""
""fullscreenenter"",""1"",""2015""
","
","","","-1","","","18","18055","6591","&#9761;","elianto","#3366ff99","-1","-1","1","+10","[]","0","0","2","","","","","","","",""
"pit-trial","43","685686","0.0-2.0-11.1-1.1","battery-v0.2","","""event"",""trial"",""time""
""fullscreenenter"",""1"",""2015""
","
","
","""event"",""trial"",""time""
""fullscreenenter"",""1"",""2015""
","
","","","-1","","","18","18055","6591","&#9761;","elianto","#3366ff99","-1","-1","1","+10","[]","0","0","2","","","","","","","",""
"pit-trial","44","690542","0.0-2.0-11.1-2.1","battery-v0.2","","""event"",""trial"",""time""
""fullscreenenter"",""1"",""2015""
","
","
","""event"",""trial"",""time""
""fullscreenenter"",""1"",""2015""
","
","","","-1","","","18","18055","6591","&#9761;","elianto","#3366ff99","-1","-1","1","+10","[]","0","0","2","","","","","","","",""
"pit-trial","45","695397","0.0-2.0-11.1-3.1","battery-v0.2","","""event"",""trial"",""time""
""fullscreenenter"",""1"",""2015""
","
","
","""event"",""trial"",""time""
""fullscreenenter"",""1"",""2015""
","
","","","-1","","","18","18055","6591","&#9761;","elianto","#3366ff99","-1","-1","1","0","[]","0","0","2","","","","","","","",""
"pit-trial","46","700253","0.0-2.0-11.1-4.1","battery-v0.2","","""event"",""trial"",""time""
""fullscreenenter"",""1"",""2015""
","
","
","""event"",""trial"",""time""
""fullscreenenter"",""1"",""2015""
","
","","","-1","","","18","18055","6591","&#9761;","elianto","#3366ff99","-1","-1","1","+10","[]","0","0","2","","","","","","","",""
"pit-trial","47","705110","0.0-2.0-11.2-0.2","battery-v0.2","","""event"",""trial"",""time""
""fullscreenenter"",""1"",""2015""
","
","
","""event"",""trial"",""time""
""fullscreenenter"",""1"",""2015""
","
","","","-1","","","18","18055","6591","&#9761;","elianto","#3366ff99","-1","-1","1","+10","[]","0","0","2","","","","","","","",""
"pit-trial","48","709967","0.0-2.0-11.2-1.2","battery-v0.2","","""event"",""trial"",""time""
""fullscreenenter"",""1"",""2015""
","
","
","""event"",""trial"",""time""
""fullscreenenter"",""1"",""2015""
","
","","","-1","","","18","18055","6591","&#9761;","elianto","#3366ff99","-1","-1","1","+10","[]","0","0","2","","","","","","","",""
"pit-trial","49","714822","0.0-2.0-11.2-2.2","battery-v0.2","","""event"",""trial"",""time""
""fullscreenenter"",""1"",""2015""
","
","
","""event"",""trial"",""time""
""fullscreenenter"",""1"",""2015""
","
","","","-1","","","18","18055","6591","&#9761;","elianto","#3366ff99","-1","-1","1","+10","[]","0","0","2","","","","","","","",""
"pit-trial","50","719677","0.0-2.0-11.2-3.2","battery-v0.2","","""event"",""trial"",""time""
""fullscreenenter"",""1"",""2015""
","
","
","""event"",""trial"",""time""
""fullscreenenter"",""1"",""2015""
","
","","","-1","","","18","18055","6591","&#9761;","elianto","#3366ff99","-1","-1","1","0","[]","0","0","2","","","","","","","",""
"pit-trial","51","724533","0.0-2.0-11.2-4.2","battery-v0.2","","""event"",""trial"",""time""
""fullscreenenter"",""1"",""2015""
","
","
","""event"",""trial"",""time""
""fullscreenenter"",""1"",""2015""
","
","","","-1","","","18","18055","6591","&#9761;","elianto","#3366ff99","-1","-1","1","+10","[]","0","0","2","","","","","","","",""
"pit-trial","52","729390","0.0-2.0-11.3-0.3","battery-v0.2","","""event"",""trial"",""time""
""fullscreenenter"",""1"",""2015""
","
","
","""event"",""trial"",""time""
""fullscreenenter"",""1"",""2015""
","
","","","-1","","","18","18055","6591","&#9761;","elianto","#3366ff99","-1","-1","1","+10","[]","0","0","2","","","","","","","",""
"pit-trial","53","734244","0.0-2.0-11.3-1.3","battery-v0.2","","""event"",""trial"",""time""
""fullscreenenter"",""1"",""2015""
","
","
","""event"",""trial"",""time""
""fullscreenenter"",""1"",""2015""
","
","","","-1","","","18","18055","6591","&#9761;","elianto","#3366ff99","-1","-1","1","+10","[]","0","0","2","","","","","","","",""
"pit-trial","54","739099","0.0-2.0-11.3-2.3","battery-v0.2","","""event"",""trial"",""time""
""fullscreenenter"",""1"",""2015""
","
","
","""event"",""trial"",""time""
""fullscreenenter"",""1"",""2015""
","
","","","-1","","","18","18055","6591","&#9761;","elianto","#3366ff99","-1","-1","1","+10","[]","0","0","2","","","","","","","",""
"pit-trial","55","743954","0.0-2.0-11.3-3.3","battery-v0.2","","""event"",""trial"",""time""
""fullscreenenter"",""1"",""2015""
","
","
","""event"",""trial"",""time""
""fullscreenenter"",""1"",""2015""
","
","","","-1","","","18","18055","6591","&#9761;","elianto","#3366ff99","-1","-1","1","0","[]","0","0","2","","","","","","","",""
"pit-trial","56","748810","0.0-2.0-11.3-4.3","battery-v0.2","","""event"",""trial"",""time""
""fullscreenenter"",""1"",""2015""
","
","
","""event"",""trial"",""time""
""fullscreenenter"",""1"",""2015""
","
","","","-1","","","18","18055","6591","&#9761;","elianto","#3366ff99","-1","-1","1","+10","[]","0","0","2","","","","","","","",""
"call-function","57","748813","0.0-2.0-12.0","battery-v0.2","","""event"",""trial"",""time""
""fullscreenenter"",""1"",""2015""
","
","
","""event"",""trial"",""time""
""fullscreenenter"",""1"",""2015""
","
","","","","","","","","","","","","","","","","","","","","","","","","","","",""
"pit-instructions","58","810903","0.0-2.0-13.0","battery-v0.2","","""event"",""trial"",""time""
""fullscreenenter"",""1"",""2015""
","
","
","""event"",""trial"",""time""
""fullscreenenter"",""1"",""2015""
","
","","[{""page_index"":0,""viewing_time"":6575.600000143051},{""page_index"":1,""viewing_time"":15230},{""page_index"":2,""viewing_time"":12799.5},{""page_index"":3,""viewing_time"":16193.5},{""page_index"":4,""viewing_time"":11290.099999904633}]","62089.10000014305","","","","","","","","","","","","","","","","","","","","","","","",""
"pit-trial","59","814716","0.0-2.0-14.0-0.0","battery-v0.2","","""event"",""trial"",""time""
""fullscreenenter"",""1"",""2015""
","
","
","""event"",""trial"",""time""
""fullscreenenter"",""1"",""2015""
","
","","","958.1000001430511","","","18","18055","6591","&#9826;","elianto","#f73b6a7A","-1"," ","0","-10","[1808.5]","1","0","3","","","","","","","",""
"pit-trial","60","819573","0.0-2.0-14.0-1.0","battery-v0.2","","""event"",""trial"",""time""
""fullscreenenter"",""1"",""2015""
","
","
","""event"",""trial"",""time""
""fullscreenenter"",""1"",""2015""
","
","","","-1","","","18","18055","6591","&#9826;","elianto","#f73b6a7A","-1","-1","1","0","[]","0","0","3","","","","","","","",""
"pit-trial","61","824429","0.0-2.0-14.0-2.0","battery-v0.2","","""event"",""trial"",""time""
""fullscreenenter"",""1"",""2015""
","
","
","""event"",""trial"",""time""
""fullscreenenter"",""1"",""2015""
","
","","","-1","","","18","18055","6591","&#9826;","elianto","#f73b6a7A","-1","-1","1","0","[]","0","0","3","","","","","","","",""
"pit-trial","62","829284","0.0-2.0-14.0-3.0","battery-v0.2","","""event"",""trial"",""time""
""fullscreenenter"",""1"",""2015""
","
","
","""event"",""trial"",""time""
""fullscreenenter"",""1"",""2015""
","
","","","-1","","","18","18055","6591","&#9826;","elianto","#f73b6a7A","-1","-1","1","-10","[]","0","0","3","","","","","","","",""
"pit-trial","63","834139","0.0-2.0-14.0-4.0","battery-v0.2","","""event"",""trial"",""time""
""fullscreenenter"",""1"",""2015""
","
","
","""event"",""trial"",""time""
""fullscreenenter"",""1"",""2015""
","
","","","-1","","","18","18055","6591","&#9826;","elianto","#f73b6a7A","-1","-1","1","0","[]","0","0","3","","","","","","","",""
"pit-trial","64","838998","0.0-2.0-14.1-0.1","battery-v0.2","","""event"",""trial"",""time""
""fullscreenenter"",""1"",""2015""
","
","
","""event"",""trial"",""time""
""fullscreenenter"",""1"",""2015""
","
","","","-1","","","18","18055","6591","&#9826;","elianto","#f73b6a7A","-1","-1","1","0","[]","0","0","3","","","","","","","",""
"pit-trial","65","843854","0.0-2.0-14.1-1.1","battery-v0.2","","""event"",""trial"",""time""
""fullscreenenter"",""1"",""2015""
","
","
","""event"",""trial"",""time""
""fullscreenenter"",""1"",""2015""
","
","","","-1","","","18","18055","6591","&#9826;","elianto","#f73b6a7A","-1","-1","1","0","[]","0","0","3","","","","","","","",""
"pit-trial","66","848710","0.0-2.0-14.1-2.1","battery-v0.2","","""event"",""trial"",""time""
""fullscreenenter"",""1"",""2015""
","
","
","""event"",""trial"",""time""
""fullscreenenter"",""1"",""2015""
","
","","","-1","","","18","18055","6591","&#9826;","elianto","#f73b6a7A","-1","-1","1","0","[]","0","0","3","","","","","","","",""
"pit-trial","67","853565","0.0-2.0-14.1-3.1","battery-v0.2","","""event"",""trial"",""time""
""fullscreenenter"",""1"",""2015""
","
","
","""event"",""trial"",""time""
""fullscreenenter"",""1"",""2015""
","
","","","-1","","","18","18055","6591","&#9826;","elianto","#f73b6a7A","-1","-1","1","-10","[]","0","0","3","","","","","","","",""
"pit-trial","68","856831","0.0-2.0-14.1-4.1","battery-v0.2","","""event"",""trial"",""time""
""fullscreenenter"",""1"",""2015""
","
","
","""event"",""trial"",""time""
""fullscreenenter"",""1"",""2015""
","
","","","410.5","","","18","18055","6591","&#9826;","elianto","#f73b6a7A","-1"," ","0","-10","[1260.5999999046326]","1","0","3","","","","","","","",""
"pit-trial","69","861688","0.0-2.0-14.2-0.2","battery-v0.2","","""event"",""trial"",""time""
""fullscreenenter"",""1"",""2015""
","
","
","""event"",""trial"",""time""
""fullscreenenter"",""1"",""2015""
","
","","","-1","","","18","18055","6591","&#9826;","elianto","#f73b6a7A","-1","-1","1","0","[]","0","0","3","","","","","","","",""
"pit-trial","70","866544","0.0-2.0-14.2-1.2","battery-v0.2","","""event"",""trial"",""time""
""fullscreenenter"",""1"",""2015""
","
","
","""event"",""trial"",""time""
""fullscreenenter"",""1"",""2015""
","
","","","-1","","","18","18055","6591","&#9826;","elianto","#f73b6a7A","-1","-1","1","0","[]","0","0","3","","","","","","","",""
"pit-trial","71","871399","0.0-2.0-14.2-2.2","battery-v0.2","","""event"",""trial"",""time""
""fullscreenenter"",""1"",""2015""
","
","
","""event"",""trial"",""time""
""fullscreenenter"",""1"",""2015""
","
","","","-1","","","18","18055","6591","&#9826;","elianto","#f73b6a7A","-1","-1","1","0","[]","0","0","3","","","","","","","",""
"pit-trial","72","876254","0.0-2.0-14.2-3.2","battery-v0.2","","""event"",""trial"",""time""
""fullscreenenter"",""1"",""2015""
","
","
","""event"",""trial"",""time""
""fullscreenenter"",""1"",""2015""
","
","","","-1","","","18","18055","6591","&#9826;","elianto","#f73b6a7A","-1","-1","1","-10","[]","0","0","3","","","","","","","",""
"pit-trial","73","881110","0.0-2.0-14.2-4.2","battery-v0.2","","""event"",""trial"",""time""
""fullscreenenter"",""1"",""2015""
","
","
","""event"",""trial"",""time""
""fullscreenenter"",""1"",""2015""
","
","","","-1","","","18","18055","6591","&#9826;","elianto","#f73b6a7A","-1","-1","1","0","[]","0","0","3","","","","","","","",""
"pit-trial","74","885966","0.0-2.0-14.3-0.3","battery-v0.2","","""event"",""trial"",""time""
""fullscreenenter"",""1"",""2015""
","
","
","""event"",""trial"",""time""
""fullscreenenter"",""1"",""2015""
","
","","","-1","","","18","18055","6591","&#9826;","elianto","#f73b6a7A","-1","-1","1","0","[]","0","0","3","","","","","","","",""
"pit-trial","75","890822","0.0-2.0-14.3-1.3","battery-v0.2","","""event"",""trial"",""time""
""fullscreenenter"",""1"",""2015""
","
","
","""event"",""trial"",""time""
""fullscreenenter"",""1"",""2015""
","
","","","-1","","","18","18055","6591","&#9826;","elianto","#f73b6a7A","-1","-1","1","0","[]","0","0","3","","","","","","","",""
"pit-trial","76","895678","0.0-2.0-14.3-2.3","battery-v0.2","","""event"",""trial"",""time""
""fullscreenenter"",""1"",""2015""
","
","
","""event"",""trial"",""time""
""fullscreenenter"",""1"",""2015""
","
","","","-1","","","18","18055","6591","&#9826;","elianto","#f73b6a7A","-1","-1","1","0","[]","0","0","3","","","","","","","",""
"pit-trial","77","900534","0.0-2.0-14.3-3.3","battery-v0.2","","""event"",""trial"",""time""
""fullscreenenter"",""1"",""2015""
","
","
","""event"",""trial"",""time""
""fullscreenenter"",""1"",""2015""
","
","","","-1","","","18","18055","6591","&#9826;","elianto","#f73b6a7A","-1","-1","1","-10","[]","0","0","3","","","","","","","",""
"pit-trial","78","905390","0.0-2.0-14.3-4.3","battery-v0.2","","""event"",""trial"",""time""
""fullscreenenter"",""1"",""2015""
","
","
","""event"",""trial"",""time""
""fullscreenenter"",""1"",""2015""
","
","","","-1","","","18","18055","6591","&#9826;","elianto","#f73b6a7A","-1","-1","1","0","[]","0","0","3","","","","","","","",""
"call-function","79","905392","0.0-2.0-15.0","battery-v0.2","","""event"",""trial"",""time""
""fullscreenenter"",""1"",""2015""
","
","
","""event"",""trial"",""time""
""fullscreenenter"",""1"",""2015""
","
","","","","","","","","","","","","","","","","","","","","","","","","","","",""
"pit-instructions","80","984592","0.0-2.0-16.0","battery-v0.2","","""event"",""trial"",""time""
""fullscreenenter"",""1"",""2015""
","
","
","""event"",""trial"",""time""
""fullscreenenter"",""1"",""2015""
","
","","[{""page_index"":0,""viewing_time"":28667.700000047684},{""page_index"":1,""viewing_time"":8998},{""page_index"":2,""viewing_time"":36662.89999985695},{""page_index"":3,""viewing_time"":4870.600000143051}]","79199.59999990463","","","","","","","","","","","","","","","","","","","","","","","",""
"pit-trial","81","988207","0.0-2.0-17.0-0.0","battery-v0.2","","""event"",""trial"",""time""
""fullscreenenter"",""1"",""2015""
","
","
","""event"",""trial"",""time""
""fullscreenenter"",""1"",""2015""
","
","","","758.2000000476837","","","18","18055","6591","&#9789;","elianto","#f73b6a7A"," "," ","1","0","[1609.8000001907349]","1","0","4","","","","","","","",""
"pit-trial","82","991602","0.0-2.0-17.0-1.0","battery-v0.2","","""event"",""trial"",""time""
""fullscreenenter"",""1"",""2015""
","
","
","""event"",""trial"",""time""
""fullscreenenter"",""1"",""2015""
","
","","","540","","","18","18055","6591","&#9789;","elianto","#f73b6a7A"," "," ","1","0","[1391.5]","1","0","4","","","","","","","",""
"pit-trial","83","994908","0.0-2.0-17.0-2.0","battery-v0.2","","""event"",""trial"",""time""
""fullscreenenter"",""1"",""2015""
","
","
","""event"",""trial"",""time""
""fullscreenenter"",""1"",""2015""
","
","","","450.19999980926514","","","18","18055","6591","&#9789;","elianto","#f73b6a7A"," "," ","1","0","[1300.8999998569489]","1","0","4","","","","","","","",""
"pit-trial","84","998848","0.0-2.0-17.0-3.0","battery-v0.2","","""event"",""trial"",""time""
""fullscreenenter"",""1"",""2015""
","
","
","""event"",""trial"",""time""
""fullscreenenter"",""1"",""2015""
","
","","","1083.2000000476837","","","18","18055","6591","&#9789;","elianto","#f73b6a7A"," "," ","1","-10","[1934.9000000953674]","1","0","4","","","","","","","",""
"pit-trial","85","1002141","0.0-2.0-17.0-4.0","battery-v0.2","","""event"",""trial"",""time""
""fullscreenenter"",""1"",""2015""
","
","
","""event"",""trial"",""time""
""fullscreenenter"",""1"",""2015""
","
","","","438.09999990463257","","","18","18055","6591","&#9789;","elianto","#f73b6a7A"," "," ","1","0","[1289.7000000476837]","1","0","4","","","","","","","",""
"pit-trial","86","1005327","0.0-2.0-17.1-0.1","battery-v0.2","","""event"",""trial"",""time""
""fullscreenenter"",""1"",""2015""
","
","
","""event"",""trial"",""time""
""fullscreenenter"",""1"",""2015""
","
","","","330.5","","","18","18055","6591","&#9789;","elianto","#f73b6a7A"," "," ","1","0","[1182.0999999046326]","1","0","4","","","","","","","",""
"pit-trial","87","1008579","0.0-2.0-17.1-1.1","battery-v0.2","","""event"",""trial"",""time""
""fullscreenenter"",""1"",""2015""
","
","
","""event"",""trial"",""time""
""fullscreenenter"",""1"",""2015""
","
","","","397","","","18","18055","6591","&#9789;","elianto","#f73b6a7A"," "," ","1","0","[1248]","1","0","4","","","","","","","",""
"pit-trial","88","1011907","0.0-2.0-17.1-2.1","battery-v0.2","","""event"",""trial"",""time""
""fullscreenenter"",""1"",""2015""
","
","
","""event"",""trial"",""time""
""fullscreenenter"",""1"",""2015""
","
","","","472.09999990463257","","","18","18055","6591","&#9789;","elianto","#f73b6a7A"," "," ","1","0","[1322.8999998569489]","1","0","4","","","","","","","",""
"pit-trial","89","1016762","0.0-2.0-17.1-3.1","battery-v0.2","","""event"",""trial"",""time""
""fullscreenenter"",""1"",""2015""
","
","
","""event"",""trial"",""time""
""fullscreenenter"",""1"",""2015""
","
","","","-1","","","18","18055","6591","&#9789;","elianto","#f73b6a7A"," ","-1","0","0","[]","0","0","4","","","","","","","",""
"pit-trial","90","1020509","0.0-2.0-17.1-4.1","battery-v0.2","","""event"",""trial"",""time""
""fullscreenenter"",""1"",""2015""
","
","
","""event"",""trial"",""time""
""fullscreenenter"",""1"",""2015""
","
","","","892.0999999046326","","","18","18055","6591","&#9789;","elianto","#f73b6a7A"," "," ","1","0","[1743.5]","1","0","4","","","","","","","",""
"pit-trial","91","1024076","0.0-2.0-17.2-0.2","battery-v0.2","","""event"",""trial"",""time""
""fullscreenenter"",""1"",""2015""
","
","
","""event"",""trial"",""time""
""fullscreenenter"",""1"",""2015""
","
","","","709.0999999046326","","","18","18055","6591","&#9789;","elianto","#f73b6a7A"," "," ","1","0","[1560.9000000953674]","1","0","4","","","","","","","",""
"pit-trial","92","1027453","0.0-2.0-17.2-1.2","battery-v0.2","","""event"",""trial"",""time""
""fullscreenenter"",""1"",""2015""
","
","
","""event"",""trial"",""time""
""fullscreenenter"",""1"",""2015""
","
","","","520.7000000476837","","","18","18055","6591","&#9789;","elianto","#f73b6a7A"," "," ","1","0","[1372.7000000476837]","1","0","4","","","","","","","",""
"pit-trial","93","1031367","0.0-2.0-17.2-2.2","battery-v0.2","","""event"",""trial"",""time""
""fullscreenenter"",""1"",""2015""
","
","
","""event"",""trial"",""time""
""fullscreenenter"",""1"",""2015""
","
","","","1058.5","","","18","18055","6591","&#9789;","elianto","#f73b6a7A"," "," ","1","0","[1909.8999998569489]","1","0","4","","","","","","","",""
"pit-trial","94","1035801","0.0-2.0-17.2-3.2","battery-v0.2","","""event"",""trial"",""time""
""fullscreenenter"",""1"",""2015""
","
","
","""event"",""trial"",""time""
""fullscreenenter"",""1"",""2015""
","
","","","1580.7000000476837","","","18","18055","6591","&#9789;","elianto","#f73b6a7A"," "," ","1","-10","[2430.800000190735]","1","0","4","","","","","","","",""
"pit-trial","95","1039074","0.0-2.0-17.2-4.2","battery-v0.2","","""event"",""trial"",""time""
""fullscreenenter"",""1"",""2015""
","
","
","""event"",""trial"",""time""
""fullscreenenter"",""1"",""2015""
","
","","","417.80000019073486","","","18","18055","6591","&#9789;","elianto","#f73b6a7A"," "," ","1","0","[1268.7000000476837,2346.399999856949,2728.2000000476837,2984.0999999046326]","4","0","4","","","","","","","",""
"pit-trial","96","1042375","0.0-2.0-17.3-0.3","battery-v0.2","","""event"",""trial"",""time""
""fullscreenenter"",""1"",""2015""
","
","
","""event"",""trial"",""time""
""fullscreenenter"",""1"",""2015""
","
","","","444.2999999523163","","","18","18055","6591","&#9789;","elianto","#f73b6a7A"," "," ","1","0","[1295.2000000476837]","1","0","4","","","","","","","",""
"pit-trial","97","1045669","0.0-2.0-17.3-1.3","battery-v0.2","","""event"",""trial"",""time""
""fullscreenenter"",""1"",""2015""
","
","
","""event"",""trial"",""time""
""fullscreenenter"",""1"",""2015""
","
","","","437.7000000476837","","","18","18055","6591","&#9789;","elianto","#f73b6a7A"," "," ","1","0","[1288.7000000476837]","1","0","4","","","","","","","",""
"pit-trial","98","1049083","0.0-2.0-17.3-2.3","battery-v0.2","","""event"",""trial"",""time""
""fullscreenenter"",""1"",""2015""
","
","
","""event"",""trial"",""time""
""fullscreenenter"",""1"",""2015""
","
","","","559.2000000476837","","","18","18055","6591","&#9789;","elianto","#f73b6a7A"," "," ","1","0","[1410.7000000476837]","1","0","4","","","","","","","",""
"pit-trial","99","1052708","0.0-2.0-17.3-3.3","battery-v0.2","","""event"",""trial"",""time""
""fullscreenenter"",""1"",""2015""
","
","
","""event"",""trial"",""time""
""fullscreenenter"",""1"",""2015""
","
","","","770.3000001907349","","","18","18055","6591","&#9789;","elianto","#f73b6a7A"," "," ","1","-10","[1621.4000000953674]","1","0","4","","","","","","","",""
"pit-trial","100","1056902","0.0-2.0-17.3-4.3","battery-v0.2","","""event"",""trial"",""time""
""fullscreenenter"",""1"",""2015""
","
","
","""event"",""trial"",""time""
""fullscreenenter"",""1"",""2015""
","
","","","1337.0999999046326","","","18","18055","6591","&#9789;","elianto","#f73b6a7A"," "," ","1","0","[2188.5999999046326]","1","0","4","","","","","","","",""
"call-function","101","1056905","0.0-2.0-18.0","battery-v0.2","","""event"",""trial"",""time""
""fullscreenenter"",""1"",""2015""
","
","
","""event"",""trial"",""time""
""fullscreenenter"",""1"",""2015""
","
","","","","","","","","","","","","","","","","","","","","","","","","","","",""
"pit-instructions","102","1176048","0.0-2.0-19.0","battery-v0.2","","""event"",""trial"",""time""
""fullscreenenter"",""1"",""2015""
","
","
","""event"",""trial"",""time""
""fullscreenenter"",""1"",""2015""
","
","","[{""page_index"":0,""viewing_time"":9762.5},{""page_index"":1,""viewing_time"":8158.399999856949},{""page_index"":2,""viewing_time"":14385.100000143051},{""page_index"":3,""viewing_time"":9337.299999952316},{""page_index"":4,""viewing_time"":16320.200000047684},{""page_index"":5,""viewing_time"":9544.299999952316},{""page_index"":6,""viewing_time"":29143.599999904633},{""page_index"":7,""viewing_time"":17058.700000047684},{""page_index"":8,""viewing_time"":5430.599999904633}]","119141.5","","","","","","","","","","","","","","","","","","","","","","","",""
"pit-comprehension","103","1180700","0.0-2.0-20.0-0.0","battery-v0.2","","""event"",""trial"",""time""
""fullscreenenter"",""1"",""2015""
","
","
","""event"",""trial"",""time""
""fullscreenenter"",""1"",""2015""
","
","","","4646.400000095367","[""SPACE""]","0","18","18055","6591","","","","","","","","","","","","","","","","","","",""
"pit-instructions","104","1185029","0.0-2.0-20.0-1.0","battery-v0.2","","""event"",""trial"",""time""
""fullscreenenter"",""1"",""2015""
","
","
","""event"",""trial"",""time""
""fullscreenenter"",""1"",""2015""
","
","","[{""page_index"":0,""viewing_time"":4306.199999809265}]","4306.5","","","","","","","","","","","","","","","","","","","","","","","",""
"pit-comprehension","105","1205004","0.0-2.0-21.0-0.0","battery-v0.2","","""event"",""trial"",""time""
""fullscreenenter"",""1"",""2015""
","
","
","""event"",""trial"",""time""
""fullscreenenter"",""1"",""2015""
","
","","","19971.900000095367","[""10""]","0","18","18055","6591","","","","","","","","","","","","","","","","","","",""
"pit-instructions","106","1207306","0.0-2.0-21.0-1.0","battery-v0.2","","""event"",""trial"",""time""
""fullscreenenter"",""1"",""2015""
","
","
","""event"",""trial"",""time""
""fullscreenenter"",""1"",""2015""
","
","","[{""page_index"":0,""viewing_time"":2277.5}]","2277.7999999523163","","","","","","","","","","","","","","","","","","","","","","","",""
"pit-comprehension","107","1213841","0.0-2.0-22.0-0.0","battery-v0.2","","""event"",""trial"",""time""
""fullscreenenter"",""1"",""2015""
","
","
","""event"",""trial"",""time""
""fullscreenenter"",""1"",""2015""
","
","","","6532.799999952316","[""0""]","0","18","18055","6591","","","","","","","","","","","","","","","","","","",""
"pit-instructions","108","1217754","0.0-2.0-22.0-1.0","battery-v0.2","","""event"",""trial"",""time""
""fullscreenenter"",""1"",""2015""
","
","
","""event"",""trial"",""time""
""fullscreenenter"",""1"",""2015""
","
","","[{""page_index"":0,""viewing_time"":3903.2000000476837}]","3903.600000143051","","","","","","","","","","","","","","","","","","","","","","","",""
"pit-comprehension","109","1226458","0.0-2.0-23.0-0.0","battery-v0.2","","""event"",""trial"",""time""
""fullscreenenter"",""1"",""2015""
","
","
","""event"",""trial"",""time""
""fullscreenenter"",""1"",""2015""
","
","","","8699.299999952316","[""True""]","0","18","18055","6591","","","","","","","","","","","","","","","","","","",""
"pit-instructions","110","1230772","0.0-2.0-23.0-1.0","battery-v0.2","","""event"",""trial"",""time""
""fullscreenenter"",""1"",""2015""
","
","
","""event"",""trial"",""time""
""fullscreenenter"",""1"",""2015""
","
","","[{""page_index"":0,""viewing_time"":4286.299999952316}]","4286.600000143051","","","","","","","","","","","","","","","","","","","","","","","",""
"pit-comprehension","111","1239466","0.0-2.0-24.0-0.0","battery-v0.2","","""event"",""trial"",""time""
""fullscreenenter"",""1"",""2015""
","
","
","""event"",""trial"",""time""
""fullscreenenter"",""1"",""2015""
","
","","","8691.5","[""True""]","0","18","18055","6591","","","","","","","","","","","","","","","","","","",""
"pit-instructions","112","1244018","0.0-2.0-24.0-1.0","battery-v0.2","","""event"",""trial"",""time""
""fullscreenenter"",""1"",""2015""
","
","
","""event"",""trial"",""time""
""fullscreenenter"",""1"",""2015""
","
","","[{""page_index"":0,""viewing_time"":4540.799999952316}]","4541","","","","","","","","","","","","","","","","","","","","","","","",""
"pit-comprehension","113","1251462","0.0-2.0-25.0-0.0","battery-v0.2","","""event"",""trial"",""time""
""fullscreenenter"",""1"",""2015""
","
","
","""event"",""trial"",""time""
""fullscreenenter"",""1"",""2015""
","
","","","7442.199999809265","[""True""]","0","18","18055","6591","","","","","","","","","","","","","","","","","","",""
"pit-instructions","114","1262299","0.0-2.0-25.0-1.0","battery-v0.2","","""event"",""trial"",""time""
""fullscreenenter"",""1"",""2015""
","
","
","""event"",""trial"",""time""
""fullscreenenter"",""1"",""2015""
","
","","[{""page_index"":0,""viewing_time"":10810.900000095367}]","10811.200000047684","","","","","","","","","","","","","","","","","","","","","","","",""
"pit-comprehension","115","1301238","0.0-2.0-26.0-0.0","battery-v0.2","","""event"",""trial"",""time""
""fullscreenenter"",""1"",""2015""
","
","
","""event"",""trial"",""time""
""fullscreenenter"",""1"",""2015""
","
","","","38935.89999985695","[""False""]","0","18","18055","6591","","","","","","","","","","","","","","","","","","",""
"pit-instructions","116","1304091","0.0-2.0-26.0-1.0","battery-v0.2","","""event"",""trial"",""time""
""fullscreenenter"",""1"",""2015""
","
","
","""event"",""trial"",""time""
""fullscreenenter"",""1"",""2015""
","
","","[{""page_index"":0,""viewing_time"":2832.7000000476837}]","2833.100000143051","","","","","","","","","","","","","","","","","","","","","","","",""
"pit-instructions","117","1319126","0.0-3.0","battery-v0.2","","""event"",""trial"",""time""
""fullscreenenter"",""1"",""2015""
","
","
","""event"",""trial"",""time""
""fullscreenenter"",""1"",""2015""
","
","","[{""page_index"":0,""viewing_time"":3937.9000000953674},{""page_index"":1,""viewing_time"":5051.799999952316},{""page_index"":2,""viewing_time"":6042.200000047684}]","15032","","","","","","","","","","","","","","","","","","","","","","","",""
"pit-trial","118","1323983","0.0-4.0","battery-v0.2","","""event"",""trial"",""time""
""fullscreenenter"",""1"",""2015""
","
","
","""event"",""trial"",""time""
""fullscreenenter"",""1"",""2015""
","
","","","-1","","","18","18055","6591","&#9752;","elianto","#f73b6a7A"," ","-1","0","-10","[]","0","1","","","18055","1","3","3","lose","go","0"
"pit-trial","119","1327707","0.0-5.0","battery-v0.2","","""event"",""trial"",""time""
""fullscreenenter"",""1"",""2015""
","
","
","""event"",""trial"",""time""
""fullscreenenter"",""1"",""2015""
","
","","","868.7999999523163","","","18","18055","6591","&#9730;","elianto","#3366ff99"," "," ","1","+10","[1719.9000000953674]","1","1","","","18055","2","1","1","win","go","0"
"pit-trial","120","1332563","0.0-6.0","battery-v0.2","","""event"",""trial"",""time""
""fullscreenenter"",""1"",""2015""
","
","
","""event"",""trial"",""time""
""fullscreenenter"",""1"",""2015""
","
","","","-1","","","18","18055","6591","&#9733;","elianto","#3366ff99","-1","-1","1","+10","[]","0","1","","","18055","3","2","2","win","no-go","0"
"pit-trial","121","1336904","0.0-7.0","battery-v0.2","","""event"",""trial"",""time""
""fullscreenenter"",""1"",""2015""
","
","
","""event"",""trial"",""time""
""fullscreenenter"",""1"",""2015""
","
","","","1486.7000000476837","","","18","18055","6591","&#9728;","elianto","#f73b6a7A","-1"," ","0","-10","[2336.7000000476837]","1","1","","","18055","4","0","4","lose","no-go","0"
"pit-trial","122","1341760","0.0-8.0","battery-v0.2","","""event"",""trial"",""time""
""fullscreenenter"",""1"",""2015""
","
","
","""event"",""trial"",""time""
""fullscreenenter"",""1"",""2015""
","
","","","-1","","","18","18055","6591","&#9733;","elianto","#3366ff99","-1","-1","1","+10","[]","0","1","","","18055","5","2","2","win","no-go","0"
"pit-trial","123","1346165","0.0-9.0","battery-v0.2","","""event"",""trial"",""time""
""fullscreenenter"",""1"",""2015""
","
","
","""event"",""trial"",""time""
""fullscreenenter"",""1"",""2015""
","
","","","1549.5","","","18","18055","6591","&#9728;","elianto","#f73b6a7A","-1"," ","0","-10","[2400.600000143051]","1","1","","","18055","6","0","4","lose","no-go","0"
"pit-trial","124","1350002","0.0-10.0","battery-v0.2","","""event"",""trial"",""time""
""fullscreenenter"",""1"",""2015""
","
","
","""event"",""trial"",""time""
""fullscreenenter"",""1"",""2015""
","
","","","981.2999999523163","","","18","18055","6591","&#9730;","elianto","#3366ff99"," "," ","1","+10","[1832.5]","1","1","","","18055","7","1","1","win","go","0"
"pit-trial","125","1353974","0.0-11.0","battery-v0.2","","""event"",""trial"",""time""
""fullscreenenter"",""1"",""2015""
","
","
","""event"",""trial"",""time""
""fullscreenenter"",""1"",""2015""
","
","","","1117.4000000953674","","","18","18055","6591","&#9752;","elianto","#f73b6a7A"," "," ","1","0","[1968]","1","1","","","18055","8","3","3","lose","go","0"
"pit-trial","126","1358830","0.0-12.0","battery-v0.2","","""event"",""trial"",""time""
""fullscreenenter"",""1"",""2015""
","
","
","""event"",""trial"",""time""
""fullscreenenter"",""1"",""2015""
","
","","","-1","","","18","18055","6591","&#9728;","elianto","#f73b6a7A","-1","-1","1","0","[]","0","1","","","18055","9","0","4","lose","no-go","0"
"pit-trial","127","1362874","0.0-13.0","battery-v0.2","","""event"",""trial"",""time""
""fullscreenenter"",""1"",""2015""
","
","
","""event"",""trial"",""time""
""fullscreenenter"",""1"",""2015""
","
","","","1189.2999999523163","","","18","18055","6591","&#9730;","elianto","#3366ff99"," "," ","1","+10","[2040.5]","1","1","","","18055","10","1","1","win","go","0"
"pit-trial","128","1367730","0.0-14.0","battery-v0.2","","""event"",""trial"",""time""
""fullscreenenter"",""1"",""2015""
","
","
","""event"",""trial"",""time""
""fullscreenenter"",""1"",""2015""
","
","","","-1","","","18","18055","6591","&#9733;","elianto","#3366ff99","-1","-1","1","+10","[]","0","1","","","18055","11","2","2","win","no-go","0"
"pit-trial","129","1371324","0.0-15.0","battery-v0.2","","""event"",""trial"",""time""
""fullscreenenter"",""1"",""2015""
","
","
","""event"",""trial"",""time""
""fullscreenenter"",""1"",""2015""
","
","","","738.7999999523163","","","18","18055","6591","&#9752;","elianto","#f73b6a7A"," "," ","1","-10","[1589.7999999523163]","1","1","","","18055","12","3","3","lose","go","1"
"pit-trial","130","1375707","0.0-16.0","battery-v0.2","","""event"",""trial"",""time""
""fullscreenenter"",""1"",""2015""
","
","
","""event"",""trial"",""time""
""fullscreenenter"",""1"",""2015""
","
","","","1528.2000000476837","","","18","18055","6591","&#9752;","elianto","#f73b6a7A"," "," ","1","-10","[2379.7000000476837]","1","1","","","18055","13","3","3","lose","go","1"
"pit-trial","131","1380563","0.0-17.0","battery-v0.2","","""event"",""trial"",""time""
""fullscreenenter"",""1"",""2015""
","
","
","""event"",""trial"",""time""
""fullscreenenter"",""1"",""2015""
","
","","","-1","","","18","18055","6591","&#9728;","elianto","#f73b6a7A","-1","-1","1","-10","[]","0","1","","","18055","14","0","4","lose","no-go","1"
"pit-trial","132","1385417","0.0-18.0","battery-v0.2","","""event"",""trial"",""time""
""fullscreenenter"",""1"",""2015""
","
","
","""event"",""trial"",""time""
""fullscreenenter"",""1"",""2015""
","
","","","-1","","","18","18055","6591","&#9733;","elianto","#3366ff99","-1","-1","1","+10","[]","0","1","","","18055","15","2","2","win","no-go","0"
"pit-trial","133","1389599","0.0-19.0","battery-v0.2","","""event"",""trial"",""time""
""fullscreenenter"",""1"",""2015""
","
","
","""event"",""trial"",""time""
""fullscreenenter"",""1"",""2015""
","
","","","1326.1000001430511","","","18","18055","6591","&#9730;","elianto","#3366ff99"," "," ","1","0","[2177.2000000476837]","1","1","","","18055","16","1","1","win","go","1"
"pit-trial","134","1393366","0.0-20.0","battery-v0.2","","""event"",""trial"",""time""
""fullscreenenter"",""1"",""2015""
","
","
","""event"",""trial"",""time""
""fullscreenenter"",""1"",""2015""
","
","","","912.5999999046326","","","18","18055","6591","&#9730;","elianto","#3366ff99"," "," ","1","+10","[1763.5]","1","1","","","18055","17","1","1","win","go","0"
"pit-trial","135","1398221","0.0-21.0","battery-v0.2","","""event"",""trial"",""time""
""fullscreenenter"",""1"",""2015""
","
","
","""event"",""trial"",""time""
""fullscreenenter"",""1"",""2015""
","
","","","-1","","","18","18055","6591","&#9728;","elianto","#f73b6a7A","-1","-1","1","0","[]","0","1","","","18055","18","0","4","lose","no-go","0"
"pit-trial","136","1403077","0.0-22.0","battery-v0.2","","""event"",""trial"",""time""
""fullscreenenter"",""1"",""2015""
","
","
","""event"",""trial"",""time""
""fullscreenenter"",""1"",""2015""
","
","","","-1","","","18","18055","6591","&#9733;","elianto","#3366ff99","-1","-1","1","0","[]","0","1","","","18055","19","2","2","win","no-go","1"
"pit-trial","137","1407420","0.0-23.0","battery-v0.2","","""event"",""trial"",""time""
""fullscreenenter"",""1"",""2015""
","
","
","""event"",""trial"",""time""
""fullscreenenter"",""1"",""2015""
","
","","","1488.6000001430511","","","18","18055","6591","&#9752;","elianto","#f73b6a7A"," "," ","1","-10","[2340.300000190735]","1","1","","","18055","20","3","3","lose","go","1"
"pit-instructions","138","1444687","0.0-24.0","battery-v0.2","","""event"",""trial"",""time""
""fullscreenenter"",""1"",""2015""
","
","
","""event"",""trial"",""time""
""fullscreenenter"",""1"",""2015""
","
","","[{""page_index"":0,""viewing_time"":6008.799999952316},{""page_index"":1,""viewing_time"":31256.200000047684}]","37265.200000047684","","","","","","","","","","","","","","","","","","","","","","","",""
"pit-trial","139","1449543","0.0-25.0","battery-v0.2","","""event"",""trial"",""time""
""fullscreenenter"",""1"",""2015""
","
","
","""event"",""trial"",""time""
""fullscreenenter"",""1"",""2015""
","
","","","-1","","","18","18055","6591","f","elianto","#3366ff99"," ","-1","0","0","[]","0","2","","","18055","21","1","1","win","go","0"
"pit-trial","140","1454400","0.0-26.0","battery-v0.2","","""event"",""trial"",""time""
""fullscreenenter"",""1"",""2015""
","
","
","""event"",""trial"",""time""
""fullscreenenter"",""1"",""2015""
","
","","","-1","","","18","18055","6591","t","elianto","#f73b6a7A","-1","-1","1","0","[]","0","2","","","18055","22","2","4","lose","no-go","0"
"pit-trial","141","1458294","0.0-27.0","battery-v0.2","","""event"",""trial"",""time""
""fullscreenenter"",""1"",""2015""
","
","
","""event"",""trial"",""time""
""fullscreenenter"",""1"",""2015""
","
","","","1038.3999998569489","","","18","18055","6591","n","elianto","#f73b6a7A","-1"," ","0","-10","[1889.0999999046326]","1","2","","","18055","23","0","4","lose","no-go","0"
"pit-trial","142","1463150","0.0-28.0","battery-v0.2","","""event"",""trial"",""time""
""fullscreenenter"",""1"",""2015""
","
","
","""event"",""trial"",""time""
""fullscreenenter"",""1"",""2015""
","
","","","-1","","","18","18055","6591","b","elianto","#f73b6a7A"," ","-1","0","0","[]","0","2","","","18055","24","3","3","lose","go","1"
"pit-trial","143","1468007","0.0-29.0","battery-v0.2","","""event"",""trial"",""time""
""fullscreenenter"",""1"",""2015""
","
","
","""event"",""trial"",""time""
""fullscreenenter"",""1"",""2015""
","
","","","-1","","","18","18055","6591","b","elianto","#f73b6a7A"," ","-1","0","0","[]","0","2","","","18055","25","3","3","lose","go","1"
"pit-trial","144","1472863","0.0-30.0","battery-v0.2","","""event"",""trial"",""time""
""fullscreenenter"",""1"",""2015""
","
","
","""event"",""trial"",""time""
""fullscreenenter"",""1"",""2015""
","
","","","-1","","","18","18055","6591","n","elianto","#f73b6a7A","-1","-1","1","0","[]","0","2","","","18055","26","0","4","lose","no-go","0"
"pit-trial","145","1476682","0.0-31.0","battery-v0.2","","""event"",""trial"",""time""
""fullscreenenter"",""1"",""2015""
","
","
","""event"",""trial"",""time""
""fullscreenenter"",""1"",""2015""
","
","","","962.3000001907349","","","18","18055","6591","f","elianto","#3366ff99"," "," ","1","+10","[1813.7000000476837]","1","2","","","18055","27","1","1","win","go","0"
"pit-trial","146","1481538","0.0-32.0","battery-v0.2","","""event"",""trial"",""time""
""fullscreenenter"",""1"",""2015""
","
","
","""event"",""trial"",""time""
""fullscreenenter"",""1"",""2015""
","
","","","-1","","","18","18055","6591","t","elianto","#f73b6a7A","-1","-1","1","0","[]","0","2","","","18055","28","2","4","lose","no-go","0"
"pit-trial","147","1486394","0.0-33.0","battery-v0.2","","""event"",""trial"",""time""
""fullscreenenter"",""1"",""2015""
","
","
","""event"",""trial"",""time""
""fullscreenenter"",""1"",""2015""
","
","","","-1","","","18","18055","6591","t","elianto","#f73b6a7A","-1","-1","1","0","[]","0","2","","","18055","29","2","4","lose","no-go","0"
"pit-trial","148","1490063","0.0-34.0","battery-v0.2","","""event"",""trial"",""time""
""fullscreenenter"",""1"",""2015""
","
","
","""event"",""trial"",""time""
""fullscreenenter"",""1"",""2015""
","
","","","812.5999999046326","","","18","18055","6591","f","elianto","#3366ff99"," "," ","1","+10","[1664.5]","1","2","","","18055","30","1","1","win","go","0"
"pit-trial","149","1494919","0.0-35.0","battery-v0.2","","""event"",""trial"",""time""
""fullscreenenter"",""1"",""2015""
","
","
","""event"",""trial"",""time""
""fullscreenenter"",""1"",""2015""
","
","","","-1","","","18","18055","6591","b","elianto","#f73b6a7A"," ","-1","0","-10","[]","0","2","","","18055","31","3","3","lose","go","0"
"pit-trial","150","1499775","0.0-36.0","battery-v0.2","","""event"",""trial"",""time""
""fullscreenenter"",""1"",""2015""
","
","
","""event"",""trial"",""time""
""fullscreenenter"",""1"",""2015""
","
","","","-1","","","18","18055","6591","n","elianto","#f73b6a7A","-1","-1","1","0","[]","0","2","","","18055","32","0","4","lose","no-go","0"
"pit-trial","151","1503343","0.0-37.0","battery-v0.2","","""event"",""trial"",""time""
""fullscreenenter"",""1"",""2015""
","
","
","""event"",""trial"",""time""
""fullscreenenter"",""1"",""2015""
","
","","","712.7000000476837","","","18","18055","6591","b","elianto","#f73b6a7A"," "," ","1","0","[1563.8999998569489]","1","2","","","18055","33","3","3","lose","go","0"
"pit-trial","152","1508198","0.0-38.0","battery-v0.2","","""event"",""trial"",""time""
""fullscreenenter"",""1"",""2015""
","
","
","""event"",""trial"",""time""
""fullscreenenter"",""1"",""2015""
","
","","","-1","","","18","18055","6591","n","elianto","#f73b6a7A","-1","-1","1","0","[]","0","2","","","18055","34","0","4","lose","no-go","0"
"pit-trial","153","1511916","0.0-39.0","battery-v0.2","","""event"",""trial"",""time""
""fullscreenenter"",""1"",""2015""
","
","
","""event"",""trial"",""time""
""fullscreenenter"",""1"",""2015""
","
","","","864","","","18","18055","6591","f","elianto","#3366ff99"," "," ","1","+10","[1714.3999998569489]","1","2","","","18055","35","1","1","win","go","0"
"pit-trial","154","1516771","0.0-40.0","battery-v0.2","","""event"",""trial"",""time""
""fullscreenenter"",""1"",""2015""
","
","
","""event"",""trial"",""time""
""fullscreenenter"",""1"",""2015""
","
","","","-1","","","18","18055","6591","t","elianto","#f73b6a7A","-1","-1","1","-10","[]","0","2","","","18055","36","2","4","lose","no-go","1"
"pit-trial","155","1520217","0.0-41.0","battery-v0.2","","""event"",""trial"",""time""
""fullscreenenter"",""1"",""2015""
","
","
","""event"",""trial"",""time""
""fullscreenenter"",""1"",""2015""
","
","","","589.2000000476837","","","18","18055","6591","f","elianto","#3366ff99"," "," ","1","0","[1441]","1","2","","","18055","37","1","1","win","go","1"
"pit-trial","156","1525074","0.0-42.0","battery-v0.2","","""event"",""trial"",""time""
""fullscreenenter"",""1"",""2015""
","
","
","""event"",""trial"",""time""
""fullscreenenter"",""1"",""2015""
","
","","","-1","","","18","18055","6591","t","elianto","#f73b6a7A","-1","-1","1","-10","[]","0","2","","","18055","38","2","4","lose","no-go","1"
"pit-trial","157","1528789","0.0-43.0","battery-v0.2","","""event"",""trial"",""time""
""fullscreenenter"",""1"",""2015""
","
","
","""event"",""trial"",""time""
""fullscreenenter"",""1"",""2015""
","
","","","858.7999999523163","","","18","18055","6591","b","elianto","#f73b6a7A"," "," ","1","0","[1710.5]","1","2","","","18055","39","3","3","lose","go","0"
"pit-trial","158","1533645","0.0-44.0","battery-v0.2","","""event"",""trial"",""time""
""fullscreenenter"",""1"",""2015""
","
","
","""event"",""trial"",""time""
""fullscreenenter"",""1"",""2015""
","
","","","-1","","","18","18055","6591","n","elianto","#f73b6a7A","-1","-1","1","0","[]","0","2","","","18055","40","0","4","lose","no-go","0"
"pit-trial","159","1537948","0.0-45.0","battery-v0.2","","""event"",""trial"",""time""
""fullscreenenter"",""1"",""2015""
","
","
","""event"",""trial"",""time""
""fullscreenenter"",""1"",""2015""
","
","","","1446.5999999046326","","","18","18055","6591","t","elianto","#f73b6a7A","-1"," ","0","-10","[2298.0999999046326]","1","2","","","18055","41","2","4","lose","no-go","0"
"pit-trial","160","1542123","0.0-46.0","battery-v0.2","","""event"",""trial"",""time""
""fullscreenenter"",""1"",""2015""
","
","
","""event"",""trial"",""time""
""fullscreenenter"",""1"",""2015""
","
","","","1319.2000000476837","","","18","18055","6591","f","elianto","#3366ff99"," "," ","1","+10","[2169.899999856949]","1","2","","","18055","42","1","1","win","go","0"
"pit-trial","161","1545862","0.0-47.0","battery-v0.2","","""event"",""trial"",""time""
""fullscreenenter"",""1"",""2015""
","
","
","""event"",""trial"",""time""
""fullscreenenter"",""1"",""2015""
","
","","","883.7000000476837","","","18","18055","6591","b","elianto","#f73b6a7A"," "," ","1","0","[1734.7000000476837]","1","2","","","18055","43","3","3","lose","go","0"
"pit-trial","162","1550717","0.0-48.0","battery-v0.2","","""event"",""trial"",""time""
""fullscreenenter"",""1"",""2015""
","
","
","""event"",""trial"",""time""
""fullscreenenter"",""1"",""2015""
","
","","","-1","","","18","18055","6591","n","elianto","#f73b6a7A","-1","-1","1","0","[]","0","2","","","18055","44","0","4","lose","no-go","0"
"pit-trial","163","1554476","0.0-49.0","battery-v0.2","","""event"",""trial"",""time""
""fullscreenenter"",""1"",""2015""
","
","
","""event"",""trial"",""time""
""fullscreenenter"",""1"",""2015""
","
","","","903.6000001430511","","","18","18055","6591","b","elianto","#f73b6a7A"," "," ","1","0","[1754.7000000476837]","1","2","","","18055","45","3","3","lose","go","0"
"pit-trial","164","1559331","0.0-50.0","battery-v0.2","","""event"",""trial"",""time""
""fullscreenenter"",""1"",""2015""
","
","
","""event"",""trial"",""time""
""fullscreenenter"",""1"",""2015""
","
","","","-1","","","18","18055","6591","n","elianto","#f73b6a7A","-1","-1","1","0","[]","0","2","","","18055","46","0","4","lose","no-go","0"
"pit-trial","165","1564187","0.0-51.0","battery-v0.2","","""event"",""trial"",""time""
""fullscreenenter"",""1"",""2015""
","
","
","""event"",""trial"",""time""
""fullscreenenter"",""1"",""2015""
","
","","","-1","","","18","18055","6591","t","elianto","#f73b6a7A","-1","-1","1","0","[]","0","2","","","18055","47","2","4","lose","no-go","0"
"pit-trial","166","1569044","0.0-52.0","battery-v0.2","","""event"",""trial"",""time""
""fullscreenenter"",""1"",""2015""
","
","
","""event"",""trial"",""time""
""fullscreenenter"",""1"",""2015""
","
","","","-1","","","18","18055","6591","c","elianto","#3366ff99","-1","-1","1","+10","[]","0","2","","","18055","48","4","2","win","no-go","0"
"pit-trial","167","1573438","0.0-53.0","battery-v0.2","","""event"",""trial"",""time""
""fullscreenenter"",""1"",""2015""
","
","
","""event"",""trial"",""time""
""fullscreenenter"",""1"",""2015""
","
","","","1540.2999999523163","","","18","18055","6591","b","elianto","#f73b6a7A"," "," ","1","-10","[2391.5]","1","2","","","18055","49","3","3","lose","go","1"
"pit-trial","168","1576820","0.0-54.0","battery-v0.2","","""event"",""trial"",""time""
""fullscreenenter"",""1"",""2015""
","
","
","""event"",""trial"",""time""
""fullscreenenter"",""1"",""2015""
","
","","","525.7000000476837","","","18","18055","6591","f","elianto","#3366ff99"," "," ","1","0","[1377.2000000476837]","1","2","","","18055","50","1","1","win","go","1"
"pit-trial","169","1581676","0.0-55.0","battery-v0.2","","""event"",""trial"",""time""
""fullscreenenter"",""1"",""2015""
","
","
","""event"",""trial"",""time""
""fullscreenenter"",""1"",""2015""
","
","","","-1","","","18","18055","6591","c","elianto","#3366ff99","-1","-1","1","+10","[]","0","2","","","18055","51","4","2","win","no-go","0"
"pit-trial","170","1586532","0.0-56.0","battery-v0.2","","""event"",""trial"",""time""
""fullscreenenter"",""1"",""2015""
","
","
","""event"",""trial"",""time""
""fullscreenenter"",""1"",""2015""
","
","","","-1","","","18","18055","6591","n","elianto","#f73b6a7A","-1","-1","1","-10","[]","0","2","","","18055","52","0","4","lose","no-go","1"
"pit-trial","171","1591388","0.0-57.0","battery-v0.2","","""event"",""trial"",""time""
""fullscreenenter"",""1"",""2015""
","
","
","""event"",""trial"",""time""
""fullscreenenter"",""1"",""2015""
","
","","","-1","","","18","18055","6591","c","elianto","#3366ff99","-1","-1","1","+10","[]","0","2","","","18055","53","4","2","win","no-go","0"
"pit-trial","172","1596243","0.0-58.0","battery-v0.2","","""event"",""trial"",""time""
""fullscreenenter"",""1"",""2015""
","
","
","""event"",""trial"",""time""
""fullscreenenter"",""1"",""2015""
","
","","","-1","","","18","18055","6591","t","elianto","#f73b6a7A","-1","-1","1","0","[]","0","2","","","18055","54","2","4","lose","no-go","0"
"pit-trial","173","1600719","0.0-59.0","battery-v0.2","","""event"",""trial"",""time""
""fullscreenenter"",""1"",""2015""
","
","
","""event"",""trial"",""time""
""fullscreenenter"",""1"",""2015""
","
","","","1620.2000000476837","","","18","18055","6591","f","elianto","#3366ff99"," "," ","1","+10","[2471.2999999523163]","1","2","","","18055","55","1","1","win","go","0"
"pit-trial","174","1605575","0.0-60.0","battery-v0.2","","""event"",""trial"",""time""
""fullscreenenter"",""1"",""2015""
","
","
","""event"",""trial"",""time""
""fullscreenenter"",""1"",""2015""
","
","","","-1","","","18","18055","6591","n","elianto","#f73b6a7A","-1","-1","1","0","[]","0","2","","","18055","56","0","4","lose","no-go","0"
"pit-trial","175","1609067","0.0-61.0","battery-v0.2","","""event"",""trial"",""time""
""fullscreenenter"",""1"",""2015""
","
","
","""event"",""trial"",""time""
""fullscreenenter"",""1"",""2015""
","
","","","636","","","18","18055","6591","f","elianto","#3366ff99"," "," ","1","+10","[1487.7000000476837]","1","2","","","18055","57","1","1","win","go","0"
"pit-trial","176","1613922","0.0-62.0","battery-v0.2","","""event"",""trial"",""time""
""fullscreenenter"",""1"",""2015""
","
","
","""event"",""trial"",""time""
""fullscreenenter"",""1"",""2015""
","
","","","-1","","","18","18055","6591","n","elianto","#f73b6a7A","-1","-1","1","0","[]","0","2","","","18055","58","0","4","lose","no-go","0"
"pit-trial","177","1618779","0.0-63.0","battery-v0.2","","""event"",""trial"",""time""
""fullscreenenter"",""1"",""2015""
","
","
","""event"",""trial"",""time""
""fullscreenenter"",""1"",""2015""
","
","","","-1","","","18","18055","6591","c","elianto","#3366ff99","-1","-1","1","+10","[]","0","2","","","18055","59","4","2","win","no-go","0"
"pit-trial","178","1623634","0.0-64.0","battery-v0.2","","""event"",""trial"",""time""
""fullscreenenter"",""1"",""2015""
","
","
","""event"",""trial"",""time""
""fullscreenenter"",""1"",""2015""
","
","","","-1","","","18","18055","6591","b","elianto","#f73b6a7A"," ","-1","0","0","[]","0","2","","","18055","60","3","3","lose","go","1"
"pit-trial","179","1628491","0.0-65.0","battery-v0.2","","""event"",""trial"",""time""
""fullscreenenter"",""1"",""2015""
","
","
","""event"",""trial"",""time""
""fullscreenenter"",""1"",""2015""
","
","","","-1","","","18","18055","6591","c","elianto","#3366ff99","-1","-1","1","+10","[]","0","2","","","18055","61","4","2","win","no-go","0"
"pit-trial","180","1632723","0.0-66.0","battery-v0.2","","""event"",""trial"",""time""
""fullscreenenter"",""1"",""2015""
","
","
","""event"",""trial"",""time""
""fullscreenenter"",""1"",""2015""
","
","","","1374.9000000953674","","","18","18055","6591","b","elianto","#f73b6a7A"," "," ","1","0","[2226.7999999523163]","1","2","","","18055","62","3","3","lose","go","0"
"pit-trial","181","1636341","0.0-67.0","battery-v0.2","","""event"",""trial"",""time""
""fullscreenenter"",""1"",""2015""
","
","
","""event"",""trial"",""time""
""fullscreenenter"",""1"",""2015""
","
","","","762","","","18","18055","6591","f","elianto","#3366ff99"," "," ","1","+10","[1613.5]","1","2","","","18055","63","1","1","win","go","0"
"pit-trial","182","1641198","0.0-68.0","battery-v0.2","","""event"",""trial"",""time""
""fullscreenenter"",""1"",""2015""
","
","
","""event"",""trial"",""time""
""fullscreenenter"",""1"",""2015""
","
","","","-1","","","18","18055","6591","t","elianto","#f73b6a7A","-1","-1","1","0","[]","0","2","","","18055","64","2","4","lose","no-go","0"
"pit-trial","183","1644812","0.0-69.0","battery-v0.2","","""event"",""trial"",""time""
""fullscreenenter"",""1"",""2015""
","
","
","""event"",""trial"",""time""
""fullscreenenter"",""1"",""2015""
","
","","","759.4000000953674","","","18","18055","6591","f","elianto","#3366ff99"," "," ","1","+10","[1609.7000000476837]","1","2","","","18055","65","1","1","win","go","0"
"pit-trial","184","1649668","0.0-70.0","battery-v0.2","","""event"",""trial"",""time""
""fullscreenenter"",""1"",""2015""
","
","
","""event"",""trial"",""time""
""fullscreenenter"",""1"",""2015""
","
","","","-1","","","18","18055","6591","c","elianto","#3366ff99","-1","-1","1","+10","[]","0","2","","","18055","66","4","2","win","no-go","0"
"pit-trial","185","1654522","0.0-71.0","battery-v0.2","","""event"",""trial"",""time""
""fullscreenenter"",""1"",""2015""
","
","
","""event"",""trial"",""time""
""fullscreenenter"",""1"",""2015""
","
","","","-1","","","18","18055","6591","t","elianto","#f73b6a7A","-1","-1","1","-10","[]","0","2","","","18055","67","2","4","lose","no-go","1"
"pit-trial","186","1658311","0.0-72.0","battery-v0.2","","""event"",""trial"",""time""
""fullscreenenter"",""1"",""2015""
","
","
","""event"",""trial"",""time""
""fullscreenenter"",""1"",""2015""
","
","","","933.6999998092651","","","18","18055","6591","b","elianto","#f73b6a7A"," "," ","1","0","[1784.6999998092651]","1","2","","","18055","68","3","3","lose","go","0"
"pit-trial","187","1662283","0.0-73.0","battery-v0.2","","""event"",""trial"",""time""
""fullscreenenter"",""1"",""2015""
","
","
","""event"",""trial"",""time""
""fullscreenenter"",""1"",""2015""
","
","","","1116.2999999523163","","","18","18055","6591","b","elianto","#f73b6a7A"," "," ","1","0","[1967.1000001430511]","1","2","","","18055","69","3","3","lose","go","0"
"pit-trial","188","1667139","0.0-74.0","battery-v0.2","","""event"",""trial"",""time""
""fullscreenenter"",""1"",""2015""
","
","
","""event"",""trial"",""time""
""fullscreenenter"",""1"",""2015""
","
","","","-1","","","18","18055","6591","c","elianto","#3366ff99","-1","-1","1","+10","[]","0","2","","","18055","70","4","2","win","no-go","0"
"pit-trial","189","1671996","0.0-75.0","battery-v0.2","","""event"",""trial"",""time""
""fullscreenenter"",""1"",""2015""
","
","
","""event"",""trial"",""time""
""fullscreenenter"",""1"",""2015""
","
","","","-1","","","18","18055","6591","z","elianto","#3366ff99"," ","-1","0","0","[]","0","2","","","18055","71","5","1","win","go","0"
"pit-trial","190","1675781","0.0-76.0","battery-v0.2","","""event"",""trial"",""time""
""fullscreenenter"",""1"",""2015""
","
","
","""event"",""trial"",""time""
""fullscreenenter"",""1"",""2015""
","
","","","928.6999998092651","","","18","18055","6591","f","elianto","#3366ff99"," "," ","1","+10","[1779.7999999523163]","1","2","","","18055","72","1","1","win","go","0"
"pit-trial","191","1679728","0.0-77.0","battery-v0.2","","""event"",""trial"",""time""
""fullscreenenter"",""1"",""2015""
","
","
","""event"",""trial"",""time""
""fullscreenenter"",""1"",""2015""
","
","","","1092.1999998092651","","","18","18055","6591","f","elianto","#3366ff99"," "," ","1","0","[1942.4000000953674]","1","2","","","18055","73","1","1","win","go","1"
"pit-trial","192","1683334","0.0-78.0","battery-v0.2","","""event"",""trial"",""time""
""fullscreenenter"",""1"",""2015""
","
","
","""event"",""trial"",""time""
""fullscreenenter"",""1"",""2015""
","
","","","750.9000000953674","","","18","18055","6591","z","elianto","#3366ff99"," "," ","1","+10","[1601.7000000476837]","1","2","","","18055","74","5","1","win","go","0"
"pit-trial","193","1688189","0.0-79.0","battery-v0.2","","""event"",""trial"",""time""
""fullscreenenter"",""1"",""2015""
","
","
","""event"",""trial"",""time""
""fullscreenenter"",""1"",""2015""
","
","","","-1","","","18","18055","6591","b","elianto","#f73b6a7A"," ","-1","0","-10","[]","0","2","","","18055","75","3","3","lose","go","0"
"pit-trial","194","1693045","0.0-80.0","battery-v0.2","","""event"",""trial"",""time""
""fullscreenenter"",""1"",""2015""
","
","
","""event"",""trial"",""time""
""fullscreenenter"",""1"",""2015""
","
","","","-1","","","18","18055","6591","c","elianto","#3366ff99","-1","-1","1","+10","[]","0","2","","","18055","76","4","2","win","no-go","0"
"pit-trial","195","1697901","0.0-81.0","battery-v0.2","","""event"",""trial"",""time""
""fullscreenenter"",""1"",""2015""
","
","
","""event"",""trial"",""time""
""fullscreenenter"",""1"",""2015""
","
","","","-1","","","18","18055","6591","h","elianto","#f73b6a7A","-1","-1","1","0","[]","0","2","","","18055","77","6","4","lose","no-go","0"
"pit-trial","196","1701412","0.0-82.0","battery-v0.2","","""event"",""trial"",""time""
""fullscreenenter"",""1"",""2015""
","
","
","""event"",""trial"",""time""
""fullscreenenter"",""1"",""2015""
","
","","","655.7000000476837","","","18","18055","6591","b","elianto","#f73b6a7A"," "," ","1","0","[1506.8999998569489]","1","2","","","18055","78","3","3","lose","go","0"
"pit-trial","197","1705131","0.0-83.0","battery-v0.2","","""event"",""trial"",""time""
""fullscreenenter"",""1"",""2015""
","
","
","""event"",""trial"",""time""
""fullscreenenter"",""1"",""2015""
","
","","","864.6999998092651","","","18","18055","6591","z","elianto","#3366ff99"," "," ","1","+10","[1715.7999999523163]","1","2","","","18055","79","5","1","win","go","0"
"pit-trial","198","1709987","0.0-84.0","battery-v0.2","","""event"",""trial"",""time""
""fullscreenenter"",""1"",""2015""
","
","
","""event"",""trial"",""time""
""fullscreenenter"",""1"",""2015""
","
","","","-1","","","18","18055","6591","c","elianto","#3366ff99","-1","-1","1","0","[]","0","2","","","18055","80","4","2","win","no-go","1"
"pit-trial","199","1713581","0.0-85.0","battery-v0.2","","""event"",""trial"",""time""
""fullscreenenter"",""1"",""2015""
","
","
","""event"",""trial"",""time""
""fullscreenenter"",""1"",""2015""
","
","","","738.7999999523163","","","18","18055","6591","z","elianto","#3366ff99"," "," ","1","+10","[1589.6000001430511]","1","2","","","18055","81","5","1","win","go","0"
"pit-trial","200","1718436","0.0-86.0","battery-v0.2","","""event"",""trial"",""time""
""fullscreenenter"",""1"",""2015""
","
","
","""event"",""trial"",""time""
""fullscreenenter"",""1"",""2015""
","
","","","-1","","","18","18055","6591","y","elianto","#f73b6a7A"," ","-1","0","-10","[]","0","2","","","18055","82","7","3","lose","go","0"
"pit-trial","201","1723290","0.0-87.0","battery-v0.2","","""event"",""trial"",""time""
""fullscreenenter"",""1"",""2015""
","
","
","""event"",""trial"",""time""
""fullscreenenter"",""1"",""2015""
","
","","","-1","","","18","18055","6591","h","elianto","#f73b6a7A","-1","-1","1","0","[]","0","2","","","18055","83","6","4","lose","no-go","0"
"pit-trial","202","1728145","0.0-88.0","battery-v0.2","","""event"",""trial"",""time""
""fullscreenenter"",""1"",""2015""
","
","
","""event"",""trial"",""time""
""fullscreenenter"",""1"",""2015""
","
","","","-1","","","18","18055","6591","c","elianto","#3366ff99","-1","-1","1","+10","[]","0","2","","","18055","84","4","2","win","no-go","0"
"pit-trial","203","1733001","0.0-89.0","battery-v0.2","","""event"",""trial"",""time""
""fullscreenenter"",""1"",""2015""
","
","
","""event"",""trial"",""time""
""fullscreenenter"",""1"",""2015""
","
","","","-1","","","18","18055","6591","h","elianto","#f73b6a7A","-1","-1","1","-10","[]","0","2","","","18055","85","6","4","lose","no-go","1"
"pit-trial","204","1737858","0.0-90.0","battery-v0.2","","""event"",""trial"",""time""
""fullscreenenter"",""1"",""2015""
","
","
","""event"",""trial"",""time""
""fullscreenenter"",""1"",""2015""
","
","","","-1","","","18","18055","6591","c","elianto","#3366ff99","-1","-1","1","+10","[]","0","2","","","18055","86","4","2","win","no-go","0"
"pit-trial","205","1742714","0.0-91.0","battery-v0.2","","""event"",""trial"",""time""
""fullscreenenter"",""1"",""2015""
","
","
","""event"",""trial"",""time""
""fullscreenenter"",""1"",""2015""
","
","","","-1","","","18","18055","6591","y","elianto","#f73b6a7A"," ","-1","0","-10","[]","0","2","","","18055","87","7","3","lose","go","0"
"pit-trial","206","1746150","0.0-92.0","battery-v0.2","","""event"",""trial"",""time""
""fullscreenenter"",""1"",""2015""
","
","
","""event"",""trial"",""time""
""fullscreenenter"",""1"",""2015""
","
","","","581.3999998569489","","","18","18055","6591","z","elianto","#3366ff99"," "," ","1","+10","[1433]","1","2","","","18055","88","5","1","win","go","0"
"pit-trial","207","1749694","0.0-93.0","battery-v0.2","","""event"",""trial"",""time""
""fullscreenenter"",""1"",""2015""
","
","
","""event"",""trial"",""time""
""fullscreenenter"",""1"",""2015""
","
","","","688.7000000476837","","","18","18055","6591","z","elianto","#3366ff99"," "," ","1","+10","[1539.7999999523163]","1","2","","","18055","89","5","1","win","go","0"
"pit-trial","208","1754551","0.0-94.0","battery-v0.2","","""event"",""trial"",""time""
""fullscreenenter"",""1"",""2015""
","
","
","""event"",""trial"",""time""
""fullscreenenter"",""1"",""2015""
","
","","","-1","","","18","18055","6591","h","elianto","#f73b6a7A","-1","-1","1","0","[]","0","2","","","18055","90","6","4","lose","no-go","0"
"pit-trial","209","1758456","0.0-95.0","battery-v0.2","","""event"",""trial"",""time""
""fullscreenenter"",""1"",""2015""
","
","
","""event"",""trial"",""time""
""fullscreenenter"",""1"",""2015""
","
","","","1050.5","","","18","18055","6591","y","elianto","#f73b6a7A"," "," ","1","0","[1900.4000000953674]","1","2","","","18055","91","7","3","lose","go","0"
"pit-trial","210","1763311","0.0-96.0","battery-v0.2","","""event"",""trial"",""time""
""fullscreenenter"",""1"",""2015""
","
","
","""event"",""trial"",""time""
""fullscreenenter"",""1"",""2015""
","
","","","-1","","","18","18055","6591","c","elianto","#3366ff99","-1","-1","1","+10","[]","0","2","","","18055","92","4","2","win","no-go","0"
"pit-trial","211","1767553","0.0-97.0","battery-v0.2","","""event"",""trial"",""time""
""fullscreenenter"",""1"",""2015""
","
","
","""event"",""trial"",""time""
""fullscreenenter"",""1"",""2015""
","
","","","1387.3000001907349","","","18","18055","6591","y","elianto","#f73b6a7A"," "," ","1","-10","[2238.600000143051]","1","2","","","18055","93","7","3","lose","go","1"
"pit-trial","212","1772408","0.0-98.0","battery-v0.2","","""event"",""trial"",""time""
""fullscreenenter"",""1"",""2015""
","
","
","""event"",""trial"",""time""
""fullscreenenter"",""1"",""2015""
","
","","","-1","","","18","18055","6591","r","elianto","#3366ff99","-1","-1","1","0","[]","0","2","","","18055","94","8","2","win","no-go","1"
"pit-trial","213","1776018","0.0-99.0","battery-v0.2","","""event"",""trial"",""time""
""fullscreenenter"",""1"",""2015""
","
","
","""event"",""trial"",""time""
""fullscreenenter"",""1"",""2015""
","
","","","751.9000000953674","","","18","18055","6591","z","elianto","#3366ff99"," "," ","1","+10","[1604.5999999046326]","1","2","","","18055","95","5","1","win","go","0"
"pit-trial","214","1780875","0.0-100.0","battery-v0.2","","""event"",""trial"",""time""
""fullscreenenter"",""1"",""2015""
","
","
","""event"",""trial"",""time""
""fullscreenenter"",""1"",""2015""
","
","","","-1","","","18","18055","6591","h","elianto","#f73b6a7A","-1","-1","1","0","[]","0","2","","","18055","96","6","4","lose","no-go","0"
"pit-trial","215","1784863","0.0-101.0","battery-v0.2","","""event"",""trial"",""time""
""fullscreenenter"",""1"",""2015""
","
","
","""event"",""trial"",""time""
""fullscreenenter"",""1"",""2015""
","
","","","1132.1000001430511","","","18","18055","6591","y","elianto","#f73b6a7A"," "," ","1","-10","[1983.7000000476837]","1","2","","","18055","97","7","3","lose","go","1"
"pit-trial","216","1789692","0.0-102.0","battery-v0.2","","""event"",""trial"",""time""
""fullscreenenter"",""1"",""2015""
","
","
","""event"",""trial"",""time""
""fullscreenenter"",""1"",""2015""
","
","","","1973.5","","","18","18055","6591","r","elianto","#3366ff99","-1"," ","0","0","[2824.2999999523163]","1","2","","","18055","98","8","2","win","no-go","0"
"pit-trial","217","1793217","0.0-103.0","battery-v0.2","","""event"",""trial"",""time""
""fullscreenenter"",""1"",""2015""
","
","
","""event"",""trial"",""time""
""fullscreenenter"",""1"",""2015""
","
","","","668.7999999523163","","","18","18055","6591","z","elianto","#3366ff99"," "," ","1","+10","[1520.2999999523163]","1","2","","","18055","99","5","1","win","go","0"
"pit-trial","218","1798073","0.0-104.0","battery-v0.2","","""event"",""trial"",""time""
""fullscreenenter"",""1"",""2015""
","
","
","""event"",""trial"",""time""
""fullscreenenter"",""1"",""2015""
","
","","","-1","","","18","18055","6591","h","elianto","#f73b6a7A","-1","-1","1","0","[]","0","2","","","18055","100","6","4","lose","no-go","0"
"pit-trial","219","1802929","0.0-105.0","battery-v0.2","","""event"",""trial"",""time""
""fullscreenenter"",""1"",""2015""
","
","
","""event"",""trial"",""time""
""fullscreenenter"",""1"",""2015""
","
","","","-1","","","18","18055","6591","h","elianto","#f73b6a7A","-1","-1","1","-10","[]","0","2","","","18055","101","6","4","lose","no-go","1"
"pit-trial","220","1807784","0.0-106.0","battery-v0.2","","""event"",""trial"",""time""
""fullscreenenter"",""1"",""2015""
","
","
","""event"",""trial"",""time""
""fullscreenenter"",""1"",""2015""
","
","","","-1","","","18","18055","6591","m","elianto","#3366ff99","-1","-1","1","+10","[]","0","2","","","18055","102","9","2","win","no-go","0"
"pit-trial","221","1812640","0.0-107.0","battery-v0.2","","""event"",""trial"",""time""
""fullscreenenter"",""1"",""2015""
","
","
","""event"",""trial"",""time""
""fullscreenenter"",""1"",""2015""
","
","","","-1","","","18","18055","6591","r","elianto","#3366ff99","-1","-1","1","+10","[]","0","2","","","18055","103","8","2","win","no-go","0"
"pit-trial","222","1816406","0.0-108.0","battery-v0.2","","""event"",""trial"",""time""
""fullscreenenter"",""1"",""2015""
","
","
","""event"",""trial"",""time""
""fullscreenenter"",""1"",""2015""
","
","","","909.8000001907349","","","18","18055","6591","z","elianto","#3366ff99"," "," ","1","+10","[1761.4000000953674]","1","2","","","18055","104","5","1","win","go","0"
"pit-trial","223","1820173","0.0-109.0","battery-v0.2","","""event"",""trial"",""time""
""fullscreenenter"",""1"",""2015""
","
","
","""event"",""trial"",""time""
""fullscreenenter"",""1"",""2015""
","
","","","911.2000000476837","","","18","18055","6591","z","elianto","#3366ff99"," "," ","1","+10","[1762.2000000476837]","1","2","","","18055","105","5","1","win","go","0"
"pit-trial","224","1825030","0.0-110.0","battery-v0.2","","""event"",""trial"",""time""
""fullscreenenter"",""1"",""2015""
","
","
","""event"",""trial"",""time""
""fullscreenenter"",""1"",""2015""
","
","","","-1","","","18","18055","6591","h","elianto","#f73b6a7A","-1","-1","1","0","[]","0","2","","","18055","106","6","4","lose","no-go","0"
"pit-trial","225","1829887","0.0-111.0","battery-v0.2","","""event"",""trial"",""time""
""fullscreenenter"",""1"",""2015""
","
","
","""event"",""trial"",""time""
""fullscreenenter"",""1"",""2015""
","
","","","-1","","","18","18055","6591","r","elianto","#3366ff99","-1","-1","1","+10","[]","0","2","","","18055","107","8","2","win","no-go","0"
"pit-trial","226","1834622","0.0-112.0","battery-v0.2","","""event"",""trial"",""time""
""fullscreenenter"",""1"",""2015""
","
","
","""event"",""trial"",""time""
""fullscreenenter"",""1"",""2015""
","
","","","1879.2000000476837","","","18","18055","6591","m","elianto","#3366ff99","-1"," ","0","+10","[2730.7999999523163]","1","2","","","18055","108","9","2","win","no-go","1"
"pit-trial","227","1838688","0.0-113.0","battery-v0.2","","""event"",""trial"",""time""
""fullscreenenter"",""1"",""2015""
","
","
","""event"",""trial"",""time""
""fullscreenenter"",""1"",""2015""
","
","","","1210.6000001430511","","","18","18055","6591","m","elianto","#3366ff99","-1"," ","0","0","[2061.5999999046326]","1","2","","","18055","109","9","2","win","no-go","0"
"pit-trial","228","1842525","0.0-114.0","battery-v0.2","","""event"",""trial"",""time""
""fullscreenenter"",""1"",""2015""
","
","
","""event"",""trial"",""time""
""fullscreenenter"",""1"",""2015""
","
","","","981.0999999046326","","","18","18055","6591","r","elianto","#3366ff99","-1"," ","0","0","[1832]","1","2","","","18055","110","8","2","win","no-go","0"
"pit-trial","229","1845965","0.0-115.0","battery-v0.2","","""event"",""trial"",""time""
""fullscreenenter"",""1"",""2015""
","
","
","""event"",""trial"",""time""
""fullscreenenter"",""1"",""2015""
","
","","","584","","","18","18055","6591","z","elianto","#3366ff99"," "," ","1","+10","[1435.4000000953674]","1","2","","","18055","111","5","1","win","go","0"
"pit-trial","230","1850821","0.0-116.0","battery-v0.2","","""event"",""trial"",""time""
""fullscreenenter"",""1"",""2015""
","
","
","""event"",""trial"",""time""
""fullscreenenter"",""1"",""2015""
","
","","","-1","","","18","18055","6591","h","elianto","#f73b6a7A","-1","-1","1","0","[]","0","2","","","18055","112","6","4","lose","no-go","0"
"pit-trial","231","1855678","0.0-117.0","battery-v0.2","","""event"",""trial"",""time""
""fullscreenenter"",""1"",""2015""
","
","
","""event"",""trial"",""time""
""fullscreenenter"",""1"",""2015""
","
","","","-1","","","18","18055","6591","r","elianto","#3366ff99","-1","-1","1","+10","[]","0","2","","","18055","113","8","2","win","no-go","0"
"pit-trial","232","1859391","0.0-118.0","battery-v0.2","","""event"",""trial"",""time""
""fullscreenenter"",""1"",""2015""
","
","
","""event"",""trial"",""time""
""fullscreenenter"",""1"",""2015""
","
","","","856.8999998569489","","","18","18055","6591","z","elianto","#3366ff99"," "," ","1","+10","[1708.2999999523163]","1","2","","","18055","114","5","1","win","go","0"
"pit-trial","233","1863686","0.0-119.0","battery-v0.2","","""event"",""trial"",""time""
""fullscreenenter"",""1"",""2015""
","
","
","""event"",""trial"",""time""
""fullscreenenter"",""1"",""2015""
","
","","","1439.5","","","18","18055","6591","y","elianto","#f73b6a7A"," "," ","1","0","[2290.5]","1","2","","","18055","115","7","3","lose","go","0"
"pit-trial","234","1867376","0.0-120.0","battery-v0.2","","""event"",""trial"",""time""
""fullscreenenter"",""1"",""2015""
","
","
","""event"",""trial"",""time""
""fullscreenenter"",""1"",""2015""
","
","","","834.2000000476837","","","18","18055","6591","m","elianto","#3366ff99","-1"," ","0","0","[1685.5]","1","2","","","18055","116","9","2","win","no-go","0"
"pit-trial","235","1872231","0.0-121.0","battery-v0.2","","""event"",""trial"",""time""
""fullscreenenter"",""1"",""2015""
","
","
","""event"",""trial"",""time""
""fullscreenenter"",""1"",""2015""
","
","","","-1","","","18","18055","6591","h","elianto","#f73b6a7A","-1","-1","1","0","[]","0","2","","","18055","117","6","4","lose","no-go","0"
"pit-trial","236","1875834","0.0-122.0","battery-v0.2","","""event"",""trial"",""time""
""fullscreenenter"",""1"",""2015""
","
","
","""event"",""trial"",""time""
""fullscreenenter"",""1"",""2015""
","
","","","748.2000000476837","","","18","18055","6591","z","elianto","#3366ff99"," "," ","1","0","[1598.7999999523163]","1","2","","","18055","118","5","1","win","go","1"
"pit-trial","237","1880690","0.0-123.0","battery-v0.2","","""event"",""trial"",""time""
""fullscreenenter"",""1"",""2015""
","
","
","""event"",""trial"",""time""
""fullscreenenter"",""1"",""2015""
","
","","","-1","","","18","18055","6591","m","elianto","#3366ff99","-1","-1","1","+10","[]","0","2","","","18055","119","9","2","win","no-go","0"
"pit-trial","238","1885547","0.0-124.0","battery-v0.2","","""event"",""trial"",""time""
""fullscreenenter"",""1"",""2015""
","
","
","""event"",""trial"",""time""
""fullscreenenter"",""1"",""2015""
","
","","","-1","","","18","18055","6591","r","elianto","#3366ff99","-1","-1","1","+10","[]","0","2","","","18055","120","8","2","win","no-go","0"
"pit-trial","239","1889194","0.0-125.0","battery-v0.2","","""event"",""trial"",""time""
""fullscreenenter"",""1"",""2015""
","
","
","""event"",""trial"",""time""
""fullscreenenter"",""1"",""2015""
","
","","","791.7000000476837","","","18","18055","6591","z","elianto","#3366ff99"," "," ","1","0","[1643.2000000476837]","1","2","","","18055","121","5","1","win","go","1"
"pit-trial","240","1892934","0.0-126.0","battery-v0.2","","""event"",""trial"",""time""
""fullscreenenter"",""1"",""2015""
","
","
","""event"",""trial"",""time""
""fullscreenenter"",""1"",""2015""
","
","","","883.4000000953674","","","18","18055","6591","y","elianto","#f73b6a7A"," "," ","1","-10","[1733.7000000476837]","1","2","","","18055","122","7","3","lose","go","1"
"pit-trial","241","1897790","0.0-127.0","battery-v0.2","","""event"",""trial"",""time""
""fullscreenenter"",""1"",""2015""
","
","
","""event"",""trial"",""time""
""fullscreenenter"",""1"",""2015""
","
","","","-1","","","18","18055","6591","m","elianto","#3366ff99","-1","-1","1","0","[]","0","2","","","18055","123","9","2","win","no-go","1"
"pit-trial","242","1902647","0.0-128.0","battery-v0.2","","""event"",""trial"",""time""
""fullscreenenter"",""1"",""2015""
","
","
","""event"",""trial"",""time""
""fullscreenenter"",""1"",""2015""
","
","","","-1","","","18","18055","6591","r","elianto","#3366ff99","-1","-1","1","+10","[]","0","2","","","18055","124","8","2","win","no-go","0"
"pit-trial","243","1907502","0.0-129.0","battery-v0.2","","""event"",""trial"",""time""
""fullscreenenter"",""1"",""2015""
","
","
","""event"",""trial"",""time""
""fullscreenenter"",""1"",""2015""
","
","","","-1","","","18","18055","6591","r","elianto","#3366ff99","-1","-1","1","+10","[]","0","2","","","18055","125","8","2","win","no-go","0"
"pit-trial","244","1911385","0.0-130.0","battery-v0.2","","""event"",""trial"",""time""
""fullscreenenter"",""1"",""2015""
","
","
","""event"",""trial"",""time""
""fullscreenenter"",""1"",""2015""
","
","","","1030.0999999046326","","","18","18055","6591","y","elianto","#f73b6a7A"," "," ","1","0","[1880.2000000476837]","1","2","","","18055","126","7","3","lose","go","0"
"pit-trial","245","1916241","0.0-131.0","battery-v0.2","","""event"",""trial"",""time""
""fullscreenenter"",""1"",""2015""
","
","
","""event"",""trial"",""time""
""fullscreenenter"",""1"",""2015""
","
","","","-1","","","18","18055","6591","h","elianto","#f73b6a7A","-1","-1","1","0","[]","0","2","","","18055","127","6","4","lose","no-go","0"
"pit-trial","246","1919912","0.0-132.0","battery-v0.2","","""event"",""trial"",""time""
""fullscreenenter"",""1"",""2015""
","
","
","""event"",""trial"",""time""
""fullscreenenter"",""1"",""2015""
","
","","","814.4000000953674","","","18","18055","6591","m","elianto","#3366ff99","-1"," ","0","0","[1665.3999998569489]","1","2","","","18055","128","9","2","win","no-go","0"
"pit-trial","247","1924767","0.0-133.0","battery-v0.2","","""event"",""trial"",""time""
""fullscreenenter"",""1"",""2015""
","
","
","""event"",""trial"",""time""
""fullscreenenter"",""1"",""2015""
","
","","","-1","","","18","18055","6591","r","elianto","#3366ff99","-1","-1","1","+10","[]","0","2","","","18055","129","8","2","win","no-go","0"
"pit-trial","248","1929624","0.0-134.0","battery-v0.2","","""event"",""trial"",""time""
""fullscreenenter"",""1"",""2015""
","
","
","""event"",""trial"",""time""
""fullscreenenter"",""1"",""2015""
","
","","","-1","","","18","18055","6591","h","elianto","#f73b6a7A","-1","-1","1","0","[]","0","2","","","18055","130","6","4","lose","no-go","0"
"pit-trial","249","1933261","0.0-135.0","battery-v0.2","","""event"",""trial"",""time""
""fullscreenenter"",""1"",""2015""
","
","
","""event"",""trial"",""time""
""fullscreenenter"",""1"",""2015""
","
","","","782.2999999523163","","","18","18055","6591","y","elianto","#f73b6a7A"," "," ","1","0","[1633.4000000953674]","1","2","","","18055","131","7","3","lose","go","0"
"pit-trial","250","1936860","0.0-136.0","battery-v0.2","","""event"",""trial"",""time""
""fullscreenenter"",""1"",""2015""
","
","
","""event"",""trial"",""time""
""fullscreenenter"",""1"",""2015""
","
","","","744.3999998569489","","","18","18055","6591","m","elianto","#3366ff99","-1"," ","0","0","[1595.4000000953674]","1","2","","","18055","132","9","2","win","no-go","0"
"pit-trial","251","1940872","0.0-137.0","battery-v0.2","","""event"",""trial"",""time""
""fullscreenenter"",""1"",""2015""
","
","
","""event"",""trial"",""time""
""fullscreenenter"",""1"",""2015""
","
","","","1157.5","","","18","18055","6591","y","elianto","#f73b6a7A"," "," ","1","-10","[2009.1000001430511]","1","2","","","18055","133","7","3","lose","go","1"
"pit-trial","252","1945726","0.0-138.0","battery-v0.2","","""event"",""trial"",""time""
""fullscreenenter"",""1"",""2015""
","
","
","""event"",""trial"",""time""
""fullscreenenter"",""1"",""2015""
","
","","","-1","","","18","18055","6591","h","elianto","#f73b6a7A","-1","-1","1","0","[]","0","2","","","18055","134","6","4","lose","no-go","0"
"pit-trial","253","1950582","0.0-139.0","battery-v0.2","","""event"",""trial"",""time""
""fullscreenenter"",""1"",""2015""
","
","
","""event"",""trial"",""time""
""fullscreenenter"",""1"",""2015""
","
","","","-1","","","18","18055","6591","r","elianto","#3366ff99","-1","-1","1","+10","[]","0","2","","","18055","135","8","2","win","no-go","0"
"pit-trial","254","1954117","0.0-140.0","battery-v0.2","","""event"",""trial"",""time""
""fullscreenenter"",""1"",""2015""
","
","
","""event"",""trial"",""time""
""fullscreenenter"",""1"",""2015""
","
","","","682","","","18","18055","6591","m","elianto","#3366ff99","-1"," ","0","0","[1532.0999999046326]","1","2","","","18055","136","9","2","win","no-go","0"
"pit-trial","255","1958972","0.0-141.0","battery-v0.2","","""event"",""trial"",""time""
""fullscreenenter"",""1"",""2015""
","
","
","""event"",""trial"",""time""
""fullscreenenter"",""1"",""2015""
","
","","","-1","","","18","18055","6591","h","elianto","#f73b6a7A","-1","-1","1","0","[]","0","2","","","18055","137","6","4","lose","no-go","0"
"pit-trial","256","1963827","0.0-142.0","battery-v0.2","","""event"",""trial"",""time""
""fullscreenenter"",""1"",""2015""
","
","
","""event"",""trial"",""time""
""fullscreenenter"",""1"",""2015""
","
","","","-1","","","18","18055","6591","r","elianto","#3366ff99","-1","-1","1","+10","[]","0","2","","","18055","138","8","2","win","no-go","0"
"pit-trial","257","1967773","0.0-143.0","battery-v0.2","","""event"",""trial"",""time""
""fullscreenenter"",""1"",""2015""
","
","
","""event"",""trial"",""time""
""fullscreenenter"",""1"",""2015""
","
","","","1090.0999999046326","","","18","18055","6591","y","elianto","#f73b6a7A"," "," ","1","0","[1941.2000000476837]","1","2","","","18055","139","7","3","lose","go","0"
"pit-trial","258","1972629","0.0-144.0","battery-v0.2","","""event"",""trial"",""time""
""fullscreenenter"",""1"",""2015""
","
","
","""event"",""trial"",""time""
""fullscreenenter"",""1"",""2015""
","
","","","-1","","","18","18055","6591","m","elianto","#3366ff99","-1","-1","1","+10","[]","0","2","","","18055","140","9","2","win","no-go","0"
"pit-instructions","259","2006791","0.0-145.0","battery-v0.2","","""event"",""trial"",""time""
""fullscreenenter"",""1"",""2015""
","
","
","""event"",""trial"",""time""
""fullscreenenter"",""1"",""2015""
","
","","[{""page_index"":0,""viewing_time"":6504.399999856949},{""page_index"":1,""viewing_time"":27654.60000014305}]","34159.5","","","","","","","","","","","","","","","","","","","","","","","",""
"pit-trial","260","2011651","0.0-146.0","battery-v0.2","","""event"",""trial"",""time""
""fullscreenenter"",""1"",""2015""
","
","
","""event"",""trial"",""time""
""fullscreenenter"",""1"",""2015""
","
","","","-1","","","18","18055","6591","u","elianto","#f73b6a7A"," ","-1","0","-10","[]","0","3","","","18055","141","0","3","lose","go","0"
"pit-trial","261","2015174","0.0-147.0","battery-v0.2","","""event"",""trial"",""time""
""fullscreenenter"",""1"",""2015""
","
","
","""event"",""trial"",""time""
""fullscreenenter"",""1"",""2015""
","
","","","667.1999998092651","","","18","18055","6591","l","elianto","#3366ff99","-1"," ","0","0","[1517.7999999523163]","1","3","","","18055","142","1","2","win","no-go","0"
"pit-trial","262","2020030","0.0-148.0","battery-v0.2","","""event"",""trial"",""time""
""fullscreenenter"",""1"",""2015""
","
","
","""event"",""trial"",""time""
""fullscreenenter"",""1"",""2015""
","
","","","-1","","","18","18055","6591","a","elianto","#f73b6a7A"," ","-1","0","-10","[]","0","3","","","18055","143","2","3","lose","go","0"
"pit-trial","263","2023603","0.0-149.0","battery-v0.2","","""event"",""trial"",""time""
""fullscreenenter"",""1"",""2015""
","
","
","""event"",""trial"",""time""
""fullscreenenter"",""1"",""2015""
","
","","","718.1999998092651","","","18","18055","6591","g","elianto","#f73b6a7A","-1"," ","0","-10","[1569.2000000476837]","1","3","","","18055","144","3","4","lose","no-go","0"
"pit-trial","264","2027224","0.0-150.0","battery-v0.2","","""event"",""trial"",""time""
""fullscreenenter"",""1"",""2015""
","
","
","""event"",""trial"",""time""
""fullscreenenter"",""1"",""2015""
","
","","","764.1999998092651","","","18","18055","6591","g","elianto","#f73b6a7A","-1"," ","0","-10","[1615.4000000953674]","1","3","","","18055","145","3","4","lose","no-go","0"
"pit-trial","265","2032080","0.0-151.0","battery-v0.2","","""event"",""trial"",""time""
""fullscreenenter"",""1"",""2015""
","
","
","""event"",""trial"",""time""
""fullscreenenter"",""1"",""2015""
","
