"trial_type","trial_index","time_elapsed","internal_node_id","task_version","subject_id","interactions","blur_events","focus_events","fullscreenenter_events","fullscreenexit_events","success","view_history","rt","responses","num_errors","age","subject","participantId","rune","rune_set","hex","correct","choice","accuracy","outcome","keys","total_keys","block","practice","value","sub","trial","stimulus","robot","valence","action","sham"
"pavlovia","0","13","0.0-0.0","battery-v0.2","","""event"",""trial"",""time""
""fullscreenenter"",""1"",""6194""
","
","
","""event"",""trial"",""time""
""fullscreenenter"",""1"",""6194""
","
","","","","","","","","","","","","","","","","","","","","","","","","","","",""
"fullscreen","1","7180","0.0-1.0","battery-v0.2","","""event"",""trial"",""time""
""fullscreenenter"",""1"",""6194""
","
","
","""event"",""trial"",""time""
""fullscreenenter"",""1"",""6194""
","
","true","","","","","","","","","","","","","","","","","","","","","","","","","",""
"pit-instructions","2","15977","0.0-2.0-0.0","battery-v0.2","","""event"",""trial"",""time""
""fullscreenenter"",""1"",""6194""
","
","
","""event"",""trial"",""time""
""fullscreenenter"",""1"",""6194""
","
","","[{""page_index"":0,""viewing_time"":8792.5}]","8792.900000000373","","","","","","","","","","","","","","","","","","","","","","","",""
"pit-comprehension","3","19196","0.0-2.0-1.0-0.0","battery-v0.2","","""event"",""trial"",""time""
""fullscreenenter"",""1"",""6194""
","
","
","""event"",""trial"",""time""
""fullscreenenter"",""1"",""6194""
","
","","","3214.9000000003725","[""shark""]","0","18","10607","4667","","","","","","","","","","","","","","","","","","",""
"pit-instructions","4","22595","0.0-2.0-1.0-1.0","battery-v0.2","","""event"",""trial"",""time""
""fullscreenenter"",""1"",""6194""
","
","
","""event"",""trial"",""time""
""fullscreenenter"",""1"",""6194""
","
","","[{""page_index"":0,""viewing_time"":3394.199999999255}]","3394.5","","","","","","","","","","","","","","","","","","","","","","","",""
"pit-comprehension","5","25163","0.0-2.0-2.0-0.0","battery-v0.2","","""event"",""trial"",""time""
""fullscreenenter"",""1"",""6194""
","
","
","""event"",""trial"",""time""
""fullscreenenter"",""1"",""6194""
","
","","","2563.89999999851","[""tiger""]","0","18","10607","4667","","","","","","","","","","","","","","","","","","",""
"pit-instructions","6","29664","0.0-2.0-2.0-1.0","battery-v0.2","","""event"",""trial"",""time""
""fullscreenenter"",""1"",""6194""
","
","
","""event"",""trial"",""time""
""fullscreenenter"",""1"",""6194""
","
","","[{""page_index"":0,""viewing_time"":4498.300000000745}]","4498.700000001118","","","","","","","","","","","","","","","","","","","","","","","",""
"pit-instructions","7","131942","0.0-2.0-3.0","battery-v0.2","","""event"",""trial"",""time""
""fullscreenenter"",""1"",""6194""
","
","
","""event"",""trial"",""time""
""fullscreenenter"",""1"",""6194""
","
","","[{""page_index"":0,""viewing_time"":9415},{""page_index"":1,""viewing_time"":10569.400000000373},{""page_index"":2,""viewing_time"":6718},{""page_index"":3,""viewing_time"":6401.4000000003725},{""page_index"":4,""viewing_time"":7051.699999999255},{""page_index"":5,""viewing_time"":5935.0999999996275},{""page_index"":6,""viewing_time"":7434.5},{""page_index"":7,""viewing_time"":7169.4000000003725},{""page_index"":8,""viewing_time"":6852.0999999996275},{""page_index"":9,""viewing_time"":9488.700000001118},{""page_index"":10,""viewing_time"":7431.299999998882},{""page_index"":11,""viewing_time"":6304.60000000149},{""page_index"":12,""viewing_time"":6198.799999998882},{""page_index"":13,""viewing_time"":5301.4000000003725}]","102271.90000000037","","","","","","","","","","","","","","","","","","","","","","","",""
"pit-trial","8","135199","0.0-2.0-4.0-0.0","battery-v0.2","","""event"",""trial"",""time""
""fullscreenenter"",""1"",""6194""
","
","
","""event"",""trial"",""time""
""fullscreenenter"",""1"",""6194""
","
","","","397","","","18","10607","4667","&#9784;","elianto","#FFFFF080"," "," ","1","&#10004","[1248.199999999255]","1","0","0","","","","","","","",""
"pit-trial","9","138470","0.0-2.0-4.1-0.1","battery-v0.2","","""event"",""trial"",""time""
""fullscreenenter"",""1"",""6194""
","
","
","""event"",""trial"",""time""
""fullscreenenter"",""1"",""6194""
","
","","","411.59999999962747","","","18","10607","4667","&#9784;","elianto","#FFFFF080"," "," ","1","&#10004","[1264.5999999996275]","1","0","0","","","","","","","",""
"pit-trial","10","141712","0.0-2.0-4.2-0.2","battery-v0.2","","""event"",""trial"",""time""
""fullscreenenter"",""1"",""6194""
","
","
","""event"",""trial"",""time""
""fullscreenenter"",""1"",""6194""
","
","","","384","","","18","10607","4667","&#9784;","elianto","#FFFFF080"," "," ","1","&#10004","[1234.0999999996275]","1","0","0","","","","","","","",""
"pit-trial","11","144928","0.0-2.0-4.3-0.3","battery-v0.2","","""event"",""trial"",""time""
""fullscreenenter"",""1"",""6194""
","
","
","""event"",""trial"",""time""
""fullscreenenter"",""1"",""6194""
","
","","","355.19999999925494","","","18","10607","4667","&#9784;","elianto","#FFFFF080"," "," ","1","&#10004","[1208.0999999996275]","1","0","0","","","","","","","",""
"pit-trial","12","148152","0.0-2.0-4.4-0.4","battery-v0.2","","""event"",""trial"",""time""
""fullscreenenter"",""1"",""6194""
","
","
","""event"",""trial"",""time""
""fullscreenenter"",""1"",""6194""
","
","","","365.59999999962747","","","18","10607","4667","&#9784;","elianto","#FFFFF080"," "," ","1","&#10004","[1216.5999999996275]","1","0","0","","","","","","","",""
"pit-instructions","13","181489","0.0-2.0-5.0","battery-v0.2","","""event"",""trial"",""time""
""fullscreenenter"",""1"",""6194""
","
","
","""event"",""trial"",""time""
""fullscreenenter"",""1"",""6194""
","
","","[{""page_index"":0,""viewing_time"":12177.400000000373},{""page_index"":1,""viewing_time"":6801.699999999255},{""page_index"":2,""viewing_time"":7501.700000001118},{""page_index"":3,""viewing_time"":6851.299999998882}]","33332.5","","","","","","","","","","","","","","","","","","","","","","","",""
"pit-trial","14","186346","0.0-2.0-6.0-0.0","battery-v0.2","","""event"",""trial"",""time""
""fullscreenenter"",""1"",""6194""
","
","
","""event"",""trial"",""time""
""fullscreenenter"",""1"",""6194""
","
","","","-1","","","18","10607","4667","&#9854;","elianto","#FFFFF080","-1","-1","1","&#10004","[]","0","0","1","","","","","","","",""
"pit-trial","15","191208","0.0-2.0-6.1-0.1","battery-v0.2","","""event"",""trial"",""time""
""fullscreenenter"",""1"",""6194""
","
","
","""event"",""trial"",""time""
""fullscreenenter"",""1"",""6194""
","
","","","-1","","","18","10607","4667","&#9854;","elianto","#FFFFF080","-1","-1","1","&#10004","[]","0","0","1","","","","","","","",""
"pit-trial","16","196072","0.0-2.0-6.2-0.2","battery-v0.2","","""event"",""trial"",""time""
""fullscreenenter"",""1"",""6194""
","
","
","""event"",""trial"",""time""
""fullscreenenter"",""1"",""6194""
","
","","","-1","","","18","10607","4667","&#9854;","elianto","#FFFFF080","-1","-1","1","&#10004","[]","0","0","1","","","","","","","",""
"pit-trial","17","200933","0.0-2.0-6.3-0.3","battery-v0.2","","""event"",""trial"",""time""
""fullscreenenter"",""1"",""6194""
","
","
","""event"",""trial"",""time""
""fullscreenenter"",""1"",""6194""
","
","","","-1","","","18","10607","4667","&#9854;","elianto","#FFFFF080","-1","-1","1","&#10004","[]","0","0","1","","","","","","","",""
"pit-trial","18","205791","0.0-2.0-6.4-0.4","battery-v0.2","","""event"",""trial"",""time""
""fullscreenenter"",""1"",""6194""
""blur"",""19"",""213507""
""focus"",""19"",""214934""
","""event"",""trial"",""time""
""blur"",""19"",""213507""
","""event"",""trial"",""time""
""focus"",""19"",""214934""
","""event"",""trial"",""time""
""fullscreenenter"",""1"",""6194""
","
","","","-1","","","18","10607","4667","&#9854;","elianto","#FFFFF080","-1","-1","1","&#10004","[]","0","0","1","","","","","","","",""
"pit-instructions","19","368557","0.0-2.0-7.0","battery-v0.2","","""event"",""trial"",""time""
""fullscreenenter"",""1"",""6194""
""blur"",""19"",""213507""
""focus"",""19"",""214934""
","""event"",""trial"",""time""
""blur"",""19"",""213507""
","""event"",""trial"",""time""
""focus"",""19"",""214934""
","""event"",""trial"",""time""
""fullscreenenter"",""1"",""6194""
","
","","[{""page_index"":0,""viewing_time"":7467.5999999996275},{""page_index"":1,""viewing_time"":10805.800000000745},{""page_index"":2,""viewing_time"":7818.299999998882},{""page_index"":3,""viewing_time"":8068.700000001118},{""page_index"":4,""viewing_time"":7254.299999998882},{""page_index"":5,""viewing_time"":7115.700000001118},{""page_index"":6,""viewing_time"":5784.5999999996275},{""page_index"":7,""viewing_time"":12553.400000000373},{""page_index"":8,""viewing_time"":7652.299999998882},{""page_index"":9,""viewing_time"":9468.5},{""page_index"":10,""viewing_time"":7435.4000000003725},{""page_index"":11,""viewing_time"":6352},{""page_index"":12,""viewing_time"":10819},{""page_index"":13,""viewing_time"":9202.199999999255},{""page_index"":14,""viewing_time"":10952.200000001118},{""page_index"":15,""viewing_time"":9285.400000000373},{""page_index"":16,""viewing_time"":15337.199999999255},{""page_index"":17,""viewing_time"":9385.400000000373}]","162758.29999999888","","","","","","","","","","","","","","","","","","","","","","","",""
"pit-trial","20","372196","0.0-2.0-8.0-0.0","battery-v0.2","","""event"",""trial"",""time""
""fullscreenenter"",""1"",""6194""
""blur"",""19"",""213507""
""focus"",""19"",""214934""
","""event"",""trial"",""time""
""blur"",""19"",""213507""
","""event"",""trial"",""time""
""focus"",""19"",""214934""
","""event"",""trial"",""time""
""fullscreenenter"",""1"",""6194""
","
","","","782.5","","","18","10607","4667","&#9776;","elianto","#3366ff99"," "," ","1","+10","[1633.0999999996275]","1","0","1","","","","","","","",""
"pit-trial","21","375472","0.0-2.0-8.0-1.0","battery-v0.2","","""event"",""trial"",""time""
""fullscreenenter"",""1"",""6194""
""blur"",""19"",""213507""
""focus"",""19"",""214934""
","""event"",""trial"",""time""
""blur"",""19"",""213507""
","""event"",""trial"",""time""
""focus"",""19"",""214934""
","""event"",""trial"",""time""
""fullscreenenter"",""1"",""6194""
","
","","","415.7000000011176","","","18","10607","4667","&#9776;","elianto","#3366ff99"," "," ","1","+10","[1267.300000000745]","1","0","1","","","","","","","",""
"pit-trial","22","378734","0.0-2.0-8.0-2.0","battery-v0.2","","""event"",""trial"",""time""
""fullscreenenter"",""1"",""6194""
""blur"",""19"",""213507""
""focus"",""19"",""214934""
","""event"",""trial"",""time""
""blur"",""19"",""213507""
","""event"",""trial"",""time""
""focus"",""19"",""214934""
","""event"",""trial"",""time""
""fullscreenenter"",""1"",""6194""
","
","","","405.5","","","18","10607","4667","&#9776;","elianto","#3366ff99"," "," ","1","+10","[1256.0999999996275]","1","0","1","","","","","","","",""
"pit-trial","23","381804","0.0-2.0-8.0-3.0","battery-v0.2","","""event"",""trial"",""time""
""fullscreenenter"",""1"",""6194""
""blur"",""19"",""213507""
""focus"",""19"",""214934""
","""event"",""trial"",""time""
""blur"",""19"",""213507""
","""event"",""trial"",""time""
""focus"",""19"",""214934""
","""event"",""trial"",""time""
""fullscreenenter"",""1"",""6194""
","
","","","214.90000000037253","","","18","10607","4667","&#9776;","elianto","#3366ff99"," "," ","1","0","[1065.5]","1","0","1","","","","","","","",""
"pit-trial","24","384797","0.0-2.0-8.0-4.0","battery-v0.2","","""event"",""trial"",""time""
""fullscreenenter"",""1"",""6194""
""blur"",""19"",""213507""
""focus"",""19"",""214934""
","""event"",""trial"",""time""
""blur"",""19"",""213507""
","""event"",""trial"",""time""
""focus"",""19"",""214934""
","""event"",""trial"",""time""
""fullscreenenter"",""1"",""6194""
","
","","","139","","","18","10607","4667","&#9776;","elianto","#3366ff99"," "," ","1","+10","[989.9000000003725]","1","0","1","","","","","","","",""
"pit-trial","25","388047","0.0-2.0-8.1-0.1","battery-v0.2","","""event"",""trial"",""time""
""fullscreenenter"",""1"",""6194""
""blur"",""19"",""213507""
""focus"",""19"",""214934""
","""event"",""trial"",""time""
""blur"",""19"",""213507""
","""event"",""trial"",""time""
""focus"",""19"",""214934""
","""event"",""trial"",""time""
""fullscreenenter"",""1"",""6194""
","
","","","391.90000000037253","","","18","10607","4667","&#9776;","elianto","#3366ff99"," "," ","1","+10","[1243.0999999996275]","1","0","1","","","","","","","",""
"pit-trial","26","391462","0.0-2.0-8.1-1.1","battery-v0.2","","""event"",""trial"",""time""
""fullscreenenter"",""1"",""6194""
""blur"",""19"",""213507""
""focus"",""19"",""214934""
","""event"",""trial"",""time""
""blur"",""19"",""213507""
","""event"",""trial"",""time""
""focus"",""19"",""214934""
","""event"",""trial"",""time""
""fullscreenenter"",""1"",""6194""
","
","","","554.3000000007451","","","18","10607","4667","&#9776;","elianto","#3366ff99"," "," ","1","+10","[1407.800000000745]","1","0","1","","","","","","","",""
"pit-trial","27","394771","0.0-2.0-8.1-2.1","battery-v0.2","","""event"",""trial"",""time""
""fullscreenenter"",""1"",""6194""
""blur"",""19"",""213507""
""focus"",""19"",""214934""
","""event"",""trial"",""time""
""blur"",""19"",""213507""
","""event"",""trial"",""time""
""focus"",""19"",""214934""
","""event"",""trial"",""time""
""fullscreenenter"",""1"",""6194""
","
","","","453.40000000037253","","","18","10607","4667","&#9776;","elianto","#3366ff99"," "," ","1","+10","[1305]","1","0","1","","","","","","","",""
"pit-trial","28","398250","0.0-2.0-8.1-3.1","battery-v0.2","","""event"",""trial"",""time""
""fullscreenenter"",""1"",""6194""
""blur"",""19"",""213507""
""focus"",""19"",""214934""
","""event"",""trial"",""time""
""blur"",""19"",""213507""
","""event"",""trial"",""time""
""focus"",""19"",""214934""
","""event"",""trial"",""time""
""fullscreenenter"",""1"",""6194""
","
","","","625.3999999985099","","","18","10607","4667","&#9776;","elianto","#3366ff99"," "," ","1","0","[1476.3999999985099]","1","0","1","","","","","","","",""
"pit-trial","29","401502","0.0-2.0-8.1-4.1","battery-v0.2","","""event"",""trial"",""time""
""fullscreenenter"",""1"",""6194""
""blur"",""19"",""213507""
""focus"",""19"",""214934""
","""event"",""trial"",""time""
""blur"",""19"",""213507""
","""event"",""trial"",""time""
""focus"",""19"",""214934""
","""event"",""trial"",""time""
""fullscreenenter"",""1"",""6194""
","
","","","393.5","","","18","10607","4667","&#9776;","elianto","#3366ff99"," "," ","1","+10","[1247.2000000011176]","1","0","1","","","","","","","",""
"pit-trial","30","404718","0.0-2.0-8.2-0.2","battery-v0.2","","""event"",""trial"",""time""
""fullscreenenter"",""1"",""6194""
""blur"",""19"",""213507""
""focus"",""19"",""214934""
","""event"",""trial"",""time""
""blur"",""19"",""213507""
","""event"",""trial"",""time""
""focus"",""19"",""214934""
","""event"",""trial"",""time""
""fullscreenenter"",""1"",""6194""
","
","","","360.7000000011176","","","18","10607","4667","&#9776;","elianto","#3366ff99"," "," ","1","+10","[1210.7999999988824]","1","0","1","","","","","","","",""
"pit-trial","31","408042","0.0-2.0-8.2-1.2","battery-v0.2","","""event"",""trial"",""time""
""fullscreenenter"",""1"",""6194""
""blur"",""19"",""213507""
""focus"",""19"",""214934""
","""event"",""trial"",""time""
""blur"",""19"",""213507""
","""event"",""trial"",""time""
""focus"",""19"",""214934""
","""event"",""trial"",""time""
""fullscreenenter"",""1"",""6194""
","
","","","470.2000000011176","","","18","10607","4667","&#9776;","elianto","#3366ff99"," "," ","1","+10","[1320.7000000011176]","1","0","1","","","","","","","",""
"pit-trial","32","411306","0.0-2.0-8.2-2.2","battery-v0.2","","""event"",""trial"",""time""
""fullscreenenter"",""1"",""6194""
""blur"",""19"",""213507""
""focus"",""19"",""214934""
","""event"",""trial"",""time""
""blur"",""19"",""213507""
","""event"",""trial"",""time""
""focus"",""19"",""214934""
","""event"",""trial"",""time""
""fullscreenenter"",""1"",""6194""
","
","","","410.7000000011176","","","18","10607","4667","&#9776;","elianto","#3366ff99"," "," ","1","+10","[1261.9000000003725]","1","0","1","","","","","","","",""
"pit-trial","33","414588","0.0-2.0-8.2-3.2","battery-v0.2","","""event"",""trial"",""time""
""fullscreenenter"",""1"",""6194""
""blur"",""19"",""213507""
""focus"",""19"",""214934""
","""event"",""trial"",""time""
""blur"",""19"",""213507""
","""event"",""trial"",""time""
""focus"",""19"",""214934""
","""event"",""trial"",""time""
""fullscreenenter"",""1"",""6194""
","
","","","428.90000000037253","","","18","10607","4667","&#9776;","elianto","#3366ff99"," "," ","1","0","[1279.2000000011176]","1","0","1","","","","","","","",""
"pit-trial","34","417918","0.0-2.0-8.2-4.2","battery-v0.2","","""event"",""trial"",""time""
""fullscreenenter"",""1"",""6194""
""blur"",""19"",""213507""
""focus"",""19"",""214934""
","""event"",""trial"",""time""
""blur"",""19"",""213507""
","""event"",""trial"",""time""
""focus"",""19"",""214934""
","""event"",""trial"",""time""
""fullscreenenter"",""1"",""6194""
","
","","","474.59999999962747","","","18","10607","4667","&#9776;","elianto","#3366ff99"," "," ","1","+10","[1325]","1","0","1","","","","","","","",""
"call-function","35","417920","0.0-2.0-9.0","battery-v0.2","","""event"",""trial"",""time""
""fullscreenenter"",""1"",""6194""
""blur"",""19"",""213507""
""focus"",""19"",""214934""
","""event"",""trial"",""time""
""blur"",""19"",""213507""
","""event"",""trial"",""time""
""focus"",""19"",""214934""
","""event"",""trial"",""time""
""fullscreenenter"",""1"",""6194""
","
","","","","","","","","","","","","","","","","","","","","","","","","","","",""
"pit-instructions","36","466219","0.0-2.0-10.0","battery-v0.2","","""event"",""trial"",""time""
""fullscreenenter"",""1"",""6194""
""blur"",""19"",""213507""
""focus"",""19"",""214934""
","""event"",""trial"",""time""
""blur"",""19"",""213507""
","""event"",""trial"",""time""
""focus"",""19"",""214934""
","""event"",""trial"",""time""
""fullscreenenter"",""1"",""6194""
","
","","[{""page_index"":0,""viewing_time"":6436.4000000003725},{""page_index"":1,""viewing_time"":10385.099999999627},{""page_index"":2,""viewing_time"":12552.700000001118},{""page_index"":3,""viewing_time"":11169.099999999627},{""page_index"":4,""viewing_time"":7752.5}]","48296.20000000112","","","","","","","","","","","","","","","","","","","","","","","",""
"pit-trial","37","471079","0.0-2.0-11.0-0.0","battery-v0.2","","""event"",""trial"",""time""
""fullscreenenter"",""1"",""6194""
""blur"",""19"",""213507""
""focus"",""19"",""214934""
","""event"",""trial"",""time""
""blur"",""19"",""213507""
","""event"",""trial"",""time""
""focus"",""19"",""214934""
","""event"",""trial"",""time""
""fullscreenenter"",""1"",""6194""
","
","","","-1","","","18","10607","4667","&#9761;","elianto","#3366ff99","-1","-1","1","+10","[]","0","0","2","","","","","","","",""
"pit-trial","38","475939","0.0-2.0-11.0-1.0","battery-v0.2","","""event"",""trial"",""time""
""fullscreenenter"",""1"",""6194""
""blur"",""19"",""213507""
""focus"",""19"",""214934""
","""event"",""trial"",""time""
""blur"",""19"",""213507""
","""event"",""trial"",""time""
""focus"",""19"",""214934""
","""event"",""trial"",""time""
""fullscreenenter"",""1"",""6194""
","
","","","-1","","","18","10607","4667","&#9761;","elianto","#3366ff99","-1","-1","1","+10","[]","0","0","2","","","","","","","",""
"pit-trial","39","480795","0.0-2.0-11.0-2.0","battery-v0.2","","""event"",""trial"",""time""
""fullscreenenter"",""1"",""6194""
""blur"",""19"",""213507""
""focus"",""19"",""214934""
","""event"",""trial"",""time""
""blur"",""19"",""213507""
","""event"",""trial"",""time""
""focus"",""19"",""214934""
","""event"",""trial"",""time""
""fullscreenenter"",""1"",""6194""
","
","","","-1","","","18","10607","4667","&#9761;","elianto","#3366ff99","-1","-1","1","+10","[]","0","0","2","","","","","","","",""
"pit-trial","40","485654","0.0-2.0-11.0-3.0","battery-v0.2","","""event"",""trial"",""time""
""fullscreenenter"",""1"",""6194""
""blur"",""19"",""213507""
""focus"",""19"",""214934""
","""event"",""trial"",""time""
""blur"",""19"",""213507""
","""event"",""trial"",""time""
""focus"",""19"",""214934""
","""event"",""trial"",""time""
""fullscreenenter"",""1"",""6194""
","
","","","-1","","","18","10607","4667","&#9761;","elianto","#3366ff99","-1","-1","1","0","[]","0","0","2","","","","","","","",""
"pit-trial","41","490515","0.0-2.0-11.0-4.0","battery-v0.2","","""event"",""trial"",""time""
""fullscreenenter"",""1"",""6194""
""blur"",""19"",""213507""
""focus"",""19"",""214934""
","""event"",""trial"",""time""
""blur"",""19"",""213507""
","""event"",""trial"",""time""
""focus"",""19"",""214934""
","""event"",""trial"",""time""
""fullscreenenter"",""1"",""6194""
","
","","","-1","","","18","10607","4667","&#9761;","elianto","#3366ff99","-1","-1","1","+10","[]","0","0","2","","","","","","","",""
"pit-trial","42","495373","0.0-2.0-11.1-0.1","battery-v0.2","","""event"",""trial"",""time""
""fullscreenenter"",""1"",""6194""
""blur"",""19"",""213507""
""focus"",""19"",""214934""
","""event"",""trial"",""time""
""blur"",""19"",""213507""
","""event"",""trial"",""time""
""focus"",""19"",""214934""
","""event"",""trial"",""time""
""fullscreenenter"",""1"",""6194""
","
","","","-1","","","18","10607","4667","&#9761;","elianto","#3366ff99","-1","-1","1","+10","[]","0","0","2","","","","","","","",""
"pit-trial","43","500234","0.0-2.0-11.1-1.1","battery-v0.2","","""event"",""trial"",""time""
""fullscreenenter"",""1"",""6194""
""blur"",""19"",""213507""
""focus"",""19"",""214934""
","""event"",""trial"",""time""
""blur"",""19"",""213507""
","""event"",""trial"",""time""
""focus"",""19"",""214934""
","""event"",""trial"",""time""
""fullscreenenter"",""1"",""6194""
","
","","","-1","","","18","10607","4667","&#9761;","elianto","#3366ff99","-1","-1","1","+10","[]","0","0","2","","","","","","","",""
"pit-trial","44","505091","0.0-2.0-11.1-2.1","battery-v0.2","","""event"",""trial"",""time""
""fullscreenenter"",""1"",""6194""
""blur"",""19"",""213507""
""focus"",""19"",""214934""
","""event"",""trial"",""time""
""blur"",""19"",""213507""
","""event"",""trial"",""time""
""focus"",""19"",""214934""
","""event"",""trial"",""time""
""fullscreenenter"",""1"",""6194""
","
","","","-1","","","18","10607","4667","&#9761;","elianto","#3366ff99","-1","-1","1","+10","[]","0","0","2","","","","","","","",""
"pit-trial","45","509950","0.0-2.0-11.1-3.1","battery-v0.2","","""event"",""trial"",""time""
""fullscreenenter"",""1"",""6194""
""blur"",""19"",""213507""
""focus"",""19"",""214934""
","""event"",""trial"",""time""
""blur"",""19"",""213507""
","""event"",""trial"",""time""
""focus"",""19"",""214934""
","""event"",""trial"",""time""
""fullscreenenter"",""1"",""6194""
","
","","","-1","","","18","10607","4667","&#9761;","elianto","#3366ff99","-1","-1","1","0","[]","0","0","2","","","","","","","",""
"pit-trial","46","514810","0.0-2.0-11.1-4.1","battery-v0.2","","""event"",""trial"",""time""
""fullscreenenter"",""1"",""6194""
""blur"",""19"",""213507""
""focus"",""19"",""214934""
","""event"",""trial"",""time""
""blur"",""19"",""213507""
","""event"",""trial"",""time""
""focus"",""19"",""214934""
","""event"",""trial"",""time""
""fullscreenenter"",""1"",""6194""
","
","","","-1","","","18","10607","4667","&#9761;","elianto","#3366ff99","-1","-1","1","+10","[]","0","0","2","","","","","","","",""
"pit-trial","47","519669","0.0-2.0-11.2-0.2","battery-v0.2","","""event"",""trial"",""time""
""fullscreenenter"",""1"",""6194""
""blur"",""19"",""213507""
""focus"",""19"",""214934""
","""event"",""trial"",""time""
""blur"",""19"",""213507""
","""event"",""trial"",""time""
""focus"",""19"",""214934""
","""event"",""trial"",""time""
""fullscreenenter"",""1"",""6194""
","
","","","-1","","","18","10607","4667","&#9761;","elianto","#3366ff99","-1","-1","1","+10","[]","0","0","2","","","","","","","",""
"pit-trial","48","524526","0.0-2.0-11.2-1.2","battery-v0.2","","""event"",""trial"",""time""
""fullscreenenter"",""1"",""6194""
""blur"",""19"",""213507""
""focus"",""19"",""214934""
","""event"",""trial"",""time""
""blur"",""19"",""213507""
","""event"",""trial"",""time""
""focus"",""19"",""214934""
","""event"",""trial"",""time""
""fullscreenenter"",""1"",""6194""
","
","","","-1","","","18","10607","4667","&#9761;","elianto","#3366ff99","-1","-1","1","+10","[]","0","0","2","","","","","","","",""
"pit-trial","49","529386","0.0-2.0-11.2-2.2","battery-v0.2","","""event"",""trial"",""time""
""fullscreenenter"",""1"",""6194""
""blur"",""19"",""213507""
""focus"",""19"",""214934""
","""event"",""trial"",""time""
""blur"",""19"",""213507""
","""event"",""trial"",""time""
""focus"",""19"",""214934""
","""event"",""trial"",""time""
""fullscreenenter"",""1"",""6194""
","
","","","-1","","","18","10607","4667","&#9761;","elianto","#3366ff99","-1","-1","1","+10","[]","0","0","2","","","","","","","",""
"pit-trial","50","534244","0.0-2.0-11.2-3.2","battery-v0.2","","""event"",""trial"",""time""
""fullscreenenter"",""1"",""6194""
""blur"",""19"",""213507""
""focus"",""19"",""214934""
","""event"",""trial"",""time""
""blur"",""19"",""213507""
","""event"",""trial"",""time""
""focus"",""19"",""214934""
","""event"",""trial"",""time""
""fullscreenenter"",""1"",""6194""
","
","","","-1","","","18","10607","4667","&#9761;","elianto","#3366ff99","-1","-1","1","0","[]","0","0","2","","","","","","","",""
"pit-trial","51","539104","0.0-2.0-11.2-4.2","battery-v0.2","","""event"",""trial"",""time""
""fullscreenenter"",""1"",""6194""
""blur"",""19"",""213507""
""focus"",""19"",""214934""
","""event"",""trial"",""time""
""blur"",""19"",""213507""
","""event"",""trial"",""time""
""focus"",""19"",""214934""
","""event"",""trial"",""time""
""fullscreenenter"",""1"",""6194""
","
","","","-1","","","18","10607","4667","&#9761;","elianto","#3366ff99","-1","-1","1","+10","[]","0","0","2","","","","","","","",""
"pit-trial","52","543963","0.0-2.0-11.3-0.3","battery-v0.2","","""event"",""trial"",""time""
""fullscreenenter"",""1"",""6194""
""blur"",""19"",""213507""
""focus"",""19"",""214934""
","""event"",""trial"",""time""
""blur"",""19"",""213507""
","""event"",""trial"",""time""
""focus"",""19"",""214934""
","""event"",""trial"",""time""
""fullscreenenter"",""1"",""6194""
","
","","","-1","","","18","10607","4667","&#9761;","elianto","#3366ff99","-1","-1","1","+10","[]","0","0","2","","","","","","","",""
"pit-trial","53","548821","0.0-2.0-11.3-1.3","battery-v0.2","","""event"",""trial"",""time""
""fullscreenenter"",""1"",""6194""
""blur"",""19"",""213507""
""focus"",""19"",""214934""
","""event"",""trial"",""time""
""blur"",""19"",""213507""
","""event"",""trial"",""time""
""focus"",""19"",""214934""
","""event"",""trial"",""time""
""fullscreenenter"",""1"",""6194""
","
","","","-1","","","18","10607","4667","&#9761;","elianto","#3366ff99","-1","-1","1","+10","[]","0","0","2","","","","","","","",""
"pit-trial","54","553680","0.0-2.0-11.3-2.3","battery-v0.2","","""event"",""trial"",""time""
""fullscreenenter"",""1"",""6194""
""blur"",""19"",""213507""
""focus"",""19"",""214934""
","""event"",""trial"",""time""
""blur"",""19"",""213507""
","""event"",""trial"",""time""
""focus"",""19"",""214934""
","""event"",""trial"",""time""
""fullscreenenter"",""1"",""6194""
","
","","","-1","","","18","10607","4667","&#9761;","elianto","#3366ff99","-1","-1","1","+10","[]","0","0","2","","","","","","","",""
"pit-trial","55","558539","0.0-2.0-11.3-3.3","battery-v0.2","","""event"",""trial"",""time""
""fullscreenenter"",""1"",""6194""
""blur"",""19"",""213507""
""focus"",""19"",""214934""
","""event"",""trial"",""time""
""blur"",""19"",""213507""
","""event"",""trial"",""time""
""focus"",""19"",""214934""
","""event"",""trial"",""time""
""fullscreenenter"",""1"",""6194""
","
","","","-1","","","18","10607","4667","&#9761;","elianto","#3366ff99","-1","-1","1","0","[]","0","0","2","","","","","","","",""
"pit-trial","56","563398","0.0-2.0-11.3-4.3","battery-v0.2","","""event"",""trial"",""time""
""fullscreenenter"",""1"",""6194""
""blur"",""19"",""213507""
""focus"",""19"",""214934""
","""event"",""trial"",""time""
""blur"",""19"",""213507""
","""event"",""trial"",""time""
""focus"",""19"",""214934""
","""event"",""trial"",""time""
""fullscreenenter"",""1"",""6194""
","
","","","-1","","","18","10607","4667","&#9761;","elianto","#3366ff99","-1","-1","1","+10","[]","0","0","2","","","","","","","",""
"call-function","57","563400","0.0-2.0-12.0","battery-v0.2","","""event"",""trial"",""time""
""fullscreenenter"",""1"",""6194""
""blur"",""19"",""213507""
""focus"",""19"",""214934""
","""event"",""trial"",""time""
""blur"",""19"",""213507""
","""event"",""trial"",""time""
""focus"",""19"",""214934""
","""event"",""trial"",""time""
""fullscreenenter"",""1"",""6194""
","
","","","","","","","","","","","","","","","","","","","","","","","","","","",""
"pit-instructions","58","602494","0.0-2.0-13.0","battery-v0.2","","""event"",""trial"",""time""
""fullscreenenter"",""1"",""6194""
""blur"",""19"",""213507""
""focus"",""19"",""214934""
","""event"",""trial"",""time""
""blur"",""19"",""213507""
","""event"",""trial"",""time""
""focus"",""19"",""214934""
","""event"",""trial"",""time""
""fullscreenenter"",""1"",""6194""
","
","","[{""page_index"":0,""viewing_time"":6217.9000000003725},{""page_index"":1,""viewing_time"":8834.800000000745},{""page_index"":2,""viewing_time"":4901.299999998882},{""page_index"":3,""viewing_time"":12869.300000000745},{""page_index"":4,""viewing_time"":6268.699999999255}]","39092.300000000745","","","","","","","","","","","","","","","","","","","","","","","",""
"pit-trial","59","605749","0.0-2.0-14.0-0.0","battery-v0.2","","""event"",""trial"",""time""
""fullscreenenter"",""1"",""6194""
""blur"",""19"",""213507""
""focus"",""19"",""214934""
","""event"",""trial"",""time""
""blur"",""19"",""213507""
","""event"",""trial"",""time""
""focus"",""19"",""214934""
","""event"",""trial"",""time""
""fullscreenenter"",""1"",""6194""
","
","","","398.7999999988824","","","18","10607","4667","&#9826;","elianto","#f73b6a7A","-1"," ","0","-10","[1249.5]","1","0","3","","","","","","","",""
"pit-trial","60","610607","0.0-2.0-14.0-1.0","battery-v0.2","","""event"",""trial"",""time""
""fullscreenenter"",""1"",""6194""
""blur"",""19"",""213507""
""focus"",""19"",""214934""
","""event"",""trial"",""time""
""blur"",""19"",""213507""
","""event"",""trial"",""time""
""focus"",""19"",""214934""
","""event"",""trial"",""time""
""fullscreenenter"",""1"",""6194""
","
","","","-1","","","18","10607","4667","&#9826;","elianto","#f73b6a7A","-1","-1","1","0","[]","0","0","3","","","","","","","",""
"pit-trial","61","615471","0.0-2.0-14.0-2.0","battery-v0.2","","""event"",""trial"",""time""
""fullscreenenter"",""1"",""6194""
""blur"",""19"",""213507""
""focus"",""19"",""214934""
","""event"",""trial"",""time""
""blur"",""19"",""213507""
","""event"",""trial"",""time""
""focus"",""19"",""214934""
","""event"",""trial"",""time""
""fullscreenenter"",""1"",""6194""
","
","","","-1","","","18","10607","4667","&#9826;","elianto","#f73b6a7A","-1","-1","1","0","[]","0","0","3","","","","","","","",""
"pit-trial","62","620332","0.0-2.0-14.0-3.0","battery-v0.2","","""event"",""trial"",""time""
""fullscreenenter"",""1"",""6194""
""blur"",""19"",""213507""
""focus"",""19"",""214934""
","""event"",""trial"",""time""
""blur"",""19"",""213507""
","""event"",""trial"",""time""
""focus"",""19"",""214934""
","""event"",""trial"",""time""
""fullscreenenter"",""1"",""6194""
","
","","","-1","","","18","10607","4667","&#9826;","elianto","#f73b6a7A","-1","-1","1","-10","[]","0","0","3","","","","","","","",""
"pit-trial","63","625189","0.0-2.0-14.0-4.0","battery-v0.2","","""event"",""trial"",""time""
""fullscreenenter"",""1"",""6194""
""blur"",""19"",""213507""
""focus"",""19"",""214934""
","""event"",""trial"",""time""
""blur"",""19"",""213507""
","""event"",""trial"",""time""
""focus"",""19"",""214934""
","""event"",""trial"",""time""
""fullscreenenter"",""1"",""6194""
","
","","","-1","","","18","10607","4667","&#9826;","elianto","#f73b6a7A","-1","-1","1","0","[]","0","0","3","","","","","","","",""
"pit-trial","64","630054","0.0-2.0-14.1-0.1","battery-v0.2","","""event"",""trial"",""time""
""fullscreenenter"",""1"",""6194""
""blur"",""19"",""213507""
""focus"",""19"",""214934""
","""event"",""trial"",""time""
""blur"",""19"",""213507""
","""event"",""trial"",""time""
""focus"",""19"",""214934""
","""event"",""trial"",""time""
""fullscreenenter"",""1"",""6194""
","
","","","-1","","","18","10607","4667","&#9826;","elianto","#f73b6a7A","-1","-1","1","0","[]","0","0","3","","","","","","","",""
"pit-trial","65","634908","0.0-2.0-14.1-1.1","battery-v0.2","","""event"",""trial"",""time""
""fullscreenenter"",""1"",""6194""
""blur"",""19"",""213507""
""focus"",""19"",""214934""
","""event"",""trial"",""time""
""blur"",""19"",""213507""
","""event"",""trial"",""time""
""focus"",""19"",""214934""
","""event"",""trial"",""time""
""fullscreenenter"",""1"",""6194""
","
","","","-1","","","18","10607","4667","&#9826;","elianto","#f73b6a7A","-1","-1","1","0","[]","0","0","3","","","","","","","",""
"pit-trial","66","639767","0.0-2.0-14.1-2.1","battery-v0.2","","""event"",""trial"",""time""
""fullscreenenter"",""1"",""6194""
""blur"",""19"",""213507""
""focus"",""19"",""214934""
","""event"",""trial"",""time""
""blur"",""19"",""213507""
","""event"",""trial"",""time""
""focus"",""19"",""214934""
","""event"",""trial"",""time""
""fullscreenenter"",""1"",""6194""
","
","","","-1","","","18","10607","4667","&#9826;","elianto","#f73b6a7A","-1","-1","1","0","[]","0","0","3","","","","","","","",""
"pit-trial","67","644626","0.0-2.0-14.1-3.1","battery-v0.2","","""event"",""trial"",""time""
""fullscreenenter"",""1"",""6194""
""blur"",""19"",""213507""
""focus"",""19"",""214934""
","""event"",""trial"",""time""
""blur"",""19"",""213507""
","""event"",""trial"",""time""
""focus"",""19"",""214934""
","""event"",""trial"",""time""
""fullscreenenter"",""1"",""6194""
","
","","","-1","","","18","10607","4667","&#9826;","elianto","#f73b6a7A","-1","-1","1","-10","[]","0","0","3","","","","","","","",""
"pit-trial","68","649484","0.0-2.0-14.1-4.1","battery-v0.2","","""event"",""trial"",""time""
""fullscreenenter"",""1"",""6194""
""blur"",""19"",""213507""
""focus"",""19"",""214934""
","""event"",""trial"",""time""
""blur"",""19"",""213507""
","""event"",""trial"",""time""
""focus"",""19"",""214934""
","""event"",""trial"",""time""
""fullscreenenter"",""1"",""6194""
","
","","","-1","","","18","10607","4667","&#9826;","elianto","#f73b6a7A","-1","-1","1","0","[]","0","0","3","","","","","","","",""
"pit-trial","69","654338","0.0-2.0-14.2-0.2","battery-v0.2","","""event"",""trial"",""time""
""fullscreenenter"",""1"",""6194""
""blur"",""19"",""213507""
""focus"",""19"",""214934""
","""event"",""trial"",""time""
""blur"",""19"",""213507""
","""event"",""trial"",""time""
""focus"",""19"",""214934""
","""event"",""trial"",""time""
""fullscreenenter"",""1"",""6194""
","
","","","-1","","","18","10607","4667","&#9826;","elianto","#f73b6a7A","-1","-1","1","0","[]","0","0","3","","","","","","","",""
"pit-trial","70","659197","0.0-2.0-14.2-1.2","battery-v0.2","","""event"",""trial"",""time""
""fullscreenenter"",""1"",""6194""
""blur"",""19"",""213507""
""focus"",""19"",""214934""
","""event"",""trial"",""time""
""blur"",""19"",""213507""
","""event"",""trial"",""time""
""focus"",""19"",""214934""
","""event"",""trial"",""time""
""fullscreenenter"",""1"",""6194""
","
","","","-1","","","18","10607","4667","&#9826;","elianto","#f73b6a7A","-1","-1","1","0","[]","0","0","3","","","","","","","",""
"pit-trial","71","664056","0.0-2.0-14.2-2.2","battery-v0.2","","""event"",""trial"",""time""
""fullscreenenter"",""1"",""6194""
""blur"",""19"",""213507""
""focus"",""19"",""214934""
","""event"",""trial"",""time""
""blur"",""19"",""213507""
","""event"",""trial"",""time""
""focus"",""19"",""214934""
","""event"",""trial"",""time""
""fullscreenenter"",""1"",""6194""
","
","","","-1","","","18","10607","4667","&#9826;","elianto","#f73b6a7A","-1","-1","1","0","[]","0","0","3","","","","","","","",""
"pit-trial","72","668915","0.0-2.0-14.2-3.2","battery-v0.2","","""event"",""trial"",""time""
""fullscreenenter"",""1"",""6194""
""blur"",""19"",""213507""
""focus"",""19"",""214934""
","""event"",""trial"",""time""
""blur"",""19"",""213507""
","""event"",""trial"",""time""
""focus"",""19"",""214934""
","""event"",""trial"",""time""
""fullscreenenter"",""1"",""6194""
","
","","","-1","","","18","10607","4667","&#9826;","elianto","#f73b6a7A","-1","-1","1","-10","[]","0","0","3","","","","","","","",""
"pit-trial","73","673773","0.0-2.0-14.2-4.2","battery-v0.2","","""event"",""trial"",""time""
""fullscreenenter"",""1"",""6194""
""blur"",""19"",""213507""
""focus"",""19"",""214934""
","""event"",""trial"",""time""
""blur"",""19"",""213507""
","""event"",""trial"",""time""
""focus"",""19"",""214934""
","""event"",""trial"",""time""
""fullscreenenter"",""1"",""6194""
","
","","","-1","","","18","10607","4667","&#9826;","elianto","#f73b6a7A","-1","-1","1","0","[]","0","0","3","","","","","","","",""
"pit-trial","74","678628","0.0-2.0-14.3-0.3","battery-v0.2","","""event"",""trial"",""time""
""fullscreenenter"",""1"",""6194""
""blur"",""19"",""213507""
""focus"",""19"",""214934""
","""event"",""trial"",""time""
""blur"",""19"",""213507""
","""event"",""trial"",""time""
""focus"",""19"",""214934""
","""event"",""trial"",""time""
""fullscreenenter"",""1"",""6194""
","
","","","-1","","","18","10607","4667","&#9826;","elianto","#f73b6a7A","-1","-1","1","0","[]","0","0","3","","","","","","","",""
"pit-trial","75","683486","0.0-2.0-14.3-1.3","battery-v0.2","","""event"",""trial"",""time""
""fullscreenenter"",""1"",""6194""
""blur"",""19"",""213507""
""focus"",""19"",""214934""
","""event"",""trial"",""time""
""blur"",""19"",""213507""
","""event"",""trial"",""time""
""focus"",""19"",""214934""
","""event"",""trial"",""time""
""fullscreenenter"",""1"",""6194""
","
","","","-1","","","18","10607","4667","&#9826;","elianto","#f73b6a7A","-1","-1","1","0","[]","0","0","3","","","","","","","",""
"pit-trial","76","688344","0.0-2.0-14.3-2.3","battery-v0.2","","""event"",""trial"",""time""
""fullscreenenter"",""1"",""6194""
""blur"",""19"",""213507""
""focus"",""19"",""214934""
","""event"",""trial"",""time""
""blur"",""19"",""213507""
","""event"",""trial"",""time""
""focus"",""19"",""214934""
","""event"",""trial"",""time""
""fullscreenenter"",""1"",""6194""
","
","","","-1","","","18","10607","4667","&#9826;","elianto","#f73b6a7A","-1","-1","1","0","[]","0","0","3","","","","","","","",""
"pit-trial","77","693204","0.0-2.0-14.3-3.3","battery-v0.2","","""event"",""trial"",""time""
""fullscreenenter"",""1"",""6194""
""blur"",""19"",""213507""
""focus"",""19"",""214934""
","""event"",""trial"",""time""
""blur"",""19"",""213507""
","""event"",""trial"",""time""
""focus"",""19"",""214934""
","""event"",""trial"",""time""
""fullscreenenter"",""1"",""6194""
","
","","","-1","","","18","10607","4667","&#9826;","elianto","#f73b6a7A","-1","-1","1","-10","[]","0","0","3","","","","","","","",""
"pit-trial","78","698062","0.0-2.0-14.3-4.3","battery-v0.2","","""event"",""trial"",""time""
""fullscreenenter"",""1"",""6194""
""blur"",""19"",""213507""
""focus"",""19"",""214934""
","""event"",""trial"",""time""
""blur"",""19"",""213507""
","""event"",""trial"",""time""
""focus"",""19"",""214934""
","""event"",""trial"",""time""
""fullscreenenter"",""1"",""6194""
","
","","","-1","","","18","10607","4667","&#9826;","elianto","#f73b6a7A","-1","-1","1","0","[]","0","0","3","","","","","","","",""
"call-function","79","698064","0.0-2.0-15.0","battery-v0.2","","""event"",""trial"",""time""
""fullscreenenter"",""1"",""6194""
""blur"",""19"",""213507""
""focus"",""19"",""214934""
","""event"",""trial"",""time""
""blur"",""19"",""213507""
","""event"",""trial"",""time""
""focus"",""19"",""214934""
","""event"",""trial"",""time""
""fullscreenenter"",""1"",""6194""
","
","","","","","","","","","","","","","","","","","","","","","","","","","","",""
"pit-instructions","80","742253","0.0-2.0-16.0","battery-v0.2","","""event"",""trial"",""time""
""fullscreenenter"",""1"",""6194""
""blur"",""19"",""213507""
""focus"",""19"",""214934""
","""event"",""trial"",""time""
""blur"",""19"",""213507""
","""event"",""trial"",""time""
""focus"",""19"",""214934""
","""event"",""trial"",""time""
""fullscreenenter"",""1"",""6194""
","
","","[{""page_index"":0,""viewing_time"":18281.300000000745},{""page_index"":1,""viewing_time"":14920},{""page_index"":2,""viewing_time"":4934.199999999255},{""page_index"":3,""viewing_time"":6051.60000000149}]","44187.40000000037","","","","","","","","","","","","","","","","","","","","","","","",""
"pit-trial","81","745209","0.0-2.0-17.0-0.0","battery-v0.2","","""event"",""trial"",""time""
""fullscreenenter"",""1"",""6194""
""blur"",""19"",""213507""
""focus"",""19"",""214934""
","""event"",""trial"",""time""
""blur"",""19"",""213507""
","""event"",""trial"",""time""
""focus"",""19"",""214934""
","""event"",""trial"",""time""
""fullscreenenter"",""1"",""6194""
","
","","","101.79999999888241","","","18","10607","4667","&#9789;","elianto","#f73b6a7A"," "," ","1","0","[953.5999999996275]","1","0","4","","","","","","","",""
"pit-trial","82","748229","0.0-2.0-17.0-1.0","battery-v0.2","","""event"",""trial"",""time""
""fullscreenenter"",""1"",""6194""
""blur"",""19"",""213507""
""focus"",""19"",""214934""
","""event"",""trial"",""time""
""blur"",""19"",""213507""
","""event"",""trial"",""time""
""focus"",""19"",""214934""
","""event"",""trial"",""time""
""fullscreenenter"",""1"",""6194""
","
","","","159.39999999850988","","","18","10607","4667","&#9789;","elianto","#f73b6a7A"," "," ","1","0","[1011.5999999996275]","1","0","4","","","","","","","",""
"pit-trial","83","751216","0.0-2.0-17.0-2.0","battery-v0.2","","""event"",""trial"",""time""
""fullscreenenter"",""1"",""6194""
""blur"",""19"",""213507""
""focus"",""19"",""214934""
","""event"",""trial"",""time""
""blur"",""19"",""213507""
","""event"",""trial"",""time""
""focus"",""19"",""214934""
","""event"",""trial"",""time""
""fullscreenenter"",""1"",""6194""
","
","","","131.2000000011176","","","18","10607","4667","&#9789;","elianto","#f73b6a7A"," "," ","1","0","[981.7999999988824]","1","0","4","","","","","","","",""
"pit-trial","84","754251","0.0-2.0-17.0-3.0","battery-v0.2","","""event"",""trial"",""time""
""fullscreenenter"",""1"",""6194""
""blur"",""19"",""213507""
""focus"",""19"",""214934""
","""event"",""trial"",""time""
""blur"",""19"",""213507""
","""event"",""trial"",""time""
""focus"",""19"",""214934""
","""event"",""trial"",""time""
""fullscreenenter"",""1"",""6194""
","
","","","179","","","18","10607","4667","&#9789;","elianto","#f73b6a7A"," "," ","1","-10","[1029.3999999985099]","1","0","4","","","","","","","",""
"pit-trial","85","757363","0.0-2.0-17.0-4.0","battery-v0.2","","""event"",""trial"",""time""
""fullscreenenter"",""1"",""6194""
""blur"",""19"",""213507""
""focus"",""19"",""214934""
","""event"",""trial"",""time""
""blur"",""19"",""213507""
","""event"",""trial"",""time""
""focus"",""19"",""214934""
","""event"",""trial"",""time""
""fullscreenenter"",""1"",""6194""
","
","","","252.69999999925494","","","18","10607","4667","&#9789;","elianto","#f73b6a7A"," "," ","1","0","[1104.699999999255]","1","0","4","","","","","","","",""
"pit-trial","86","760337","0.0-2.0-17.1-0.1","battery-v0.2","","""event"",""trial"",""time""
""fullscreenenter"",""1"",""6194""
""blur"",""19"",""213507""
""focus"",""19"",""214934""
","""event"",""trial"",""time""
""blur"",""19"",""213507""
","""event"",""trial"",""time""
""focus"",""19"",""214934""
","""event"",""trial"",""time""
""fullscreenenter"",""1"",""6194""
","
","","","113.80000000074506","","","18","10607","4667","&#9789;","elianto","#f73b6a7A"," "," ","1","0","[965.6000000014901]","1","0","4","","","","","","","",""
"pit-trial","87","763371","0.0-2.0-17.1-1.1","battery-v0.2","","""event"",""trial"",""time""
""fullscreenenter"",""1"",""6194""
""blur"",""19"",""213507""
""focus"",""19"",""214934""
","""event"",""trial"",""time""
""blur"",""19"",""213507""
","""event"",""trial"",""time""
""focus"",""19"",""214934""
","""event"",""trial"",""time""
""fullscreenenter"",""1"",""6194""
","
","","","176.2000000011176","","","18","10607","4667","&#9789;","elianto","#f73b6a7A"," "," ","1","0","[1026.8999999985099]","1","0","4","","","","","","","",""
"pit-trial","88","766368","0.0-2.0-17.1-2.1","battery-v0.2","","""event"",""trial"",""time""
""fullscreenenter"",""1"",""6194""
""blur"",""19"",""213507""
""focus"",""19"",""214934""
","""event"",""trial"",""time""
""blur"",""19"",""213507""
","""event"",""trial"",""time""
""focus"",""19"",""214934""
","""event"",""trial"",""time""
""fullscreenenter"",""1"",""6194""
","
","","","141.7999999988824","","","18","10607","4667","&#9789;","elianto","#f73b6a7A"," "," ","1","0","[993.5]","1","0","4","","","","","","","",""
"pit-trial","89","769407","0.0-2.0-17.1-3.1","battery-v0.2","","""event"",""trial"",""time""
""fullscreenenter"",""1"",""6194""
""blur"",""19"",""213507""
""focus"",""19"",""214934""
","""event"",""trial"",""time""
""blur"",""19"",""213507""
","""event"",""trial"",""time""
""focus"",""19"",""214934""
","""event"",""trial"",""time""
""fullscreenenter"",""1"",""6194""
","
","","","183.80000000074506","","","18","10607","4667","&#9789;","elianto","#f73b6a7A"," "," ","1","-10","[1035.2999999988824]","1","0","4","","","","","","","",""
"pit-trial","90","772360","0.0-2.0-17.1-4.1","battery-v0.2","","""event"",""trial"",""time""
""fullscreenenter"",""1"",""6194""
""blur"",""19"",""213507""
""focus"",""19"",""214934""
","""event"",""trial"",""time""
""blur"",""19"",""213507""
","""event"",""trial"",""time""
""focus"",""19"",""214934""
","""event"",""trial"",""time""
""fullscreenenter"",""1"",""6194""
","
","","","99","","","18","10607","4667","&#9789;","elianto","#f73b6a7A"," "," ","1","0","[950.5999999996275]","1","0","4","","","","","","","",""
"pit-trial","91","775408","0.0-2.0-17.2-0.2","battery-v0.2","","""event"",""trial"",""time""
""fullscreenenter"",""1"",""6194""
""blur"",""19"",""213507""
""focus"",""19"",""214934""
","""event"",""trial"",""time""
""blur"",""19"",""213507""
","""event"",""trial"",""time""
""focus"",""19"",""214934""
","""event"",""trial"",""time""
""fullscreenenter"",""1"",""6194""
","
","","","192","","","18","10607","4667","&#9789;","elianto","#f73b6a7A"," "," ","1","0","[1043.9000000003725]","1","0","4","","","","","","","",""
"pit-trial","92","778386","0.0-2.0-17.2-1.2","battery-v0.2","","""event"",""trial"",""time""
""fullscreenenter"",""1"",""6194""
""blur"",""19"",""213507""
""focus"",""19"",""214934""
","""event"",""trial"",""time""
""blur"",""19"",""213507""
","""event"",""trial"",""time""
""focus"",""19"",""214934""
","""event"",""trial"",""time""
""fullscreenenter"",""1"",""6194""
","
","","","122.5","","","18","10607","4667","&#9789;","elianto","#f73b6a7A"," "," ","1","0","[974]","1","0","4","","","","","","","",""
"pit-trial","93","781405","0.0-2.0-17.2-2.2","battery-v0.2","","""event"",""trial"",""time""
""fullscreenenter"",""1"",""6194""
""blur"",""19"",""213507""
""focus"",""19"",""214934""
","""event"",""trial"",""time""
""blur"",""19"",""213507""
","""event"",""trial"",""time""
""focus"",""19"",""214934""
","""event"",""trial"",""time""
""fullscreenenter"",""1"",""6194""
","
","","","160.80000000074506","","","18","10607","4667","&#9789;","elianto","#f73b6a7A"," "," ","1","0","[1012.3000000007451]","1","0","4","","","","","","","",""
"pit-trial","94","784440","0.0-2.0-17.2-3.2","battery-v0.2","","""event"",""trial"",""time""
""fullscreenenter"",""1"",""6194""
""blur"",""19"",""213507""
""focus"",""19"",""214934""
","""event"",""trial"",""time""
""blur"",""19"",""213507""
","""event"",""trial"",""time""
""focus"",""19"",""214934""
","""event"",""trial"",""time""
""fullscreenenter"",""1"",""6194""
","
","","","178.7000000011176","","","18","10607","4667","&#9789;","elianto","#f73b6a7A"," "," ","1","-10","[1031.1000000014901]","1","0","4","","","","","","","",""
"pit-trial","95","787441","0.0-2.0-17.2-4.2","battery-v0.2","","""event"",""trial"",""time""
""fullscreenenter"",""1"",""6194""
""blur"",""19"",""213507""
""focus"",""19"",""214934""
","""event"",""trial"",""time""
""blur"",""19"",""213507""
","""event"",""trial"",""time""
""focus"",""19"",""214934""
","""event"",""trial"",""time""
""fullscreenenter"",""1"",""6194""
","
","","","144.19999999925494","","","18","10607","4667","&#9789;","elianto","#f73b6a7A"," "," ","1","0","[996.0999999996275]","1","0","4","","","","","","","",""
"pit-trial","96","790514","0.0-2.0-17.3-0.3","battery-v0.2","","""event"",""trial"",""time""
""fullscreenenter"",""1"",""6194""
""blur"",""19"",""213507""
""focus"",""19"",""214934""
","""event"",""trial"",""time""
""blur"",""19"",""213507""
","""event"",""trial"",""time""
""focus"",""19"",""214934""
","""event"",""trial"",""time""
""fullscreenenter"",""1"",""6194""
","
","","","214.80000000074506","","","18","10607","4667","&#9789;","elianto","#f73b6a7A"," "," ","1","0","[1067.3999999985099]","1","0","4","","","","","","","",""
"pit-trial","97","793491","0.0-2.0-17.3-1.3","battery-v0.2","","""event"",""trial"",""time""
""fullscreenenter"",""1"",""6194""
""blur"",""19"",""213507""
""focus"",""19"",""214934""
","""event"",""trial"",""time""
""blur"",""19"",""213507""
","""event"",""trial"",""time""
""focus"",""19"",""214934""
","""event"",""trial"",""time""
""fullscreenenter"",""1"",""6194""
","
","","","121.39999999850988","","","18","10607","4667","&#9789;","elianto","#f73b6a7A"," "," ","1","0","[972.5]","1","0","4","","","","","","","",""
"pit-trial","98","796545","0.0-2.0-17.3-2.3","battery-v0.2","","""event"",""trial"",""time""
""fullscreenenter"",""1"",""6194""
""blur"",""19"",""213507""
""focus"",""19"",""214934""
","""event"",""trial"",""time""
""blur"",""19"",""213507""
","""event"",""trial"",""time""
""focus"",""19"",""214934""
","""event"",""trial"",""time""
""fullscreenenter"",""1"",""6194""
","
","","","197.69999999925494","","","18","10607","4667","&#9789;","elianto","#f73b6a7A"," "," ","1","0","[1049.9000000003725]","1","0","4","","","","","","","",""
"pit-trial","99","801406","0.0-2.0-17.3-3.3","battery-v0.2","","""event"",""trial"",""time""
""fullscreenenter"",""1"",""6194""
""blur"",""19"",""213507""
""focus"",""19"",""214934""
","""event"",""trial"",""time""
""blur"",""19"",""213507""
","""event"",""trial"",""time""
""focus"",""19"",""214934""
","""event"",""trial"",""time""
""fullscreenenter"",""1"",""6194""
","
","","","-1","","","18","10607","4667","&#9789;","elianto","#f73b6a7A"," ","-1","0","0","[]","0","0","4","","","","","","","",""
"pit-trial","100","804371","0.0-2.0-17.3-4.3","battery-v0.2","","""event"",""trial"",""time""
""fullscreenenter"",""1"",""6194""
""blur"",""19"",""213507""
""focus"",""19"",""214934""
","""event"",""trial"",""time""
""blur"",""19"",""213507""
","""event"",""trial"",""time""
""focus"",""19"",""214934""
","""event"",""trial"",""time""
""fullscreenenter"",""1"",""6194""
","
","","","109.30000000074506","","","18","10607","4667","&#9789;","elianto","#f73b6a7A"," "," ","1","0","[960.1000000014901]","1","0","4","","","","","","","",""
"call-function","101","804373","0.0-2.0-18.0","battery-v0.2","","""event"",""trial"",""time""
""fullscreenenter"",""1"",""6194""
""blur"",""19"",""213507""
""focus"",""19"",""214934""
","""event"",""trial"",""time""
""blur"",""19"",""213507""
","""event"",""trial"",""time""
""focus"",""19"",""214934""
","""event"",""trial"",""time""
""fullscreenenter"",""1"",""6194""
","
","","","","","","","","","","","","","","","","","","","","","","","","","","",""
"pit-instructions","102","1209155","0.0-2.0-19.0","battery-v0.2","","""event"",""trial"",""time""
""fullscreenenter"",""1"",""6194""
""blur"",""19"",""213507""
""focus"",""19"",""214934""
","""event"",""trial"",""time""
""blur"",""19"",""213507""
","""event"",""trial"",""time""
""focus"",""19"",""214934""
","""event"",""trial"",""time""
""fullscreenenter"",""1"",""6194""
","
","","[{""page_index"":0,""viewing_time"":112188.79999999888},{""page_index"":1,""viewing_time"":7401.800000000745},{""page_index"":2,""viewing_time"":176304.29999999888},{""page_index"":3,""viewing_time"":10136.300000000745},{""page_index"":4,""viewing_time"":10985.5},{""page_index"":5,""viewing_time"":12754.199999999255},{""page_index"":6,""viewing_time"":8899.60000000149},{""page_index"":7,""viewing_time"":61164.199999999255},{""page_index"":8,""viewing_time"":4934.4000000003725}]","404769.3999999985","","","","","","","","","","","","","","","","","","","","","","","",""
"pit-comprehension","103","1213740","0.0-2.0-20.0-0.0","battery-v0.2","","""event"",""trial"",""time""
""fullscreenenter"",""1"",""6194""
""blur"",""19"",""213507""
""focus"",""19"",""214934""
","""event"",""trial"",""time""
""blur"",""19"",""213507""
","""event"",""trial"",""time""
""focus"",""19"",""214934""
","""event"",""trial"",""time""
""fullscreenenter"",""1"",""6194""
","
","","","4581.9000000003725","[""SPACE""]","0","18","10607","4667","","","","","","","","","","","","","","","","","","",""
"pit-instructions","104","1216256","0.0-2.0-20.0-1.0","battery-v0.2","","""event"",""trial"",""time""
""fullscreenenter"",""1"",""6194""
""blur"",""19"",""213507""
""focus"",""19"",""214934""
","""event"",""trial"",""time""
""blur"",""19"",""213507""
","""event"",""trial"",""time""
""focus"",""19"",""214934""
","""event"",""trial"",""time""
""fullscreenenter"",""1"",""6194""
","
","","[{""page_index"":0,""viewing_time"":2479.800000000745}]","2480.0999999996275","","","","","","","","","","","","","","","","","","","","","","","",""
"pit-comprehension","105","1221825","0.0-2.0-21.0-0.0","battery-v0.2","","""event"",""trial"",""time""
""fullscreenenter"",""1"",""6194""
""blur"",""19"",""213507""
""focus"",""19"",""214934""
","""event"",""trial"",""time""
""blur"",""19"",""213507""
","""event"",""trial"",""time""
""focus"",""19"",""214934""
","""event"",""trial"",""time""
""fullscreenenter"",""1"",""6194""
","
","","","5565.200000001118","[""10""]","0","18","10607","4667","","","","","","","","","","","","","","","","","","",""
"pit-instructions","106","1223458","0.0-2.0-21.0-1.0","battery-v0.2","","""event"",""trial"",""time""
""fullscreenenter"",""1"",""6194""
""blur"",""19"",""213507""
""focus"",""19"",""214934""
","""event"",""trial"",""time""
""blur"",""19"",""213507""
","""event"",""trial"",""time""
""focus"",""19"",""214934""
","""event"",""trial"",""time""
""fullscreenenter"",""1"",""6194""
","
","","[{""page_index"":0,""viewing_time"":1597}]","1597.4000000003725","","","","","","","","","","","","","","","","","","","","","","","",""
"pit-comprehension","107","1233410","0.0-2.0-22.0-0.0","battery-v0.2","","""event"",""trial"",""time""
""fullscreenenter"",""1"",""6194""
""blur"",""19"",""213507""
""focus"",""19"",""214934""
","""event"",""trial"",""time""
""blur"",""19"",""213507""
","""event"",""trial"",""time""
""focus"",""19"",""214934""
","""event"",""trial"",""time""
""fullscreenenter"",""1"",""6194""
","
","","","9948.900000000373","[""0""]","0","18","10607","4667","","","","","","","","","","","","","","","","","","",""
"pit-instructions","108","1237728","0.0-2.0-22.0-1.0","battery-v0.2","","""event"",""trial"",""time""
""fullscreenenter"",""1"",""6194""
""blur"",""19"",""213507""
""focus"",""19"",""214934""
","""event"",""trial"",""time""
""blur"",""19"",""213507""
","""event"",""trial"",""time""
""focus"",""19"",""214934""
","""event"",""trial"",""time""
""fullscreenenter"",""1"",""6194""
","
","","[{""page_index"":0,""viewing_time"":4280.89999999851}]","4281.0999999996275","","","","","","","","","","","","","","","","","","","","","","","",""
"pit-comprehension","109","1258067","0.0-2.0-23.0-0.0","battery-v0.2","","""event"",""trial"",""time""
""fullscreenenter"",""1"",""6194""
""blur"",""19"",""213507""
""focus"",""19"",""214934""
","""event"",""trial"",""time""
""blur"",""19"",""213507""
","""event"",""trial"",""time""
""focus"",""19"",""214934""
","""event"",""trial"",""time""
""fullscreenenter"",""1"",""6194""
","
","","","20335.400000000373","[""True""]","0","18","10607","4667","","","","","","","","","","","","","","","","","","",""
"pit-instructions","110","1283456","0.0-2.0-23.0-1.0","battery-v0.2","","""event"",""trial"",""time""
""fullscreenenter"",""1"",""6194""
""blur"",""19"",""213507""
""focus"",""19"",""214934""
","""event"",""trial"",""time""
""blur"",""19"",""213507""
","""event"",""trial"",""time""
""focus"",""19"",""214934""
","""event"",""trial"",""time""
""fullscreenenter"",""1"",""6194""
","
","","[{""page_index"":0,""viewing_time"":25353.199999999255}]","25353.5","","","","","","","","","","","","","","","","","","","","","","","",""
"pit-comprehension","111","1291459","0.0-2.0-24.0-0.0","battery-v0.2","","""event"",""trial"",""time""
""fullscreenenter"",""1"",""6194""
""blur"",""19"",""213507""
""focus"",""19"",""214934""
","""event"",""trial"",""time""
""blur"",""19"",""213507""
","""event"",""trial"",""time""
""focus"",""19"",""214934""
","""event"",""trial"",""time""
""fullscreenenter"",""1"",""6194""
","
","","","8000.0999999996275","[""True""]","0","18","10607","4667","","","","","","","","","","","","","","","","","","",""
"pit-instructions","112","1297644","0.0-2.0-24.0-1.0","battery-v0.2","","""event"",""trial"",""time""
""fullscreenenter"",""1"",""6194""
""blur"",""19"",""213507""
""focus"",""19"",""214934""
","""event"",""trial"",""time""
""blur"",""19"",""213507""
","""event"",""trial"",""time""
""focus"",""19"",""214934""
","""event"",""trial"",""time""
""fullscreenenter"",""1"",""6194""
","
","","[{""page_index"":0,""viewing_time"":6147.9000000003725}]","6148.10000000149","","","","","","","","","","","","","","","","","","","","","","","",""
"pit-comprehension","113","1305347","0.0-2.0-25.0-0.0","battery-v0.2","","""event"",""trial"",""time""
""fullscreenenter"",""1"",""6194""
""blur"",""19"",""213507""
""focus"",""19"",""214934""
","""event"",""trial"",""time""
""blur"",""19"",""213507""
","""event"",""trial"",""time""
""focus"",""19"",""214934""
","""event"",""trial"",""time""
""fullscreenenter"",""1"",""6194""
","
","","","7699.39999999851","[""True""]","0","18","10607","4667","","","","","","","","","","","","","","","","","","",""
"pit-instructions","114","1311080","0.0-2.0-25.0-1.0","battery-v0.2","","""event"",""trial"",""time""
""fullscreenenter"",""1"",""6194""
""blur"",""19"",""213507""
""focus"",""19"",""214934""
","""event"",""trial"",""time""
""blur"",""19"",""213507""
","""event"",""trial"",""time""
""focus"",""19"",""214934""
","""event"",""trial"",""time""
""fullscreenenter"",""1"",""6194""
","
","","[{""page_index"":0,""viewing_time"":5697}]","5697.300000000745","","","","","","","","","","","","","","","","","","","","","","","",""
"pit-comprehension","115","1316249","0.0-2.0-26.0-0.0","battery-v0.2","","""event"",""trial"",""time""
""fullscreenenter"",""1"",""6194""
""blur"",""19"",""213507""
""focus"",""19"",""214934""
","""event"",""trial"",""time""
""blur"",""19"",""213507""
","""event"",""trial"",""time""
""focus"",""19"",""214934""
","""event"",""trial"",""time""
""fullscreenenter"",""1"",""6194""
","
","","","5165.0999999996275","[""False""]","0","18","10607","4667","","","","","","","","","","","","","","","","","","",""
"pit-instructions","116","1325584","0.0-2.0-26.0-1.0","battery-v0.2","","""event"",""trial"",""time""
""fullscreenenter"",""1"",""6194""
""blur"",""19"",""213507""
""focus"",""19"",""214934""
","""event"",""trial"",""time""
""blur"",""19"",""213507""
","""event"",""trial"",""time""
""focus"",""19"",""214934""
","""event"",""trial"",""time""
""fullscreenenter"",""1"",""6194""
","
","","[{""page_index"":0,""viewing_time"":9297.699999999255}]","9298","","","","","","","","","","","","","","","","","","","","","","","",""
"pit-instructions","117","1345656","0.0-3.0","battery-v0.2","","""event"",""trial"",""time""
""fullscreenenter"",""1"",""6194""
""blur"",""19"",""213507""
""focus"",""19"",""214934""
","""event"",""trial"",""time""
""blur"",""19"",""213507""
","""event"",""trial"",""time""
""focus"",""19"",""214934""
","""event"",""trial"",""time""
""fullscreenenter"",""1"",""6194""
","
","","[{""page_index"":0,""viewing_time"":6282.10000000149},{""page_index"":1,""viewing_time"":5684.699999999255},{""page_index"":2,""viewing_time"":8102.300000000745}]","20069.400000000373","","","","","","","","","","","","","","","","","","","","","","","",""
"pit-trial","118","1349749","0.0-4.0","battery-v0.2","","""event"",""trial"",""time""
""fullscreenenter"",""1"",""6194""
""blur"",""19"",""213507""
""focus"",""19"",""214934""
","""event"",""trial"",""time""
""blur"",""19"",""213507""
","""event"",""trial"",""time""
""focus"",""19"",""214934""
","""event"",""trial"",""time""
""fullscreenenter"",""1"",""6194""
","
","","","1233","","","18","10607","4667","&#9752;","elianto","#f73b6a7A"," "," ","1","0","[2083.300000000745]","1","1","","","10607","1","3","3","lose","go","0"
"pit-trial","119","1353353","0.0-5.0","battery-v0.2","","""event"",""trial"",""time""
""fullscreenenter"",""1"",""6194""
""blur"",""19"",""213507""
""focus"",""19"",""214934""
","""event"",""trial"",""time""
""blur"",""19"",""213507""
","""event"",""trial"",""time""
""focus"",""19"",""214934""
","""event"",""trial"",""time""
""fullscreenenter"",""1"",""6194""
","
","","","749.5","","","18","10607","4667","&#9733;","elianto","#3366ff99","-1"," ","0","0","[1600.2999999988824]","1","1","","","10607","2","2","2","win","no-go","0"
"pit-trial","120","1357133","0.0-6.0","battery-v0.2","","""event"",""trial"",""time""
""fullscreenenter"",""1"",""6194""
""blur"",""19"",""213507""
""focus"",""19"",""214934""
","""event"",""trial"",""time""
""blur"",""19"",""213507""
","""event"",""trial"",""time""
""focus"",""19"",""214934""
","""event"",""trial"",""time""
""fullscreenenter"",""1"",""6194""
","
","","","921.4000000003725","","","18","10607","4667","&#9728;","elianto","#f73b6a7A","-1"," ","0","0","[1772]","1","1","","","10607","3","0","4","lose","no-go","1"
"pit-trial","121","1361992","0.0-7.0","battery-v0.2","","""event"",""trial"",""time""
""fullscreenenter"",""1"",""6194""
""blur"",""19"",""213507""
""focus"",""19"",""214934""
","""event"",""trial"",""time""
""blur"",""19"",""213507""
","""event"",""trial"",""time""
""focus"",""19"",""214934""
","""event"",""trial"",""time""
""fullscreenenter"",""1"",""6194""
","
","","","-1","","","18","10607","4667","&#9730;","elianto","#3366ff99"," ","-1","0","0","[]","0","1","","","10607","4","1","1","win","go","0"
"pit-trial","122","1366856","0.0-8.0","battery-v0.2","","""event"",""trial"",""time""
""fullscreenenter"",""1"",""6194""
""blur"",""19"",""213507""
""focus"",""19"",""214934""
","""event"",""trial"",""time""
""blur"",""19"",""213507""
","""event"",""trial"",""time""
""focus"",""19"",""214934""
","""event"",""trial"",""time""
""fullscreenenter"",""1"",""6194""
","
","","","-1","","","18","10607","4667","&#9733;","elianto","#3366ff99","-1","-1","1","0","[]","0","1","","","10607","5","2","2","win","no-go","1"
"pit-trial","123","1370409","0.0-9.0","battery-v0.2","","""event"",""trial"",""time""
""fullscreenenter"",""1"",""6194""
""blur"",""19"",""213507""
""focus"",""19"",""214934""
","""event"",""trial"",""time""
""blur"",""19"",""213507""
","""event"",""trial"",""time""
""focus"",""19"",""214934""
","""event"",""trial"",""time""
""fullscreenenter"",""1"",""6194""
","
","","","697.7000000011176","","","18","10607","4667","&#9730;","elianto","#3366ff99"," "," ","1","+10","[1550.5]","1","1","","","10607","6","1","1","win","go","0"
"pit-trial","124","1375267","0.0-10.0","battery-v0.2","","""event"",""trial"",""time""
""fullscreenenter"",""1"",""6194""
""blur"",""19"",""213507""
""focus"",""19"",""214934""
","""event"",""trial"",""time""
""blur"",""19"",""213507""
","""event"",""trial"",""time""
""focus"",""19"",""214934""
","""event"",""trial"",""time""
""fullscreenenter"",""1"",""6194""
","
","","","-1","","","18","10607","4667","&#9728;","elianto","#f73b6a7A","-1","-1","1","0","[]","0","1","","","10607","7","0","4","lose","no-go","0"
"pit-trial","125","1380127","0.0-11.0","battery-v0.2","","""event"",""trial"",""time""
""fullscreenenter"",""1"",""6194""
""blur"",""19"",""213507""
""focus"",""19"",""214934""
","""event"",""trial"",""time""
""blur"",""19"",""213507""
","""event"",""trial"",""time""
""focus"",""19"",""214934""
","""event"",""trial"",""time""
""fullscreenenter"",""1"",""6194""
","
","","","-1","","","18","10607","4667","&#9752;","elianto","#f73b6a7A"," ","-1","0","-10","[]","0","1","","","10607","8","3","3","lose","go","0"
"pit-trial","126","1384986","0.0-12.0","battery-v0.2","","""event"",""trial"",""time""
""fullscreenenter"",""1"",""6194""
""blur"",""19"",""213507""
""focus"",""19"",""214934""
","""event"",""trial"",""time""
""blur"",""19"",""213507""
","""event"",""trial"",""time""
""focus"",""19"",""214934""
","""event"",""trial"",""time""
""fullscreenenter"",""1"",""6194""
","
","","","-1","","","18","10607","4667","&#9733;","elianto","#3366ff99","-1","-1","1","+10","[]","0","1","","","10607","9","2","2","win","no-go","0"
"pit-trial","127","1389845","0.0-13.0","battery-v0.2","","""event"",""trial"",""time""
""fullscreenenter"",""1"",""6194""
""blur"",""19"",""213507""
""focus"",""19"",""214934""
","""event"",""trial"",""time""
""blur"",""19"",""213507""
","""event"",""trial"",""time""
""focus"",""19"",""214934""
","""event"",""trial"",""time""
""fullscreenenter"",""1"",""6194""
","
","","","-1","","","18","10607","4667","&#9730;","elianto","#3366ff99"," ","-1","0","0","[]","0","1","","","10607","10","1","1","win","go","0"
"pit-trial","128","1394704","0.0-14.0","battery-v0.2","","""event"",""trial"",""time""
""fullscreenenter"",""1"",""6194""
""blur"",""19"",""213507""
""focus"",""19"",""214934""
","""event"",""trial"",""time""
""blur"",""19"",""213507""
","""event"",""trial"",""time""
""focus"",""19"",""214934""
","""event"",""trial"",""time""
""fullscreenenter"",""1"",""6194""
","
","","","-1","","","18","10607","4667","&#9728;","elianto","#f73b6a7A","-1","-1","1","0","[]","0","1","","","10607","11","0","4","lose","no-go","0"
"pit-trial","129","1399188","0.0-15.0","battery-v0.2","","""event"",""trial"",""time""
""fullscreenenter"",""1"",""6194""
""blur"",""19"",""213507""
""focus"",""19"",""214934""
","""event"",""trial"",""time""
""blur"",""19"",""213507""
","""event"",""trial"",""time""
""focus"",""19"",""214934""
","""event"",""trial"",""time""
""fullscreenenter"",""1"",""6194""
","
","","","1627.5","","","18","10607","4667","&#9752;","elianto","#f73b6a7A"," "," ","1","0","[2479.2000000011176]","1","1","","","10607","12","3","3","lose","go","0"
"pit-trial","130","1404043","0.0-16.0","battery-v0.2","","""event"",""trial"",""time""
""fullscreenenter"",""1"",""6194""
""blur"",""19"",""213507""
""focus"",""19"",""214934""
","""event"",""trial"",""time""
""blur"",""19"",""213507""
","""event"",""trial"",""time""
""focus"",""19"",""214934""
","""event"",""trial"",""time""
""fullscreenenter"",""1"",""6194""
","
","","","-1","","","18","10607","4667","&#9733;","elianto","#3366ff99","-1","-1","1","0","[]","0","1","","","10607","13","2","2","win","no-go","1"
"pit-trial","131","1408901","0.0-17.0","battery-v0.2","","""event"",""trial"",""time""
""fullscreenenter"",""1"",""6194""
""blur"",""19"",""213507""
""focus"",""19"",""214934""
","""event"",""trial"",""time""
""blur"",""19"",""213507""
","""event"",""trial"",""time""
""focus"",""19"",""214934""
","""event"",""trial"",""time""
""fullscreenenter"",""1"",""6194""
","
","","","-1","","","18","10607","4667","&#9728;","elianto","#f73b6a7A","-1","-1","1","0","[]","0","1","","","10607","14","0","4","lose","no-go","0"
"pit-trial","132","1413760","0.0-18.0","battery-v0.2","","""event"",""trial"",""time""
""fullscreenenter"",""1"",""6194""
""blur"",""19"",""213507""
""focus"",""19"",""214934""
","""event"",""trial"",""time""
""blur"",""19"",""213507""
","""event"",""trial"",""time""
""focus"",""19"",""214934""
","""event"",""trial"",""time""
""fullscreenenter"",""1"",""6194""
","
","","","-1","","","18","10607","4667","&#9752;","elianto","#f73b6a7A"," ","-1","0","-10","[3121.5]","1","1","","","10607","15","3","3","lose","go","0"
"pit-trial","133","1417395","0.0-19.0","battery-v0.2","","""event"",""trial"",""time""
""fullscreenenter"",""1"",""6194""
""blur"",""19"",""213507""
""focus"",""19"",""214934""
","""event"",""trial"",""time""
""blur"",""19"",""213507""
","""event"",""trial"",""time""
""focus"",""19"",""214934""
","""event"",""trial"",""time""
""fullscreenenter"",""1"",""6194""
","
","","","779","","","18","10607","4667","&#9730;","elianto","#3366ff99"," "," ","1","+10","[1630.800000000745]","1","1","","","10607","16","1","1","win","go","0"
"pit-trial","134","1420534","0.0-20.0","battery-v0.2","","""event"",""trial"",""time""
""fullscreenenter"",""1"",""6194""
""blur"",""19"",""213507""
""focus"",""19"",""214934""
","""event"",""trial"",""time""
""blur"",""19"",""213507""
","""event"",""trial"",""time""
""focus"",""19"",""214934""
","""event"",""trial"",""time""
""fullscreenenter"",""1"",""6194""
","
","","","279.09999999962747","","","18","10607","4667","&#9730;","elianto","#3366ff99"," "," ","1","+10","[1131.7999999988824,1307.8999999985099]","2","1","","","10607","17","1","1","win","go","0"
"pit-trial","135","1424614","0.0-21.0","battery-v0.2","","""event"",""trial"",""time""
""fullscreenenter"",""1"",""6194""
""blur"",""19"",""213507""
""focus"",""19"",""214934""
","""event"",""trial"",""time""
""blur"",""19"",""213507""
","""event"",""trial"",""time""
""focus"",""19"",""214934""
","""event"",""trial"",""time""
""fullscreenenter"",""1"",""6194""
","
","","","1223.4000000003725","","","18","10607","4667","&#9752;","elianto","#f73b6a7A"," "," ","1","0","[2073.9000000003725]","1","1","","","10607","18","3","3","lose","go","0"
"pit-trial","136","1429473","0.0-22.0","battery-v0.2","","""event"",""trial"",""time""
""fullscreenenter"",""1"",""6194""
""blur"",""19"",""213507""
""focus"",""19"",""214934""
","""event"",""trial"",""time""
""blur"",""19"",""213507""
","""event"",""trial"",""time""
""focus"",""19"",""214934""
","""event"",""trial"",""time""
""fullscreenenter"",""1"",""6194""
","
","","","-1","","","18","10607","4667","&#9728;","elianto","#f73b6a7A","-1","-1","1","0","[]","0","1","","","10607","19","0","4","lose","no-go","0"
"pit-trial","137","1433374","0.0-23.0","battery-v0.2","","""event"",""trial"",""time""
""fullscreenenter"",""1"",""6194""
""blur"",""19"",""213507""
""focus"",""19"",""214934""
","""event"",""trial"",""time""
""blur"",""19"",""213507""
","""event"",""trial"",""time""
""focus"",""19"",""214934""
","""event"",""trial"",""time""
""fullscreenenter"",""1"",""6194""
","
","","","1043.5","","","18","10607","4667","&#9733;","elianto","#3366ff99","-1"," ","0","0","[1894.5]","1","1","","","10607","20","2","2","win","no-go","0"
"pit-instructions","138","1449305","0.0-24.0","battery-v0.2","","""event"",""trial"",""time""
""fullscreenenter"",""1"",""6194""
""blur"",""19"",""213507""
""focus"",""19"",""214934""
","""event"",""trial"",""time""
""blur"",""19"",""213507""
","""event"",""trial"",""time""
""focus"",""19"",""214934""
","""event"",""trial"",""time""
""fullscreenenter"",""1"",""6194""
","
","","[{""page_index"":0,""viewing_time"":7243.39999999851},{""page_index"":1,""viewing_time"":8685.300000000745}]","15928.89999999851","","","","","","","","","","","","","","","","","","","","","","","",""
"pit-trial","139","1453729","0.0-25.0","battery-v0.2","","""event"",""trial"",""time""
""fullscreenenter"",""1"",""6194""
""blur"",""19"",""213507""
""focus"",""19"",""214934""
","""event"",""trial"",""time""
""blur"",""19"",""213507""
","""event"",""trial"",""time""
""focus"",""19"",""214934""
","""event"",""trial"",""time""
""fullscreenenter"",""1"",""6194""
","
","","","1563.5","","","18","10607","4667","e","elianto","#f73b6a7A"," "," ","1","0","[2414.2000000011176]","1","2","","","10607","21","2","3","lose","go","0"
"pit-trial","140","1457856","0.0-26.0","battery-v0.2","","""event"",""trial"",""time""
""fullscreenenter"",""1"",""6194""
""blur"",""19"",""213507""
""focus"",""19"",""214934""
","""event"",""trial"",""time""
""blur"",""19"",""213507""
","""event"",""trial"",""time""
""focus"",""19"",""214934""
","""event"",""trial"",""time""
""fullscreenenter"",""1"",""6194""
","
","","","1268","","","18","10607","4667","d","elianto","#3366ff99","-1"," ","0","+10","[2119.39999999851]","1","2","","","10607","22","1","2","win","no-go","1"
"pit-trial","141","1462018","0.0-27.0","battery-v0.2","","""event"",""trial"",""time""
""fullscreenenter"",""1"",""6194""
""blur"",""19"",""213507""
""focus"",""19"",""214934""
","""event"",""trial"",""time""
""blur"",""19"",""213507""
","""event"",""trial"",""time""
""focus"",""19"",""214934""
","""event"",""trial"",""time""
""fullscreenenter"",""1"",""6194""
","
","","","1309.699999999255","","","18","10607","4667","j","elianto","#f73b6a7A"," "," ","1","0","[2160.5]","1","2","","","10607","23","0","3","lose","go","0"
"pit-trial","142","1465517","0.0-28.0","battery-v0.2","","""event"",""trial"",""time""
""fullscreenenter"",""1"",""6194""
""blur"",""19"",""213507""
""focus"",""19"",""214934""
","""event"",""trial"",""time""
""blur"",""19"",""213507""
","""event"",""trial"",""time""
""focus"",""19"",""214934""
","""event"",""trial"",""time""
""fullscreenenter"",""1"",""6194""
","
","","","643.2000000011176","","","18","10607","4667","w","elianto","#f73b6a7A","-1"," ","0","-10","[1494.2000000011176]","1","2","","","10607","24","3","4","lose","no-go","0"
"pit-trial","143","1469696","0.0-29.0","battery-v0.2","","""event"",""trial"",""time""
""fullscreenenter"",""1"",""6194""
""blur"",""19"",""213507""
""focus"",""19"",""214934""
","""event"",""trial"",""time""
""blur"",""19"",""213507""
","""event"",""trial"",""time""
""focus"",""19"",""214934""
","""event"",""trial"",""time""
""fullscreenenter"",""1"",""6194""
","
","","","1319.800000000745","","","18","10607","4667","e","elianto","#f73b6a7A"," "," ","1","0","[2171.2000000011176]","1","2","","","10607","25","2","3","lose","go","0"
"pit-trial","144","1474556","0.0-30.0","battery-v0.2","","""event"",""trial"",""time""
""fullscreenenter"",""1"",""6194""
""blur"",""19"",""213507""
""focus"",""19"",""214934""
","""event"",""trial"",""time""
""blur"",""19"",""213507""
","""event"",""trial"",""time""
""focus"",""19"",""214934""
","""event"",""trial"",""time""
""fullscreenenter"",""1"",""6194""
","
","","","-1","","","18","10607","4667","w","elianto","#f73b6a7A","-1","-1","1","0","[]","0","2","","","10607","26","3","4","lose","no-go","0"
"pit-trial","145","1478661","0.0-31.0","battery-v0.2","","""event"",""trial"",""time""
""fullscreenenter"",""1"",""6194""
""blur"",""19"",""213507""
""focus"",""19"",""214934""
","""event"",""trial"",""time""
""blur"",""19"",""213507""
","""event"",""trial"",""time""
""focus"",""19"",""214934""
","""event"",""trial"",""time""
""fullscreenenter"",""1"",""6194""
","
","","","1250","","","18","10607","4667","j","elianto","#f73b6a7A"," "," ","1","0","[2101.5]","1","2","","","10607","27","0","3","lose","go","0"
"pit-trial","146","1482710","0.0-32.0","battery-v0.2","","""event"",""trial"",""time""
""fullscreenenter"",""1"",""6194""
""blur"",""19"",""213507""
""focus"",""19"",""214934""
","""event"",""trial"",""time""
""blur"",""19"",""213507""
","""event"",""trial"",""time""
""focus"",""19"",""214934""
","""event"",""trial"",""time""
""fullscreenenter"",""1"",""6194""
","
","","","1192.800000000745","","","18","10607","4667","d","elianto","#3366ff99","-1"," ","0","0","[2043.800000000745]","1","2","","","10607","28","1","2","win","no-go","0"
"pit-trial","147","1486814","0.0-33.0","battery-v0.2","","""event"",""trial"",""time""
""fullscreenenter"",""1"",""6194""
""blur"",""19"",""213507""
""focus"",""19"",""214934""
","""event"",""trial"",""time""
""blur"",""19"",""213507""
","""event"",""trial"",""time""
""focus"",""19"",""214934""
","""event"",""trial"",""time""
""fullscreenenter"",""1"",""6194""
","
","","","1247.4000000003725","","","18","10607","4667","e","elianto","#f73b6a7A"," "," ","1","-10","[2099.0999999996275]","1","2","","","10607","29","2","3","lose","go","1"
"pit-trial","148","1491676","0.0-34.0","battery-v0.2","","""event"",""trial"",""time""
""fullscreenenter"",""1"",""6194""
""blur"",""19"",""213507""
""focus"",""19"",""214934""
","""event"",""trial"",""time""
""blur"",""19"",""213507""
","""event"",""trial"",""time""
""focus"",""19"",""214934""
","""event"",""trial"",""time""
""fullscreenenter"",""1"",""6194""
","
","","","-1","","","18","10607","4667","w","elianto","#f73b6a7A","-1","-1","1","-10","[]","0","2","","","10607","30","3","4","lose","no-go","1"
"pit-trial","149","1496117","0.0-35.0","battery-v0.2","","""event"",""trial"",""time""
""fullscreenenter"",""1"",""6194""
""blur"",""19"",""213507""
""focus"",""19"",""214934""
","""event"",""trial"",""time""
""blur"",""19"",""213507""
","""event"",""trial"",""time""
""focus"",""19"",""214934""
","""event"",""trial"",""time""
""fullscreenenter"",""1"",""6194""
","
","","","1584.5999999996275","","","18","10607","4667","d","elianto","#3366ff99","-1"," ","0","0","[2437.5999999996275]","1","2","","","10607","31","1","2","win","no-go","0"
"pit-trial","150","1500284","0.0-36.0","battery-v0.2","","""event"",""trial"",""time""
""fullscreenenter"",""1"",""6194""
""blur"",""19"",""213507""
""focus"",""19"",""214934""
","""event"",""trial"",""time""
""blur"",""19"",""213507""
","""event"",""trial"",""time""
""focus"",""19"",""214934""
","""event"",""trial"",""time""
""fullscreenenter"",""1"",""6194""
","
","","","1313.0999999996275","","","18","10607","4667","j","elianto","#f73b6a7A"," "," ","1","0","[2164.300000000745]","1","2","","","10607","32","0","3","lose","go","0"
"pit-trial","151","1505140","0.0-37.0","battery-v0.2","","""event"",""trial"",""time""
""fullscreenenter"",""1"",""6194""
""blur"",""19"",""213507""
""focus"",""19"",""214934""
","""event"",""trial"",""time""
""blur"",""19"",""213507""
","""event"",""trial"",""time""
""focus"",""19"",""214934""
","""event"",""trial"",""time""
""fullscreenenter"",""1"",""6194""
","
","","","-1","","","18","10607","4667","d","elianto","#3366ff99","-1","-1","1","+10","[]","0","2","","","10607","33","1","2","win","no-go","0"
"pit-trial","152","1510002","0.0-38.0","battery-v0.2","","""event"",""trial"",""time""
""fullscreenenter"",""1"",""6194""
""blur"",""19"",""213507""
""focus"",""19"",""214934""
","""event"",""trial"",""time""
""blur"",""19"",""213507""
","""event"",""trial"",""time""
""focus"",""19"",""214934""
","""event"",""trial"",""time""
""fullscreenenter"",""1"",""6194""
","
","","","-1","","","18","10607","4667","e","elianto","#f73b6a7A"," ","-1","0","-10","[]","0","2","","","10607","34","2","3","lose","go","0"
"pit-trial","153","1514566","0.0-39.0","battery-v0.2","","""event"",""trial"",""time""
""fullscreenenter"",""1"",""6194""
""blur"",""19"",""213507""
""focus"",""19"",""214934""
","""event"",""trial"",""time""
""blur"",""19"",""213507""
","""event"",""trial"",""time""
""focus"",""19"",""214934""
","""event"",""trial"",""time""
""fullscreenenter"",""1"",""6194""
","
","","","1710.300000000745","","","18","10607","4667","j","elianto","#f73b6a7A"," "," ","1","0","[2560.800000000745]","1","2","","","10607","35","0","3","lose","go","0"
"pit-trial","154","1519426","0.0-40.0","battery-v0.2","","""event"",""trial"",""time""
""fullscreenenter"",""1"",""6194""
""blur"",""19"",""213507""
""focus"",""19"",""214934""
","""event"",""trial"",""time""
""blur"",""19"",""213507""
","""event"",""trial"",""time""
""focus"",""19"",""214934""
","""event"",""trial"",""time""
""fullscreenenter"",""1"",""6194""
","
","","","-1","","","18","10607","4667","w","elianto","#f73b6a7A","-1","-1","1","0","[]","0","2","","","10607","36","3","4","lose","no-go","0"
"pit-trial","155","1524285","0.0-41.0","battery-v0.2","","""event"",""trial"",""time""
""fullscreenenter"",""1"",""6194""
""blur"",""19"",""213507""
""focus"",""19"",""214934""
","""event"",""trial"",""time""
""blur"",""19"",""213507""
","""event"",""trial"",""time""
""focus"",""19"",""214934""
","""event"",""trial"",""time""
""fullscreenenter"",""1"",""6194""
","
","","","-1","","","18","10607","4667","d","elianto","#3366ff99","-1","-1","1","+10","[]","0","2","","","10607","37","1","2","win","no-go","0"
"pit-trial","156","1528422","0.0-42.0","battery-v0.2","","""event"",""trial"",""time""
""fullscreenenter"",""1"",""6194""
""blur"",""19"",""213507""
""focus"",""19"",""214934""
","""event"",""trial"",""time""
""blur"",""19"",""213507""
","""event"",""trial"",""time""
""focus"",""19"",""214934""
","""event"",""trial"",""time""
""fullscreenenter"",""1"",""6194""
","
","","","1282","","","18","10607","4667","j","elianto","#f73b6a7A"," "," ","1","0","[2133.800000000745]","1","2","","","10607","38","0","3","lose","go","0"
"pit-trial","157","1532935","0.0-43.0","battery-v0.2","","""event"",""trial"",""time""
""fullscreenenter"",""1"",""6194""
""blur"",""19"",""213507""
""focus"",""19"",""214934""
","""event"",""trial"",""time""
""blur"",""19"",""213507""
","""event"",""trial"",""time""
""focus"",""19"",""214934""
","""event"",""trial"",""time""
""fullscreenenter"",""1"",""6194""
","
","","","1657.4000000003725","","","18","10607","4667","e","elianto","#f73b6a7A"," "," ","1","0","[2507.5999999996275]","1","2","","","10607","39","2","3","lose","go","0"
"pit-trial","158","1537793","0.0-44.0","battery-v0.2","","""event"",""trial"",""time""
""fullscreenenter"",""1"",""6194""
""blur"",""19"",""213507""
""focus"",""19"",""214934""
","""event"",""trial"",""time""
""blur"",""19"",""213507""
","""event"",""trial"",""time""
""focus"",""19"",""214934""
","""event"",""trial"",""time""
""fullscreenenter"",""1"",""6194""
","
","","","-1","","","18","10607","4667","w","elianto","#f73b6a7A","-1","-1","1","0","[]","0","2","","","10607","40","3","4","lose","no-go","0"
"pit-trial","159","1541992","0.0-45.0","battery-v0.2","","""event"",""trial"",""time""
""fullscreenenter"",""1"",""6194""
""blur"",""19"",""213507""
""focus"",""19"",""214934""
","""event"",""trial"",""time""
""blur"",""19"",""213507""
","""event"",""trial"",""time""
""focus"",""19"",""214934""
","""event"",""trial"",""time""
""fullscreenenter"",""1"",""6194""
","
","","","1342.9000000003725","","","18","10607","4667","e","elianto","#f73b6a7A"," "," ","1","0","[2193.699999999255]","1","2","","","10607","41","2","3","lose","go","0"
"pit-trial","160","1546493","0.0-46.0","battery-v0.2","","""event"",""trial"",""time""
""fullscreenenter"",""1"",""6194""
""blur"",""19"",""213507""
""focus"",""19"",""214934""
","""event"",""trial"",""time""
""blur"",""19"",""213507""
","""event"",""trial"",""time""
""focus"",""19"",""214934""
","""event"",""trial"",""time""
""fullscreenenter"",""1"",""6194""
","
","","","1648.300000000745","","","18","10607","4667","j","elianto","#f73b6a7A"," "," ","1","-10","[2499.0999999996275]","1","2","","","10607","42","0","3","lose","go","1"
"pit-trial","161","1551352","0.0-47.0","battery-v0.2","","""event"",""trial"",""time""
""fullscreenenter"",""1"",""6194""
""blur"",""19"",""213507""
""focus"",""19"",""214934""
","""event"",""trial"",""time""
""blur"",""19"",""213507""
","""event"",""trial"",""time""
""focus"",""19"",""214934""
","""event"",""trial"",""time""
""fullscreenenter"",""1"",""6194""
","
","","","-1","","","18","10607","4667","w","elianto","#f73b6a7A","-1","-1","1","0","[]","0","2","","","10607","43","3","4","lose","no-go","0"
"pit-trial","162","1556131","0.0-48.0","battery-v0.2","","""event"",""trial"",""time""
""fullscreenenter"",""1"",""6194""
""blur"",""19"",""213507""
""focus"",""19"",""214934""
","""event"",""trial"",""time""
""blur"",""19"",""213507""
","""event"",""trial"",""time""
""focus"",""19"",""214934""
","""event"",""trial"",""time""
""fullscreenenter"",""1"",""6194""
","
","","","1919.199999999255","","","18","10607","4667","d","elianto","#3366ff99","-1"," ","0","+10","[156.90000000037253,2770.7999999988824]","2","2","","","10607","44","1","2","win","no-go","1"
"pit-trial","163","1560824","0.0-49.0","battery-v0.2","","""event"",""trial"",""time""
""fullscreenenter"",""1"",""6194""
""blur"",""19"",""213507""
""focus"",""19"",""214934""
","""event"",""trial"",""time""
""blur"",""19"",""213507""
","""event"",""trial"",""time""
""focus"",""19"",""214934""
","""event"",""trial"",""time""
""fullscreenenter"",""1"",""6194""
","
","","","1836.800000000745","","","18","10607","4667","e","elianto","#f73b6a7A"," "," ","1","0","[2688.0999999996275]","1","2","","","10607","45","2","3","lose","go","0"
"pit-trial","164","1565570","0.0-50.0","battery-v0.2","","""event"",""trial"",""time""
""fullscreenenter"",""1"",""6194""
""blur"",""19"",""213507""
""focus"",""19"",""214934""
","""event"",""trial"",""time""
""blur"",""19"",""213507""
","""event"",""trial"",""time""
""focus"",""19"",""214934""
","""event"",""trial"",""time""
""fullscreenenter"",""1"",""6194""
","
","","","1887.0999999996275","","","18","10607","4667","j","elianto","#f73b6a7A"," "," ","1","0","[2739.0999999996275]","1","2","","","10607","46","0","3","lose","go","0"
"pit-trial","165","1570105","0.0-51.0","battery-v0.2","","""event"",""trial"",""time""
""fullscreenenter"",""1"",""6194""
""blur"",""19"",""213507""
""focus"",""19"",""214934""
","""event"",""trial"",""time""
""blur"",""19"",""213507""
","""event"",""trial"",""time""
""focus"",""19"",""214934""
","""event"",""trial"",""time""
""fullscreenenter"",""1"",""6194""
","
","","","1678.199999999255","","","18","10607","4667","d","elianto","#3366ff99","-1"," ","0","0","[2528.89999999851]","1","2","","","10607","47","1","2","win","no-go","0"
"pit-trial","166","1574964","0.0-52.0","battery-v0.2","","""event"",""trial"",""time""
""fullscreenenter"",""1"",""6194""
""blur"",""19"",""213507""
""focus"",""19"",""214934""
","""event"",""trial"",""time""
""blur"",""19"",""213507""
","""event"",""trial"",""time""
""focus"",""19"",""214934""
","""event"",""trial"",""time""
""fullscreenenter"",""1"",""6194""
","
","","","-1","","","18","10607","4667","w","elianto","#f73b6a7A","-1","-1","1","0","[2915]","1","2","","","10607","48","3","4","lose","no-go","0"
"pit-trial","167","1578736","0.0-53.0","battery-v0.2","","""event"",""trial"",""time""
""fullscreenenter"",""1"",""6194""
""blur"",""19"",""213507""
""focus"",""19"",""214934""
","""event"",""trial"",""time""
""blur"",""19"",""213507""
","""event"",""trial"",""time""
""focus"",""19"",""214934""
","""event"",""trial"",""time""
""fullscreenenter"",""1"",""6194""
","
","","","917.2999999988824","","","18","10607","4667","j","elianto","#f73b6a7A"," "," ","1","-10","[1768.4000000003725,3640.300000000745]","2","2","","","10607","49","0","3","lose","go","1"
"pit-trial","168","1583593","0.0-54.0","battery-v0.2","","""event"",""trial"",""time""
""fullscreenenter"",""1"",""6194""
""blur"",""19"",""213507""
""focus"",""19"",""214934""
","""event"",""trial"",""time""
""blur"",""19"",""213507""
","""event"",""trial"",""time""
""focus"",""19"",""214934""
","""event"",""trial"",""time""
""fullscreenenter"",""1"",""6194""
","
","","","-1","","","18","10607","4667","w","elianto","#f73b6a7A","-1","-1","1","0","[]","0","2","","","10607","50","3","4","lose","no-go","0"
"pit-trial","169","1587929","0.0-55.0","battery-v0.2","","""event"",""trial"",""time""
""fullscreenenter"",""1"",""6194""
""blur"",""19"",""213507""
""focus"",""19"",""214934""
","""event"",""trial"",""time""
""blur"",""19"",""213507""
","""event"",""trial"",""time""
""focus"",""19"",""214934""
","""event"",""trial"",""time""
""fullscreenenter"",""1"",""6194""
","
","","","1480.5999999996275","","","18","10607","4667","d","elianto","#3366ff99","-1"," ","0","0","[2331.5]","1","2","","","10607","51","1","2","win","no-go","0"
"pit-trial","170","1592132","0.0-56.0","battery-v0.2","","""event"",""trial"",""time""
""fullscreenenter"",""1"",""6194""
""blur"",""19"",""213507""
""focus"",""19"",""214934""
","""event"",""trial"",""time""
""blur"",""19"",""213507""
","""event"",""trial"",""time""
""focus"",""19"",""214934""
","""event"",""trial"",""time""
""fullscreenenter"",""1"",""6194""
","
","","","1343.7000000011176","","","18","10607","4667","e","elianto","#f73b6a7A"," "," ","1","0","[2194.800000000745]","1","2","","","10607","52","2","3","lose","go","0"
"pit-trial","171","1596991","0.0-57.0","battery-v0.2","","""event"",""trial"",""time""
""fullscreenenter"",""1"",""6194""
""blur"",""19"",""213507""
""focus"",""19"",""214934""
","""event"",""trial"",""time""
""blur"",""19"",""213507""
","""event"",""trial"",""time""
""focus"",""19"",""214934""
","""event"",""trial"",""time""
""fullscreenenter"",""1"",""6194""
","
","","","-1","","","18","10607","4667","d","elianto","#3366ff99","-1","-1","1","+10","[]","0","2","","","10607","53","1","2","win","no-go","0"
"pit-trial","172","1601544","0.0-58.0","battery-v0.2","","""event"",""trial"",""time""
""fullscreenenter"",""1"",""6194""
""blur"",""19"",""213507""
""focus"",""19"",""214934""
","""event"",""trial"",""time""
""blur"",""19"",""213507""
","""event"",""trial"",""time""
""focus"",""19"",""214934""
","""event"",""trial"",""time""
""fullscreenenter"",""1"",""6194""
","
","","","1698.2999999988824","","","18","10607","4667","j","elianto","#f73b6a7A"," "," ","1","0","[2549.5999999996275]","1","2","","","10607","54","0","3","lose","go","0"
"pit-trial","173","1606406","0.0-59.0","battery-v0.2","","""event"",""trial"",""time""
""fullscreenenter"",""1"",""6194""
""blur"",""19"",""213507""
""focus"",""19"",""214934""
","""event"",""trial"",""time""
""blur"",""19"",""213507""
","""event"",""trial"",""time""
""focus"",""19"",""214934""
","""event"",""trial"",""time""
""fullscreenenter"",""1"",""6194""
","
","","","-1","","","18","10607","4667","w","elianto","#f73b6a7A","-1","-1","1","0","[3557.0999999996275]","1","2","","","10607","55","3","4","lose","no-go","0"
"pit-trial","174","1610442","0.0-60.0","battery-v0.2","","""event"",""trial"",""time""
""fullscreenenter"",""1"",""6194""
""blur"",""19"",""213507""
""focus"",""19"",""214934""
","""event"",""trial"",""time""
""blur"",""19"",""213507""
","""event"",""trial"",""time""
""focus"",""19"",""214934""
","""event"",""trial"",""time""
""fullscreenenter"",""1"",""6194""
","
","","","1181","","","18","10607","4667","e","elianto","#f73b6a7A"," "," ","1","-10","[2032.5]","1","2","","","10607","56","2","3","lose","go","1"
"pit-trial","175","1614708","0.0-61.0","battery-v0.2","","""event"",""trial"",""time""
""fullscreenenter"",""1"",""6194""
""blur"",""19"",""213507""
""focus"",""19"",""214934""
","""event"",""trial"",""time""
""blur"",""19"",""213507""
","""event"",""trial"",""time""
""focus"",""19"",""214934""
","""event"",""trial"",""time""
""fullscreenenter"",""1"",""6194""
","
","","","1407.5","","","18","10607","4667","e","elianto","#f73b6a7A"," "," ","1","0","[2258.7000000011176]","1","2","","","10607","57","2","3","lose","go","0"
"pit-trial","176","1619567","0.0-62.0","battery-v0.2","","""event"",""trial"",""time""
""fullscreenenter"",""1"",""6194""
""blur"",""19"",""213507""
""focus"",""19"",""214934""
","""event"",""trial"",""time""
""blur"",""19"",""213507""
","""event"",""trial"",""time""
""focus"",""19"",""214934""
","""event"",""trial"",""time""
""fullscreenenter"",""1"",""6194""
","
","","","-1","","","18","10607","4667","w","elianto","#f73b6a7A","-1","-1","1","0","[]","0","2","","","10607","58","3","4","lose","no-go","0"
"pit-trial","177","1624032","0.0-63.0","battery-v0.2","","""event"",""trial"",""time""
""fullscreenenter"",""1"",""6194""
""blur"",""19"",""213507""
""focus"",""19"",""214934""
","""event"",""trial"",""time""
""blur"",""19"",""213507""
","""event"",""trial"",""time""
""focus"",""19"",""214934""
","""event"",""trial"",""time""
""fullscreenenter"",""1"",""6194""
","
","","","1610.300000000745","","","18","10607","4667","s","elianto","#3366ff99"," "," ","1","+10","[2461.9000000003725]","1","2","","","10607","59","4","1","win","go","0"
"pit-trial","178","1628106","0.0-64.0","battery-v0.2","","""event"",""trial"",""time""
""fullscreenenter"",""1"",""6194""
""blur"",""19"",""213507""
""focus"",""19"",""214934""
","""event"",""trial"",""time""
""blur"",""19"",""213507""
","""event"",""trial"",""time""
""focus"",""19"",""214934""
","""event"",""trial"",""time""
""fullscreenenter"",""1"",""6194""
","
","","","1217.7999999988824","","","18","10607","4667","j","elianto","#f73b6a7A"," "," ","1","0","[2068.7999999988824]","1","2","","","10607","60","0","3","lose","go","0"
"pit-trial","179","1632965","0.0-65.0","battery-v0.2","","""event"",""trial"",""time""
""fullscreenenter"",""1"",""6194""
""blur"",""19"",""213507""
""focus"",""19"",""214934""
","""event"",""trial"",""time""
""blur"",""19"",""213507""
","""event"",""trial"",""time""
""focus"",""19"",""214934""
","""event"",""trial"",""time""
""fullscreenenter"",""1"",""6194""
","
","","","-1","","","18","10607","4667","d","elianto","#3366ff99","-1","-1","1","0","[]","0","2","","","10607","61","1","2","win","no-go","1"
"pit-trial","180","1637413","0.0-66.0","battery-v0.2","","""event"",""trial"",""time""
""fullscreenenter"",""1"",""6194""
""blur"",""19"",""213507""
""focus"",""19"",""214934""
","""event"",""trial"",""time""
""blur"",""19"",""213507""
","""event"",""trial"",""time""
""focus"",""19"",""214934""
","""event"",""trial"",""time""
""fullscreenenter"",""1"",""6194""
","
","","","1587.7999999988824","","","18","10607","4667","s","elianto","#3366ff99"," "," ","1","+10","[2440.699999999255]","1","2","","","10607","62","4","1","win","go","0"
"pit-trial","181","1641516","0.0-67.0","battery-v0.2","","""event"",""trial"",""time""
""fullscreenenter"",""1"",""6194""
""blur"",""19"",""213507""
""focus"",""19"",""214934""
","""event"",""trial"",""time""
""blur"",""19"",""213507""
","""event"",""trial"",""time""
""focus"",""19"",""214934""
","""event"",""trial"",""time""
""fullscreenenter"",""1"",""6194""
","
","","","1245.699999999255","","","18","10607","4667","e","elianto","#f73b6a7A"," "," ","1","0","[2096]","1","2","","","10607","63","2","3","lose","go","0"
"pit-trial","182","1646374","0.0-68.0","battery-v0.2","","""event"",""trial"",""time""
""fullscreenenter"",""1"",""6194""
""blur"",""19"",""213507""
""focus"",""19"",""214934""
","""event"",""trial"",""time""
""blur"",""19"",""213507""
","""event"",""trial"",""time""
""focus"",""19"",""214934""
","""event"",""trial"",""time""
""fullscreenenter"",""1"",""6194""
","
","","","-1","","","18","10607","4667","w","elianto","#f73b6a7A","-1","-1","1","0","[]","0","2","","","10607","64","3","4","lose","no-go","0"
"pit-trial","183","1650027","0.0-69.0","battery-v0.2","","""event"",""trial"",""time""
""fullscreenenter"",""1"",""6194""
""blur"",""19"",""213507""
""focus"",""19"",""214934""
","""event"",""trial"",""time""
""blur"",""19"",""213507""
","""event"",""trial"",""time""
""focus"",""19"",""214934""
","""event"",""trial"",""time""
""fullscreenenter"",""1"",""6194""
","
","","","797.4000000003725","","","18","10607","4667","s","elianto","#3366ff99"," "," ","1","+10","[1648.5]","1","2","","","10607","65","4","1","win","go","0"
"pit-trial","184","1654886","0.0-70.0","battery-v0.2","","""event"",""trial"",""time""
""fullscreenenter"",""1"",""6194""
""blur"",""19"",""213507""
""focus"",""19"",""214934""
","""event"",""trial"",""time""
""blur"",""19"",""213507""
","""event"",""trial"",""time""
""focus"",""19"",""214934""
","""event"",""trial"",""time""
""fullscreenenter"",""1"",""6194""
","
","","","-1","","","18","10607","4667","p","elianto","#3366ff99","-1","-1","1","+10","[]","0","2","","","10607","66","5","2","win","no-go","0"
"pit-trial","185","1659249","0.0-71.0","battery-v0.2","","""event"",""trial"",""time""
""fullscreenenter"",""1"",""6194""
""blur"",""19"",""213507""
""focus"",""19"",""214934""
","""event"",""trial"",""time""
""blur"",""19"",""213507""
","""event"",""trial"",""time""
""focus"",""19"",""214934""
","""event"",""trial"",""time""
""fullscreenenter"",""1"",""6194""
","
","","","1508.800000000745","","","18","10607","4667","d","elianto","#3366ff99","-1"," ","0","0","[2360.5999999996275]","1","2","","","10607","67","1","2","win","no-go","0"
"pit-trial","186","1664104","0.0-72.0","battery-v0.2","","""event"",""trial"",""time""
""fullscreenenter"",""1"",""6194""
""blur"",""19"",""213507""
""focus"",""19"",""214934""
","""event"",""trial"",""time""
""blur"",""19"",""213507""
","""event"",""trial"",""time""
""focus"",""19"",""214934""
","""event"",""trial"",""time""
""fullscreenenter"",""1"",""6194""
","
","","","-1","","","18","10607","4667","w","elianto","#f73b6a7A","-1","-1","1","0","[]","0","2","","","10607","68","3","4","lose","no-go","0"
"pit-trial","187","1668117","0.0-73.0","battery-v0.2","","""event"",""trial"",""time""
""fullscreenenter"",""1"",""6194""
""blur"",""19"",""213507""
""focus"",""19"",""214934""
","""event"",""trial"",""time""
""blur"",""19"",""213507""
","""event"",""trial"",""time""
""focus"",""19"",""214934""
","""event"",""trial"",""time""
""fullscreenenter"",""1"",""6194""
","
","","","1154","","","18","10607","4667","s","elianto","#3366ff99"," "," ","1","+10","[2005.5999999996275]","1","2","","","10607","69","4","1","win","go","0"
