"trial_type","trial_index","time_elapsed","internal_node_id","task_version","subject_id","interactions","blur_events","focus_events","fullscreenenter_events","fullscreenexit_events","success","view_history","rt","responses","num_errors","age","subject","participantId","rune","rune_set","hex","correct","choice","accuracy","outcome","keys","total_keys","block","practice","value","sub","trial","stimulus","robot","valence","action","sham"
"pavlovia","0","45","0.0-0.0","battery-v0.2","","""event"",""trial"",""time""
""fullscreenenter"",""1"",""1924""
","
","
","""event"",""trial"",""time""
""fullscreenenter"",""1"",""1924""
","
","","","","","","","","","","","","","","","","","","","","","","","","","","",""
"fullscreen","1","2915","0.0-1.0","battery-v0.2","","""event"",""trial"",""time""
""fullscreenenter"",""1"",""1924""
","
","
","""event"",""trial"",""time""
""fullscreenenter"",""1"",""1924""
","
","true","","","","","","","","","","","","","","","","","","","","","","","","","",""
"pit-instructions","2","12074","0.0-2.0-0.0","battery-v0.2","","""event"",""trial"",""time""
""fullscreenenter"",""1"",""1924""
","
","
","""event"",""trial"",""time""
""fullscreenenter"",""1"",""1924""
","
","","[{""page_index"":0,""viewing_time"":9137}]","9141.199999999255","","","","","","","","","","","","","","","","","","","","","","","",""
"pit-comprehension","3","15768","0.0-2.0-1.0-0.0","battery-v0.2","","""event"",""trial"",""time""
""fullscreenenter"",""1"",""1924""
","
","
","""event"",""trial"",""time""
""fullscreenenter"",""1"",""1924""
","
","","","3681","[""shark""]","0","10","7071","3783","","","","","","","","","","","","","","","","","","",""
"pit-instructions","4","19219","0.0-2.0-1.0-1.0","battery-v0.2","","""event"",""trial"",""time""
""fullscreenenter"",""1"",""1924""
","
","
","""event"",""trial"",""time""
""fullscreenenter"",""1"",""1924""
","
","","[{""page_index"":0,""viewing_time"":3417.5999999996275}]","3419.2999999988824","","","","","","","","","","","","","","","","","","","","","","","",""
"pit-comprehension","5","22473","0.0-2.0-2.0-0.0","battery-v0.2","","""event"",""trial"",""time""
""fullscreenenter"",""1"",""1924""
","
","
","""event"",""trial"",""time""
""fullscreenenter"",""1"",""1924""
","
","","","3240","[""tiger""]","0","10","7071","3783","","","","","","","","","","","","","","","","","","",""
"pit-instructions","6","26231","0.0-2.0-2.0-1.0","battery-v0.2","","""event"",""trial"",""time""
""fullscreenenter"",""1"",""1924""
","
","
","""event"",""trial"",""time""
""fullscreenenter"",""1"",""1924""
","
","","[{""page_index"":0,""viewing_time"":3746.2999999988824}]","3748.0999999996275","","","","","","","","","","","","","","","","","","","","","","","",""
"pit-instructions","7","171376","0.0-2.0-3.0","battery-v0.2","","""event"",""trial"",""time""
""fullscreenenter"",""1"",""1924""
","
","
","""event"",""trial"",""time""
""fullscreenenter"",""1"",""1924""
","
","","[{""page_index"":0,""viewing_time"":10412.699999999255},{""page_index"":1,""viewing_time"":8908.400000000373},{""page_index"":2,""viewing_time"":41256.79999999888},{""page_index"":3,""viewing_time"":6573.9000000003725},{""page_index"":4,""viewing_time"":5630.9000000003725},{""page_index"":5,""viewing_time"":8522.099999999627},{""page_index"":6,""viewing_time"":11870.300000000745},{""page_index"":7,""viewing_time"":8422.099999999627},{""page_index"":8,""viewing_time"":7711},{""page_index"":9,""viewing_time"":8282.5},{""page_index"":10,""viewing_time"":8538.5},{""page_index"":11,""viewing_time"":8334.400000000373},{""page_index"":12,""viewing_time"":6270.5},{""page_index"":13,""viewing_time"":4399.4000000003725}]","145135.59999999963","","","","","","","","","","","","","","","","","","","","","","","",""
"pit-trial","8","174639","0.0-2.0-4.0-0.0","battery-v0.2","","""event"",""trial"",""time""
""fullscreenenter"",""1"",""1924""
","
","
","""event"",""trial"",""time""
""fullscreenenter"",""1"",""1924""
","
","","","399.2000000011176","","","10","7071","3783","&#9784;","elianto","#FFFFF080"," "," ","1","&#10004","[1249]","1","0","0","","","","","","","",""
"pit-trial","9","178164","0.0-2.0-4.1-0.1","battery-v0.2","","""event"",""trial"",""time""
""fullscreenenter"",""1"",""1924""
","
","
","""event"",""trial"",""time""
""fullscreenenter"",""1"",""1924""
","
","","","660.0999999996275","","","10","7071","3783","&#9784;","elianto","#FFFFF080"," "," ","1","&#10004","[1510]","1","0","0","","","","","","","",""
"pit-trial","10","181524","0.0-2.0-4.2-0.2","battery-v0.2","","""event"",""trial"",""time""
""fullscreenenter"",""1"",""1924""
","
","
","""event"",""trial"",""time""
""fullscreenenter"",""1"",""1924""
","
","","","494.7999999988824","","","10","7071","3783","&#9784;","elianto","#FFFFF080"," "," ","1","&#10004","[1344.7000000011176]","1","0","0","","","","","","","",""
"pit-trial","11","184828","0.0-2.0-4.3-0.3","battery-v0.2","","""event"",""trial"",""time""
""fullscreenenter"",""1"",""1924""
","
","
","""event"",""trial"",""time""
""fullscreenenter"",""1"",""1924""
","
","","","440.59999999962747","","","10","7071","3783","&#9784;","elianto","#FFFFF080"," "," ","1","&#10004","[1290.5999999996275]","1","0","0","","","","","","","",""
"pit-trial","12","188161","0.0-2.0-4.4-0.4","battery-v0.2","","""event"",""trial"",""time""
""fullscreenenter"",""1"",""1924""
","
","
","""event"",""trial"",""time""
""fullscreenenter"",""1"",""1924""
","
","","","464.40000000037253","","","10","7071","3783","&#9784;","elianto","#FFFFF080"," "," ","1","&#10004","[1315]","1","0","0","","","","","","","",""
"pit-instructions","13","210880","0.0-2.0-5.0","battery-v0.2","","""event"",""trial"",""time""
""fullscreenenter"",""1"",""1924""
","
","
","""event"",""trial"",""time""
""fullscreenenter"",""1"",""1924""
","
","","[{""page_index"":0,""viewing_time"":5606.700000001118},{""page_index"":1,""viewing_time"":5387.799999998882},{""page_index"":2,""viewing_time"":6214},{""page_index"":3,""viewing_time"":5490.200000001118}]","22701.200000001118","","","","","","","","","","","","","","","","","","","","","","","",""
"pit-trial","14","215742","0.0-2.0-6.0-0.0","battery-v0.2","","""event"",""trial"",""time""
""fullscreenenter"",""1"",""1924""
","
","
","""event"",""trial"",""time""
""fullscreenenter"",""1"",""1924""
","
","","","-1","","","10","7071","3783","&#9854;","elianto","#FFFFF080","-1","-1","1","&#10004","[]","0","0","1","","","","","","","",""
"pit-trial","15","220609","0.0-2.0-6.1-0.1","battery-v0.2","","""event"",""trial"",""time""
""fullscreenenter"",""1"",""1924""
","
","
","""event"",""trial"",""time""
""fullscreenenter"",""1"",""1924""
","
","","","-1","","","10","7071","3783","&#9854;","elianto","#FFFFF080","-1","-1","1","&#10004","[]","0","0","1","","","","","","","",""
"pit-trial","16","225472","0.0-2.0-6.2-0.2","battery-v0.2","","""event"",""trial"",""time""
""fullscreenenter"",""1"",""1924""
","
","
","""event"",""trial"",""time""
""fullscreenenter"",""1"",""1924""
","
","","","-1","","","10","7071","3783","&#9854;","elianto","#FFFFF080","-1","-1","1","&#10004","[]","0","0","1","","","","","","","",""
"pit-trial","17","230335","0.0-2.0-6.3-0.3","battery-v0.2","","""event"",""trial"",""time""
""fullscreenenter"",""1"",""1924""
","
","
","""event"",""trial"",""time""
""fullscreenenter"",""1"",""1924""
","
","","","-1","","","10","7071","3783","&#9854;","elianto","#FFFFF080","-1","-1","1","&#10004","[]","0","0","1","","","","","","","",""
"pit-trial","18","235199","0.0-2.0-6.4-0.4","battery-v0.2","","""event"",""trial"",""time""
""fullscreenenter"",""1"",""1924""
","
","
","""event"",""trial"",""time""
""fullscreenenter"",""1"",""1924""
","
","","","-1","","","10","7071","3783","&#9854;","elianto","#FFFFF080","-1","-1","1","&#10004","[]","0","0","1","","","","","","","",""
"pit-instructions","19","364810","0.0-2.0-7.0","battery-v0.2","","""event"",""trial"",""time""
""fullscreenenter"",""1"",""1924""
","
","
","""event"",""trial"",""time""
""fullscreenenter"",""1"",""1924""
","
","","[{""page_index"":0,""viewing_time"":7148.200000001118},{""page_index"":1,""viewing_time"":7490},{""page_index"":2,""viewing_time"":5232.5},{""page_index"":3,""viewing_time"":7086.5999999996275},{""page_index"":4,""viewing_time"":5370.0999999996275},{""page_index"":5,""viewing_time"":7565.5999999996275},{""page_index"":6,""viewing_time"":5420.800000000745},{""page_index"":7,""viewing_time"":8255.900000000373},{""page_index"":8,""viewing_time"":8549.89999999851},{""page_index"":9,""viewing_time"":7262.9000000003725},{""page_index"":10,""viewing_time"":7251.4000000003725},{""page_index"":11,""viewing_time"":5360.4000000003725},{""page_index"":12,""viewing_time"":8880.799999998882},{""page_index"":13,""viewing_time"":8654.5},{""page_index"":14,""viewing_time"":6948.10000000149},{""page_index"":15,""viewing_time"":9313.799999998882},{""page_index"":16,""viewing_time"":7302.200000001118},{""page_index"":17,""viewing_time"":6502}]","129597.90000000037","","","","","","","","","","","","","","","","","","","","","","","",""
"pit-trial","20","368667","0.0-2.0-8.0-0.0","battery-v0.2","","""event"",""trial"",""time""
""fullscreenenter"",""1"",""1924""
","
","
","""event"",""trial"",""time""
""fullscreenenter"",""1"",""1924""
","
","","","994.0999999996275","","","10","7071","3783","&#9776;","elianto","#3366ff99"," "," ","1","+10","[1846.2999999988824]","1","0","1","","","","","","","",""
"pit-trial","21","371773","0.0-2.0-8.0-1.0","battery-v0.2","","""event"",""trial"",""time""
""fullscreenenter"",""1"",""1924""
","
","
","""event"",""trial"",""time""
""fullscreenenter"",""1"",""1924""
","
","","","247.69999999925494","","","10","7071","3783","&#9776;","elianto","#3366ff99"," "," ","1","+10","[1097.9000000003725]","1","0","1","","","","","","","",""
"pit-trial","22","375204","0.0-2.0-8.0-2.0","battery-v0.2","","""event"",""trial"",""time""
""fullscreenenter"",""1"",""1924""
","
","
","""event"",""trial"",""time""
""fullscreenenter"",""1"",""1924""
","
","","","567.5","","","10","7071","3783","&#9776;","elianto","#3366ff99"," "," ","1","+10","[1420.199999999255]","1","0","1","","","","","","","",""
"pit-trial","23","378209","0.0-2.0-8.0-3.0","battery-v0.2","","""event"",""trial"",""time""
""fullscreenenter"",""1"",""1924""
","
","
","""event"",""trial"",""time""
""fullscreenenter"",""1"",""1924""
","
","","","137.2999999988824","","","10","7071","3783","&#9776;","elianto","#3366ff99"," "," ","1","0","[990.0999999996275]","1","0","1","","","","","","","",""
"pit-trial","24","381450","0.0-2.0-8.0-4.0","battery-v0.2","","""event"",""trial"",""time""
""fullscreenenter"",""1"",""1924""
","
","
","""event"",""trial"",""time""
""fullscreenenter"",""1"",""1924""
","
","","","377.6000000014901","","","10","7071","3783","&#9776;","elianto","#3366ff99"," "," ","1","+10","[1227.5999999996275]","1","0","1","","","","","","","",""
"pit-trial","25","384758","0.0-2.0-8.1-0.1","battery-v0.2","","""event"",""trial"",""time""
""fullscreenenter"",""1"",""1924""
","
","
","""event"",""trial"",""time""
""fullscreenenter"",""1"",""1924""
","
","","","444.09999999962747","","","10","7071","3783","&#9776;","elianto","#3366ff99"," "," ","1","+10","[1296.4000000003725]","1","0","1","","","","","","","",""
"pit-trial","26","388123","0.0-2.0-8.1-1.1","battery-v0.2","","""event"",""trial"",""time""
""fullscreenenter"",""1"",""1924""
","
","
","""event"",""trial"",""time""
""fullscreenenter"",""1"",""1924""
","
","","","503.30000000074506","","","10","7071","3783","&#9776;","elianto","#3366ff99"," "," ","1","+10","[1353.0999999996275]","1","0","1","","","","","","","",""
"pit-trial","27","391342","0.0-2.0-8.1-2.1","battery-v0.2","","""event"",""trial"",""time""
""fullscreenenter"",""1"",""1924""
","
","
","""event"",""trial"",""time""
""fullscreenenter"",""1"",""1924""
","
","","","356.5","","","10","7071","3783","&#9776;","elianto","#3366ff99"," "," ","1","+10","[1206.5999999996275]","1","0","1","","","","","","","",""
"pit-trial","28","394855","0.0-2.0-8.1-3.1","battery-v0.2","","""event"",""trial"",""time""
""fullscreenenter"",""1"",""1924""
","
","
","""event"",""trial"",""time""
""fullscreenenter"",""1"",""1924""
","
","","","650.2000000011176","","","10","7071","3783","&#9776;","elianto","#3366ff99"," "," ","1","0","[777.2999999988824,1500.2999999988824]","2","0","1","","","","","","","",""
"pit-trial","29","397873","0.0-2.0-8.1-4.1","battery-v0.2","","""event"",""trial"",""time""
""fullscreenenter"",""1"",""1924""
","
","
","""event"",""trial"",""time""
""fullscreenenter"",""1"",""1924""
","
","","","155","","","10","7071","3783","&#9776;","elianto","#3366ff99"," "," ","1","+10","[1005.2000000011176]","1","0","1","","","","","","","",""
"pit-trial","30","401177","0.0-2.0-8.2-0.2","battery-v0.2","","""event"",""trial"",""time""
""fullscreenenter"",""1"",""1924""
","
","
","""event"",""trial"",""time""
""fullscreenenter"",""1"",""1924""
","
","","","440.5","","","10","7071","3783","&#9776;","elianto","#3366ff99"," "," ","1","+10","[1290.5]","1","0","1","","","","","","","",""
"pit-trial","31","404337","0.0-2.0-8.2-1.2","battery-v0.2","","""event"",""trial"",""time""
""fullscreenenter"",""1"",""1924""
","
","
","""event"",""trial"",""time""
""fullscreenenter"",""1"",""1924""
","
","","","294.8999999985099","","","10","7071","3783","&#9776;","elianto","#3366ff99"," "," ","1","+10","[1147.9000000003725]","1","0","1","","","","","","","",""
"pit-trial","32","407460","0.0-2.0-8.2-2.2","battery-v0.2","","""event"",""trial"",""time""
""fullscreenenter"",""1"",""1924""
","
","
","""event"",""trial"",""time""
""fullscreenenter"",""1"",""1924""
","
","","","259.90000000037253","","","10","7071","3783","&#9776;","elianto","#3366ff99"," "," ","1","+10","[1109.9000000003725]","1","0","1","","","","","","","",""
"pit-trial","33","410949","0.0-2.0-8.2-3.2","battery-v0.2","","""event"",""trial"",""time""
""fullscreenenter"",""1"",""1924""
","
","
","""event"",""trial"",""time""
""fullscreenenter"",""1"",""1924""
","
","","","627.3000000007451","","","10","7071","3783","&#9776;","elianto","#3366ff99"," "," ","1","0","[793.7999999988824,1479.0999999996275]","2","0","1","","","","","","","",""
"pit-trial","34","414398","0.0-2.0-8.2-4.2","battery-v0.2","","""event"",""trial"",""time""
""fullscreenenter"",""1"",""1924""
","
","
","""event"",""trial"",""time""
""fullscreenenter"",""1"",""1924""
","
","","","586.5999999996275","","","10","7071","3783","&#9776;","elianto","#3366ff99"," "," ","1","+10","[1436.699999999255]","1","0","1","","","","","","","",""
"call-function","35","414404","0.0-2.0-9.0","battery-v0.2","","""event"",""trial"",""time""
""fullscreenenter"",""1"",""1924""
","
","
","""event"",""trial"",""time""
""fullscreenenter"",""1"",""1924""
","
","","","","","","","","","","","","","","","","","","","","","","","","","","",""
"pit-instructions","36","460157","0.0-2.0-10.0","battery-v0.2","","""event"",""trial"",""time""
""fullscreenenter"",""1"",""1924""
","
","
","""event"",""trial"",""time""
""fullscreenenter"",""1"",""1924""
","
","","[{""page_index"":0,""viewing_time"":6107.5},{""page_index"":1,""viewing_time"":7343.10000000149},{""page_index"":2,""viewing_time"":12886.699999999255},{""page_index"":3,""viewing_time"":12182},{""page_index"":4,""viewing_time"":7228.0999999996275}]","45750.10000000149","","","","","","","","","","","","","","","","","","","","","","","",""
"pit-trial","37","463494","0.0-2.0-11.0-0.0","battery-v0.2","","""event"",""trial"",""time""
""fullscreenenter"",""1"",""1924""
","
","
","""event"",""trial"",""time""
""fullscreenenter"",""1"",""1924""
","
","","","476","","","10","7071","3783","&#9761;","elianto","#3366ff99","-1"," ","0","0","[1326]","1","0","2","","","","","","","",""
"pit-trial","38","466628","0.0-2.0-11.0-1.0","battery-v0.2","","""event"",""trial"",""time""
""fullscreenenter"",""1"",""1924""
","
","
","""event"",""trial"",""time""
""fullscreenenter"",""1"",""1924""
","
","","","271.5","","","10","7071","3783","&#9761;","elianto","#3366ff99","-1"," ","0","0","[1123.4000000003725]","1","0","2","","","","","","","",""
"pit-trial","39","471492","0.0-2.0-11.0-2.0","battery-v0.2","","""event"",""trial"",""time""
""fullscreenenter"",""1"",""1924""
","
","
","""event"",""trial"",""time""
""fullscreenenter"",""1"",""1924""
","
","","","-1","","","10","7071","3783","&#9761;","elianto","#3366ff99","-1","-1","1","+10","[]","0","0","2","","","","","","","",""
"pit-trial","40","475507","0.0-2.0-11.0-3.0","battery-v0.2","","""event"",""trial"",""time""
""fullscreenenter"",""1"",""1924""
","
","
","""event"",""trial"",""time""
""fullscreenenter"",""1"",""1924""
","
","","","1154.300000000745","","","10","7071","3783","&#9761;","elianto","#3366ff99","-1"," ","0","+10","[2004.3999999985099]","1","0","2","","","","","","","",""
"pit-trial","41","478630","0.0-2.0-11.0-4.0","battery-v0.2","","""event"",""trial"",""time""
""fullscreenenter"",""1"",""1924""
","
","
","""event"",""trial"",""time""
""fullscreenenter"",""1"",""1924""
","
","","","259.69999999925494","","","10","7071","3783","&#9761;","elianto","#3366ff99","-1"," ","0","0","[1109.7999999988824]","1","0","2","","","","","","","",""
"pit-trial","42","483418","0.0-2.0-11.1-0.1","battery-v0.2","","""event"",""trial"",""time""
""fullscreenenter"",""1"",""1924""
","
","
","""event"",""trial"",""time""
""fullscreenenter"",""1"",""1924""
","
","","","1917.3999999985099","","","10","7071","3783","&#9761;","elianto","#3366ff99","-1"," ","0","0","[2768.7999999988824]","1","0","2","","","","","","","",""
"pit-trial","43","488278","0.0-2.0-11.1-1.1","battery-v0.2","","""event"",""trial"",""time""
""fullscreenenter"",""1"",""1924""
","
","
","""event"",""trial"",""time""
""fullscreenenter"",""1"",""1924""
","
","","","-1","","","10","7071","3783","&#9761;","elianto","#3366ff99","-1","-1","1","+10","[]","0","0","2","","","","","","","",""
"pit-trial","44","493139","0.0-2.0-11.1-2.1","battery-v0.2","","""event"",""trial"",""time""
""fullscreenenter"",""1"",""1924""
","
","
","""event"",""trial"",""time""
""fullscreenenter"",""1"",""1924""
","
","","","-1","","","10","7071","3783","&#9761;","elianto","#3366ff99","-1","-1","1","+10","[]","0","0","2","","","","","","","",""
"pit-trial","45","498000","0.0-2.0-11.1-3.1","battery-v0.2","","""event"",""trial"",""time""
""fullscreenenter"",""1"",""1924""
","
","
","""event"",""trial"",""time""
""fullscreenenter"",""1"",""1924""
","
","","","-1","","","10","7071","3783","&#9761;","elianto","#3366ff99","-1","-1","1","0","[]","0","0","2","","","","","","","",""
"pit-trial","46","501548","0.0-2.0-11.1-4.1","battery-v0.2","","""event"",""trial"",""time""
""fullscreenenter"",""1"",""1924""
","
","
","""event"",""trial"",""time""
""fullscreenenter"",""1"",""1924""
","
","","","685.5","","","10","7071","3783","&#9761;","elianto","#3366ff99","-1"," ","0","0","[1534.5999999996275]","1","0","2","","","","","","","",""
"pit-trial","47","506413","0.0-2.0-11.2-0.2","battery-v0.2","","""event"",""trial"",""time""
""fullscreenenter"",""1"",""1924""
","
","
","""event"",""trial"",""time""
""fullscreenenter"",""1"",""1924""
","
","","","-1","","","10","7071","3783","&#9761;","elianto","#3366ff99","-1","-1","1","+10","[]","0","0","2","","","","","","","",""
"pit-trial","48","509844","0.0-2.0-11.2-1.2","battery-v0.2","","""event"",""trial"",""time""
""fullscreenenter"",""1"",""1924""
","
","
","""event"",""trial"",""time""
""fullscreenenter"",""1"",""1924""
","
","","","566.7000000011176","","","10","7071","3783","&#9761;","elianto","#3366ff99","-1"," ","0","0","[1416.8999999985099]","1","0","2","","","","","","","",""
"pit-trial","49","513673","0.0-2.0-11.2-2.2","battery-v0.2","","""event"",""trial"",""time""
""fullscreenenter"",""1"",""1924""
","
","
","""event"",""trial"",""time""
""fullscreenenter"",""1"",""1924""
","
","","","962.5999999996275","","","10","7071","3783","&#9761;","elianto","#3366ff99","-1"," ","0","0","[1812.699999999255]","1","0","2","","","","","","","",""
"pit-trial","50","517134","0.0-2.0-11.2-3.2","battery-v0.2","","""event"",""trial"",""time""
""fullscreenenter"",""1"",""1924""
","
","
","""event"",""trial"",""time""
""fullscreenenter"",""1"",""1924""
","
","","","596.1000000014901","","","10","7071","3783","&#9761;","elianto","#3366ff99","-1"," ","0","+10","[1449.2999999988824]","1","0","2","","","","","","","",""
"pit-trial","51","520423","0.0-2.0-11.2-4.2","battery-v0.2","","""event"",""trial"",""time""
""fullscreenenter"",""1"",""1924""
","
","
","""event"",""trial"",""time""
""fullscreenenter"",""1"",""1924""
","
","","","424.19999999925494","","","10","7071","3783","&#9761;","elianto","#3366ff99","-1"," ","0","0","[1274]","1","0","2","","","","","","","",""
"pit-trial","52","525288","0.0-2.0-11.3-0.3","battery-v0.2","","""event"",""trial"",""time""
""fullscreenenter"",""1"",""1924""
","
","
","""event"",""trial"",""time""
""fullscreenenter"",""1"",""1924""
","
","","","-1","","","10","7071","3783","&#9761;","elianto","#3366ff99","-1","-1","1","+10","[]","0","0","2","","","","","","","",""
"pit-trial","53","529117","0.0-2.0-11.3-1.3","battery-v0.2","","""event"",""trial"",""time""
""fullscreenenter"",""1"",""1924""
","
","
","""event"",""trial"",""time""
""fullscreenenter"",""1"",""1924""
","
","","","964.9000000003725","","","10","7071","3783","&#9761;","elianto","#3366ff99","-1"," ","0","0","[1815.5]","1","0","2","","","","","","","",""
"pit-trial","54","533734","0.0-2.0-11.3-2.3","battery-v0.2","","""event"",""trial"",""time""
""fullscreenenter"",""1"",""1924""
","
","
","""event"",""trial"",""time""
""fullscreenenter"",""1"",""1924""
","
","","","1748.699999999255","","","10","7071","3783","&#9761;","elianto","#3366ff99","-1"," ","0","0","[2599.9000000003725]","1","0","2","","","","","","","",""
"pit-trial","55","538598","0.0-2.0-11.3-3.3","battery-v0.2","","""event"",""trial"",""time""
""fullscreenenter"",""1"",""1924""
","
","
","""event"",""trial"",""time""
""fullscreenenter"",""1"",""1924""
","
","","","-1","","","10","7071","3783","&#9761;","elianto","#3366ff99","-1","-1","1","0","[4710.199999999255]","1","0","2","","","","","","","",""
"pit-trial","56","543460","0.0-2.0-11.3-4.3","battery-v0.2","","""event"",""trial"",""time""
""fullscreenenter"",""1"",""1924""
","
","
","""event"",""trial"",""time""
""fullscreenenter"",""1"",""1924""
","
","","","-1","","","10","7071","3783","&#9761;","elianto","#3366ff99","-1","-1","1","+10","[]","0","0","2","","","","","","","",""
"call-function","57","543470","0.0-2.0-12.0","battery-v0.2","","""event"",""trial"",""time""
""fullscreenenter"",""1"",""1924""
","
","
","""event"",""trial"",""time""
""fullscreenenter"",""1"",""1924""
","
","","","","","","","","","","","","","","","","","","","","","","","","","","",""
"pit-instructions","58","573270","0.0-2.0-13.0","battery-v0.2","","""event"",""trial"",""time""
""fullscreenenter"",""1"",""1924""
","
","
","""event"",""trial"",""time""
""fullscreenenter"",""1"",""1924""
","
","","[{""page_index"":0,""viewing_time"":4262.300000000745},{""page_index"":1,""viewing_time"":6429},{""page_index"":2,""viewing_time"":3888},{""page_index"":3,""viewing_time"":10706.400000000373},{""page_index"":4,""viewing_time"":4509.89999999851}]","29797.900000000373","","","","","","","","","","","","","","","","","","","","","","","",""
"pit-trial","59","576813","0.0-2.0-14.0-0.0","battery-v0.2","","""event"",""trial"",""time""
""fullscreenenter"",""1"",""1924""
","
","
","""event"",""trial"",""time""
""fullscreenenter"",""1"",""1924""
","
","","","675.7000000011176","","","10","7071","3783","&#9826;","elianto","#f73b6a7A","-1"," ","0","-10","[1531]","1","0","3","","","","","","","",""
"pit-trial","60","581677","0.0-2.0-14.0-1.0","battery-v0.2","","""event"",""trial"",""time""
""fullscreenenter"",""1"",""1924""
","
","
","""event"",""trial"",""time""
""fullscreenenter"",""1"",""1924""
","
","","","-1","","","10","7071","3783","&#9826;","elianto","#f73b6a7A","-1","-1","1","0","[]","0","0","3","","","","","","","",""
"pit-trial","61","586540","0.0-2.0-14.0-2.0","battery-v0.2","","""event"",""trial"",""time""
""fullscreenenter"",""1"",""1924""
","
","
","""event"",""trial"",""time""
""fullscreenenter"",""1"",""1924""
","
","","","-1","","","10","7071","3783","&#9826;","elianto","#f73b6a7A","-1","-1","1","0","[]","0","0","3","","","","","","","",""
"pit-trial","62","591402","0.0-2.0-14.0-3.0","battery-v0.2","","""event"",""trial"",""time""
""fullscreenenter"",""1"",""1924""
","
","
","""event"",""trial"",""time""
""fullscreenenter"",""1"",""1924""
","
","","","-1","","","10","7071","3783","&#9826;","elianto","#f73b6a7A","-1","-1","1","-10","[]","0","0","3","","","","","","","",""
"pit-trial","63","594947","0.0-2.0-14.0-4.0","battery-v0.2","","""event"",""trial"",""time""
""fullscreenenter"",""1"",""1924""
","
","
","""event"",""trial"",""time""
""fullscreenenter"",""1"",""1924""
","
","","","683.5999999996275","","","10","7071","3783","&#9826;","elianto","#f73b6a7A","-1"," ","0","-10","[1533.5]","1","0","3","","","","","","","",""
"pit-trial","64","599811","0.0-2.0-14.1-0.1","battery-v0.2","","""event"",""trial"",""time""
""fullscreenenter"",""1"",""1924""
","
","
","""event"",""trial"",""time""
""fullscreenenter"",""1"",""1924""
","
","","","-1","","","10","7071","3783","&#9826;","elianto","#f73b6a7A","-1","-1","1","0","[]","0","0","3","","","","","","","",""
"pit-trial","65","603952","0.0-2.0-14.1-1.1","battery-v0.2","","""event"",""trial"",""time""
""fullscreenenter"",""1"",""1924""
","
","
","""event"",""trial"",""time""
""fullscreenenter"",""1"",""1924""
","
","","","1277.5999999996275","","","10","7071","3783","&#9826;","elianto","#f73b6a7A","-1"," ","0","-10","[2128.4000000003725]","1","0","3","","","","","","","",""
"pit-trial","66","608812","0.0-2.0-14.1-2.1","battery-v0.2","","""event"",""trial"",""time""
""fullscreenenter"",""1"",""1924""
","
","
","""event"",""trial"",""time""
""fullscreenenter"",""1"",""1924""
","
","","","-1","","","10","7071","3783","&#9826;","elianto","#f73b6a7A","-1","-1","1","0","[620.5]","1","0","3","","","","","","","",""
"pit-trial","67","612272","0.0-2.0-14.1-3.1","battery-v0.2","","""event"",""trial"",""time""
""fullscreenenter"",""1"",""1924""
","
","
","""event"",""trial"",""time""
""fullscreenenter"",""1"",""1924""
","
","","","595.5","","","10","7071","3783","&#9826;","elianto","#f73b6a7A","-1"," ","0","0","[1445.5]","1","0","3","","","","","","","",""
"pit-trial","68","617136","0.0-2.0-14.1-4.1","battery-v0.2","","""event"",""trial"",""time""
""fullscreenenter"",""1"",""1924""
","
","
","""event"",""trial"",""time""
""fullscreenenter"",""1"",""1924""
","
","","","-1","","","10","7071","3783","&#9826;","elianto","#f73b6a7A","-1","-1","1","0","[]","0","0","3","","","","","","","",""
"pit-trial","69","621106","0.0-2.0-14.2-0.2","battery-v0.2","","""event"",""trial"",""time""
""fullscreenenter"",""1"",""1924""
","
","
","""event"",""trial"",""time""
""fullscreenenter"",""1"",""1924""
","
","","","1107.2999999988824","","","10","7071","3783","&#9826;","elianto","#f73b6a7A","-1"," ","0","-10","[1957.300000000745]","1","0","3","","","","","","","",""
"pit-trial","70","625972","0.0-2.0-14.2-1.2","battery-v0.2","","""event"",""trial"",""time""
""fullscreenenter"",""1"",""1924""
","
","
","""event"",""trial"",""time""
""fullscreenenter"",""1"",""1924""
","
","","","-1","","","10","7071","3783","&#9826;","elianto","#f73b6a7A","-1","-1","1","0","[]","0","0","3","","","","","","","",""
"pit-trial","71","630831","0.0-2.0-14.2-2.2","battery-v0.2","","""event"",""trial"",""time""
""fullscreenenter"",""1"",""1924""
","
","
","""event"",""trial"",""time""
""fullscreenenter"",""1"",""1924""
","
","","","-1","","","10","7071","3783","&#9826;","elianto","#f73b6a7A","-1","-1","1","0","[]","0","0","3","","","","","","","",""
"pit-trial","72","634852","0.0-2.0-14.2-3.2","battery-v0.2","","""event"",""trial"",""time""
""fullscreenenter"",""1"",""1924""
","
","
","""event"",""trial"",""time""
""fullscreenenter"",""1"",""1924""
","
","","","1158.4000000003725","","","10","7071","3783","&#9826;","elianto","#f73b6a7A","-1"," ","0","0","[2008.300000000745]","1","0","3","","","","","","","",""
"pit-trial","73","639716","0.0-2.0-14.2-4.2","battery-v0.2","","""event"",""trial"",""time""
""fullscreenenter"",""1"",""1924""
","
","
","""event"",""trial"",""time""
""fullscreenenter"",""1"",""1924""
","
","","","-1","","","10","7071","3783","&#9826;","elianto","#f73b6a7A","-1","-1","1","0","[]","0","0","3","","","","","","","",""
"pit-trial","74","644583","0.0-2.0-14.3-0.3","battery-v0.2","","""event"",""trial"",""time""
""fullscreenenter"",""1"",""1924""
","
","
","""event"",""trial"",""time""
""fullscreenenter"",""1"",""1924""
","
","","","-1","","","10","7071","3783","&#9826;","elianto","#f73b6a7A","-1","-1","1","0","[]","0","0","3","","","","","","","",""
"pit-trial","75","648018","0.0-2.0-14.3-1.3","battery-v0.2","","""event"",""trial"",""time""
""fullscreenenter"",""1"",""1924""
","
","
","""event"",""trial"",""time""
""fullscreenenter"",""1"",""1924""
","
","","","568.5","","","10","7071","3783","&#9826;","elianto","#f73b6a7A","-1"," ","0","-10","[1418]","1","0","3","","","","","","","",""
"pit-trial","76","652882","0.0-2.0-14.3-2.3","battery-v0.2","","""event"",""trial"",""time""
""fullscreenenter"",""1"",""1924""
","
","
","""event"",""trial"",""time""
""fullscreenenter"",""1"",""1924""
","
","","","-1","","","10","7071","3783","&#9826;","elianto","#f73b6a7A","-1","-1","1","0","[]","0","0","3","","","","","","","",""
"pit-trial","77","657747","0.0-2.0-14.3-3.3","battery-v0.2","","""event"",""trial"",""time""
""fullscreenenter"",""1"",""1924""
","
","
","""event"",""trial"",""time""
""fullscreenenter"",""1"",""1924""
","
","","","-1","","","10","7071","3783","&#9826;","elianto","#f73b6a7A","-1","-1","1","-10","[2884.5]","1","0","3","","","","","","","",""
"pit-trial","78","662610","0.0-2.0-14.3-4.3","battery-v0.2","","""event"",""trial"",""time""
""fullscreenenter"",""1"",""1924""
","
","
","""event"",""trial"",""time""
""fullscreenenter"",""1"",""1924""
","
","","","-1","","","10","7071","3783","&#9826;","elianto","#f73b6a7A","-1","-1","1","0","[2979.5999999996275]","1","0","3","","","","","","","",""
"call-function","79","662619","0.0-2.0-15.0","battery-v0.2","","""event"",""trial"",""time""
""fullscreenenter"",""1"",""1924""
","
","
","""event"",""trial"",""time""
""fullscreenenter"",""1"",""1924""
","
","","","","","","","","","","","","","","","","","","","","","","","","","","",""
"pit-instructions","80","686139","0.0-2.0-16.0","battery-v0.2","","""event"",""trial"",""time""
""fullscreenenter"",""1"",""1924""
","
","
","""event"",""trial"",""time""
""fullscreenenter"",""1"",""1924""
","
","","[{""page_index"":0,""viewing_time"":6593.5999999996275},{""page_index"":1,""viewing_time"":8252.300000000745},{""page_index"":2,""viewing_time"":4585.699999999255},{""page_index"":3,""viewing_time"":4083.7000000011176}]","23517.800000000745","","","","","","","","","","","","","","","","","","","","","","","",""
"pit-trial","81","690331","0.0-2.0-17.0-0.0","battery-v0.2","","""event"",""trial"",""time""
""fullscreenenter"",""1"",""1924""
","
","
","""event"",""trial"",""time""
""fullscreenenter"",""1"",""1924""
","
","","","1331.4000000003725","","","10","7071","3783","&#9789;","elianto","#f73b6a7A"," "," ","1","0","[2181.5]","1","0","4","","","","","","","",""
"pit-trial","82","693513","0.0-2.0-17.0-1.0","battery-v0.2","","""event"",""trial"",""time""
""fullscreenenter"",""1"",""1924""
","
","
","""event"",""trial"",""time""
""fullscreenenter"",""1"",""1924""
","
","","","317.40000000037253","","","10","7071","3783","&#9789;","elianto","#f73b6a7A"," "," ","1","0","[1167.300000000745]","1","0","4","","","","","","","",""
"pit-trial","83","696546","0.0-2.0-17.0-2.0","battery-v0.2","","""event"",""trial"",""time""
""fullscreenenter"",""1"",""1924""
","
","
","""event"",""trial"",""time""
""fullscreenenter"",""1"",""1924""
","
","","","163.5","","","10","7071","3783","&#9789;","elianto","#f73b6a7A"," "," ","1","0","[1016.6999999992549]","1","0","4","","","","","","","",""
"pit-trial","84","699898","0.0-2.0-17.0-3.0","battery-v0.2","","""event"",""trial"",""time""
""fullscreenenter"",""1"",""1924""
","
","
","""event"",""trial"",""time""
""fullscreenenter"",""1"",""1924""
","
","","","486.7999999988824","","","10","7071","3783","&#9789;","elianto","#f73b6a7A"," "," ","1","-10","[818.8999999985099,1337.0999999996275]","2","0","4","","","","","","","",""
"pit-trial","85","702894","0.0-2.0-17.0-4.0","battery-v0.2","","""event"",""trial"",""time""
""fullscreenenter"",""1"",""1924""
","
","
","""event"",""trial"",""time""
""fullscreenenter"",""1"",""1924""
","
","","","130.89999999850988","","","10","7071","3783","&#9789;","elianto","#f73b6a7A"," "," ","1","0","[981]","1","0","4","","","","","","","",""
"pit-trial","86","706126","0.0-2.0-17.1-0.1","battery-v0.2","","""event"",""trial"",""time""
""fullscreenenter"",""1"",""1924""
","
","
","""event"",""trial"",""time""
""fullscreenenter"",""1"",""1924""
","
","","","367.80000000074506","","","10","7071","3783","&#9789;","elianto","#f73b6a7A"," "," ","1","0","[1217.7000000011176]","1","0","4","","","","","","","",""
"pit-trial","87","709444","0.0-2.0-17.1-1.1","battery-v0.2","","""event"",""trial"",""time""
""fullscreenenter"",""1"",""1924""
","
","
","""event"",""trial"",""time""
""fullscreenenter"",""1"",""1924""
","
","","","452.19999999925494","","","10","7071","3783","&#9789;","elianto","#f73b6a7A"," "," ","1","0","[1307]","1","0","4","","","","","","","",""
"pit-trial","88","712676","0.0-2.0-17.1-2.1","battery-v0.2","","""event"",""trial"",""time""
""fullscreenenter"",""1"",""1924""
","
","
","""event"",""trial"",""time""
""fullscreenenter"",""1"",""1924""
","
","","","369.5","","","10","7071","3783","&#9789;","elianto","#f73b6a7A"," "," ","1","0","[1219.5]","1","0","4","","","","","","","",""
"pit-trial","89","715931","0.0-2.0-17.1-3.1","battery-v0.2","","""event"",""trial"",""time""
""fullscreenenter"",""1"",""1924""
","
","
","""event"",""trial"",""time""
""fullscreenenter"",""1"",""1924""
","
","","","389.69999999925494","","","10","7071","3783","&#9789;","elianto","#f73b6a7A"," "," ","1","-10","[1239.7000000011176]","1","0","4","","","","","","","",""
"pit-trial","90","719040","0.0-2.0-17.1-4.1","battery-v0.2","","""event"",""trial"",""time""
""fullscreenenter"",""1"",""1924""
","
","
","""event"",""trial"",""time""
""fullscreenenter"",""1"",""1924""
","
","","","251.10000000149012","","","10","7071","3783","&#9789;","elianto","#f73b6a7A"," "," ","1","0","[1101.0999999996275,2964.4000000003725]","2","0","4","","","","","","","",""
"pit-trial","91","722051","0.0-2.0-17.2-0.2","battery-v0.2","","""event"",""trial"",""time""
""fullscreenenter"",""1"",""1924""
","
","
","""event"",""trial"",""time""
""fullscreenenter"",""1"",""1924""
","
","","","146.30000000074506","","","10","7071","3783","&#9789;","elianto","#f73b6a7A"," "," ","1","0","[230.59999999962747,416.40000000037253,598.8000000007451,801,996.4000000003725,1189.0999999996275,1365.800000000745,1571.5,1826.699999999255]","9","0","4","","","","","","","",""
"pit-trial","92","725028","0.0-2.0-17.2-1.2","battery-v0.2","","""event"",""trial"",""time""
""fullscreenenter"",""1"",""1924""
","
","
","""event"",""trial"",""time""
""fullscreenenter"",""1"",""1924""
","
","","","111.59999999962747","","","10","7071","3783","&#9789;","elianto","#f73b6a7A"," "," ","1","0","[966.1999999992549,1154.0999999996275]","2","0","4","","","","","","","",""
"pit-trial","93","728247","0.0-2.0-17.2-2.2","battery-v0.2","","""event"",""trial"",""time""
""fullscreenenter"",""1"",""1924""
","
","
","""event"",""trial"",""time""
""fullscreenenter"",""1"",""1924""
","
","","","358.19999999925494","","","10","7071","3783","&#9789;","elianto","#f73b6a7A"," "," ","1","0","[1207.9000000003725]","1","0","4","","","","","","","",""
"pit-trial","94","733110","0.0-2.0-17.2-3.2","battery-v0.2","","""event"",""trial"",""time""
""fullscreenenter"",""1"",""1924""
","
","
","""event"",""trial"",""time""
""fullscreenenter"",""1"",""1924""
","
","","","-1","","","10","7071","3783","&#9789;","elianto","#f73b6a7A"," ","-1","0","0","[]","0","0","4","","","","","","","",""
"pit-trial","95","736573","0.0-2.0-17.2-4.2","battery-v0.2","","""event"",""trial"",""time""
""fullscreenenter"",""1"",""1924""
","
","
","""event"",""trial"",""time""
""fullscreenenter"",""1"",""1924""
","
","","","601.6999999992549","","","10","7071","3783","&#9789;","elianto","#f73b6a7A"," "," ","1","0","[1451.7000000011176]","1","0","4","","","","","","","",""
"pit-trial","96","739943","0.0-2.0-17.3-0.3","battery-v0.2","","""event"",""trial"",""time""
""fullscreenenter"",""1"",""1924""
","
","
","""event"",""trial"",""time""
""fullscreenenter"",""1"",""1924""
","
","","","504.2999999988824","","","10","7071","3783","&#9789;","elianto","#f73b6a7A"," "," ","1","0","[1354.4000000003725]","1","0","4","","","","","","","",""
"pit-trial","97","743050","0.0-2.0-17.3-1.3","battery-v0.2","","""event"",""trial"",""time""
""fullscreenenter"",""1"",""1924""
","
","
","""event"",""trial"",""time""
""fullscreenenter"",""1"",""1924""
","
","","","242.7999999988824","","","10","7071","3783","&#9789;","elianto","#f73b6a7A"," "," ","1","0","[1093.0999999996275]","1","0","4","","","","","","","",""
"pit-trial","98","745994","0.0-2.0-17.3-2.3","battery-v0.2","","""event"",""trial"",""time""
""fullscreenenter"",""1"",""1924""
","
","
","""event"",""trial"",""time""
""fullscreenenter"",""1"",""1924""
","
","","","82.40000000037253","","","10","7071","3783","&#9789;","elianto","#f73b6a7A"," "," ","1","0","[934]","1","0","4","","","","","","","",""
"pit-trial","99","750617","0.0-2.0-17.3-3.3","battery-v0.2","","""event"",""trial"",""time""
""fullscreenenter"",""1"",""1924""
","
","
","""event"",""trial"",""time""
""fullscreenenter"",""1"",""1924""
","
","","","1760.7999999988824","","","10","7071","3783","&#9789;","elianto","#f73b6a7A"," "," ","1","-10","[838.2999999988824,2610.7999999988824]","2","0","4","","","","","","","",""
"pit-trial","100","754013","0.0-2.0-17.3-4.3","battery-v0.2","","""event"",""trial"",""time""
""fullscreenenter"",""1"",""1924""
","
","
","""event"",""trial"",""time""
""fullscreenenter"",""1"",""1924""
","
","","","533.3000000007451","","","10","7071","3783","&#9789;","elianto","#f73b6a7A"," "," ","1","0","[1383.2999999988824]","1","0","4","","","","","","","",""
"call-function","101","754021","0.0-2.0-18.0","battery-v0.2","","""event"",""trial"",""time""
""fullscreenenter"",""1"",""1924""
","
","
","""event"",""trial"",""time""
""fullscreenenter"",""1"",""1924""
","
","","","","","","","","","","","","","","","","","","","","","","","","","","",""
"pit-instructions","102","829918","0.0-2.0-19.0","battery-v0.2","","""event"",""trial"",""time""
""fullscreenenter"",""1"",""1924""
","
","
","""event"",""trial"",""time""
""fullscreenenter"",""1"",""1924""
","
","","[{""page_index"":0,""viewing_time"":7364.4000000003725},{""page_index"":1,""viewing_time"":5128.800000000745},{""page_index"":2,""viewing_time"":15210},{""page_index"":3,""viewing_time"":7354.0999999996275},{""page_index"":4,""viewing_time"":8464},{""page_index"":5,""viewing_time"":8467.900000000373},{""page_index"":6,""viewing_time"":10148.400000000373},{""page_index"":7,""viewing_time"":7524.699999999255},{""page_index"":8,""viewing_time"":6231.0999999996275}]","75895.40000000037","","","","","","","","","","","","","","","","","","","","","","","",""
"pit-comprehension","103","835141","0.0-2.0-20.0-0.0","battery-v0.2","","""event"",""trial"",""time""
""fullscreenenter"",""1"",""1924""
","
","
","""event"",""trial"",""time""
""fullscreenenter"",""1"",""1924""
","
","","","5203.0999999996275","[""SPACE""]","0","10","7071","3783","","","","","","","","","","","","","","","","","","",""
"pit-instructions","104","838583","0.0-2.0-20.0-1.0","battery-v0.2","","""event"",""trial"",""time""
""fullscreenenter"",""1"",""1924""
","
","
","""event"",""trial"",""time""
""fullscreenenter"",""1"",""1924""
","
","","[{""page_index"":0,""viewing_time"":3326.2999999988824}]","3328","","","","","","","","","","","","","","","","","","","","","","","",""
"pit-comprehension","105","844549","0.0-2.0-21.0-0.0","battery-v0.2","","""event"",""trial"",""time""
""fullscreenenter"",""1"",""1924""
","
","
","""event"",""trial"",""time""
""fullscreenenter"",""1"",""1924""
","
","","","5944.299999998882","[""10""]","0","10","7071","3783","","","","","","","","","","","","","","","","","","",""
"pit-instructions","106","846995","0.0-2.0-21.0-1.0","battery-v0.2","","""event"",""trial"",""time""
""fullscreenenter"",""1"",""1924""
","
","
","""event"",""trial"",""time""
""fullscreenenter"",""1"",""1924""
","
","","[{""page_index"":0,""viewing_time"":2336}]","2338","","","","","","","","","","","","","","","","","","","","","","","",""
"pit-comprehension","107","853122","0.0-2.0-22.0-0.0","battery-v0.2","","""event"",""trial"",""time""
""fullscreenenter"",""1"",""1924""
","
","
","""event"",""trial"",""time""
""fullscreenenter"",""1"",""1924""
","
","","","6115.0999999996275","[""0""]","0","10","7071","3783","","","","","","","","","","","","","","","","","","",""
"pit-instructions","108","855246","0.0-2.0-22.0-1.0","battery-v0.2","","""event"",""trial"",""time""
""fullscreenenter"",""1"",""1924""
","
","
","""event"",""trial"",""time""
""fullscreenenter"",""1"",""1924""
","
","","[{""page_index"":0,""viewing_time"":2009.7999999988824}]","2011.199999999255","","","","","","","","","","","","","","","","","","","","","","","",""
"pit-comprehension","109","863469","0.0-2.0-23.0-0.0","battery-v0.2","","""event"",""trial"",""time""
""fullscreenenter"",""1"",""1924""
","
","
","""event"",""trial"",""time""
""fullscreenenter"",""1"",""1924""
","
","","","8210.900000000373","[""True""]","0","10","7071","3783","","","","","","","","","","","","","","","","","","",""
"pit-instructions","110","865644","0.0-2.0-23.0-1.0","battery-v0.2","","""event"",""trial"",""time""
""fullscreenenter"",""1"",""1924""
","
","
","""event"",""trial"",""time""
""fullscreenenter"",""1"",""1924""
","
","","[{""page_index"":0,""viewing_time"":2061.800000000745}]","2063.300000000745","","","","","","","","","","","","","","","","","","","","","","","",""
"pit-comprehension","111","873599","0.0-2.0-24.0-0.0","battery-v0.2","","""event"",""trial"",""time""
""fullscreenenter"",""1"",""1924""
","
","
","""event"",""trial"",""time""
""fullscreenenter"",""1"",""1924""
","
","","","7943.5","[""True""]","0","10","7071","3783","","","","","","","","","","","","","","","","","","",""
"pit-instructions","112","875015","0.0-2.0-24.0-1.0","battery-v0.2","","""event"",""trial"",""time""
""fullscreenenter"",""1"",""1924""
","
","
","""event"",""trial"",""time""
""fullscreenenter"",""1"",""1924""
","
","","[{""page_index"":0,""viewing_time"":1302.5999999996275}]","1304.699999999255","","","","","","","","","","","","","","","","","","","","","","","",""
"pit-comprehension","113","881447","0.0-2.0-25.0-0.0","battery-v0.2","","""event"",""trial"",""time""
""fullscreenenter"",""1"",""1924""
","
","
","""event"",""trial"",""time""
""fullscreenenter"",""1"",""1924""
","
","","","6420.5","[""True""]","0","10","7071","3783","","","","","","","","","","","","","","","","","","",""
"pit-instructions","114","882591","0.0-2.0-25.0-1.0","battery-v0.2","","""event"",""trial"",""time""
""fullscreenenter"",""1"",""1924""
","
","
","""event"",""trial"",""time""
""fullscreenenter"",""1"",""1924""
","
","","[{""page_index"":0,""viewing_time"":1039.300000000745}]","1040.800000000745","","","","","","","","","","","","","","","","","","","","","","","",""
"pit-comprehension","115","887286","0.0-2.0-26.0-0.0","battery-v0.2","","""event"",""trial"",""time""
""fullscreenenter"",""1"",""1924""
","
","
","""event"",""trial"",""time""
""fullscreenenter"",""1"",""1924""
","
","","","4684.800000000745","[""True""]","1","10","7071","3783","","","","","","","","","","","","","","","","","","",""
"pit-instructions","116","901926","0.0-2.0-26.0-1.0","battery-v0.2","","""event"",""trial"",""time""
""fullscreenenter"",""1"",""1924""
","
","
","""event"",""trial"",""time""
""fullscreenenter"",""1"",""1924""
","
","","[{""page_index"":0,""viewing_time"":14527}]","14528.599999999627","","","","","","","","","","","","","","","","","","","","","","","",""
"pit-instructions","117","907821","0.0-2.0-26.0-2.0-0.0","battery-v0.2","","""event"",""trial"",""time""
""fullscreenenter"",""1"",""1924""
","
","
","""event"",""trial"",""time""
""fullscreenenter"",""1"",""1924""
","
","","[{""page_index"":0,""viewing_time"":5888.5}]","5890.300000000745","","","","","","","","","","","","","","","","","","","","","","","",""
"pit-comprehension","118","911986","0.0-2.0-26.1-0.1","battery-v0.2","","""event"",""trial"",""time""
""fullscreenenter"",""1"",""1924""
","
","
","""event"",""trial"",""time""
""fullscreenenter"",""1"",""1924""
","
","","","4153.89999999851","[""False""]","0","10","7071","3783","","","","","","","","","","","","","","","","","","",""
"pit-instructions","119","913164","0.0-2.0-26.1-1.1","battery-v0.2","","""event"",""trial"",""time""
""fullscreenenter"",""1"",""1924""
","
","
","""event"",""trial"",""time""
""fullscreenenter"",""1"",""1924""
","
","","[{""page_index"":0,""viewing_time"":1060.800000000745}]","1062","","","","","","","","","","","","","","","","","","","","","","","",""
"pit-instructions","120","932058","0.0-3.0","battery-v0.2","","""event"",""trial"",""time""
""fullscreenenter"",""1"",""1924""
","
","
","""event"",""trial"",""time""
""fullscreenenter"",""1"",""1924""
","
","","[{""page_index"":0,""viewing_time"":4402.700000001118},{""page_index"":1,""viewing_time"":7093},{""page_index"":2,""viewing_time"":7390.0999999996275}]","18888.099999999627","","","","","","","","","","","","","","","","","","","","","","","",""
"pit-trial","121","936176","0.0-4.0","battery-v0.2","","""event"",""trial"",""time""
""fullscreenenter"",""1"",""1924""
","
","
","""event"",""trial"",""time""
""fullscreenenter"",""1"",""1924""
","
","","","1249.2999999988824","","","10","7071","3783","&#9728;","elianto","#f73b6a7A","-1"," ","0","-10","[2099.699999999255]","1","1","","","7071","1","0","4","lose","no-go","0"
"pit-trial","122","939766","0.0-5.0","battery-v0.2","","""event"",""trial"",""time""
""fullscreenenter"",""1"",""1924""
","
","
","""event"",""trial"",""time""
""fullscreenenter"",""1"",""1924""
","
","","","731.5999999996275","","","10","7071","3783","&#9730;","elianto","#3366ff99"," "," ","1","+10","[1581.7000000011176]","1","1","","","7071","2","1","1","win","go","0"
"pit-trial","123","944265","0.0-6.0","battery-v0.2","","""event"",""trial"",""time""
""fullscreenenter"",""1"",""1924""
","
","
","""event"",""trial"",""time""
""fullscreenenter"",""1"",""1924""
","
","","","1638.5","","","10","7071","3783","&#9752;","elianto","#f73b6a7A"," "," ","1","0","[2488.60000000149]","1","1","","","7071","3","3","3","lose","go","0"
"pit-trial","124","947900","0.0-7.0","battery-v0.2","","""event"",""trial"",""time""
""fullscreenenter"",""1"",""1924""
","
","
","""event"",""trial"",""time""
""fullscreenenter"",""1"",""1924""
","
","","","772.5","","","10","7071","3783","&#9733;","elianto","#3366ff99","-1"," ","0","0","[1622.5999999996275]","1","1","","","7071","4","2","2","win","no-go","0"
"pit-trial","125","951450","0.0-8.0","battery-v0.2","","""event"",""trial"",""time""
""fullscreenenter"",""1"",""1924""
","
","
","""event"",""trial"",""time""
""fullscreenenter"",""1"",""1924""
","
","","","689.6000000014901","","","10","7071","3783","&#9733;","elianto","#3366ff99","-1"," ","0","0","[1539.5]","1","1","","","7071","5","2","2","win","no-go","0"
"pit-trial","126","955598","0.0-9.0","battery-v0.2","","""event"",""trial"",""time""
""fullscreenenter"",""1"",""1924""
","
","
","""event"",""trial"",""time""
""fullscreenenter"",""1"",""1924""
","
","","","1288.0999999996275","","","10","7071","3783","&#9752;","elianto","#f73b6a7A"," "," ","1","0","[2138.0999999996275]","1","1","","","7071","6","3","3","lose","go","0"
"pit-trial","127","959490","0.0-10.0","battery-v0.2","","""event"",""trial"",""time""
""fullscreenenter"",""1"",""1924""
","
","
","""event"",""trial"",""time""
""fullscreenenter"",""1"",""1924""
","
","","","1029.300000000745","","","10","7071","3783","&#9730;","elianto","#3366ff99"," "," ","1","0","[1879.4000000003725]","1","1","","","7071","7","1","1","win","go","1"
"pit-trial","128","963594","0.0-11.0","battery-v0.2","","""event"",""trial"",""time""
""fullscreenenter"",""1"",""1924""
","
","
","""event"",""trial"",""time""
""fullscreenenter"",""1"",""1924""
","
","","","1240.199999999255","","","10","7071","3783","&#9728;","elianto","#f73b6a7A","-1"," ","0","0","[2091.0999999996275]","1","1","","","7071","8","0","4","lose","no-go","1"
"pit-trial","129","967894","0.0-12.0","battery-v0.2","","""event"",""trial"",""time""
""fullscreenenter"",""1"",""1924""
","
","
","""event"",""trial"",""time""
""fullscreenenter"",""1"",""1924""
","
","","","1436.0999999996275","","","10","7071","3783","&#9752;","elianto","#f73b6a7A"," "," ","1","-10","[2286.199999999255]","1","1","","","7071","9","3","3","lose","go","1"
"pit-trial","130","971360","0.0-13.0","battery-v0.2","","""event"",""trial"",""time""
""fullscreenenter"",""1"",""1924""
","
","
","""event"",""trial"",""time""
""fullscreenenter"",""1"",""1924""
","
","","","604","","","10","7071","3783","&#9730;","elianto","#3366ff99"," "," ","1","0","[1453.8999999985099]","1","1","","","7071","10","1","1","win","go","1"
"pit-trial","131","976220","0.0-14.0","battery-v0.2","","""event"",""trial"",""time""
""fullscreenenter"",""1"",""1924""
","
","
","""event"",""trial"",""time""
""fullscreenenter"",""1"",""1924""
","
","","","-1","","","10","7071","3783","&#9728;","elianto","#f73b6a7A","-1","-1","1","0","[]","0","1","","","7071","11","0","4","lose","no-go","0"
"pit-trial","132","979882","0.0-15.0","battery-v0.2","","""event"",""trial"",""time""
""fullscreenenter"",""1"",""1924""
","
","
","""event"",""trial"",""time""
""fullscreenenter"",""1"",""1924""
","
","","","799","","","10","7071","3783","&#9733;","elianto","#3366ff99","-1"," ","0","+10","[1651.199999999255]","1","1","","","7071","12","2","2","win","no-go","1"
"pit-trial","133","984744","0.0-16.0","battery-v0.2","","""event"",""trial"",""time""
""fullscreenenter"",""1"",""1924""
","
","
","""event"",""trial"",""time""
""fullscreenenter"",""1"",""1924""
","
","","","-1","","","10","7071","3783","&#9728;","elianto","#f73b6a7A","-1","-1","1","0","[]","0","1","","","7071","13","0","4","lose","no-go","0"
"pit-trial","134","988543","0.0-17.0","battery-v0.2","","""event"",""trial"",""time""
""fullscreenenter"",""1"",""1924""
","
","
","""event"",""trial"",""time""
""fullscreenenter"",""1"",""1924""
","
","","","929.2999999988824","","","10","7071","3783","&#9730;","elianto","#3366ff99"," "," ","1","+10","[1782.800000000745]","1","1","","","7071","14","1","1","win","go","0"
"pit-trial","135","992432","0.0-18.0","battery-v0.2","","""event"",""trial"",""time""
""fullscreenenter"",""1"",""1924""
","
","
","""event"",""trial"",""time""
""fullscreenenter"",""1"",""1924""
","
","","","1027.0999999996275","","","10","7071","3783","&#9733;","elianto","#3366ff99","-1"," ","0","0","[1877.1000000014901]","1","1","","","7071","15","2","2","win","no-go","0"
"pit-trial","136","996407","0.0-19.0","battery-v0.2","","""event"",""trial"",""time""
""fullscreenenter"",""1"",""1924""
","
","
","""event"",""trial"",""time""
""fullscreenenter"",""1"",""1924""
","
","","","1111.7000000011176","","","10","7071","3783","&#9752;","elianto","#f73b6a7A"," "," ","1","-10","[1961.5999999996275]","1","1","","","7071","16","3","3","lose","go","1"
"pit-trial","137","1000346","0.0-20.0","battery-v0.2","","""event"",""trial"",""time""
""fullscreenenter"",""1"",""1924""
","
","
","""event"",""trial"",""time""
""fullscreenenter"",""1"",""1924""
","
","","","1077.5","","","10","7071","3783","&#9730;","elianto","#3366ff99"," "," ","1","+10","[1927.5999999996275]","1","1","","","7071","17","1","1","win","go","0"
"pit-trial","138","1004206","0.0-21.0","battery-v0.2","","""event"",""trial"",""time""
""fullscreenenter"",""1"",""1924""
","
","
","""event"",""trial"",""time""
""fullscreenenter"",""1"",""1924""
","
","","","996.5","","","10","7071","3783","&#9733;","elianto","#3366ff99","-1"," ","0","0","[1846.5]","1","1","","","7071","18","2","2","win","no-go","0"
"pit-trial","139","1009072","0.0-22.0","battery-v0.2","","""event"",""trial"",""time""
""fullscreenenter"",""1"",""1924""
","
","
","""event"",""trial"",""time""
""fullscreenenter"",""1"",""1924""
","
","","","-1","","","10","7071","3783","&#9728;","elianto","#f73b6a7A","-1","-1","1","0","[]","0","1","","","7071","19","0","4","lose","no-go","0"
"pit-trial","140","1013026","0.0-23.0","battery-v0.2","","""event"",""trial"",""time""
""fullscreenenter"",""1"",""1924""
","
","
","""event"",""trial"",""time""
""fullscreenenter"",""1"",""1924""
","
","","","1087.5","","","10","7071","3783","&#9752;","elianto","#f73b6a7A"," "," ","1","-10","[1939.699999999255]","1","1","","","7071","20","3","3","lose","go","1"
"pit-instructions","141","1026837","0.0-24.0","battery-v0.2","","""event"",""trial"",""time""
""fullscreenenter"",""1"",""1924""
","
","
","""event"",""trial"",""time""
""fullscreenenter"",""1"",""1924""
","
","","[{""page_index"":0,""viewing_time"":6676.799999998882},{""page_index"":1,""viewing_time"":7121.700000001118}]","13801.799999998882","","","","","","","","","","","","","","","","","","","","","","","",""
"pit-trial","142","1031186","0.0-25.0","battery-v0.2","","""event"",""trial"",""time""
""fullscreenenter"",""1"",""1924""
","
","
","""event"",""trial"",""time""
""fullscreenenter"",""1"",""1924""
","
","","","1483.5999999996275","","","10","7071","3783","j","elianto","#f73b6a7A"," "," ","1","0","[2333.699999999255]","1","2","","","7071","21","0","3","lose","go","0"
"pit-trial","143","1035428","0.0-26.0","battery-v0.2","","""event"",""trial"",""time""
""fullscreenenter"",""1"",""1924""
","
","
","""event"",""trial"",""time""
""fullscreenenter"",""1"",""1924""
","
","","","1381.4000000003725","","","10","7071","3783","w","elianto","#f73b6a7A","-1"," ","0","-10","[2231.5999999996275]","1","2","","","7071","22","3","4","lose","no-go","0"
"pit-trial","144","1038477","0.0-27.0","battery-v0.2","","""event"",""trial"",""time""
""fullscreenenter"",""1"",""1924""
","
","
","""event"",""trial"",""time""
""fullscreenenter"",""1"",""1924""
","
","","","184","","","10","7071","3783","e","elianto","#f73b6a7A"," "," ","1","0","[1037.300000000745]","1","2","","","7071","23","2","3","lose","go","0"
"pit-trial","145","1042536","0.0-28.0","battery-v0.2","","""event"",""trial"",""time""
""fullscreenenter"",""1"",""1924""
","
","
","""event"",""trial"",""time""
""fullscreenenter"",""1"",""1924""
","
","","","1198.300000000745","","","10","7071","3783","d","elianto","#3366ff99","-1"," ","0","0","[2048.300000000745]","1","2","","","7071","24","1","2","win","no-go","0"
"pit-trial","146","1046459","0.0-29.0","battery-v0.2","","""event"",""trial"",""time""
""fullscreenenter"",""1"",""1924""
","
","
","""event"",""trial"",""time""
""fullscreenenter"",""1"",""1924""
","
","","","1062.7000000011176","","","10","7071","3783","e","elianto","#f73b6a7A"," "," ","1","0","[1913]","1","2","","","7071","25","2","3","lose","go","0"
"pit-trial","147","1050309","0.0-30.0","battery-v0.2","","""event"",""trial"",""time""
""fullscreenenter"",""1"",""1924""
","
","
","""event"",""trial"",""time""
""fullscreenenter"",""1"",""1924""
","
","","","985.5999999996275","","","10","7071","3783","j","elianto","#f73b6a7A"," "," ","1","0","[1837.9000000003725]","1","2","","","7071","26","0","3","lose","go","0"
"pit-trial","148","1054075","0.0-31.0","battery-v0.2","","""event"",""trial"",""time""
""fullscreenenter"",""1"",""1924""
","
","
","""event"",""trial"",""time""
""fullscreenenter"",""1"",""1924""
","
","","","905.9000000003725","","","10","7071","3783","d","elianto","#3366ff99","-1"," ","0","0","[1756]","1","2","","","7071","27","1","2","win","no-go","0"
"pit-trial","149","1058936","0.0-32.0","battery-v0.2","","""event"",""trial"",""time""
""fullscreenenter"",""1"",""1924""
","
","
","""event"",""trial"",""time""
""fullscreenenter"",""1"",""1924""
","
","","","-1","","","10","7071","3783","w","elianto","#f73b6a7A","-1","-1","1","0","[]","0","2","","","7071","28","3","4","lose","no-go","0"
"pit-trial","150","1063796","0.0-33.0","battery-v0.2","","""event"",""trial"",""time""
""fullscreenenter"",""1"",""1924""
","
","
","""event"",""trial"",""time""
""fullscreenenter"",""1"",""1924""
","
","","","-1","","","10","7071","3783","d","elianto","#3366ff99","-1","-1","1","0","[]","0","2","","","7071","29","1","2","win","no-go","1"
"pit-trial","151","1067587","0.0-34.0","battery-v0.2","","""event"",""trial"",""time""
""fullscreenenter"",""1"",""1924""
","
","
","""event"",""trial"",""time""
""fullscreenenter"",""1"",""1924""
","
","","","925.8000000007451","","","10","7071","3783","j","elianto","#f73b6a7A"," "," ","1","0","[1775.9000000003725]","1","2","","","7071","30","0","3","lose","go","0"
"pit-trial","152","1072450","0.0-35.0","battery-v0.2","","""event"",""trial"",""time""
""fullscreenenter"",""1"",""1924""
","
","
","""event"",""trial"",""time""
""fullscreenenter"",""1"",""1924""
","
","","","-1","","","10","7071","3783","w","elianto","#f73b6a7A","-1","-1","1","0","[]","0","2","","","7071","31","3","4","lose","no-go","0"
"pit-trial","153","1076489","0.0-36.0","battery-v0.2","","""event"",""trial"",""time""
""fullscreenenter"",""1"",""1924""
","
","
","""event"",""trial"",""time""
""fullscreenenter"",""1"",""1924""
","
","","","1175.800000000745","","","10","7071","3783","e","elianto","#f73b6a7A"," "," ","1","0","[2026.5]","1","2","","","7071","32","2","3","lose","go","0"
"pit-trial","154","1081309","0.0-37.0","battery-v0.2","","""event"",""trial"",""time""
""fullscreenenter"",""1"",""1924""
","
","
","""event"",""trial"",""time""
""fullscreenenter"",""1"",""1924""
","
","","","1960.1000000014901","","","10","7071","3783","d","elianto","#3366ff99","-1"," ","0","0","[2810]","1","2","","","7071","33","1","2","win","no-go","0"
"pit-trial","155","1086173","0.0-38.0","battery-v0.2","","""event"",""trial"",""time""
""fullscreenenter"",""1"",""1924""
","
","
","""event"",""trial"",""time""
""fullscreenenter"",""1"",""1924""
","
","","","-1","","","10","7071","3783","w","elianto","#f73b6a7A","-1","-1","1","0","[]","0","2","","","7071","34","3","4","lose","no-go","0"
"pit-trial","156","1091035","0.0-39.0","battery-v0.2","","""event"",""trial"",""time""
""fullscreenenter"",""1"",""1924""
","
","
","""event"",""trial"",""time""
""fullscreenenter"",""1"",""1924""
","
","","","-1","","","10","7071","3783","j","elianto","#f73b6a7A"," ","-1","0","-10","[]","0","2","","","7071","35","0","3","lose","go","0"
"pit-trial","157","1095342","0.0-40.0","battery-v0.2","","""event"",""trial"",""time""
""fullscreenenter"",""1"",""1924""
","
","
","""event"",""trial"",""time""
""fullscreenenter"",""1"",""1924""
","
","","","1441.800000000745","","","10","7071","3783","e","elianto","#f73b6a7A"," "," ","1","-10","[2291.7999999988824]","1","2","","","7071","36","2","3","lose","go","1"
"pit-trial","158","1099283","0.0-41.0","battery-v0.2","","""event"",""trial"",""time""
""fullscreenenter"",""1"",""1924""
","
","
","""event"",""trial"",""time""
""fullscreenenter"",""1"",""1924""
","
","","","1079.0999999996275","","","10","7071","3783","j","elianto","#f73b6a7A"," "," ","1","0","[1929]","1","2","","","7071","37","0","3","lose","go","0"
"pit-trial","159","1102953","0.0-42.0","battery-v0.2","","""event"",""trial"",""time""
""fullscreenenter"",""1"",""1924""
","
","
","""event"",""trial"",""time""
""fullscreenenter"",""1"",""1924""
","
","","","805.4000000003725","","","10","7071","3783","d","elianto","#3366ff99","-1"," ","0","0","[1655.7000000011176]","1","2","","","7071","38","1","2","win","no-go","0"
"pit-trial","160","1107217","0.0-43.0","battery-v0.2","","""event"",""trial"",""time""
""fullscreenenter"",""1"",""1924""
","
","
","""event"",""trial"",""time""
""fullscreenenter"",""1"",""1924""
","
","","","1399.699999999255","","","10","7071","3783","e","elianto","#f73b6a7A"," "," ","1","0","[2249.800000000745]","1","2","","","7071","39","2","3","lose","go","0"
"pit-trial","161","1111167","0.0-44.0","battery-v0.2","","""event"",""trial"",""time""
""fullscreenenter"",""1"",""1924""
","
","
","""event"",""trial"",""time""
""fullscreenenter"",""1"",""1924""
","
","","","1086.300000000745","","","10","7071","3783","w","elianto","#f73b6a7A","-1"," ","0","0","[1936.4000000003725]","1","2","","","7071","40","3","4","lose","no-go","1"
"pit-trial","162","1116034","0.0-45.0","battery-v0.2","","""event"",""trial"",""time""
""fullscreenenter"",""1"",""1924""
","
","
","""event"",""trial"",""time""
""fullscreenenter"",""1"",""1924""
","
","","","-1","","","10","7071","3783","d","elianto","#3366ff99","-1","-1","1","+10","[]","0","2","","","7071","41","1","2","win","no-go","0"
"pit-trial","163","1120041","0.0-46.0","battery-v0.2","","""event"",""trial"",""time""
""fullscreenenter"",""1"",""1924""
","
","
","""event"",""trial"",""time""
""fullscreenenter"",""1"",""1924""
","
","","","1137.800000000745","","","10","7071","3783","e","elianto","#f73b6a7A"," "," ","1","0","[1992.6000000014901]","1","2","","","7071","42","2","3","lose","go","0"
"pit-trial","164","1123936","0.0-47.0","battery-v0.2","","""event"",""trial"",""time""
""fullscreenenter"",""1"",""1924""
","
","
","""event"",""trial"",""time""
""fullscreenenter"",""1"",""1924""
","
","","","1030","","","10","7071","3783","j","elianto","#f73b6a7A"," "," ","1","-10","[1880.2999999988824]","1","2","","","7071","43","0","3","lose","go","1"
"pit-trial","165","1128800","0.0-48.0","battery-v0.2","","""event"",""trial"",""time""
""fullscreenenter"",""1"",""1924""
","
","
","""event"",""trial"",""time""
""fullscreenenter"",""1"",""1924""
","
","","","-1","","","10","7071","3783","w","elianto","#f73b6a7A","-1","-1","1","-10","[]","0","2","","","7071","44","3","4","lose","no-go","1"
"pit-trial","166","1132515","0.0-49.0","battery-v0.2","","""event"",""trial"",""time""
""fullscreenenter"",""1"",""1924""
","
","
","""event"",""trial"",""time""
""fullscreenenter"",""1"",""1924""
","
","","","850.2999999988824","","","10","7071","3783","e","elianto","#f73b6a7A"," "," ","1","0","[1704.4000000003725]","1","2","","","7071","45","2","3","lose","go","0"
"pit-trial","167","1136680","0.0-50.0","battery-v0.2","","""event"",""trial"",""time""
""fullscreenenter"",""1"",""1924""
","
","
","""event"",""trial"",""time""
""fullscreenenter"",""1"",""1924""
","
","","","1300.9000000003725","","","10","7071","3783","w","elianto","#f73b6a7A","-1"," ","0","-10","[2150.9000000003725,3206.7999999988824]","2","2","","","7071","46","3","4","lose","no-go","0"
"pit-trial","168","1140548","0.0-51.0","battery-v0.2","","""event"",""trial"",""time""
""fullscreenenter"",""1"",""1924""
","
","
","""event"",""trial"",""time""
""fullscreenenter"",""1"",""1924""
","
","","","1003.1999999992549","","","10","7071","3783","d","elianto","#3366ff99","-1"," ","0","0","[1853.5999999996275,2685.2999999988824]","2","2","","","7071","47","1","2","win","no-go","0"
"pit-trial","169","1144421","0.0-52.0","battery-v0.2","","""event"",""trial"",""time""
""fullscreenenter"",""1"",""1924""
","
","
","""event"",""trial"",""time""
""fullscreenenter"",""1"",""1924""
","
","","","1012.3000000007451","","","10","7071","3783","j","elianto","#f73b6a7A"," "," ","1","0","[1863.5999999996275]","1","2","","","7071","48","0","3","lose","go","0"
"pit-trial","170","1148326","0.0-53.0","battery-v0.2","","""event"",""trial"",""time""
""fullscreenenter"",""1"",""1924""
","
","
","""event"",""trial"",""time""
""fullscreenenter"",""1"",""1924""
","
","","","1039.7000000011176","","","10","7071","3783","j","elianto","#f73b6a7A"," "," ","1","-10","[1889.5999999996275,2864.5]","2","2","","","7071","49","0","3","lose","go","1"
"pit-trial","171","1151928","0.0-54.0","battery-v0.2","","""event"",""trial"",""time""
""fullscreenenter"",""1"",""1924""
","
","
","""event"",""trial"",""time""
""fullscreenenter"",""1"",""1924""
","
","","","737.2000000011176","","","10","7071","3783","d","elianto","#3366ff99","-1"," ","0","0","[1587.0999999996275]","1","2","","","7071","50","1","2","win","no-go","0"
"pit-trial","172","1156793","0.0-55.0","battery-v0.2","","""event"",""trial"",""time""
""fullscreenenter"",""1"",""1924""
","
","
","""event"",""trial"",""time""
""fullscreenenter"",""1"",""1924""
","
","","","-1","","","10","7071","3783","w","elianto","#f73b6a7A","-1","-1","1","0","[]","0","2","","","7071","51","3","4","lose","no-go","0"
"pit-trial","173","1160762","0.0-56.0","battery-v0.2","","""event"",""trial"",""time""
""fullscreenenter"",""1"",""1924""
","
","
","""event"",""trial"",""time""
""fullscreenenter"",""1"",""1924""
","
","","","1105.4000000003725","","","10","7071","3783","e","elianto","#f73b6a7A"," "," ","1","0","[1955.5]","1","2","","","7071","52","2","3","lose","go","0"
"pit-trial","174","1164343","0.0-57.0","battery-v0.2","","""event"",""trial"",""time""
""fullscreenenter"",""1"",""1924""
","
","
","""event"",""trial"",""time""
""fullscreenenter"",""1"",""1924""
","
","","","716","","","10","7071","3783","e","elianto","#f73b6a7A"," "," ","1","0","[1566.1000000014901]","1","2","","","7071","53","2","3","lose","go","0"
"pit-trial","175","1169208","0.0-58.0","battery-v0.2","","""event"",""trial"",""time""
""fullscreenenter"",""1"",""1924""
","
","
","""event"",""trial"",""time""
""fullscreenenter"",""1"",""1924""
","
","","","-1","","","10","7071","3783","w","elianto","#f73b6a7A","-1","-1","1","0","[]","0","2","","","7071","54","3","4","lose","no-go","0"
"pit-trial","176","1173193","0.0-59.0","battery-v0.2","","""event"",""trial"",""time""
""fullscreenenter"",""1"",""1924""
","
","
","""event"",""trial"",""time""
""fullscreenenter"",""1"",""1924""
","
","","","1122.7999999988824","","","10","7071","3783","j","elianto","#f73b6a7A"," "," ","1","0","[1972.9000000003725]","1","2","","","7071","55","0","3","lose","go","0"
"pit-trial","177","1178056","0.0-60.0","battery-v0.2","","""event"",""trial"",""time""
""fullscreenenter"",""1"",""1924""
","
","
","""event"",""trial"",""time""
""fullscreenenter"",""1"",""1924""
","
","","","-1","","","10","7071","3783","d","elianto","#3366ff99","-1","-1","1","+10","[]","0","2","","","7071","56","1","2","win","no-go","0"
"pit-trial","178","1182318","0.0-61.0","battery-v0.2","","""event"",""trial"",""time""
""fullscreenenter"",""1"",""1924""
","
","
","""event"",""trial"",""time""
""fullscreenenter"",""1"",""1924""
","
","","","1395.7999999988824","","","10","7071","3783","s","elianto","#3366ff99"," "," ","1","+10","[2245.800000000745]","1","2","","","7071","57","4","1","win","go","0"
"pit-trial","179","1186779","0.0-62.0","battery-v0.2","","""event"",""trial"",""time""
""fullscreenenter"",""1"",""1924""
","
","
","""event"",""trial"",""time""
""fullscreenenter"",""1"",""1924""
","
","","","1596.5","","","10","7071","3783","e","elianto","#f73b6a7A"," "," ","1","0","[2446.5]","1","2","","","7071","58","2","3","lose","go","0"
"pit-trial","180","1190464","0.0-63.0","battery-v0.2","","""event"",""trial"",""time""
""fullscreenenter"",""1"",""1924""
","
","
","""event"",""trial"",""time""
""fullscreenenter"",""1"",""1924""
","
","","","821.8000000007451","","","10","7071","3783","j","elianto","#f73b6a7A"," "," ","1","0","[1672.4000000003725]","1","2","","","7071","59","0","3","lose","go","0"
"pit-trial","181","1195328","0.0-64.0","battery-v0.2","","""event"",""trial"",""time""
""fullscreenenter"",""1"",""1924""
","
","
","""event"",""trial"",""time""
""fullscreenenter"",""1"",""1924""
","
","","","-1","","","10","7071","3783","w","elianto","#f73b6a7A","-1","-1","1","0","[]","0","2","","","7071","60","3","4","lose","no-go","0"
"pit-trial","182","1198842","0.0-65.0","battery-v0.2","","""event"",""trial"",""time""
""fullscreenenter"",""1"",""1924""
","
","
","""event"",""trial"",""time""
""fullscreenenter"",""1"",""1924""
","
","","","649.7000000011176","","","10","7071","3783","d","elianto","#3366ff99","-1"," ","0","0","[1499.8999999985099]","1","2","","","7071","61","1","2","win","no-go","0"
"pit-trial","183","1202282","0.0-66.0","battery-v0.2","","""event"",""trial"",""time""
""fullscreenenter"",""1"",""1924""
","
","
","""event"",""trial"",""time""
""fullscreenenter"",""1"",""1924""
","
","","","574.7000000011176","","","10","7071","3783","s","elianto","#3366ff99"," "," ","1","+10","[1426.800000000745]","1","2","","","7071","62","4","1","win","go","0"
"pit-trial","184","1207142","0.0-67.0","battery-v0.2","","""event"",""trial"",""time""
""fullscreenenter"",""1"",""1924""
","
","
","""event"",""trial"",""time""
""fullscreenenter"",""1"",""1924""
","
","","","-1","","","10","7071","3783","w","elianto","#f73b6a7A","-1","-1","1","0","[]","0","2","","","7071","63","3","4","lose","no-go","0"
"pit-trial","185","1210728","0.0-68.0","battery-v0.2","","""event"",""trial"",""time""
""fullscreenenter"",""1"",""1924""
","
","
","""event"",""trial"",""time""
""fullscreenenter"",""1"",""1924""
","
","","","722.2999999988824","","","10","7071","3783","e","elianto","#f73b6a7A"," "," ","1","0","[1572.5]","1","2","","","7071","64","2","3","lose","go","0"
"pit-trial","186","1215587","0.0-69.0","battery-v0.2","","""event"",""trial"",""time""
""fullscreenenter"",""1"",""1924""
","
","
","""event"",""trial"",""time""
""fullscreenenter"",""1"",""1924""
","
","","","-1","","","10","7071","3783","w","elianto","#f73b6a7A","-1","-1","1","-10","[]","0","2","","","7071","65","3","4","lose","no-go","1"
"pit-trial","187","1219878","0.0-70.0","battery-v0.2","","""event"",""trial"",""time""
""fullscreenenter"",""1"",""1924""
","
","
","""event"",""trial"",""time""
""fullscreenenter"",""1"",""1924""
","
","","","1425.9000000003725","","","10","7071","3783","d","elianto","#3366ff99","-1"," ","0","+10","[2276]","1","2","","","7071","66","1","2","win","no-go","1"
"pit-trial","188","1223693","0.0-71.0","battery-v0.2","","""event"",""trial"",""time""
""fullscreenenter"",""1"",""1924""
","
","
","""event"",""trial"",""time""
""fullscreenenter"",""1"",""1924""
","
","","","952.1999999992549","","","10","7071","3783","s","elianto","#3366ff99"," "," ","1","+10","[1802.300000000745]","1","2","","","7071","67","4","1","win","go","0"
"pit-trial","189","1227089","0.0-72.0","battery-v0.2","","""event"",""trial"",""time""
""fullscreenenter"",""1"",""1924""
","
","
","""event"",""trial"",""time""
""fullscreenenter"",""1"",""1924""
","
","","","533.0999999996275","","","10","7071","3783","p","elianto","#3366ff99","-1"," ","0","0","[1383.300000000745]","1","2","","","7071","68","5","2","win","no-go","0"
"pit-trial","190","1231255","0.0-73.0","battery-v0.2","","""event"",""trial"",""time""
""fullscreenenter"",""1"",""1924""
","
","
","""event"",""trial"",""time""
""fullscreenenter"",""1"",""1924""
","
","","","1301.2999999988824","","","10","7071","3783","d","elianto","#3366ff99","-1"," ","0","0","[2151.5]","1","2","","","7071","69","1","2","win","no-go","0"
"pit-trial","191","1235221","0.0-74.0","battery-v0.2","","""event"",""trial"",""time""
""fullscreenenter"",""1"",""1924""
","
","
","""event"",""trial"",""time""
""fullscreenenter"",""1"",""1924""
","
","","","1104.7000000011176","","","10","7071","3783","s","elianto","#3366ff99"," "," ","1","+10","[1954.5]","1","2","","","7071","70","4","1","win","go","0"
"pit-trial","192","1240086","0.0-75.0","battery-v0.2","","""event"",""trial"",""time""
""fullscreenenter"",""1"",""1924""
","
","
","""event"",""trial"",""time""
""fullscreenenter"",""1"",""1924""
","
","","","-1","","","10","7071","3783","p","elianto","#3366ff99","-1","-1","1","0","[]","0","2","","","7071","71","5","2","win","no-go","1"
"pit-trial","193","1244171","0.0-76.0","battery-v0.2","","""event"",""trial"",""time""
""fullscreenenter"",""1"",""1924""
","
","
","""event"",""trial"",""time""
""fullscreenenter"",""1"",""1924""
","
","","","1220.800000000745","","","10","7071","3783","e","elianto","#f73b6a7A"," "," ","1","0","[2070.9000000003725,2694.5999999996275]","2","2","","","7071","72","2","3","lose","go","0"
"pit-trial","194","1249034","0.0-77.0","battery-v0.2","","""event"",""trial"",""time""
""fullscreenenter"",""1"",""1924""
","
","
","""event"",""trial"",""time""
""fullscreenenter"",""1"",""1924""
","
","","","-1","","","10","7071","3783","w","elianto","#f73b6a7A","-1","-1","1","0","[3324.0999999996275]","1","2","","","7071","73","3","4","lose","no-go","0"
"pit-trial","195","1252410","0.0-78.0","battery-v0.2","","""event"",""trial"",""time""
""fullscreenenter"",""1"",""1924""
","
","
","""event"",""trial"",""time""
""fullscreenenter"",""1"",""1924""
","
","","","515.7000000011176","","","10","7071","3783","s","elianto","#3366ff99"," "," ","1","+10","[1365.5999999996275]","1","2","","","7071","74","4","1","win","go","0"
"pit-trial","196","1257107","0.0-79.0","battery-v0.2","","""event"",""trial"",""time""
""fullscreenenter"",""1"",""1924""
","
","
","""event"",""trial"",""time""
""fullscreenenter"",""1"",""1924""
","
","","","1833.199999999255","","","10","7071","3783","p","elianto","#3366ff99","-1"," ","0","0","[2685.800000000745]","1","2","","","7071","75","5","2","win","no-go","0"
"pit-trial","197","1261969","0.0-80.0","battery-v0.2","","""event"",""trial"",""time""
""fullscreenenter"",""1"",""1924""
","
","
","""event"",""trial"",""time""
""fullscreenenter"",""1"",""1924""
","
","","","-1","","","10","7071","3783","d","elianto","#3366ff99","-1","-1","1","+10","[4837.0999999996275]","1","2","","","7071","76","1","2","win","no-go","0"
"pit-trial","198","1265578","0.0-81.0","battery-v0.2","","""event"",""trial"",""time""
""fullscreenenter"",""1"",""1924""
","
","
","""event"",""trial"",""time""
""fullscreenenter"",""1"",""1924""
","
","","","741.6999999992549","","","10","7071","3783","s","elianto","#3366ff99"," "," ","1","+10","[170.80000000074506,1595.300000000745]","2","2","","","7071","77","4","1","win","go","0"
"pit-trial","199","1269352","0.0-82.0","battery-v0.2","","""event"",""trial"",""time""
""fullscreenenter"",""1"",""1924""
","
","
","""event"",""trial"",""time""
""fullscreenenter"",""1"",""1924""
","
","","","911.4000000003725","","","10","7071","3783","s","elianto","#3366ff99"," "," ","1","+10","[1761.699999999255]","1","2","","","7071","78","4","1","win","go","0"
"pit-trial","200","1272899","0.0-83.0","battery-v0.2","","""event"",""trial"",""time""
""fullscreenenter"",""1"",""1924""
","
","
","""event"",""trial"",""time""
""fullscreenenter"",""1"",""1924""
","
","","","679.9000000003725","","","10","7071","3783","p","elianto","#3366ff99","-1"," ","0","0","[1533]","1","2","","","7071","79","5","2","win","no-go","0"
"pit-trial","201","1277764","0.0-84.0","battery-v0.2","","""event"",""trial"",""time""
""fullscreenenter"",""1"",""1924""
","
","
","""event"",""trial"",""time""
""fullscreenenter"",""1"",""1924""
","
","","","-1","","","10","7071","3783","w","elianto","#f73b6a7A","-1","-1","1","0","[]","0","2","","","7071","80","3","4","lose","no-go","0"
"pit-trial","202","1281524","0.0-85.0","battery-v0.2","","""event"",""trial"",""time""
""fullscreenenter"",""1"",""1924""
","
","
","""event"",""trial"",""time""
""fullscreenenter"",""1"",""1924""
","
","","","893.5","","","10","7071","3783","p","elianto","#3366ff99","-1"," ","0","0","[307.40000000037253,1746.7999999988824]","2","2","","","7071","81","5","2","win","no-go","0"
"pit-trial","203","1285015","0.0-86.0","battery-v0.2","","""event"",""trial"",""time""
""fullscreenenter"",""1"",""1924""
","
","
","""event"",""trial"",""time""
""fullscreenenter"",""1"",""1924""
","
","","","626.7000000011176","","","10","7071","3783","s","elianto","#3366ff99"," "," ","1","+10","[1476.5999999996275]","1","2","","","7071","82","4","1","win","go","0"
"pit-trial","204","1288991","0.0-87.0","battery-v0.2","","""event"",""trial"",""time""
""fullscreenenter"",""1"",""1924""
","
","
","""event"",""trial"",""time""
""fullscreenenter"",""1"",""1924""
","
","","","1110.5999999996275","","","10","7071","3783","a","elianto","#f73b6a7A","-1"," ","0","0","[1960.699999999255]","1","2","","","7071","83","7","4","lose","no-go","1"
"pit-trial","205","1293852","0.0-88.0","battery-v0.2","","""event"",""trial"",""time""
""fullscreenenter"",""1"",""1924""
","
","
","""event"",""trial"",""time""
""fullscreenenter"",""1"",""1924""
","
","","","-1","","","10","7071","3783","w","elianto","#f73b6a7A","-1","-1","1","0","[]","0","2","","","7071","84","3","4","lose","no-go","0"
"pit-trial","206","1297696","0.0-89.0","battery-v0.2","","""event"",""trial"",""time""
""fullscreenenter"",""1"",""1924""
","
","
","""event"",""trial"",""time""
""fullscreenenter"",""1"",""1924""
","
","","","981.7000000011176","","","10","7071","3783","a","elianto","#f73b6a7A","-1"," ","0","-10","[1831.5999999996275]","1","2","","","7071","85","7","4","lose","no-go","0"
"pit-trial","207","1302115","0.0-90.0","battery-v0.2","","""event"",""trial"",""time""
""fullscreenenter"",""1"",""1924""
","
","
","""event"",""trial"",""time""
""fullscreenenter"",""1"",""1924""
","
","","","1557","","","10","7071","3783","g","elianto","#f73b6a7A"," "," ","1","0","[2408.5]","1","2","","","7071","86","6","3","lose","go","0"
"pit-trial","208","1305788","0.0-91.0","battery-v0.2","","""event"",""trial"",""time""
""fullscreenenter"",""1"",""1924""
","
","
","""event"",""trial"",""time""
""fullscreenenter"",""1"",""1924""
","
","","","808.9000000003725","","","10","7071","3783","s","elianto","#3366ff99"," "," ","1","+10","[1658.9000000003725]","1","2","","","7071","87","4","1","win","go","0"
"pit-trial","209","1309657","0.0-92.0","battery-v0.2","","""event"",""trial"",""time""
""fullscreenenter"",""1"",""1924""
","
","
","""event"",""trial"",""time""
""fullscreenenter"",""1"",""1924""
","
","","","1006.3000000007451","","","10","7071","3783","p","elianto","#3366ff99","-1"," ","0","0","[1857.800000000745]","1","2","","","7071","88","5","2","win","no-go","0"
"pit-trial","210","1313533","0.0-93.0","battery-v0.2","","""event"",""trial"",""time""
""fullscreenenter"",""1"",""1924""
","
","
","""event"",""trial"",""time""
""fullscreenenter"",""1"",""1924""
","
","","","1012","","","10","7071","3783","a","elianto","#f73b6a7A","-1"," ","0","-10","[1864.9000000003725]","1","2","","","7071","89","7","4","lose","no-go","0"
"pit-trial","211","1317539","0.0-94.0","battery-v0.2","","""event"",""trial"",""time""
""fullscreenenter"",""1"",""1924""
","
","
","""event"",""trial"",""time""
""fullscreenenter"",""1"",""1924""
","
","","","1142.9000000003725","","","10","7071","3783","g","elianto","#f73b6a7A"," "," ","1","-10","[1993]","1","2","","","7071","90","6","3","lose","go","1"
"pit-trial","212","1321408","0.0-95.0","battery-v0.2","","""event"",""trial"",""time""
""fullscreenenter"",""1"",""1924""
","
","
","""event"",""trial"",""time""
""fullscreenenter"",""1"",""1924""
","
","","","1005.2000000011176","","","10","7071","3783","p","elianto","#3366ff99","-1"," ","0","0","[1855.2999999988824]","1","2","","","7071","91","5","2","win","no-go","0"
"pit-trial","213","1325118","0.0-96.0","battery-v0.2","","""event"",""trial"",""time""
""fullscreenenter"",""1"",""1924""
","
","
","""event"",""trial"",""time""
""fullscreenenter"",""1"",""1924""
","
","","","846.1999999992549","","","10","7071","3783","s","elianto","#3366ff99"," "," ","1","+10","[1696.2999999988824]","1","2","","","7071","92","4","1","win","go","0"
"pit-trial","214","1328647","0.0-97.0","battery-v0.2","","""event"",""trial"",""time""
""fullscreenenter"",""1"",""1924""
","
","
","""event"",""trial"",""time""
""fullscreenenter"",""1"",""1924""
","
","","","666.2000000011176","","","10","7071","3783","p","elianto","#3366ff99","-1"," ","0","0","[1517.2999999988824]","1","2","","","7071","93","5","2","win","no-go","0"
"pit-trial","215","1333115","0.0-98.0","battery-v0.2","","""event"",""trial"",""time""
""fullscreenenter"",""1"",""1924""
","
","
","""event"",""trial"",""time""
""fullscreenenter"",""1"",""1924""
","
","","","1603","","","10","7071","3783","g","elianto","#f73b6a7A"," "," ","1","-10","[2455.5999999996275]","1","2","","","7071","94","6","3","lose","go","1"
"pit-trial","216","1336900","0.0-99.0","battery-v0.2","","""event"",""trial"",""time""
""fullscreenenter"",""1"",""1924""
","
","
","""event"",""trial"",""time""
""fullscreenenter"",""1"",""1924""
","
","","","921.3000000007451","","","10","7071","3783","l","elianto","#3366ff99"," "," ","1","+10","[1771.300000000745]","1","2","","","7071","95","8","1","win","go","0"
"pit-trial","217","1340849","0.0-100.0","battery-v0.2","","""event"",""trial"",""time""
""fullscreenenter"",""1"",""1924""
","
","
","""event"",""trial"",""time""
""fullscreenenter"",""1"",""1924""
","
","","","1080.7000000011176","","","10","7071","3783","a","elianto","#f73b6a7A","-1"," ","0","-10","[1930.699999999255]","1","2","","","7071","96","7","4","lose","no-go","0"
"pit-trial","218","1344546","0.0-101.0","battery-v0.2","","""event"",""trial"",""time""
""fullscreenenter"",""1"",""1924""
","
","
","""event"",""trial"",""time""
""fullscreenenter"",""1"",""1924""
","
","","","837.3000000007451","","","10","7071","3783","l","elianto","#3366ff99"," "," ","1","0","[1687.2999999988824]","1","2","","","7071","97","8","1","win","go","1"
"pit-trial","219","1349412","0.0-102.0","battery-v0.2","","""event"",""trial"",""time""
""fullscreenenter"",""1"",""1924""
","
","
","""event"",""trial"",""time""
""fullscreenenter"",""1"",""1924""
","
","","","-1","","","10","7071","3783","g","elianto","#f73b6a7A"," ","-1","0","-10","[]","0","2","","","7071","98","6","3","lose","go","0"
"pit-trial","220","1352871","0.0-103.0","battery-v0.2","","""event"",""trial"",""time""
""fullscreenenter"",""1"",""1924""
","
","
","""event"",""trial"",""time""
""fullscreenenter"",""1"",""1924""
","
","","","596.1999999992549","","","10","7071","3783","p","elianto","#3366ff99","-1"," ","0","+10","[1446.199999999255]","1","2","","","7071","99","5","2","win","no-go","1"
"pit-trial","221","1357099","0.0-104.0","battery-v0.2","","""event"",""trial"",""time""
""fullscreenenter"",""1"",""1924""
","
","
","""event"",""trial"",""time""
""fullscreenenter"",""1"",""1924""
","
","","","1360.4000000003725","","","10","7071","3783","a","elianto","#f73b6a7A","-1"," ","0","0","[2212.5]","1","2","","","7071","100","7","4","lose","no-go","1"
"pit-trial","222","1361424","0.0-105.0","battery-v0.2","","""event"",""trial"",""time""
""fullscreenenter"",""1"",""1924""
","
","
","""event"",""trial"",""time""
""fullscreenenter"",""1"",""1924""
","
","","","1462.4000000003725","","","10","7071","3783","a","elianto","#f73b6a7A","-1"," ","0","-10","[2312.5999999996275]","1","2","","","7071","101","7","4","lose","no-go","0"
"pit-trial","223","1364907","0.0-106.0","battery-v0.2","","""event"",""trial"",""time""
""fullscreenenter"",""1"",""1924""
","
","
","""event"",""trial"",""time""
""fullscreenenter"",""1"",""1924""
","
","","","617.7000000011176","","","10","7071","3783","p","elianto","#3366ff99","-1"," ","0","0","[1467.699999999255]","1","2","","","7071","102","5","2","win","no-go","0"
"pit-trial","224","1368166","0.0-107.0","battery-v0.2","","""event"",""trial"",""time""
""fullscreenenter"",""1"",""1924""
","
","
","""event"",""trial"",""time""
""fullscreenenter"",""1"",""1924""
","
","","","393.69999999925494","","","10","7071","3783","l","elianto","#3366ff99"," "," ","1","+10","[1243.8999999985099,1537]","2","2","","","7071","103","8","1","win","go","0"
"pit-trial","225","1371634","0.0-108.0","battery-v0.2","","""event"",""trial"",""time""
""fullscreenenter"",""1"",""1924""
","
","
","""event"",""trial"",""time""
""fullscreenenter"",""1"",""1924""
","
","","","602.3000000007451","","","10","7071","3783","u","elianto","#3366ff99"," "," ","1","+10","[532,1454.5999999996275]","2","2","","","7071","104","9","1","win","go","0"
"pit-trial","226","1375441","0.0-109.0","battery-v0.2","","""event"",""trial"",""time""
""fullscreenenter"",""1"",""1924""
","
","
","""event"",""trial"",""time""
""fullscreenenter"",""1"",""1924""
","
","","","943.5","","","10","7071","3783","u","elianto","#3366ff99"," "," ","1","+10","[1793.699999999255]","1","2","","","7071","105","9","1","win","go","0"
"pit-trial","227","1380303","0.0-110.0","battery-v0.2","","""event"",""trial"",""time""
""fullscreenenter"",""1"",""1924""
","
","
","""event"",""trial"",""time""
""fullscreenenter"",""1"",""1924""
","
","","","-1","","","10","7071","3783","g","elianto","#f73b6a7A"," ","-1","0","-10","[]","0","2","","","7071","106","6","3","lose","go","0"
"pit-trial","228","1384071","0.0-111.0","battery-v0.2","","""event"",""trial"",""time""
""fullscreenenter"",""1"",""1924""
","
","
","""event"",""trial"",""time""
""fullscreenenter"",""1"",""1924""
","
","","","910","","","10","7071","3783","s","elianto","#3366ff99"," "," ","1","+10","[1759.9000000003725]","1","2","","","7071","107","4","1","win","go","0"
"pit-trial","229","1387587","0.0-112.0","battery-v0.2","","""event"",""trial"",""time""
""fullscreenenter"",""1"",""1924""
","
","
","""event"",""trial"",""time""
""fullscreenenter"",""1"",""1924""
","
","","","657.7000000011176","","","10","7071","3783","l","elianto","#3366ff99"," "," ","1","+10","[1507.800000000745]","1","2","","","7071","108","8","1","win","go","0"
"pit-trial","230","1391255","0.0-113.0","battery-v0.2","","""event"",""trial"",""time""
""fullscreenenter"",""1"",""1924""
","
","
","""event"",""trial"",""time""
""fullscreenenter"",""1"",""1924""
","
","","","803.2000000011176","","","10","7071","3783","l","elianto","#3366ff99"," "," ","1","+10","[1653.199999999255]","1","2","","","7071","109","8","1","win","go","0"
"pit-trial","231","1396116","0.0-114.0","battery-v0.2","","""event"",""trial"",""time""
""fullscreenenter"",""1"",""1924""
","
","
","""event"",""trial"",""time""
""fullscreenenter"",""1"",""1924""
","
","","","-1","","","10","7071","3783","g","elianto","#f73b6a7A"," ","-1","0","-10","[]","0","2","","","7071","110","6","3","lose","go","0"
"pit-trial","232","1399793","0.0-115.0","battery-v0.2","","""event"",""trial"",""time""
""fullscreenenter"",""1"",""1924""
","
","
","""event"",""trial"",""time""
""fullscreenenter"",""1"",""1924""
","
","","","817.2000000011176","","","10","7071","3783","u","elianto","#3366ff99"," "," ","1","+10","[1667.0999999996275]","1","2","","","7071","111","9","1","win","go","0"
"pit-trial","233","1403405","0.0-116.0","battery-v0.2","","""event"",""trial"",""time""
""fullscreenenter"",""1"",""1924""
","
","
","""event"",""trial"",""time""
""fullscreenenter"",""1"",""1924""
","
","","","746.2999999988824","","","10","7071","3783","p","elianto","#3366ff99","-1"," ","0","0","[1597.5999999996275]","1","2","","","7071","112","5","2","win","no-go","0"
"pit-trial","234","1407060","0.0-117.0","battery-v0.2","","""event"",""trial"",""time""
""fullscreenenter"",""1"",""1924""
","
","
","""event"",""trial"",""time""
""fullscreenenter"",""1"",""1924""
","
","","","788.0999999996275","","","10","7071","3783","u","elianto","#3366ff99"," "," ","1","+10","[1641.5,3087.5999999996275]","2","2","","","7071","113","9","1","win","go","0"
"pit-trial","235","1411923","0.0-118.0","battery-v0.2","","""event"",""trial"",""time""
""fullscreenenter"",""1"",""1924""
","
","
","""event"",""trial"",""time""
""fullscreenenter"",""1"",""1924""
","
","","","-1","","","10","7071","3783","g","elianto","#f73b6a7A"," ","-1","0","-10","[3598.9000000003725]","1","2","","","7071","114","6","3","lose","go","0"
"pit-trial","236","1415590","0.0-119.0","battery-v0.2","","""event"",""trial"",""time""
""fullscreenenter"",""1"",""1924""
","
","
","""event"",""trial"",""time""
""fullscreenenter"",""1"",""1924""
","
","","","802.2999999988824","","","10","7071","3783","p","elianto","#3366ff99","-1"," ","0","0","[1652.5,3245.5]","2","2","","","7071","115","5","2","win","no-go","0"
"pit-trial","237","1419184","0.0-120.0","battery-v0.2","","""event"",""trial"",""time""
""fullscreenenter"",""1"",""1924""
","
","
","""event"",""trial"",""time""
""fullscreenenter"",""1"",""1924""
","
","","","731.8000000007451","","","10","7071","3783","l","elianto","#3366ff99"," "," ","1","+10","[1581.7999999988824]","1","2","","","7071","116","8","1","win","go","0"
"pit-trial","238","1423251","0.0-121.0","battery-v0.2","","""event"",""trial"",""time""
""fullscreenenter"",""1"",""1924""
","
","
","""event"",""trial"",""time""
""fullscreenenter"",""1"",""1924""
","
","","","1203.7999999988824","","","10","7071","3783","g","elianto","#f73b6a7A"," "," ","1","-10","[2056.7999999988824]","1","2","","","7071","117","6","3","lose","go","1"
"pit-trial","239","1427100","0.0-122.0","battery-v0.2","","""event"",""trial"",""time""
""fullscreenenter"",""1"",""1924""
","
","
","""event"",""trial"",""time""
""fullscreenenter"",""1"",""1924""
","
","","","985.5999999996275","","","10","7071","3783","u","elianto","#3366ff99"," "," ","1","+10","[1836]","1","2","","","7071","118","9","1","win","go","0"
"pit-trial","240","1430614","0.0-123.0","battery-v0.2","","""event"",""trial"",""time""
""fullscreenenter"",""1"",""1924""
","
","
","""event"",""trial"",""time""
""fullscreenenter"",""1"",""1924""
","
","","","650.7999999988824","","","10","7071","3783","l","elianto","#3366ff99"," "," ","1","+10","[1500.800000000745]","1","2","","","7071","119","8","1","win","go","0"
"pit-trial","241","1434197","0.0-124.0","battery-v0.2","","""event"",""trial"",""time""
""fullscreenenter"",""1"",""1924""
","
","
","""event"",""trial"",""time""
""fullscreenenter"",""1"",""1924""
","
","","","718.2999999988824","","","10","7071","3783","p","elianto","#3366ff99","-1"," ","0","+10","[1572.0999999996275]","1","2","","","7071","120","5","2","win","no-go","1"
"pit-trial","242","1438160","0.0-125.0","battery-v0.2","","""event"",""trial"",""time""
""fullscreenenter"",""1"",""1924""
","
","
","""event"",""trial"",""time""
""fullscreenenter"",""1"",""1924""
","
","","","1098.300000000745","","","10","7071","3783","g","elianto","#f73b6a7A"," "," ","1","-10","[1951.2000000011176,2786.5]","2","2","","","7071","121","6","3","lose","go","1"
"pit-trial","243","1442276","0.0-126.0","battery-v0.2","","""event"",""trial"",""time""
""fullscreenenter"",""1"",""1924""
","
","
","""event"",""trial"",""time""
""fullscreenenter"",""1"",""1924""
","
","","","1247.0999999996275","","","10","7071","3783","l","elianto","#3366ff99"," "," ","1","0","[2097.5999999996275]","1","2","","","7071","122","8","1","win","go","1"
"pit-trial","244","1445974","0.0-127.0","battery-v0.2","","""event"",""trial"",""time""
""fullscreenenter"",""1"",""1924""
","
","
","""event"",""trial"",""time""
""fullscreenenter"",""1"",""1924""
","
","","","831.7000000011176","","","10","7071","3783","u","elianto","#3366ff99"," "," ","1","+10","[1683.800000000745]","1","2","","","7071","123","9","1","win","go","0"
"pit-trial","245","1449894","0.0-128.0","battery-v0.2","","""event"",""trial"",""time""
""fullscreenenter"",""1"",""1924""
","
","
","""event"",""trial"",""time""
""fullscreenenter"",""1"",""1924""
","
","","","1052.5999999996275","","","10","7071","3783","a","elianto","#f73b6a7A","-1"," ","0","0","[1904.300000000745]","1","2","","","7071","124","7","4","lose","no-go","1"
"pit-trial","246","1453316","0.0-129.0","battery-v0.2","","""event"",""trial"",""time""
""fullscreenenter"",""1"",""1924""
","
","
","""event"",""trial"",""time""
""fullscreenenter"",""1"",""1924""
","
","","","556.3000000007451","","","10","7071","3783","u","elianto","#3366ff99"," "," ","1","+10","[1406.2999999988824]","1","2","","","7071","125","9","1","win","go","0"
"pit-trial","247","1457070","0.0-130.0","battery-v0.2","","""event"",""trial"",""time""
""fullscreenenter"",""1"",""1924""
","
","
","""event"",""trial"",""time""
""fullscreenenter"",""1"",""1924""
","
","","","889.7999999988824","","","10","7071","3783","l","elianto","#3366ff99"," "," ","1","+10","[1739.4000000003725]","1","2","","","7071","126","8","1","win","go","0"
"pit-trial","248","1461413","0.0-131.0","battery-v0.2","","""event"",""trial"",""time""
""fullscreenenter"",""1"",""1924""
","
","
","""event"",""trial"",""time""
""fullscreenenter"",""1"",""1924""
","
","","","1484.7000000011176","","","10","7071","3783","g","elianto","#f73b6a7A"," "," ","1","0","[2334.7000000011176]","1","2","","","7071","127","6","3","lose","go","0"
"pit-trial","249","1464861","0.0-132.0","battery-v0.2","","""event"",""trial"",""time""
""fullscreenenter"",""1"",""1924""
","
","
","""event"",""trial"",""time""
""fullscreenenter"",""1"",""1924""
","
","","","584.6000000014901","","","10","7071","3783","a","elianto","#f73b6a7A","-1"," ","0","0","[1434.699999999255]","1","2","","","7071","128","7","4","lose","no-go","1"
"pit-trial","250","1468795","0.0-133.0","battery-v0.2","","""event"",""trial"",""time""
""fullscreenenter"",""1"",""1924""
","
","
","""event"",""trial"",""time""
""fullscreenenter"",""1"",""1924""
","
","","","1070.800000000745","","","10","7071","3783","g","elianto","#f73b6a7A"," "," ","1","0","[1920.8999999985099]","1","2","","","7071","129","6","3","lose","go","0"
"pit-trial","251","1472289","0.0-134.0","battery-v0.2","","""event"",""trial"",""time""
""fullscreenenter"",""1"",""1924""
","
","
","""event"",""trial"",""time""
""fullscreenenter"",""1"",""1924""
","
","","","630.8999999985099","","","10","7071","3783","u","elianto","#3366ff99"," "," ","1","+10","[1480.800000000745]","1","2","","","7071","130","9","1","win","go","0"
"pit-trial","252","1477149","0.0-135.0","battery-v0.2","","""event"",""trial"",""time""
""fullscreenenter"",""1"",""1924""
","
","
","""event"",""trial"",""time""
""fullscreenenter"",""1"",""1924""
","
","","","-1","","","10","7071","3783","a","elianto","#f73b6a7A","-1","-1","1","0","[]","0","2","","","7071","131","7","4","lose","no-go","0"
"pit-trial","253","1480449","0.0-136.0","battery-v0.2","","""event"",""trial"",""time""
""fullscreenenter"",""1"",""1924""
","
","
","""event"",""trial"",""time""
""fullscreenenter"",""1"",""1924""
","
","","","436.5","","","10","7071","3783","l","elianto","#3366ff99"," "," ","1","+10","[1291.800000000745]","1","2","","","7071","132","8","1","win","go","0"
"pit-trial","254","1483560","0.0-137.0","battery-v0.2","","""event"",""trial"",""time""
""fullscreenenter"",""1"",""1924""
","
","
","""event"",""trial"",""time""
""fullscreenenter"",""1"",""1924""
","
","","","246.2999999988824","","","10","7071","3783","g","elianto","#f73b6a7A"," "," ","1","-10","[1098.699999999255]","1","2","","","7071","133","6","3","lose","go","1"
"pit-trial","255","1487161","0.0-138.0","battery-v0.2","","""event"",""trial"",""time""
""fullscreenenter"",""1"",""1924""
","
","
","""event"",""trial"",""time""
""fullscreenenter"",""1"",""1924""
","
","","","738.1999999992549","","","10","7071","3783","u","elianto","#3366ff99"," "," ","1","0","[1588.300000000745]","1","2","","","7071","134","9","1","win","go","1"
"pit-trial","256","1492025","0.0-139.0","battery-v0.2","","""event"",""trial"",""time""
""fullscreenenter"",""1"",""1924""
","
","
","""event"",""trial"",""time""
""fullscreenenter"",""1"",""1924""
","
","","","-1","","","10","7071","3783","l","elianto","#3366ff99"," ","-1","0","0","[]","0","2","","","7071","135","8","1","win","go","0"
"pit-trial","257","1496886","0.0-140.0","battery-v0.2","","""event"",""trial"",""time""
""fullscreenenter"",""1"",""1924""
","
","
","""event"",""trial"",""time""
""fullscreenenter"",""1"",""1924""
","
","","","-1","","","10","7071","3783","a","elianto","#f73b6a7A","-1","-1","1","0","[3038.699999999255]","1","2","","","7071","136","7","4","lose","no-go","0"
"pit-trial","258","1501335","0.0-141.0","battery-v0.2","","""event"",""trial"",""time""
""fullscreenenter"",""1"",""1924""
","
","
","""event"",""trial"",""time""
""fullscreenenter"",""1"",""1924""
","
","","","1587.800000000745","","","10","7071","3783","u","elianto","#3366ff99"," "," ","1","+10","[2437.699999999255]","1","2","","","7071","137","9","1","win","go","0"
"pit-trial","259","1504884","0.0-142.0","battery-v0.2","","""event"",""trial"",""time""
""fullscreenenter"",""1"",""1924""
","
","
","""event"",""trial"",""time""
""fullscreenenter"",""1"",""1924""
","
","","","685.5","","","10","7071","3783","l","elianto","#3366ff99"," "," ","1","+10","[1535.5]","1","2","","","7071","138","8","1","win","go","0"
"pit-trial","260","1508191","0.0-143.0","battery-v0.2","","""event"",""trial"",""time""
""fullscreenenter"",""1"",""1924""
","
","
","""event"",""trial"",""time""
""fullscreenenter"",""1"",""1924""
","
","","","442.5","","","10","7071","3783","g","elianto","#f73b6a7A"," "," ","1","0","[1292.5]","1","2","","","7071","139","6","3","lose","go","0"
"pit-trial","261","1511410","0.0-144.0","battery-v0.2","","""event"",""trial"",""time""
""fullscreenenter"",""1"",""1924""
","
","
","""event"",""trial"",""time""
""fullscreenenter"",""1"",""1924""
","
","","","355.2000000011176","","","10","7071","3783","a","elianto","#f73b6a7A","-1"," ","0","-10","[1205.2999999988824]","1","2","","","7071","140","7","4","lose","no-go","0"
"pit-instructions","262","1525884","0.0-145.0","battery-v0.2","","""event"",""trial"",""time""
""fullscreenenter"",""1"",""1924""
","
","
","""event"",""trial"",""time""
""fullscreenenter"",""1"",""1924""
","
","","[{""page_index"":0,""viewing_time"":6083},{""page_index"":1,""viewing_time"":8379.900000000373}]","14465.300000000745","","","","","","","","","","","","","","","","","","","","","","","",""
"pit-trial","263","1529636","0.0-146.0","battery-v0.2","","""event"",""trial"",""time""
""fullscreenenter"",""1"",""1924""
","
","
","""event"",""trial"",""time""
""fullscreenenter"",""1"",""1924""
","
