"trial_type","trial_index","time_elapsed","internal_node_id","task_version","subject_id","interactions","blur_events","focus_events","fullscreenenter_events","fullscreenexit_events","success","view_history","rt","responses","num_errors","age","subject","participantId","rune","rune_set","hex","correct","choice","accuracy","outcome","keys","total_keys","block","practice","value","sub","trial","stimulus","robot","valence","action","sham"
"pavlovia","0","21","0.0-0.0","battery-v0.2","","""event"",""trial"",""time""
""fullscreenenter"",""1"",""1512""
","
","
","""event"",""trial"",""time""
""fullscreenenter"",""1"",""1512""
","
","","","","","","","","","","","","","","","","","","","","","","","","","","",""
"fullscreen","1","2509","0.0-1.0","battery-v0.2","","""event"",""trial"",""time""
""fullscreenenter"",""1"",""1512""
","
","
","""event"",""trial"",""time""
""fullscreenenter"",""1"",""1512""
","
","true","","","","","","","","","","","","","","","","","","","","","","","","","",""
"pit-instructions","2","7135","0.0-2.0-0.0","battery-v0.2","","""event"",""trial"",""time""
""fullscreenenter"",""1"",""1512""
","
","
","""event"",""trial"",""time""
""fullscreenenter"",""1"",""1512""
","
","","[{""page_index"":0,""viewing_time"":4611.5}]","4612.699999928474","","","","","","","","","","","","","","","","","","","","","","","",""
"pit-comprehension","3","10195","0.0-2.0-1.0-0.0","battery-v0.2","","""event"",""trial"",""time""
""fullscreenenter"",""1"",""1512""
","
","
","""event"",""trial"",""time""
""fullscreenenter"",""1"",""1512""
","
","","","3052.899999976158","[""shark""]","0","11","7255","3681","","","","","","","","","","","","","","","","","","",""
"pit-instructions","4","14538","0.0-2.0-1.0-1.0","battery-v0.2","","""event"",""trial"",""time""
""fullscreenenter"",""1"",""1512""
","
","
","""event"",""trial"",""time""
""fullscreenenter"",""1"",""1512""
","
","","[{""page_index"":0,""viewing_time"":4288.200000047684}]","4288.800000071526","","","","","","","","","","","","","","","","","","","","","","","",""
"pit-comprehension","5","18785","0.0-2.0-2.0-0.0","battery-v0.2","","""event"",""trial"",""time""
""fullscreenenter"",""1"",""1512""
","
","
","""event"",""trial"",""time""
""fullscreenenter"",""1"",""1512""
","
","","","4239.200000047684","[""tiger""]","0","11","7255","3681","","","","","","","","","","","","","","","","","","",""
"pit-instructions","6","20802","0.0-2.0-2.0-1.0","battery-v0.2","","""event"",""trial"",""time""
""fullscreenenter"",""1"",""1512""
","
","
","""event"",""trial"",""time""
""fullscreenenter"",""1"",""1512""
","
","","[{""page_index"":0,""viewing_time"":2010.5}]","2010.8999999761581","","","","","","","","","","","","","","","","","","","","","","","",""
"pit-instructions","7","130896","0.0-2.0-3.0","battery-v0.2","","""event"",""trial"",""time""
""fullscreenenter"",""1"",""1512""
","
","
","""event"",""trial"",""time""
""fullscreenenter"",""1"",""1512""
","
","","[{""page_index"":0,""viewing_time"":11332.600000023842},{""page_index"":1,""viewing_time"":6036.099999904633},{""page_index"":2,""viewing_time"":9966},{""page_index"":3,""viewing_time"":5587.900000095367},{""page_index"":4,""viewing_time"":6276},{""page_index"":5,""viewing_time"":6936.099999904633},{""page_index"":6,""viewing_time"":7160.5},{""page_index"":7,""viewing_time"":7039.5},{""page_index"":8,""viewing_time"":7823.900000095367},{""page_index"":9,""viewing_time"":9664.199999928474},{""page_index"":10,""viewing_time"":11887.600000023842},{""page_index"":11,""viewing_time"":8194.299999952316},{""page_index"":12,""viewing_time"":7103.900000095367},{""page_index"":13,""viewing_time"":5079.799999952316}]","110089.10000002384","","","","","","","","","","","","","","","","","","","","","","","",""
"pit-trial","8","134777","0.0-2.0-4.0-0.0","battery-v0.2","","""event"",""trial"",""time""
""fullscreenenter"",""1"",""1512""
","
","
","""event"",""trial"",""time""
""fullscreenenter"",""1"",""1512""
","
","","","1008.2999999523163","","","11","7255","3681","&#9784;","elianto","#FFFFF080"," "," ","1","&#10004","[1863.0999999046326]","1","0","0","","","","","","","",""
"pit-trial","9","138748","0.0-2.0-4.1-0.1","battery-v0.2","","""event"",""trial"",""time""
""fullscreenenter"",""1"",""1512""
","
","
","""event"",""trial"",""time""
""fullscreenenter"",""1"",""1512""
","
","","","1096.2000000476837","","","11","7255","3681","&#9784;","elianto","#FFFFF080"," "," ","1","&#10004","[1950.7999999523163]","1","0","0","","","","","","","",""
"pit-trial","10","143039","0.0-2.0-4.2-0.2","battery-v0.2","","""event"",""trial"",""time""
""fullscreenenter"",""1"",""1512""
","
","
","""event"",""trial"",""time""
""fullscreenenter"",""1"",""1512""
","
","","","1413.2000000476837","","","11","7255","3681","&#9784;","elianto","#FFFFF080"," "," ","1","&#10004","[2271.5]","1","0","0","","","","","","","",""
"pit-trial","11","147226","0.0-2.0-4.3-0.3","battery-v0.2","","""event"",""trial"",""time""
""fullscreenenter"",""1"",""1512""
","
","
","""event"",""trial"",""time""
""fullscreenenter"",""1"",""1512""
","
","","","1307.7999999523163","","","11","7255","3681","&#9784;","elianto","#FFFFF080"," "," ","1","&#10004","[2158.9000000953674]","1","0","0","","","","","","","",""
"pit-trial","12","151289","0.0-2.0-4.4-0.4","battery-v0.2","","""event"",""trial"",""time""
""fullscreenenter"",""1"",""1512""
","
","
","""event"",""trial"",""time""
""fullscreenenter"",""1"",""1512""
","
","","","1188","","","11","7255","3681","&#9784;","elianto","#FFFFF080"," "," ","1","&#10004","[2041.6000000238419]","1","0","0","","","","","","","",""
"pit-instructions","13","175765","0.0-2.0-5.0","battery-v0.2","","""event"",""trial"",""time""
""fullscreenenter"",""1"",""1512""
","
","
","""event"",""trial"",""time""
""fullscreenenter"",""1"",""1512""
","
","","[{""page_index"":0,""viewing_time"":6281.5},{""page_index"":1,""viewing_time"":6099.699999928474},{""page_index"":2,""viewing_time"":4832.100000023842},{""page_index"":3,""viewing_time"":7250}]","24463.899999976158","","","","","","","","","","","","","","","","","","","","","","","",""
"pit-trial","14","180645","0.0-2.0-6.0-0.0","battery-v0.2","","""event"",""trial"",""time""
""fullscreenenter"",""1"",""1512""
","
","
","""event"",""trial"",""time""
""fullscreenenter"",""1"",""1512""
","
","","","-1","","","11","7255","3681","&#9854;","elianto","#FFFFF080","-1","-1","1","&#10004","[]","0","0","1","","","","","","","",""
"pit-trial","15","185518","0.0-2.0-6.1-0.1","battery-v0.2","","""event"",""trial"",""time""
""fullscreenenter"",""1"",""1512""
","
","
","""event"",""trial"",""time""
""fullscreenenter"",""1"",""1512""
","
","","","-1","","","11","7255","3681","&#9854;","elianto","#FFFFF080","-1","-1","1","&#10004","[]","0","0","1","","","","","","","",""
"pit-trial","16","190411","0.0-2.0-6.2-0.2","battery-v0.2","","""event"",""trial"",""time""
""fullscreenenter"",""1"",""1512""
","
","
","""event"",""trial"",""time""
""fullscreenenter"",""1"",""1512""
","
","","","-1","","","11","7255","3681","&#9854;","elianto","#FFFFF080","-1","-1","1","&#10004","[]","0","0","1","","","","","","","",""
"pit-trial","17","195296","0.0-2.0-6.3-0.3","battery-v0.2","","""event"",""trial"",""time""
""fullscreenenter"",""1"",""1512""
","
","
","""event"",""trial"",""time""
""fullscreenenter"",""1"",""1512""
","
","","","-1","","","11","7255","3681","&#9854;","elianto","#FFFFF080","-1","-1","1","&#10004","[]","0","0","1","","","","","","","",""
"pit-trial","18","200178","0.0-2.0-6.4-0.4","battery-v0.2","","""event"",""trial"",""time""
""fullscreenenter"",""1"",""1512""
","
","
","""event"",""trial"",""time""
""fullscreenenter"",""1"",""1512""
","
","","","-1","","","11","7255","3681","&#9854;","elianto","#FFFFF080","-1","-1","1","&#10004","[]","0","0","1","","","","","","","",""
"pit-instructions","19","320532","0.0-2.0-7.0","battery-v0.2","","""event"",""trial"",""time""
""fullscreenenter"",""1"",""1512""
","
","
","""event"",""trial"",""time""
""fullscreenenter"",""1"",""1512""
","
","","[{""page_index"":0,""viewing_time"":5912.100000023842},{""page_index"":1,""viewing_time"":7761.699999928474},{""page_index"":2,""viewing_time"":6755.900000095367},{""page_index"":3,""viewing_time"":6854.099999904633},{""page_index"":4,""viewing_time"":5540},{""page_index"":5,""viewing_time"":5756.100000023842},{""page_index"":6,""viewing_time"":4345.899999976158},{""page_index"":7,""viewing_time"":7959.900000095367},{""page_index"":8,""viewing_time"":7528},{""page_index"":9,""viewing_time"":6744.199999928474},{""page_index"":10,""viewing_time"":6832.200000047684},{""page_index"":11,""viewing_time"":4568},{""page_index"":12,""viewing_time"":6950},{""page_index"":13,""viewing_time"":7457.600000023842},{""page_index"":14,""viewing_time"":7410.299999952316},{""page_index"":15,""viewing_time"":8313.700000047684},{""page_index"":16,""viewing_time"":6534.299999952316},{""page_index"":17,""viewing_time"":7119.799999952316}]","120344.29999995232","","","","","","","","","","","","","","","","","","","","","","","",""
"pit-trial","20","324410","0.0-2.0-8.0-0.0","battery-v0.2","","""event"",""trial"",""time""
""fullscreenenter"",""1"",""1512""
","
","
","""event"",""trial"",""time""
""fullscreenenter"",""1"",""1512""
","
","","","1001.5","","","11","7255","3681","&#9776;","elianto","#3366ff99"," "," ","1","+10","[1853.7000000476837]","1","0","1","","","","","","","",""
"pit-trial","21","328338","0.0-2.0-8.0-1.0","battery-v0.2","","""event"",""trial"",""time""
""fullscreenenter"",""1"",""1512""
","
","
","""event"",""trial"",""time""
""fullscreenenter"",""1"",""1512""
","
","","","1058.7000000476837","","","11","7255","3681","&#9776;","elianto","#3366ff99"," "," ","1","+10","[1908.9000000953674]","1","0","1","","","","","","","",""
"pit-trial","22","332146","0.0-2.0-8.0-2.0","battery-v0.2","","""event"",""trial"",""time""
""fullscreenenter"",""1"",""1512""
","
","
","""event"",""trial"",""time""
""fullscreenenter"",""1"",""1512""
","
","","","935.3999999761581","","","11","7255","3681","&#9776;","elianto","#3366ff99"," "," ","1","+10","[1788.0999999046326]","1","0","1","","","","","","","",""
"pit-trial","23","336031","0.0-2.0-8.0-3.0","battery-v0.2","","""event"",""trial"",""time""
""fullscreenenter"",""1"",""1512""
","
","
","""event"",""trial"",""time""
""fullscreenenter"",""1"",""1512""
","
","","","1012.2999999523163","","","11","7255","3681","&#9776;","elianto","#3366ff99"," "," ","1","0","[1866]","1","0","1","","","","","","","",""
"pit-trial","24","339674","0.0-2.0-8.0-4.0","battery-v0.2","","""event"",""trial"",""time""
""fullscreenenter"",""1"",""1512""
","
","
","""event"",""trial"",""time""
""fullscreenenter"",""1"",""1512""
","
","","","781.2999999523163","","","11","7255","3681","&#9776;","elianto","#3366ff99"," "," ","1","+10","[1636.8999999761581]","1","0","1","","","","","","","",""
"pit-trial","25","343439","0.0-2.0-8.1-0.1","battery-v0.2","","""event"",""trial"",""time""
""fullscreenenter"",""1"",""1512""
","
","
","""event"",""trial"",""time""
""fullscreenenter"",""1"",""1512""
","
","","","894","","","11","7255","3681","&#9776;","elianto","#3366ff99"," "," ","1","+10","[1744.4000000953674]","1","0","1","","","","","","","",""
"pit-trial","26","347102","0.0-2.0-8.1-1.1","battery-v0.2","","""event"",""trial"",""time""
""fullscreenenter"",""1"",""1512""
","
","
","""event"",""trial"",""time""
""fullscreenenter"",""1"",""1512""
","
","","","784.8999999761581","","","11","7255","3681","&#9776;","elianto","#3366ff99"," "," ","1","+10","[1642.8999999761581]","1","0","1","","","","","","","",""
"pit-trial","27","350692","0.0-2.0-8.1-2.1","battery-v0.2","","""event"",""trial"",""time""
""fullscreenenter"",""1"",""1512""
","
","
","""event"",""trial"",""time""
""fullscreenenter"",""1"",""1512""
","
","","","724","","","11","7255","3681","&#9776;","elianto","#3366ff99"," "," ","1","+10","[1580.1000000238419]","1","0","1","","","","","","","",""
"pit-trial","28","354484","0.0-2.0-8.1-3.1","battery-v0.2","","""event"",""trial"",""time""
""fullscreenenter"",""1"",""1512""
","
","
","""event"",""trial"",""time""
""fullscreenenter"",""1"",""1512""
","
","","","931.6000000238419","","","11","7255","3681","&#9776;","elianto","#3366ff99"," "," ","1","0","[1783.2000000476837]","1","0","1","","","","","","","",""
"pit-trial","29","358196","0.0-2.0-8.1-4.1","battery-v0.2","","""event"",""trial"",""time""
""fullscreenenter"",""1"",""1512""
","
","
","""event"",""trial"",""time""
""fullscreenenter"",""1"",""1512""
","
","","","847.8000000715256","","","11","7255","3681","&#9776;","elianto","#3366ff99"," "," ","1","+10","[1701]","1","0","1","","","","","","","",""
"pit-trial","30","361980","0.0-2.0-8.2-0.2","battery-v0.2","","""event"",""trial"",""time""
""fullscreenenter"",""1"",""1512""
","
","
","""event"",""trial"",""time""
""fullscreenenter"",""1"",""1512""
","
","","","917.5","","","11","7255","3681","&#9776;","elianto","#3366ff99"," "," ","1","+10","[1774.7000000476837]","1","0","1","","","","","","","",""
"pit-trial","31","365572","0.0-2.0-8.2-1.2","battery-v0.2","","""event"",""trial"",""time""
""fullscreenenter"",""1"",""1512""
","
","
","""event"",""trial"",""time""
""fullscreenenter"",""1"",""1512""
","
","","","729.8000000715256","","","11","7255","3681","&#9776;","elianto","#3366ff99"," "," ","1","+10","[1580.7000000476837]","1","0","1","","","","","","","",""
"pit-trial","32","369051","0.0-2.0-8.2-2.2","battery-v0.2","","""event"",""trial"",""time""
""fullscreenenter"",""1"",""1512""
","
","
","""event"",""trial"",""time""
""fullscreenenter"",""1"",""1512""
","
","","","619.8999999761581","","","11","7255","3681","&#9776;","elianto","#3366ff99"," "," ","1","+10","[1471.2999999523163]","1","0","1","","","","","","","",""
"pit-trial","33","373916","0.0-2.0-8.2-3.2","battery-v0.2","","""event"",""trial"",""time""
""fullscreenenter"",""1"",""1512""
","
","
","""event"",""trial"",""time""
""fullscreenenter"",""1"",""1512""
","
","","","-1","","","11","7255","3681","&#9776;","elianto","#3366ff99"," ","-1","0","+10","[]","0","0","1","","","","","","","",""
"pit-trial","34","377876","0.0-2.0-8.2-4.2","battery-v0.2","","""event"",""trial"",""time""
""fullscreenenter"",""1"",""1512""
","
","
","""event"",""trial"",""time""
""fullscreenenter"",""1"",""1512""
","
","","","1102.5","","","11","7255","3681","&#9776;","elianto","#3366ff99"," "," ","1","+10","[1954.7000000476837]","1","0","1","","","","","","","",""
"call-function","35","377879","0.0-2.0-9.0","battery-v0.2","","""event"",""trial"",""time""
""fullscreenenter"",""1"",""1512""
","
","
","""event"",""trial"",""time""
""fullscreenenter"",""1"",""1512""
","
","","","","","","","","","","","","","","","","","","","","","","","","","","",""
"pit-instructions","36","417553","0.0-2.0-10.0","battery-v0.2","","""event"",""trial"",""time""
""fullscreenenter"",""1"",""1512""
","
","
","""event"",""trial"",""time""
""fullscreenenter"",""1"",""1512""
","
","","[{""page_index"":0,""viewing_time"":5908},{""page_index"":1,""viewing_time"":7094.100000023842},{""page_index"":2,""viewing_time"":9606.100000023842},{""page_index"":3,""viewing_time"":9381.899999976158},{""page_index"":4,""viewing_time"":7682.200000047684}]","39673.10000002384","","","","","","","","","","","","","","","","","","","","","","","",""
"pit-trial","37","422427","0.0-2.0-11.0-0.0","battery-v0.2","","""event"",""trial"",""time""
""fullscreenenter"",""1"",""1512""
","
","
","""event"",""trial"",""time""
""fullscreenenter"",""1"",""1512""
","
","","","-1","","","11","7255","3681","&#9761;","elianto","#3366ff99","-1","-1","1","+10","[]","0","0","2","","","","","","","",""
"pit-trial","38","426348","0.0-2.0-11.0-1.0","battery-v0.2","","""event"",""trial"",""time""
""fullscreenenter"",""1"",""1512""
","
","
","""event"",""trial"",""time""
""fullscreenenter"",""1"",""1512""
","
","","","1058","","","11","7255","3681","&#9761;","elianto","#3366ff99","-1"," ","0","0","[1909.3000000715256]","1","0","2","","","","","","","",""
"pit-trial","39","430296","0.0-2.0-11.0-2.0","battery-v0.2","","""event"",""trial"",""time""
""fullscreenenter"",""1"",""1512""
","
","
","""event"",""trial"",""time""
""fullscreenenter"",""1"",""1512""
","
","","","1079.5","","","11","7255","3681","&#9761;","elianto","#3366ff99","-1"," ","0","0","[1930.7999999523163]","1","0","2","","","","","","","",""
"pit-trial","40","435178","0.0-2.0-11.0-3.0","battery-v0.2","","""event"",""trial"",""time""
""fullscreenenter"",""1"",""1512""
","
","
","""event"",""trial"",""time""
""fullscreenenter"",""1"",""1512""
","
","","","-1","","","11","7255","3681","&#9761;","elianto","#3366ff99","-1","-1","1","0","[]","0","0","2","","","","","","","",""
"pit-trial","41","440047","0.0-2.0-11.0-4.0","battery-v0.2","","""event"",""trial"",""time""
""fullscreenenter"",""1"",""1512""
","
","
","""event"",""trial"",""time""
""fullscreenenter"",""1"",""1512""
","
","","","-1","","","11","7255","3681","&#9761;","elianto","#3366ff99","-1","-1","1","+10","[]","0","0","2","","","","","","","",""
"pit-trial","42","444928","0.0-2.0-11.1-0.1","battery-v0.2","","""event"",""trial"",""time""
""fullscreenenter"",""1"",""1512""
","
","
","""event"",""trial"",""time""
""fullscreenenter"",""1"",""1512""
","
","","","-1","","","11","7255","3681","&#9761;","elianto","#3366ff99","-1","-1","1","+10","[]","0","0","2","","","","","","","",""
"pit-trial","43","449796","0.0-2.0-11.1-1.1","battery-v0.2","","""event"",""trial"",""time""
""fullscreenenter"",""1"",""1512""
","
","
","""event"",""trial"",""time""
""fullscreenenter"",""1"",""1512""
","
","","","-1","","","11","7255","3681","&#9761;","elianto","#3366ff99","-1","-1","1","+10","[]","0","0","2","","","","","","","",""
"pit-trial","44","454660","0.0-2.0-11.1-2.1","battery-v0.2","","""event"",""trial"",""time""
""fullscreenenter"",""1"",""1512""
","
","
","""event"",""trial"",""time""
""fullscreenenter"",""1"",""1512""
","
","","","-1","","","11","7255","3681","&#9761;","elianto","#3366ff99","-1","-1","1","+10","[]","0","0","2","","","","","","","",""
"pit-trial","45","459523","0.0-2.0-11.1-3.1","battery-v0.2","","""event"",""trial"",""time""
""fullscreenenter"",""1"",""1512""
","
","
","""event"",""trial"",""time""
""fullscreenenter"",""1"",""1512""
","
","","","-1","","","11","7255","3681","&#9761;","elianto","#3366ff99","-1","-1","1","0","[]","0","0","2","","","","","","","",""
"pit-trial","46","464388","0.0-2.0-11.1-4.1","battery-v0.2","","""event"",""trial"",""time""
""fullscreenenter"",""1"",""1512""
","
","
","""event"",""trial"",""time""
""fullscreenenter"",""1"",""1512""
","
","","","-1","","","11","7255","3681","&#9761;","elianto","#3366ff99","-1","-1","1","+10","[]","0","0","2","","","","","","","",""
"pit-trial","47","469252","0.0-2.0-11.2-0.2","battery-v0.2","","""event"",""trial"",""time""
""fullscreenenter"",""1"",""1512""
","
","
","""event"",""trial"",""time""
""fullscreenenter"",""1"",""1512""
","
","","","-1","","","11","7255","3681","&#9761;","elianto","#3366ff99","-1","-1","1","+10","[]","0","0","2","","","","","","","",""
"pit-trial","48","474115","0.0-2.0-11.2-1.2","battery-v0.2","","""event"",""trial"",""time""
""fullscreenenter"",""1"",""1512""
","
","
","""event"",""trial"",""time""
""fullscreenenter"",""1"",""1512""
","
","","","-1","","","11","7255","3681","&#9761;","elianto","#3366ff99","-1","-1","1","+10","[]","0","0","2","","","","","","","",""
"pit-trial","49","478979","0.0-2.0-11.2-2.2","battery-v0.2","","""event"",""trial"",""time""
""fullscreenenter"",""1"",""1512""
","
","
","""event"",""trial"",""time""
""fullscreenenter"",""1"",""1512""
","
","","","-1","","","11","7255","3681","&#9761;","elianto","#3366ff99","-1","-1","1","+10","[]","0","0","2","","","","","","","",""
"pit-trial","50","483843","0.0-2.0-11.2-3.2","battery-v0.2","","""event"",""trial"",""time""
""fullscreenenter"",""1"",""1512""
","
","
","""event"",""trial"",""time""
""fullscreenenter"",""1"",""1512""
","
","","","-1","","","11","7255","3681","&#9761;","elianto","#3366ff99","-1","-1","1","0","[]","0","0","2","","","","","","","",""
"pit-trial","51","488708","0.0-2.0-11.2-4.2","battery-v0.2","","""event"",""trial"",""time""
""fullscreenenter"",""1"",""1512""
","
","
","""event"",""trial"",""time""
""fullscreenenter"",""1"",""1512""
","
","","","-1","","","11","7255","3681","&#9761;","elianto","#3366ff99","-1","-1","1","+10","[]","0","0","2","","","","","","","",""
"pit-trial","52","493579","0.0-2.0-11.3-0.3","battery-v0.2","","""event"",""trial"",""time""
""fullscreenenter"",""1"",""1512""
","
","
","""event"",""trial"",""time""
""fullscreenenter"",""1"",""1512""
","
","","","-1","","","11","7255","3681","&#9761;","elianto","#3366ff99","-1","-1","1","+10","[]","0","0","2","","","","","","","",""
"pit-trial","53","498443","0.0-2.0-11.3-1.3","battery-v0.2","","""event"",""trial"",""time""
""fullscreenenter"",""1"",""1512""
","
","
","""event"",""trial"",""time""
""fullscreenenter"",""1"",""1512""
","
","","","-1","","","11","7255","3681","&#9761;","elianto","#3366ff99","-1","-1","1","+10","[]","0","0","2","","","","","","","",""
"pit-trial","54","502419","0.0-2.0-11.3-2.3","battery-v0.2","","""event"",""trial"",""time""
""fullscreenenter"",""1"",""1512""
","
","
","""event"",""trial"",""time""
""fullscreenenter"",""1"",""1512""
","
","","","1112.5","","","11","7255","3681","&#9761;","elianto","#3366ff99","-1"," ","0","0","[1964.7999999523163]","1","0","2","","","","","","","",""
"pit-trial","55","507283","0.0-2.0-11.3-3.3","battery-v0.2","","""event"",""trial"",""time""
""fullscreenenter"",""1"",""1512""
","
","
","""event"",""trial"",""time""
""fullscreenenter"",""1"",""1512""
","
","","","-1","","","11","7255","3681","&#9761;","elianto","#3366ff99","-1","-1","1","0","[]","0","0","2","","","","","","","",""
"pit-trial","56","512146","0.0-2.0-11.3-4.3","battery-v0.2","","""event"",""trial"",""time""
""fullscreenenter"",""1"",""1512""
","
","
","""event"",""trial"",""time""
""fullscreenenter"",""1"",""1512""
","
","","","-1","","","11","7255","3681","&#9761;","elianto","#3366ff99","-1","-1","1","+10","[]","0","0","2","","","","","","","",""
"call-function","57","512148","0.0-2.0-12.0","battery-v0.2","","""event"",""trial"",""time""
""fullscreenenter"",""1"",""1512""
","
","
","""event"",""trial"",""time""
""fullscreenenter"",""1"",""1512""
","
","","","","","","","","","","","","","","","","","","","","","","","","","","",""
"pit-instructions","58","544214","0.0-2.0-13.0","battery-v0.2","","""event"",""trial"",""time""
""fullscreenenter"",""1"",""1512""
","
","
","""event"",""trial"",""time""
""fullscreenenter"",""1"",""1512""
","
","","[{""page_index"":0,""viewing_time"":5036.899999976158},{""page_index"":1,""viewing_time"":7495.600000023842},{""page_index"":2,""viewing_time"":4154.199999928474},{""page_index"":3,""viewing_time"":10737.900000095367},{""page_index"":4,""viewing_time"":4640.199999928474}]","32065.399999976158","","","","","","","","","","","","","","","","","","","","","","","",""
"pit-trial","59","548641","0.0-2.0-14.0-0.0","battery-v0.2","","""event"",""trial"",""time""
""fullscreenenter"",""1"",""1512""
","
","
","""event"",""trial"",""time""
""fullscreenenter"",""1"",""1512""
","
","","","1561","","","11","7255","3681","&#9826;","elianto","#f73b6a7A","-1"," ","0","-10","[2412.6999999284744]","1","0","3","","","","","","","",""
"pit-trial","60","553516","0.0-2.0-14.0-1.0","battery-v0.2","","""event"",""trial"",""time""
""fullscreenenter"",""1"",""1512""
","
","
","""event"",""trial"",""time""
""fullscreenenter"",""1"",""1512""
","
","","","-1","","","11","7255","3681","&#9826;","elianto","#f73b6a7A","-1","-1","1","0","[]","0","0","3","","","","","","","",""
"pit-trial","61","558380","0.0-2.0-14.0-2.0","battery-v0.2","","""event"",""trial"",""time""
""fullscreenenter"",""1"",""1512""
","
","
","""event"",""trial"",""time""
""fullscreenenter"",""1"",""1512""
","
","","","-1","","","11","7255","3681","&#9826;","elianto","#f73b6a7A","-1","-1","1","0","[]","0","0","3","","","","","","","",""
"pit-trial","62","563255","0.0-2.0-14.0-3.0","battery-v0.2","","""event"",""trial"",""time""
""fullscreenenter"",""1"",""1512""
","
","
","""event"",""trial"",""time""
""fullscreenenter"",""1"",""1512""
","
","","","-1","","","11","7255","3681","&#9826;","elianto","#f73b6a7A","-1","-1","1","-10","[]","0","0","3","","","","","","","",""
"pit-trial","63","568137","0.0-2.0-14.0-4.0","battery-v0.2","","""event"",""trial"",""time""
""fullscreenenter"",""1"",""1512""
","
","
","""event"",""trial"",""time""
""fullscreenenter"",""1"",""1512""
","
","","","-1","","","11","7255","3681","&#9826;","elianto","#f73b6a7A","-1","-1","1","0","[]","0","0","3","","","","","","","",""
"pit-trial","64","573022","0.0-2.0-14.1-0.1","battery-v0.2","","""event"",""trial"",""time""
""fullscreenenter"",""1"",""1512""
","
","
","""event"",""trial"",""time""
""fullscreenenter"",""1"",""1512""
","
","","","-1","","","11","7255","3681","&#9826;","elianto","#f73b6a7A","-1","-1","1","0","[]","0","0","3","","","","","","","",""
"pit-trial","65","577891","0.0-2.0-14.1-1.1","battery-v0.2","","""event"",""trial"",""time""
""fullscreenenter"",""1"",""1512""
","
","
","""event"",""trial"",""time""
""fullscreenenter"",""1"",""1512""
","
","","","-1","","","11","7255","3681","&#9826;","elianto","#f73b6a7A","-1","-1","1","0","[]","0","0","3","","","","","","","",""
"pit-trial","66","582755","0.0-2.0-14.1-2.1","battery-v0.2","","""event"",""trial"",""time""
""fullscreenenter"",""1"",""1512""
","
","
","""event"",""trial"",""time""
""fullscreenenter"",""1"",""1512""
","
","","","-1","","","11","7255","3681","&#9826;","elianto","#f73b6a7A","-1","-1","1","0","[]","0","0","3","","","","","","","",""
"pit-trial","67","587619","0.0-2.0-14.1-3.1","battery-v0.2","","""event"",""trial"",""time""
""fullscreenenter"",""1"",""1512""
","
","
","""event"",""trial"",""time""
""fullscreenenter"",""1"",""1512""
","
","","","-1","","","11","7255","3681","&#9826;","elianto","#f73b6a7A","-1","-1","1","-10","[]","0","0","3","","","","","","","",""
"pit-trial","68","592483","0.0-2.0-14.1-4.1","battery-v0.2","","""event"",""trial"",""time""
""fullscreenenter"",""1"",""1512""
","
","
","""event"",""trial"",""time""
""fullscreenenter"",""1"",""1512""
","
","","","-1","","","11","7255","3681","&#9826;","elianto","#f73b6a7A","-1","-1","1","0","[]","0","0","3","","","","","","","",""
"pit-trial","69","597347","0.0-2.0-14.2-0.2","battery-v0.2","","""event"",""trial"",""time""
""fullscreenenter"",""1"",""1512""
","
","
","""event"",""trial"",""time""
""fullscreenenter"",""1"",""1512""
","
","","","-1","","","11","7255","3681","&#9826;","elianto","#f73b6a7A","-1","-1","1","0","[]","0","0","3","","","","","","","",""
"pit-trial","70","602210","0.0-2.0-14.2-1.2","battery-v0.2","","""event"",""trial"",""time""
""fullscreenenter"",""1"",""1512""
","
","
","""event"",""trial"",""time""
""fullscreenenter"",""1"",""1512""
","
","","","-1","","","11","7255","3681","&#9826;","elianto","#f73b6a7A","-1","-1","1","0","[]","0","0","3","","","","","","","",""
"pit-trial","71","606546","0.0-2.0-14.2-2.2","battery-v0.2","","""event"",""trial"",""time""
""fullscreenenter"",""1"",""1512""
","
","
","""event"",""trial"",""time""
""fullscreenenter"",""1"",""1512""
","
","","","1477.2999999523163","","","11","7255","3681","&#9826;","elianto","#f73b6a7A","-1"," ","0","-10","[2329.5999999046326]","1","0","3","","","","","","","",""
"pit-trial","72","611411","0.0-2.0-14.2-3.2","battery-v0.2","","""event"",""trial"",""time""
""fullscreenenter"",""1"",""1512""
","
","
","""event"",""trial"",""time""
""fullscreenenter"",""1"",""1512""
","
","","","-1","","","11","7255","3681","&#9826;","elianto","#f73b6a7A","-1","-1","1","-10","[]","0","0","3","","","","","","","",""
"pit-trial","73","616275","0.0-2.0-14.2-4.2","battery-v0.2","","""event"",""trial"",""time""
""fullscreenenter"",""1"",""1512""
","
","
","""event"",""trial"",""time""
""fullscreenenter"",""1"",""1512""
","
","","","-1","","","11","7255","3681","&#9826;","elianto","#f73b6a7A","-1","-1","1","0","[]","0","0","3","","","","","","","",""
"pit-trial","74","621139","0.0-2.0-14.3-0.3","battery-v0.2","","""event"",""trial"",""time""
""fullscreenenter"",""1"",""1512""
","
","
","""event"",""trial"",""time""
""fullscreenenter"",""1"",""1512""
","
","","","-1","","","11","7255","3681","&#9826;","elianto","#f73b6a7A","-1","-1","1","0","[]","0","0","3","","","","","","","",""
"pit-trial","75","626003","0.0-2.0-14.3-1.3","battery-v0.2","","""event"",""trial"",""time""
""fullscreenenter"",""1"",""1512""
","
","
","""event"",""trial"",""time""
""fullscreenenter"",""1"",""1512""
","
","","","-1","","","11","7255","3681","&#9826;","elianto","#f73b6a7A","-1","-1","1","0","[]","0","0","3","","","","","","","",""
"pit-trial","76","630866","0.0-2.0-14.3-2.3","battery-v0.2","","""event"",""trial"",""time""
""fullscreenenter"",""1"",""1512""
","
","
","""event"",""trial"",""time""
""fullscreenenter"",""1"",""1512""
","
","","","-1","","","11","7255","3681","&#9826;","elianto","#f73b6a7A","-1","-1","1","0","[]","0","0","3","","","","","","","",""
"pit-trial","77","635732","0.0-2.0-14.3-3.3","battery-v0.2","","""event"",""trial"",""time""
""fullscreenenter"",""1"",""1512""
","
","
","""event"",""trial"",""time""
""fullscreenenter"",""1"",""1512""
","
","","","-1","","","11","7255","3681","&#9826;","elianto","#f73b6a7A","-1","-1","1","-10","[]","0","0","3","","","","","","","",""
"pit-trial","78","640594","0.0-2.0-14.3-4.3","battery-v0.2","","""event"",""trial"",""time""
""fullscreenenter"",""1"",""1512""
","
","
","""event"",""trial"",""time""
""fullscreenenter"",""1"",""1512""
","
","","","-1","","","11","7255","3681","&#9826;","elianto","#f73b6a7A","-1","-1","1","0","[]","0","0","3","","","","","","","",""
"call-function","79","640597","0.0-2.0-15.0","battery-v0.2","","""event"",""trial"",""time""
""fullscreenenter"",""1"",""1512""
","
","
","""event"",""trial"",""time""
""fullscreenenter"",""1"",""1512""
","
","","","","","","","","","","","","","","","","","","","","","","","","","","",""
"pit-instructions","80","664689","0.0-2.0-16.0","battery-v0.2","","""event"",""trial"",""time""
""fullscreenenter"",""1"",""1512""
","
","
","""event"",""trial"",""time""
""fullscreenenter"",""1"",""1512""
","
","","[{""page_index"":0,""viewing_time"":6458.299999952316},{""page_index"":1,""viewing_time"":8299.799999952316},{""page_index"":2,""viewing_time"":4247.900000095367},{""page_index"":3,""viewing_time"":5084.099999904633}]","24090.599999904633","","","","","","","","","","","","","","","","","","","","","","","",""
"pit-trial","81","668570","0.0-2.0-17.0-0.0","battery-v0.2","","""event"",""trial"",""time""
""fullscreenenter"",""1"",""1512""
","
","
","""event"",""trial"",""time""
""fullscreenenter"",""1"",""1512""
","
","","","1013.3999999761581","","","11","7255","3681","&#9789;","elianto","#f73b6a7A"," "," ","1","0","[1869.5]","1","0","4","","","","","","","",""
"pit-trial","82","672258","0.0-2.0-17.0-1.0","battery-v0.2","","""event"",""trial"",""time""
""fullscreenenter"",""1"",""1512""
","
","
","""event"",""trial"",""time""
""fullscreenenter"",""1"",""1512""
","
","","","815.9000000953674","","","11","7255","3681","&#9789;","elianto","#f73b6a7A"," "," ","1","0","[1671.2000000476837]","1","0","4","","","","","","","",""
"pit-trial","83","675798","0.0-2.0-17.0-2.0","battery-v0.2","","""event"",""trial"",""time""
""fullscreenenter"",""1"",""1512""
","
","
","""event"",""trial"",""time""
""fullscreenenter"",""1"",""1512""
","
","","","665.3999999761581","","","11","7255","3681","&#9789;","elianto","#f73b6a7A"," "," ","1","0","[1520]","1","0","4","","","","","","","",""
"pit-trial","84","679346","0.0-2.0-17.0-3.0","battery-v0.2","","""event"",""trial"",""time""
""fullscreenenter"",""1"",""1512""
","
","
","""event"",""trial"",""time""
""fullscreenenter"",""1"",""1512""
","
","","","671.5999999046326","","","11","7255","3681","&#9789;","elianto","#f73b6a7A"," "," ","1","-10","[1529.4000000953674]","1","0","4","","","","","","","",""
"pit-trial","85","682981","0.0-2.0-17.0-4.0","battery-v0.2","","""event"",""trial"",""time""
""fullscreenenter"",""1"",""1512""
","
","
","""event"",""trial"",""time""
""fullscreenenter"",""1"",""1512""
","
","","","765.6000000238419","","","11","7255","3681","&#9789;","elianto","#f73b6a7A"," "," ","1","0","[1619.7000000476837]","1","0","4","","","","","","","",""
"pit-trial","86","686302","0.0-2.0-17.1-0.1","battery-v0.2","","""event"",""trial"",""time""
""fullscreenenter"",""1"",""1512""
","
","
","""event"",""trial"",""time""
""fullscreenenter"",""1"",""1512""
","
","","","439.6999999284744","","","11","7255","3681","&#9789;","elianto","#f73b6a7A"," "," ","1","0","[1296.1999999284744]","1","0","4","","","","","","","",""
"pit-trial","87","689781","0.0-2.0-17.1-1.1","battery-v0.2","","""event"",""trial"",""time""
""fullscreenenter"",""1"",""1512""
","
","
","""event"",""trial"",""time""
""fullscreenenter"",""1"",""1512""
","
","","","603.5","","","11","7255","3681","&#9789;","elianto","#f73b6a7A"," "," ","1","0","[1462]","1","0","4","","","","","","","",""
"pit-trial","88","692917","0.0-2.0-17.1-2.1","battery-v0.2","","""event"",""trial"",""time""
""fullscreenenter"",""1"",""1512""
","
","
","""event"",""trial"",""time""
""fullscreenenter"",""1"",""1512""
","
","","","265.5","","","11","7255","3681","&#9789;","elianto","#f73b6a7A"," "," ","1","0","[1116.6999999284744]","1","0","4","","","","","","","",""
"pit-trial","89","696324","0.0-2.0-17.1-3.1","battery-v0.2","","""event"",""trial"",""time""
""fullscreenenter"",""1"",""1512""
","
","
","""event"",""trial"",""time""
""fullscreenenter"",""1"",""1512""
","
","","","541.8000000715256","","","11","7255","3681","&#9789;","elianto","#f73b6a7A"," "," ","1","-10","[1400.4000000953674]","1","0","4","","","","","","","",""
"pit-trial","90","699348","0.0-2.0-17.1-4.1","battery-v0.2","","""event"",""trial"",""time""
""fullscreenenter"",""1"",""1512""
","
","
","""event"",""trial"",""time""
""fullscreenenter"",""1"",""1512""
","
","","","158.5","","","11","7255","3681","&#9789;","elianto","#f73b6a7A"," "," ","1","0","[1011.2000000476837]","1","0","4","","","","","","","",""
"pit-trial","91","702532","0.0-2.0-17.2-0.2","battery-v0.2","","""event"",""trial"",""time""
""fullscreenenter"",""1"",""1512""
","
","
","""event"",""trial"",""time""
""fullscreenenter"",""1"",""1512""
","
","","","325","","","11","7255","3681","&#9789;","elianto","#f73b6a7A"," "," ","1","0","[1175.7999999523163]","1","0","4","","","","","","","",""
"pit-trial","92","705772","0.0-2.0-17.2-1.2","battery-v0.2","","""event"",""trial"",""time""
""fullscreenenter"",""1"",""1512""
","
","
","""event"",""trial"",""time""
""fullscreenenter"",""1"",""1512""
","
","","","382.3000000715256","","","11","7255","3681","&#9789;","elianto","#f73b6a7A"," "," ","1","0","[1234.5]","1","0","4","","","","","","","",""
"pit-trial","93","709195","0.0-2.0-17.2-2.2","battery-v0.2","","""event"",""trial"",""time""
""fullscreenenter"",""1"",""1512""
","
","
","""event"",""trial"",""time""
""fullscreenenter"",""1"",""1512""
","
","","","561.6000000238419","","","11","7255","3681","&#9789;","elianto","#f73b6a7A"," "," ","1","0","[1412.5]","1","0","4","","","","","","","",""
"pit-trial","94","712468","0.0-2.0-17.2-3.2","battery-v0.2","","""event"",""trial"",""time""
""fullscreenenter"",""1"",""1512""
","
","
","""event"",""trial"",""time""
""fullscreenenter"",""1"",""1512""
","
","","","407.59999990463257","","","11","7255","3681","&#9789;","elianto","#f73b6a7A"," "," ","1","-10","[1259]","1","0","4","","","","","","","",""
"pit-trial","95","715692","0.0-2.0-17.2-4.2","battery-v0.2","","""event"",""trial"",""time""
""fullscreenenter"",""1"",""1512""
","
","
","""event"",""trial"",""time""
""fullscreenenter"",""1"",""1512""
","
","","","363.5","","","11","7255","3681","&#9789;","elianto","#f73b6a7A"," "," ","1","0","[1215.3999999761581]","1","0","4","","","","","","","",""
"pit-trial","96","718963","0.0-2.0-17.3-0.3","battery-v0.2","","""event"",""trial"",""time""
""fullscreenenter"",""1"",""1512""
","
","
","""event"",""trial"",""time""
""fullscreenenter"",""1"",""1512""
","
","","","409.7999999523163","","","11","7255","3681","&#9789;","elianto","#f73b6a7A"," "," ","1","0","[1260.8999999761581]","1","0","4","","","","","","","",""
"pit-trial","97","722156","0.0-2.0-17.3-1.3","battery-v0.2","","""event"",""trial"",""time""
""fullscreenenter"",""1"",""1512""
","
","
","""event"",""trial"",""time""
""fullscreenenter"",""1"",""1512""
","
","","","332.90000009536743","","","11","7255","3681","&#9789;","elianto","#f73b6a7A"," "," ","1","0","[1184.8000000715256]","1","0","4","","","","","","","",""
"pit-trial","98","725339","0.0-2.0-17.3-2.3","battery-v0.2","","""event"",""trial"",""time""
""fullscreenenter"",""1"",""1512""
","
","
","""event"",""trial"",""time""
""fullscreenenter"",""1"",""1512""
","
","","","320.39999997615814","","","11","7255","3681","&#9789;","elianto","#f73b6a7A"," "," ","1","0","[1172.1000000238419]","1","0","4","","","","","","","",""
"pit-trial","99","730204","0.0-2.0-17.3-3.3","battery-v0.2","","""event"",""trial"",""time""
""fullscreenenter"",""1"",""1512""
","
","
","""event"",""trial"",""time""
""fullscreenenter"",""1"",""1512""
","
","","","-1","","","11","7255","3681","&#9789;","elianto","#f73b6a7A"," ","-1","0","0","[]","0","0","4","","","","","","","",""
"pit-trial","100","733667","0.0-2.0-17.3-4.3","battery-v0.2","","""event"",""trial"",""time""
""fullscreenenter"",""1"",""1512""
","
","
","""event"",""trial"",""time""
""fullscreenenter"",""1"",""1512""
","
","","","600.8000000715256","","","11","7255","3681","&#9789;","elianto","#f73b6a7A"," "," ","1","0","[1453.7999999523163]","1","0","4","","","","","","","",""
"call-function","101","733669","0.0-2.0-18.0","battery-v0.2","","""event"",""trial"",""time""
""fullscreenenter"",""1"",""1512""
","
","
","""event"",""trial"",""time""
""fullscreenenter"",""1"",""1512""
","
","","","","","","","","","","","","","","","","","","","","","","","","","","",""
"pit-instructions","102","806285","0.0-2.0-19.0","battery-v0.2","","""event"",""trial"",""time""
""fullscreenenter"",""1"",""1512""
","
","
","""event"",""trial"",""time""
""fullscreenenter"",""1"",""1512""
","
","","[{""page_index"":0,""viewing_time"":6490.899999976158},{""page_index"":1,""viewing_time"":5395.800000071526},{""page_index"":2,""viewing_time"":13786.100000023842},{""page_index"":3,""viewing_time"":10359.599999904633},{""page_index"":4,""viewing_time"":8530.200000047684},{""page_index"":5,""viewing_time"":9354.100000023842},{""page_index"":6,""viewing_time"":8305.799999952316},{""page_index"":7,""viewing_time"":6256.200000047684},{""page_index"":8,""viewing_time"":4136}]","72615.39999997616","","","","","","","","","","","","","","","","","","","","","","","",""
"pit-comprehension","103","812417","0.0-2.0-20.0-0.0","battery-v0.2","","""event"",""trial"",""time""
""fullscreenenter"",""1"",""1512""
","
","
","""event"",""trial"",""time""
""fullscreenenter"",""1"",""1512""
","
","","","6125.199999928474","[""SPACE""]","0","11","7255","3681","","","","","","","","","","","","","","","","","","",""
"pit-instructions","104","816749","0.0-2.0-20.0-1.0","battery-v0.2","","""event"",""trial"",""time""
""fullscreenenter"",""1"",""1512""
","
","
","""event"",""trial"",""time""
""fullscreenenter"",""1"",""1512""
","
","","[{""page_index"":0,""viewing_time"":4209.400000095367}]","4209.900000095367","","","","","","","","","","","","","","","","","","","","","","","",""
"pit-comprehension","105","823630","0.0-2.0-21.0-0.0","battery-v0.2","","""event"",""trial"",""time""
""fullscreenenter"",""1"",""1512""
","
","
","""event"",""trial"",""time""
""fullscreenenter"",""1"",""1512""
","
","","","6872.600000023842","[""10""]","0","11","7255","3681","","","","","","","","","","","","","","","","","","",""
"pit-instructions","106","825415","0.0-2.0-21.0-1.0","battery-v0.2","","""event"",""trial"",""time""
""fullscreenenter"",""1"",""1512""
","
","
","""event"",""trial"",""time""
""fullscreenenter"",""1"",""1512""
","
","","[{""page_index"":0,""viewing_time"":1682.2999999523163}]","1682.7999999523163","","","","","","","","","","","","","","","","","","","","","","","",""
"pit-comprehension","107","832290","0.0-2.0-22.0-0.0","battery-v0.2","","""event"",""trial"",""time""
""fullscreenenter"",""1"",""1512""
","
","
","""event"",""trial"",""time""
""fullscreenenter"",""1"",""1512""
","
","","","6869.700000047684","[""0""]","0","11","7255","3681","","","","","","","","","","","","","","","","","","",""
"pit-instructions","108","834189","0.0-2.0-22.0-1.0","battery-v0.2","","""event"",""trial"",""time""
""fullscreenenter"",""1"",""1512""
","
","
","""event"",""trial"",""time""
""fullscreenenter"",""1"",""1512""
","
","","[{""page_index"":0,""viewing_time"":1795.9000000953674}]","1796.3000000715256","","","","","","","","","","","","","","","","","","","","","","","",""
"pit-comprehension","109","850638","0.0-2.0-23.0-0.0","battery-v0.2","","""event"",""trial"",""time""
""fullscreenenter"",""1"",""1512""
","
","
","""event"",""trial"",""time""
""fullscreenenter"",""1"",""1512""
","
","","","16442.800000071526","[""True""]","0","11","7255","3681","","","","","","","","","","","","","","","","","","",""
"pit-instructions","110","852551","0.0-2.0-23.0-1.0","battery-v0.2","","""event"",""trial"",""time""
""fullscreenenter"",""1"",""1512""
","
","
","""event"",""trial"",""time""
""fullscreenenter"",""1"",""1512""
","
","","[{""page_index"":0,""viewing_time"":1805.1000000238419}]","1805.7999999523163","","","","","","","","","","","","","","","","","","","","","","","",""
"pit-comprehension","111","860268","0.0-2.0-24.0-0.0","battery-v0.2","","""event"",""trial"",""time""
""fullscreenenter"",""1"",""1512""
","
","
","""event"",""trial"",""time""
""fullscreenenter"",""1"",""1512""
","
","","","7711","[""True""]","0","11","7255","3681","","","","","","","","","","","","","","","","","","",""
"pit-instructions","112","862125","0.0-2.0-24.0-1.0","battery-v0.2","","""event"",""trial"",""time""
""fullscreenenter"",""1"",""1512""
","
","
","""event"",""trial"",""time""
""fullscreenenter"",""1"",""1512""
","
","","[{""page_index"":0,""viewing_time"":1746.6000000238419}]","1747.2000000476837","","","","","","","","","","","","","","","","","","","","","","","",""
"pit-comprehension","113","869120","0.0-2.0-25.0-0.0","battery-v0.2","","""event"",""trial"",""time""
""fullscreenenter"",""1"",""1512""
","
","
","""event"",""trial"",""time""
""fullscreenenter"",""1"",""1512""
","
","","","6986.600000023842","[""True""]","0","11","7255","3681","","","","","","","","","","","","","","","","","","",""
"pit-instructions","114","871203","0.0-2.0-25.0-1.0","battery-v0.2","","""event"",""trial"",""time""
""fullscreenenter"",""1"",""1512""
","
","
","""event"",""trial"",""time""
""fullscreenenter"",""1"",""1512""
","
","","[{""page_index"":0,""viewing_time"":1973.6000000238419}]","1974.1000000238419","","","","","","","","","","","","","","","","","","","","","","","",""
"pit-comprehension","115","878582","0.0-2.0-26.0-0.0","battery-v0.2","","""event"",""trial"",""time""
""fullscreenenter"",""1"",""1512""
","
","
","""event"",""trial"",""time""
""fullscreenenter"",""1"",""1512""
","
","","","7372.899999976158","[""False""]","0","11","7255","3681","","","","","","","","","","","","","","","","","","",""
"pit-instructions","116","880593","0.0-2.0-26.0-1.0","battery-v0.2","","""event"",""trial"",""time""
""fullscreenenter"",""1"",""1512""
","
","
","""event"",""trial"",""time""
""fullscreenenter"",""1"",""1512""
","
","","[{""page_index"":0,""viewing_time"":1897.1000000238419}]","1897.3999999761581","","","","","","","","","","","","","","","","","","","","","","","",""
"pit-instructions","117","902653","0.0-3.0","battery-v0.2","","""event"",""trial"",""time""
""fullscreenenter"",""1"",""1512""
","
","
","""event"",""trial"",""time""
""fullscreenenter"",""1"",""1512""
","
","","[{""page_index"":0,""viewing_time"":7666.700000047684},{""page_index"":1,""viewing_time"":6668.299999952316},{""page_index"":2,""viewing_time"":7722}]","22057.5","","","","","","","","","","","","","","","","","","","","","","","",""
"pit-trial","118","906703","0.0-4.0","battery-v0.2","","""event"",""trial"",""time""
""fullscreenenter"",""1"",""1512""
","
","
","""event"",""trial"",""time""
""fullscreenenter"",""1"",""1512""
","
","","","1179","","","11","7255","3681","&#9733;","elianto","#3366ff99","-1"," ","0","0","[2032.3999999761581]","1","1","","","7255","1","2","2","win","no-go","0"
"pit-trial","119","911580","0.0-5.0","battery-v0.2","","""event"",""trial"",""time""
""fullscreenenter"",""1"",""1512""
","
","
","""event"",""trial"",""time""
""fullscreenenter"",""1"",""1512""
","
","","","-1","","","11","7255","3681","&#9752;","elianto","#f73b6a7A"," ","-1","0","0","[]","0","1","","","7255","2","3","3","lose","go","1"
"pit-trial","120","915886","0.0-6.0","battery-v0.2","","""event"",""trial"",""time""
""fullscreenenter"",""1"",""1512""
","
","
","""event"",""trial"",""time""
""fullscreenenter"",""1"",""1512""
","
","","","1434.2000000476837","","","11","7255","3681","&#9728;","elianto","#f73b6a7A","-1"," ","0","0","[2285.5]","1","1","","","7255","3","0","4","lose","no-go","1"
"pit-trial","121","920699","0.0-7.0","battery-v0.2","","""event"",""trial"",""time""
""fullscreenenter"",""1"",""1512""
","
","
","""event"",""trial"",""time""
""fullscreenenter"",""1"",""1512""
","
","","","1937.8000000715256","","","11","7255","3681","&#9730;","elianto","#3366ff99"," "," ","1","0","[2796.5]","1","1","","","7255","4","1","1","win","go","1"
"pit-trial","122","925573","0.0-8.0","battery-v0.2","","""event"",""trial"",""time""
""fullscreenenter"",""1"",""1512""
","
","
","""event"",""trial"",""time""
""fullscreenenter"",""1"",""1512""
","
","","","-1","","","11","7255","3681","&#9752;","elianto","#f73b6a7A"," ","-1","0","-10","[]","0","1","","","7255","5","3","3","lose","go","0"
"pit-trial","123","929519","0.0-9.0","battery-v0.2","","""event"",""trial"",""time""
""fullscreenenter"",""1"",""1512""
","
","
","""event"",""trial"",""time""
""fullscreenenter"",""1"",""1512""
","
","","","1074.8000000715256","","","11","7255","3681","&#9733;","elianto","#3366ff99","-1"," ","0","0","[1932.8000000715256]","1","1","","","7255","6","2","2","win","no-go","0"
"pit-trial","124","934396","0.0-10.0","battery-v0.2","","""event"",""trial"",""time""
""fullscreenenter"",""1"",""1512""
","
","
","""event"",""trial"",""time""
""fullscreenenter"",""1"",""1512""
","
","","","-1","","","11","7255","3681","&#9728;","elianto","#f73b6a7A","-1","-1","1","0","[]","0","1","","","7255","7","0","4","lose","no-go","0"
"pit-trial","125","939187","0.0-11.0","battery-v0.2","","""event"",""trial"",""time""
""fullscreenenter"",""1"",""1512""
","
","
","""event"",""trial"",""time""
""fullscreenenter"",""1"",""1512""
","
","","","1931.5","","","11","7255","3681","&#9730;","elianto","#3366ff99"," "," ","1","+10","[2783]","1","1","","","7255","8","1","1","win","go","0"
"pit-trial","126","943916","0.0-12.0","battery-v0.2","","""event"",""trial"",""time""
""fullscreenenter"",""1"",""1512""
","
","
","""event"",""trial"",""time""
""fullscreenenter"",""1"",""1512""
","
","","","1870.2999999523163","","","11","7255","3681","&#9752;","elianto","#f73b6a7A"," "," ","1","0","[2721.5]","1","1","","","7255","9","3","3","lose","go","0"
"pit-trial","127","948779","0.0-13.0","battery-v0.2","","""event"",""trial"",""time""
""fullscreenenter"",""1"",""1512""
","
","
","""event"",""trial"",""time""
""fullscreenenter"",""1"",""1512""
","
","","","-1","","","11","7255","3681","&#9728;","elianto","#f73b6a7A","-1","-1","1","0","[]","0","1","","","7255","10","0","4","lose","no-go","0"
"pit-trial","128","953643","0.0-14.0","battery-v0.2","","""event"",""trial"",""time""
""fullscreenenter"",""1"",""1512""
","
","
","""event"",""trial"",""time""
""fullscreenenter"",""1"",""1512""
","
","","","-1","","","11","7255","3681","&#9733;","elianto","#3366ff99","-1","-1","1","0","[]","0","1","","","7255","11","2","2","win","no-go","1"
"pit-trial","129","957796","0.0-15.0","battery-v0.2","","""event"",""trial"",""time""
""fullscreenenter"",""1"",""1512""
","
","
","""event"",""trial"",""time""
""fullscreenenter"",""1"",""1512""
","
","","","1290.7000000476837","","","11","7255","3681","&#9730;","elianto","#3366ff99"," "," ","1","+10","[2142.5]","1","1","","","7255","12","1","1","win","go","0"
"pit-trial","130","962363","0.0-16.0","battery-v0.2","","""event"",""trial"",""time""
""fullscreenenter"",""1"",""1512""
","
","
","""event"",""trial"",""time""
""fullscreenenter"",""1"",""1512""
","
","","","1709","","","11","7255","3681","&#9752;","elianto","#f73b6a7A"," "," ","1","0","[2559.9000000953674]","1","1","","","7255","13","3","3","lose","go","0"
"pit-trial","131","967228","0.0-17.0","battery-v0.2","","""event"",""trial"",""time""
""fullscreenenter"",""1"",""1512""
","
","
","""event"",""trial"",""time""
""fullscreenenter"",""1"",""1512""
","
","","","-1","","","11","7255","3681","&#9728;","elianto","#f73b6a7A","-1","-1","1","0","[]","0","1","","","7255","14","0","4","lose","no-go","0"
"pit-trial","132","972092","0.0-18.0","battery-v0.2","","""event"",""trial"",""time""
""fullscreenenter"",""1"",""1512""
","
","
","""event"",""trial"",""time""
""fullscreenenter"",""1"",""1512""
","
","","","-1","","","11","7255","3681","&#9733;","elianto","#3366ff99","-1","-1","1","+10","[]","0","1","","","7255","15","2","2","win","no-go","0"
"pit-trial","133","975987","0.0-19.0","battery-v0.2","","""event"",""trial"",""time""
""fullscreenenter"",""1"",""1512""
","
","
","""event"",""trial"",""time""
""fullscreenenter"",""1"",""1512""
","
","","","1033.1000000238419","","","11","7255","3681","&#9730;","elianto","#3366ff99"," "," ","1","+10","[1884.7000000476837]","1","1","","","7255","16","1","1","win","go","0"
"pit-trial","134","980075","0.0-20.0","battery-v0.2","","""event"",""trial"",""time""
""fullscreenenter"",""1"",""1512""
","
","
","""event"",""trial"",""time""
""fullscreenenter"",""1"",""1512""
","
","","","1224.1000000238419","","","11","7255","3681","&#9728;","elianto","#f73b6a7A","-1"," ","0","-10","[2076.7000000476837]","1","1","","","7255","17","0","4","lose","no-go","0"
"pit-trial","135","984940","0.0-21.0","battery-v0.2","","""event"",""trial"",""time""
""fullscreenenter"",""1"",""1512""
","
","
","""event"",""trial"",""time""
""fullscreenenter"",""1"",""1512""
","
","","","-1","","","11","7255","3681","&#9733;","elianto","#3366ff99","-1","-1","1","+10","[]","0","1","","","7255","18","2","2","win","no-go","0"
"pit-trial","136","989731","0.0-22.0","battery-v0.2","","""event"",""trial"",""time""
""fullscreenenter"",""1"",""1512""
","
","
","""event"",""trial"",""time""
""fullscreenenter"",""1"",""1512""
","
","","","1927.6999999284744","","","11","7255","3681","&#9752;","elianto","#f73b6a7A"," "," ","1","0","[2777.899999976158]","1","1","","","7255","19","3","3","lose","go","0"
"pit-trial","137","993604","0.0-23.0","battery-v0.2","","""event"",""trial"",""time""
""fullscreenenter"",""1"",""1512""
","
","
","""event"",""trial"",""time""
""fullscreenenter"",""1"",""1512""
","
","","","1010","","","11","7255","3681","&#9730;","elianto","#3366ff99"," "," ","1","+10","[1862.1000000238419]","1","1","","","7255","20","1","1","win","go","0"
"pit-instructions","138","1007089","0.0-24.0","battery-v0.2","","""event"",""trial"",""time""
""fullscreenenter"",""1"",""1512""
","
","
","""event"",""trial"",""time""
""fullscreenenter"",""1"",""1512""
","
","","[{""page_index"":0,""viewing_time"":6211.200000047684},{""page_index"":1,""viewing_time"":7270.199999928474}]","13482.100000023842","","","","","","","","","","","","","","","","","","","","","","","",""
"pit-trial","139","1011465","0.0-25.0","battery-v0.2","","""event"",""trial"",""time""
""fullscreenenter"",""1"",""1512""
","
","
","""event"",""trial"",""time""
""fullscreenenter"",""1"",""1512""
","
","","","1490.3999999761581","","","11","7255","3681","h","elianto","#f73b6a7A"," "," ","1","0","[2347.399999976158]","1","2","","","7255","21","3","3","lose","go","0"
"pit-trial","140","1016345","0.0-26.0","battery-v0.2","","""event"",""trial"",""time""
""fullscreenenter"",""1"",""1512""
","
","
","""event"",""trial"",""time""
""fullscreenenter"",""1"",""1512""
","
","","","-1","","","11","7255","3681","m","elianto","#f73b6a7A","-1","-1","1","0","[]","0","2","","","7255","22","0","4","lose","no-go","0"
"pit-trial","141","1020783","0.0-27.0","battery-v0.2","","""event"",""trial"",""time""
""fullscreenenter"",""1"",""1512""
","
","
","""event"",""trial"",""time""
""fullscreenenter"",""1"",""1512""
","
","","","1561.8999999761581","","","11","7255","3681","y","elianto","#f73b6a7A","-1"," ","0","-10","[2415.2000000476837]","1","2","","","7255","23","2","4","lose","no-go","0"
"pit-trial","142","1025659","0.0-28.0","battery-v0.2","","""event"",""trial"",""time""
""fullscreenenter"",""1"",""1512""
","
","
","""event"",""trial"",""time""
""fullscreenenter"",""1"",""1512""
","
","","","-1","","","11","7255","3681","r","elianto","#3366ff99"," ","-1","0","0","[]","0","2","","","7255","24","1","1","win","go","0"
"pit-trial","143","1029644","0.0-29.0","battery-v0.2","","""event"",""trial"",""time""
""fullscreenenter"",""1"",""1512""
","
","
","""event"",""trial"",""time""
""fullscreenenter"",""1"",""1512""
","
","","","1113.1999999284744","","","11","7255","3681","r","elianto","#3366ff99"," "," ","1","+10","[1964.1999999284744]","1","2","","","7255","25","1","1","win","go","0"
"pit-trial","144","1034042","0.0-30.0","battery-v0.2","","""event"",""trial"",""time""
""fullscreenenter"",""1"",""1512""
","
","
","""event"",""trial"",""time""
""fullscreenenter"",""1"",""1512""
","
","","","1519.8000000715256","","","11","7255","3681","h","elianto","#f73b6a7A"," "," ","1","-10","[2378.7000000476837]","1","2","","","7255","26","3","3","lose","go","1"
"pit-trial","145","1038908","0.0-31.0","battery-v0.2","","""event"",""trial"",""time""
""fullscreenenter"",""1"",""1512""
","
","
","""event"",""trial"",""time""
""fullscreenenter"",""1"",""1512""
","
","","","-1","","","11","7255","3681","y","elianto","#f73b6a7A","-1","-1","1","0","[]","0","2","","","7255","27","2","4","lose","no-go","0"
"pit-trial","146","1043771","0.0-32.0","battery-v0.2","","""event"",""trial"",""time""
""fullscreenenter"",""1"",""1512""
","
","
","""event"",""trial"",""time""
""fullscreenenter"",""1"",""1512""
","
","","","-1","","","11","7255","3681","m","elianto","#f73b6a7A","-1","-1","1","0","[3075.6999999284744]","1","2","","","7255","28","0","4","lose","no-go","0"
"pit-trial","147","1048100","0.0-33.0","battery-v0.2","","""event"",""trial"",""time""
""fullscreenenter"",""1"",""1512""
","
","
","""event"",""trial"",""time""
""fullscreenenter"",""1"",""1512""
","
","","","1465.3000000715256","","","11","7255","3681","y","elianto","#f73b6a7A","-1"," ","0","0","[2316.3000000715256]","1","2","","","7255","29","2","4","lose","no-go","1"
"pit-trial","148","1052963","0.0-34.0","battery-v0.2","","""event"",""trial"",""time""
""fullscreenenter"",""1"",""1512""
","
","
","""event"",""trial"",""time""
""fullscreenenter"",""1"",""1512""
","
","","","-1","","","11","7255","3681","m","elianto","#f73b6a7A","-1","-1","1","0","[]","0","2","","","7255","30","0","4","lose","no-go","0"
"pit-trial","149","1057828","0.0-35.0","battery-v0.2","","""event"",""trial"",""time""
""fullscreenenter"",""1"",""1512""
","
","
","""event"",""trial"",""time""
""fullscreenenter"",""1"",""1512""
","
","","","-1","","","11","7255","3681","h","elianto","#f73b6a7A"," ","-1","0","-10","[]","0","2","","","7255","31","3","3","lose","go","0"
"pit-trial","150","1062252","0.0-36.0","battery-v0.2","","""event"",""trial"",""time""
""fullscreenenter"",""1"",""1512""
","
","
","""event"",""trial"",""time""
""fullscreenenter"",""1"",""1512""
","
","","","1565.6000000238419","","","11","7255","3681","r","elianto","#3366ff99"," "," ","1","+10","[2416.8000000715256]","1","2","","","7255","32","1","1","win","go","0"
"pit-trial","151","1067116","0.0-37.0","battery-v0.2","","""event"",""trial"",""time""
""fullscreenenter"",""1"",""1512""
","
","
","""event"",""trial"",""time""
""fullscreenenter"",""1"",""1512""
","
","","","-1","","","11","7255","3681","y","elianto","#f73b6a7A","-1","-1","1","0","[]","0","2","","","7255","33","2","4","lose","no-go","0"
"pit-trial","152","1071108","0.0-38.0","battery-v0.2","","""event"",""trial"",""time""
""fullscreenenter"",""1"",""1512""
","
","
","""event"",""trial"",""time""
""fullscreenenter"",""1"",""1512""
","
","","","1130.8999999761581","","","11","7255","3681","r","elianto","#3366ff99"," "," ","1","+10","[1983]","1","2","","","7255","34","1","1","win","go","0"
"pit-trial","153","1075972","0.0-39.0","battery-v0.2","","""event"",""trial"",""time""
""fullscreenenter"",""1"",""1512""
","
","
","""event"",""trial"",""time""
""fullscreenenter"",""1"",""1512""
","
","","","-1","","","11","7255","3681","h","elianto","#f73b6a7A"," ","-1","0","-10","[2920.600000023842]","1","2","","","7255","35","3","3","lose","go","0"
"pit-trial","154","1080835","0.0-40.0","battery-v0.2","","""event"",""trial"",""time""
""fullscreenenter"",""1"",""1512""
","
","
","""event"",""trial"",""time""
""fullscreenenter"",""1"",""1512""
","
","","","-1","","","11","7255","3681","m","elianto","#f73b6a7A","-1","-1","1","0","[]","0","2","","","7255","36","0","4","lose","no-go","0"
"pit-trial","155","1085700","0.0-41.0","battery-v0.2","","""event"",""trial"",""time""
""fullscreenenter"",""1"",""1512""
","
","
","""event"",""trial"",""time""
""fullscreenenter"",""1"",""1512""
","
","","","-1","","","11","7255","3681","m","elianto","#f73b6a7A","-1","-1","1","0","[]","0","2","","","7255","37","0","4","lose","no-go","0"
"pit-trial","156","1089484","0.0-42.0","battery-v0.2","","""event"",""trial"",""time""
""fullscreenenter"",""1"",""1512""
","
","
","""event"",""trial"",""time""
""fullscreenenter"",""1"",""1512""
","
","","","923.3999999761581","","","11","7255","3681","r","elianto","#3366ff99"," "," ","1","+10","[1776.3999999761581]","1","2","","","7255","38","1","1","win","go","0"
"pit-trial","157","1094348","0.0-43.0","battery-v0.2","","""event"",""trial"",""time""
""fullscreenenter"",""1"",""1512""
","
","
","""event"",""trial"",""time""
""fullscreenenter"",""1"",""1512""
","
","","","-1","","","11","7255","3681","y","elianto","#f73b6a7A","-1","-1","1","0","[]","0","2","","","7255","39","2","4","lose","no-go","0"
"pit-trial","158","1099212","0.0-44.0","battery-v0.2","","""event"",""trial"",""time""
""fullscreenenter"",""1"",""1512""
","
","
","""event"",""trial"",""time""
""fullscreenenter"",""1"",""1512""
","
","","","-1","","","11","7255","3681","h","elianto","#f73b6a7A"," ","-1","0","-10","[]","0","2","","","7255","40","3","3","lose","go","0"
"pit-trial","159","1103044","0.0-45.0","battery-v0.2","","""event"",""trial"",""time""
""fullscreenenter"",""1"",""1512""
","
","
","""event"",""trial"",""time""
""fullscreenenter"",""1"",""1512""
","
","","","970.8000000715256","","","11","7255","3681","r","elianto","#3366ff99"," "," ","1","+10","[1821.7000000476837]","1","2","","","7255","41","1","1","win","go","0"
"pit-trial","160","1107907","0.0-46.0","battery-v0.2","","""event"",""trial"",""time""
""fullscreenenter"",""1"",""1512""
","
","
","""event"",""trial"",""time""
""fullscreenenter"",""1"",""1512""
","
","","","-1","","","11","7255","3681","y","elianto","#f73b6a7A","-1","-1","1","0","[]","0","2","","","7255","42","2","4","lose","no-go","0"
"pit-trial","161","1111491","0.0-47.0","battery-v0.2","","""event"",""trial"",""time""
""fullscreenenter"",""1"",""1512""
","
","
","""event"",""trial"",""time""
""fullscreenenter"",""1"",""1512""
","
","","","724.1000000238419","","","11","7255","3681","h","elianto","#f73b6a7A"," "," ","1","0","[1576]","1","2","","","7255","43","3","3","lose","go","0"
"pit-trial","162","1116356","0.0-48.0","battery-v0.2","","""event"",""trial"",""time""
""fullscreenenter"",""1"",""1512""
","
","
","""event"",""trial"",""time""
""fullscreenenter"",""1"",""1512""
","
","","","-1","","","11","7255","3681","m","elianto","#f73b6a7A","-1","-1","1","0","[]","0","2","","","7255","44","0","4","lose","no-go","0"
"pit-trial","163","1120572","0.0-49.0","battery-v0.2","","""event"",""trial"",""time""
""fullscreenenter"",""1"",""1512""
","
","
","""event"",""trial"",""time""
""fullscreenenter"",""1"",""1512""
","
","","","1358.2999999523163","","","11","7255","3681","h","elianto","#f73b6a7A"," "," ","1","0","[2209.100000023842]","1","2","","","7255","45","3","3","lose","go","0"
"pit-trial","164","1125436","0.0-50.0","battery-v0.2","","""event"",""trial"",""time""
""fullscreenenter"",""1"",""1512""
","
","
","""event"",""trial"",""time""
""fullscreenenter"",""1"",""1512""
","
","","","-1","","","11","7255","3681","m","elianto","#f73b6a7A","-1","-1","1","0","[]","0","2","","","7255","46","0","4","lose","no-go","0"
"pit-trial","165","1130301","0.0-51.0","battery-v0.2","","""event"",""trial"",""time""
""fullscreenenter"",""1"",""1512""
","
","
","""event"",""trial"",""time""
""fullscreenenter"",""1"",""1512""
","
","","","-1","","","11","7255","3681","z","elianto","#3366ff99","-1","-1","1","+10","[3049.7999999523163]","1","2","","","7255","47","4","2","win","no-go","0"
"pit-trial","166","1135164","0.0-52.0","battery-v0.2","","""event"",""trial"",""time""
""fullscreenenter"",""1"",""1512""
","
","
","""event"",""trial"",""time""
""fullscreenenter"",""1"",""1512""
","
","","","-1","","","11","7255","3681","y","elianto","#f73b6a7A","-1","-1","1","-10","[]","0","2","","","7255","48","2","4","lose","no-go","1"
"pit-trial","167","1140028","0.0-53.0","battery-v0.2","","""event"",""trial"",""time""
""fullscreenenter"",""1"",""1512""
","
","
","""event"",""trial"",""time""
""fullscreenenter"",""1"",""1512""
","
","","","-1","","","11","7255","3681","h","elianto","#f73b6a7A"," ","-1","0","-10","[]","0","2","","","7255","49","3","3","lose","go","0"
"pit-trial","168","1144029","0.0-54.0","battery-v0.2","","""event"",""trial"",""time""
""fullscreenenter"",""1"",""1512""
","
","
","""event"",""trial"",""time""
""fullscreenenter"",""1"",""1512""
","
","","","1142.5","","","11","7255","3681","r","elianto","#3366ff99"," "," ","1","0","[1993.5]","1","2","","","7255","50","1","1","win","go","1"
"pit-trial","169","1148901","0.0-55.0","battery-v0.2","","""event"",""trial"",""time""
""fullscreenenter"",""1"",""1512""
","
","
","""event"",""trial"",""time""
""fullscreenenter"",""1"",""1512""
","
","","","-1","","","11","7255","3681","m","elianto","#f73b6a7A","-1","-1","1","0","[]","0","2","","","7255","51","0","4","lose","no-go","0"
"pit-trial","170","1153771","0.0-56.0","battery-v0.2","","""event"",""trial"",""time""
""fullscreenenter"",""1"",""1512""
","
","
","""event"",""trial"",""time""
""fullscreenenter"",""1"",""1512""
","
","","","-1","","","11","7255","3681","z","elianto","#3366ff99","-1","-1","1","0","[]","0","2","","","7255","52","4","2","win","no-go","1"
"pit-trial","171","1158637","0.0-57.0","battery-v0.2","","""event"",""trial"",""time""
""fullscreenenter"",""1"",""1512""
","
","
","""event"",""trial"",""time""
""fullscreenenter"",""1"",""1512""
","
","","","-1","","","11","7255","3681","m","elianto","#f73b6a7A","-1","-1","1","0","[]","0","2","","","7255","53","0","4","lose","no-go","0"
"pit-trial","172","1163508","0.0-58.0","battery-v0.2","","""event"",""trial"",""time""
""fullscreenenter"",""1"",""1512""
","
","
","""event"",""trial"",""time""
""fullscreenenter"",""1"",""1512""
","
","","","-1","","","11","7255","3681","y","elianto","#f73b6a7A","-1","-1","1","0","[]","0","2","","","7255","54","2","4","lose","no-go","0"
"pit-trial","173","1168373","0.0-59.0","battery-v0.2","","""event"",""trial"",""time""
""fullscreenenter"",""1"",""1512""
","
","
","""event"",""trial"",""time""
""fullscreenenter"",""1"",""1512""
","
","","","-1","","","11","7255","3681","z","elianto","#3366ff99","-1","-1","1","+10","[]","0","2","","","7255","55","4","2","win","no-go","0"
"pit-trial","174","1172620","0.0-60.0","battery-v0.2","","""event"",""trial"",""time""
""fullscreenenter"",""1"",""1512""
","
","
","""event"",""trial"",""time""
""fullscreenenter"",""1"",""1512""
","
","","","1387","","","11","7255","3681","r","elianto","#3366ff99"," "," ","1","+10","[2239.5]","1","2","","","7255","56","1","1","win","go","0"
"pit-trial","175","1177484","0.0-61.0","battery-v0.2","","""event"",""trial"",""time""
""fullscreenenter"",""1"",""1512""
","
","
","""event"",""trial"",""time""
""fullscreenenter"",""1"",""1512""
","
","","","-1","","","11","7255","3681","m","elianto","#f73b6a7A","-1","-1","1","0","[]","0","2","","","7255","57","0","4","lose","no-go","0"
"pit-trial","176","1181580","0.0-62.0","battery-v0.2","","""event"",""trial"",""time""
""fullscreenenter"",""1"",""1512""
","
","
","""event"",""trial"",""time""
""fullscreenenter"",""1"",""1512""
","
","","","1237.6999999284744","","","11","7255","3681","r","elianto","#3366ff99"," "," ","1","+10","[2088.399999976158]","1","2","","","7255","58","1","1","win","go","0"
"pit-trial","177","1186172","0.0-63.0","battery-v0.2","","""event"",""trial"",""time""
""fullscreenenter"",""1"",""1512""
","
","
","""event"",""trial"",""time""
""fullscreenenter"",""1"",""1512""
","
","","","1733.8999999761581","","","11","7255","3681","h","elianto","#f73b6a7A"," "," ","1","-10","[2585.2999999523163]","1","2","","","7255","59","3","3","lose","go","1"
"pit-trial","178","1191036","0.0-64.0","battery-v0.2","","""event"",""trial"",""time""
""fullscreenenter"",""1"",""1512""
","
","
","""event"",""trial"",""time""
""fullscreenenter"",""1"",""1512""
","
","","","-1","","","11","7255","3681","z","elianto","#3366ff99","-1","-1","1","+10","[]","0","2","","","7255","60","4","2","win","no-go","0"
"pit-trial","179","1195900","0.0-65.0","battery-v0.2","","""event"",""trial"",""time""
""fullscreenenter"",""1"",""1512""
","
","
","""event"",""trial"",""time""
""fullscreenenter"",""1"",""1512""
","
","","","-1","","","11","7255","3681","y","elianto","#f73b6a7A","-1","-1","1","0","[]","0","2","","","7255","61","2","4","lose","no-go","0"
"pit-trial","180","1200763","0.0-66.0","battery-v0.2","","""event"",""trial"",""time""
""fullscreenenter"",""1"",""1512""
","
","
","""event"",""trial"",""time""
""fullscreenenter"",""1"",""1512""
","
","","","-1","","","11","7255","3681","z","elianto","#3366ff99","-1","-1","1","+10","[]","0","2","","","7255","62","4","2","win","no-go","0"
"pit-trial","181","1205628","0.0-67.0","battery-v0.2","","""event"",""trial"",""time""
""fullscreenenter"",""1"",""1512""
","
","
","""event"",""trial"",""time""
""fullscreenenter"",""1"",""1512""
","
","","","-1","","","11","7255","3681","h","elianto","#f73b6a7A"," ","-1","0","-10","[]","0","2","","","7255","63","3","3","lose","go","0"
"pit-trial","182","1209420","0.0-68.0","battery-v0.2","","""event"",""trial"",""time""
""fullscreenenter"",""1"",""1512""
","
","
","""event"",""trial"",""time""
""fullscreenenter"",""1"",""1512""
","
","","","932.1000000238419","","","11","7255","3681","r","elianto","#3366ff99"," "," ","1","+10","[1783]","1","2","","","7255","64","1","1","win","go","0"
"pit-trial","183","1214284","0.0-69.0","battery-v0.2","","""event"",""trial"",""time""
""fullscreenenter"",""1"",""1512""
","
","
","""event"",""trial"",""time""
""fullscreenenter"",""1"",""1512""
","
","","","-1","","","11","7255","3681","z","elianto","#3366ff99","-1","-1","1","+10","[]","0","2","","","7255","65","4","2","win","no-go","0"
"pit-trial","184","1218684","0.0-70.0","battery-v0.2","","""event"",""trial"",""time""
""fullscreenenter"",""1"",""1512""
","
","
","""event"",""trial"",""time""
""fullscreenenter"",""1"",""1512""
","
","","","1536.8000000715256","","","11","7255","3681","r","elianto","#3366ff99"," "," ","1","0","[2388.899999976158]","1","2","","","7255","66","1","1","win","go","1"
"pit-trial","185","1223548","0.0-71.0","battery-v0.2","","""event"",""trial"",""time""
""fullscreenenter"",""1"",""1512""
","
","
","""event"",""trial"",""time""
""fullscreenenter"",""1"",""1512""
","
","","","-1","","","11","7255","3681","y","elianto","#f73b6a7A","-1","-1","1","-10","[]","0","2","","","7255","67","2","4","lose","no-go","1"
"pit-trial","186","1227628","0.0-72.0","battery-v0.2","","""event"",""trial"",""time""
""fullscreenenter"",""1"",""1512""
","
","
","""event"",""trial"",""time""
""fullscreenenter"",""1"",""1512""
","
","","","1221.2999999523163","","","11","7255","3681","h","elianto","#f73b6a7A"," "," ","1","-10","[2073.2999999523163]","1","2","","","7255","68","3","3","lose","go","1"
"pit-trial","187","1231476","0.0-73.0","battery-v0.2","","""event"",""trial"",""time""
""fullscreenenter"",""1"",""1512""
","
","
","""event"",""trial"",""time""
""fullscreenenter"",""1"",""1512""
","
","","","990.3000000715256","","","11","7255","3681","r","elianto","#3366ff99"," "," ","1","+10","[1842.2000000476837]","1","2","","","7255","69","1","1","win","go","0"
"pit-trial","188","1236340","0.0-74.0","battery-v0.2","","""event"",""trial"",""time""
""fullscreenenter"",""1"",""1512""
","
","
","""event"",""trial"",""time""
""fullscreenenter"",""1"",""1512""
","
","","","-1","","","11","7255","3681","z","elianto","#3366ff99","-1","-1","1","+10","[]","0","2","","","7255","70","4","2","win","no-go","0"
"pit-trial","189","1241204","0.0-75.0","battery-v0.2","","""event"",""trial"",""time""
""fullscreenenter"",""1"",""1512""
","
","
","""event"",""trial"",""time""
""fullscreenenter"",""1"",""1512""
","
","","","-1","","","11","7255","3681","h","elianto","#f73b6a7A"," ","-1","0","-10","[]","0","2","","","7255","71","3","3","lose","go","0"
"pit-trial","190","1246068","0.0-76.0","battery-v0.2","","""event"",""trial"",""time""
""fullscreenenter"",""1"",""1512""
","
","
","""event"",""trial"",""time""
""fullscreenenter"",""1"",""1512""
","
","","","-1","","","11","7255","3681","c","elianto","#3366ff99"," ","-1","0","+10","[]","0","2","","","7255","72","5","1","win","go","1"
"pit-trial","191","1250932","0.0-77.0","battery-v0.2","","""event"",""trial"",""time""
""fullscreenenter"",""1"",""1512""
","
","
","""event"",""trial"",""time""
""fullscreenenter"",""1"",""1512""
","
","","","-1","","","11","7255","3681","z","elianto","#3366ff99","-1","-1","1","+10","[]","0","2","","","7255","73","4","2","win","no-go","0"
"pit-trial","192","1255604","0.0-78.0","battery-v0.2","","""event"",""trial"",""time""
""fullscreenenter"",""1"",""1512""
","
","
","""event"",""trial"",""time""
""fullscreenenter"",""1"",""1512""
","
","","","1808.4000000953674","","","11","7255","3681","h","elianto","#f73b6a7A"," "," ","1","0","[2659.600000023842]","1","2","","","7255","74","3","3","lose","go","0"
"pit-trial","193","1260292","0.0-79.0","battery-v0.2","","""event"",""trial"",""time""
""fullscreenenter"",""1"",""1512""
","
","
","""event"",""trial"",""time""
""fullscreenenter"",""1"",""1512""
","
","","","1827.2999999523163","","","11","7255","3681","c","elianto","#3366ff99"," "," ","1","+10","[2679.0999999046326]","1","2","","","7255","75","5","1","win","go","0"
"pit-trial","194","1264205","0.0-80.0","battery-v0.2","","""event"",""trial"",""time""
""fullscreenenter"",""1"",""1512""
","
","
","""event"",""trial"",""time""
""fullscreenenter"",""1"",""1512""
","
","","","1053.7999999523163","","","11","7255","3681","r","elianto","#3366ff99"," "," ","1","+10","[1904.5]","1","2","","","7255","76","1","1","win","go","0"
"pit-trial","195","1269068","0.0-81.0","battery-v0.2","","""event"",""trial"",""time""
""fullscreenenter"",""1"",""1512""
","
","
","""event"",""trial"",""time""
""fullscreenenter"",""1"",""1512""
","
","","","-1","","","11","7255","3681","z","elianto","#3366ff99","-1","-1","1","+10","[]","0","2","","","7255","77","4","2","win","no-go","0"
"pit-trial","196","1273660","0.0-82.0","battery-v0.2","","""event"",""trial"",""time""
""fullscreenenter"",""1"",""1512""
","
","
","""event"",""trial"",""time""
""fullscreenenter"",""1"",""1512""
","
","","","1731.5","","","11","7255","3681","h","elianto","#f73b6a7A"," "," ","1","0","[2583.2000000476837]","1","2","","","7255","78","3","3","lose","go","0"
"pit-trial","197","1278324","0.0-83.0","battery-v0.2","","""event"",""trial"",""time""
""fullscreenenter"",""1"",""1512""
","
","
","""event"",""trial"",""time""
""fullscreenenter"",""1"",""1512""
","
","","","1802.2999999523163","","","11","7255","3681","b","elianto","#f73b6a7A","-1"," ","0","-10","[2654]","1","2","","","7255","79","6","4","lose","no-go","0"
"pit-trial","198","1282756","0.0-84.0","battery-v0.2","","""event"",""trial"",""time""
""fullscreenenter"",""1"",""1512""
","
","
","""event"",""trial"",""time""
""fullscreenenter"",""1"",""1512""
","
","","","1574.1000000238419","","","11","7255","3681","c","elianto","#3366ff99"," "," ","1","+10","[2424.5]","1","2","","","7255","80","5","1","win","go","0"
"pit-trial","199","1287620","0.0-85.0","battery-v0.2","","""event"",""trial"",""time""
""fullscreenenter"",""1"",""1512""
","
","
","""event"",""trial"",""time""
""fullscreenenter"",""1"",""1512""
","
","","","-1","","","11","7255","3681","t","elianto","#f73b6a7A"," ","-1","0","-10","[]","0","2","","","7255","81","7","3","lose","go","0"
"pit-trial","200","1291692","0.0-86.0","battery-v0.2","","""event"",""trial"",""time""
""fullscreenenter"",""1"",""1512""
","
","
","""event"",""trial"",""time""
""fullscreenenter"",""1"",""1512""
","
","","","1214.8999999761581","","","11","7255","3681","c","elianto","#3366ff99"," "," ","1","+10","[2065.5]","1","2","","","7255","82","5","1","win","go","0"
"pit-trial","201","1296555","0.0-87.0","battery-v0.2","","""event"",""trial"",""time""
""fullscreenenter"",""1"",""1512""
","
","
","""event"",""trial"",""time""
""fullscreenenter"",""1"",""1512""
","
","","","-1","","","11","7255","3681","z","elianto","#3366ff99","-1","-1","1","+10","[]","0","2","","","7255","83","4","2","win","no-go","0"
"pit-trial","202","1301420","0.0-88.0","battery-v0.2","","""event"",""trial"",""time""
""fullscreenenter"",""1"",""1512""
","
","
","""event"",""trial"",""time""
""fullscreenenter"",""1"",""1512""
","
","","","-1","","","11","7255","3681","b","elianto","#f73b6a7A","-1","-1","1","0","[3059.9000000953674]","1","2","","","7255","84","6","4","lose","no-go","0"
"pit-trial","203","1305724","0.0-89.0","battery-v0.2","","""event"",""trial"",""time""
""fullscreenenter"",""1"",""1512""
","
","
","""event"",""trial"",""time""
""fullscreenenter"",""1"",""1512""
","
","","","1430.8000000715256","","","11","7255","3681","c","elianto","#3366ff99"," "," ","1","+10","[2290.100000023842]","1","2","","","7255","85","5","1","win","go","0"
"pit-trial","204","1310588","0.0-90.0","battery-v0.2","","""event"",""trial"",""time""
""fullscreenenter"",""1"",""1512""
","
","
","""event"",""trial"",""time""
""fullscreenenter"",""1"",""1512""
","
","","","-1","","","11","7255","3681","z","elianto","#3366ff99","-1","-1","1","+10","[]","0","2","","","7255","86","4","2","win","no-go","0"
"pit-trial","205","1315459","0.0-91.0","battery-v0.2","","""event"",""trial"",""time""
""fullscreenenter"",""1"",""1512""
","
","
","""event"",""trial"",""time""
""fullscreenenter"",""1"",""1512""
","
","","","-1","","","11","7255","3681","b","elianto","#f73b6a7A","-1","-1","1","0","[]","0","2","","","7255","87","6","4","lose","no-go","0"
"pit-trial","206","1319379","0.0-92.0","battery-v0.2","","""event"",""trial"",""time""
""fullscreenenter"",""1"",""1512""
","
","
","""event"",""trial"",""time""
""fullscreenenter"",""1"",""1512""
","
","","","1060","","","11","7255","3681","t","elianto","#f73b6a7A"," "," ","1","-10","[1911.7999999523163]","1","2","","","7255","88","7","3","lose","go","1"
"pit-trial","207","1324244","0.0-93.0","battery-v0.2","","""event"",""trial"",""time""
""fullscreenenter"",""1"",""1512""
","
","
","""event"",""trial"",""time""
""fullscreenenter"",""1"",""1512""
","
","","","-1","","","11","7255","3681","z","elianto","#3366ff99","-1","-1","1","+10","[]","0","2","","","7255","89","4","2","win","no-go","0"
"pit-trial","208","1328467","0.0-94.0","battery-v0.2","","""event"",""trial"",""time""
""fullscreenenter"",""1"",""1512""
","
","
","""event"",""trial"",""time""
""fullscreenenter"",""1"",""1512""
","
","","","1364.7999999523163","","","11","7255","3681","c","elianto","#3366ff99"," "," ","1","+10","[2216.6999999284744]","1","2","","","7255","90","5","1","win","go","0"
"pit-trial","209","1333332","0.0-95.0","battery-v0.2","","""event"",""trial"",""time""
""fullscreenenter"",""1"",""1512""
","
","
","""event"",""trial"",""time""
""fullscreenenter"",""1"",""1512""
","
","","","-1","","","11","7255","3681","b","elianto","#f73b6a7A","-1","-1","1","0","[]","0","2","","","7255","91","6","4","lose","no-go","0"
"pit-trial","210","1337683","0.0-96.0","battery-v0.2","","""event"",""trial"",""time""
""fullscreenenter"",""1"",""1512""
","
","
","""event"",""trial"",""time""
""fullscreenenter"",""1"",""1512""
","
","","","1493.5","","","11","7255","3681","t","elianto","#f73b6a7A"," "," ","1","0","[2345.6999999284744]","1","2","","","7255","92","7","3","lose","go","0"
"pit-trial","211","1342547","0.0-97.0","battery-v0.2","","""event"",""trial"",""time""
""fullscreenenter"",""1"",""1512""
","
","
","""event"",""trial"",""time""
""fullscreenenter"",""1"",""1512""
","
","","","-1","","","11","7255","3681","f","elianto","#3366ff99","-1","-1","1","+10","[2876.899999976158]","1","2","","","7255","93","8","2","win","no-go","0"
"pit-trial","212","1347411","0.0-98.0","battery-v0.2","","""event"",""trial"",""time""
""fullscreenenter"",""1"",""1512""
","
","
","""event"",""trial"",""time""
""fullscreenenter"",""1"",""1512""
","
","","","-1","","","11","7255","3681","b","elianto","#f73b6a7A","-1","-1","1","0","[]","0","2","","","7255","94","6","4","lose","no-go","0"
"pit-trial","213","1351508","0.0-99.0","battery-v0.2","","""event"",""trial"",""time""
""fullscreenenter"",""1"",""1512""
","
","
","""event"",""trial"",""time""
""fullscreenenter"",""1"",""1512""
","
","","","1237.2999999523163","","","11","7255","3681","t","elianto","#f73b6a7A"," "," ","1","0","[2090.7999999523163]","1","2","","","7255","95","7","3","lose","go","0"
"pit-trial","214","1355588","0.0-100.0","battery-v0.2","","""event"",""trial"",""time""
""fullscreenenter"",""1"",""1512""
","
","
","""event"",""trial"",""time""
""fullscreenenter"",""1"",""1512""
","
","","","1220.1999999284744","","","11","7255","3681","c","elianto","#3366ff99"," "," ","1","+10","[2072.399999976158]","1","2","","","7255","96","5","1","win","go","0"
"pit-trial","215","1359876","0.0-101.0","battery-v0.2","","""event"",""trial"",""time""
""fullscreenenter"",""1"",""1512""
","
","
","""event"",""trial"",""time""
""fullscreenenter"",""1"",""1512""
","
","","","1426.6000000238419","","","11","7255","3681","c","elianto","#3366ff99"," "," ","1","+10","[2278.6999999284744]","1","2","","","7255","97","5","1","win","go","0"
"pit-trial","216","1363859","0.0-102.0","battery-v0.2","","""event"",""trial"",""time""
""fullscreenenter"",""1"",""1512""
","
","
","""event"",""trial"",""time""
""fullscreenenter"",""1"",""1512""
","
","","","1119.3999999761581","","","11","7255","3681","t","elianto","#f73b6a7A"," "," ","1","-10","[1971.2999999523163]","1","2","","","7255","98","7","3","lose","go","1"
"pit-trial","217","1368723","0.0-103.0","battery-v0.2","","""event"",""trial"",""time""
""fullscreenenter"",""1"",""1512""
","
","
","""event"",""trial"",""time""
""fullscreenenter"",""1"",""1512""
","
","","","-1","","","11","7255","3681","b","elianto","#f73b6a7A","-1","-1","1","-10","[]","0","2","","","7255","99","6","4","lose","no-go","1"
"pit-trial","218","1373341","0.0-104.0","battery-v0.2","","""event"",""trial"",""time""
""fullscreenenter"",""1"",""1512""
","
","
","""event"",""trial"",""time""
""fullscreenenter"",""1"",""1512""
","
","","","1753.1000000238419","","","11","7255","3681","f","elianto","#3366ff99","-1"," ","0","0","[2606.600000023842]","1","2","","","7255","100","8","2","win","no-go","0"
"pit-trial","219","1377164","0.0-105.0","battery-v0.2","","""event"",""trial"",""time""
""fullscreenenter"",""1"",""1512""
","
","
","""event"",""trial"",""time""
""fullscreenenter"",""1"",""1512""
","
","","","950.7999999523163","","","11","7255","3681","c","elianto","#3366ff99"," "," ","1","0","[1810.6999999284744]","1","2","","","7255","101","5","1","win","go","1"
"pit-trial","220","1382028","0.0-106.0","battery-v0.2","","""event"",""trial"",""time""
""fullscreenenter"",""1"",""1512""
","
","
","""event"",""trial"",""time""
""fullscreenenter"",""1"",""1512""
","
","","","-1","","","11","7255","3681","b","elianto","#f73b6a7A","-1","-1","1","0","[]","0","2","","","7255","102","6","4","lose","no-go","0"
"pit-trial","221","1386892","0.0-107.0","battery-v0.2","","""event"",""trial"",""time""
""fullscreenenter"",""1"",""1512""
","
","
","""event"",""trial"",""time""
""fullscreenenter"",""1"",""1512""
","
","","","-1","","","11","7255","3681","n","elianto","#3366ff99","-1","-1","1","+10","[]","0","2","","","7255","103","9","2","win","no-go","0"
"pit-trial","222","1391756","0.0-108.0","battery-v0.2","","""event"",""trial"",""time""
""fullscreenenter"",""1"",""1512""
","
","
","""event"",""trial"",""time""
""fullscreenenter"",""1"",""1512""
","
","","","-1","","","11","7255","3681","f","elianto","#3366ff99","-1","-1","1","+10","[2952]","1","2","","","7255","104","8","2","win","no-go","0"
"pit-trial","223","1396620","0.0-109.0","battery-v0.2","","""event"",""trial"",""time""
""fullscreenenter"",""1"",""1512""
","
","
","""event"",""trial"",""time""
""fullscreenenter"",""1"",""1512""
","
","","","-1","","","11","7255","3681","f","elianto","#3366ff99","-1","-1","1","+10","[]","0","2","","","7255","105","8","2","win","no-go","0"
"pit-trial","224","1401484","0.0-110.0","battery-v0.2","","""event"",""trial"",""time""
""fullscreenenter"",""1"",""1512""
","
","
","""event"",""trial"",""time""
""fullscreenenter"",""1"",""1512""
","
","","","-1","","","11","7255","3681","n","elianto","#3366ff99","-1","-1","1","+10","[]","0","2","","","7255","106","9","2","win","no-go","0"
"pit-trial","225","1406349","0.0-111.0","battery-v0.2","","""event"",""trial"",""time""
""fullscreenenter"",""1"",""1512""
","
","
","""event"",""trial"",""time""
""fullscreenenter"",""1"",""1512""
","
","","","-1","","","11","7255","3681","c","elianto","#3366ff99"," ","-1","0","0","[2958.600000023842]","1","2","","","7255","107","5","1","win","go","0"
"pit-trial","226","1411220","0.0-112.0","battery-v0.2","","""event"",""trial"",""time""
""fullscreenenter"",""1"",""1512""
","
","
","""event"",""trial"",""time""
""fullscreenenter"",""1"",""1512""
","
","","","-1","","","11","7255","3681","b","elianto","#f73b6a7A","-1","-1","1","0","[]","0","2","","","7255","108","6","4","lose","no-go","0"
"pit-trial","227","1416084","0.0-113.0","battery-v0.2","","""event"",""trial"",""time""
""fullscreenenter"",""1"",""1512""
","
","
","""event"",""trial"",""time""
""fullscreenenter"",""1"",""1512""
","
","","","-1","","","11","7255","3681","n","elianto","#3366ff99","-1","-1","1","0","[]","0","2","","","7255","109","9","2","win","no-go","1"
"pit-trial","228","1420365","0.0-114.0","battery-v0.2","","""event"",""trial"",""time""
""fullscreenenter"",""1"",""1512""
","
","
","""event"",""trial"",""time""
""fullscreenenter"",""1"",""1512""
","
","","","1422.2000000476837","","","11","7255","3681","c","elianto","#3366ff99"," "," ","1","+10","[2273.399999976158]","1","2","","","7255","110","5","1","win","go","0"
"pit-trial","229","1425236","0.0-115.0","battery-v0.2","","""event"",""trial"",""time""
""fullscreenenter"",""1"",""1512""
","
","
","""event"",""trial"",""time""
""fullscreenenter"",""1"",""1512""
","
","","","-1","","","11","7255","3681","b","elianto","#f73b6a7A","-1","-1","1","0","[]","0","2","","","7255","111","6","4","lose","no-go","0"
"pit-trial","230","1430100","0.0-116.0","battery-v0.2","","""event"",""trial"",""time""
""fullscreenenter"",""1"",""1512""
","
","
","""event"",""trial"",""time""
""fullscreenenter"",""1"",""1512""
","
","","","-1","","","11","7255","3681","f","elianto","#3366ff99","-1","-1","1","+10","[]","0","2","","","7255","112","8","2","win","no-go","0"
"pit-trial","231","1434684","0.0-117.0","battery-v0.2","","""event"",""trial"",""time""
""fullscreenenter"",""1"",""1512""
","
","
","""event"",""trial"",""time""
""fullscreenenter"",""1"",""1512""
","
","","","1723.3000000715256","","","11","7255","3681","t","elianto","#f73b6a7A"," "," ","1","-10","[2573.5]","1","2","","","7255","113","7","3","lose","go","1"
"pit-trial","232","1439549","0.0-118.0","battery-v0.2","","""event"",""trial"",""time""
""fullscreenenter"",""1"",""1512""
","
","
","""event"",""trial"",""time""
""fullscreenenter"",""1"",""1512""
","
","","","-1","","","11","7255","3681","n","elianto","#3366ff99","-1","-1","1","+10","[]","0","2","","","7255","114","9","2","win","no-go","0"
"pit-trial","233","1443517","0.0-119.0","battery-v0.2","","""event"",""trial"",""time""
""fullscreenenter"",""1"",""1512""
","
","
","""event"",""trial"",""time""
""fullscreenenter"",""1"",""1512""
","
","","","1099.5","","","11","7255","3681","c","elianto","#3366ff99"," "," ","1","+10","[1957.2000000476837]","1","2","","","7255","115","5","1","win","go","0"
"pit-trial","234","1448388","0.0-120.0","battery-v0.2","","""event"",""trial"",""time""
""fullscreenenter"",""1"",""1512""
","
","
","""event"",""trial"",""time""
""fullscreenenter"",""1"",""1512""
","
","","","-1","","","11","7255","3681","f","elianto","#3366ff99","-1","-1","1","+10","[]","0","2","","","7255","116","8","2","win","no-go","0"
"pit-trial","235","1453252","0.0-121.0","battery-v0.2","","""event"",""trial"",""time""
""fullscreenenter"",""1"",""1512""
","
","
","""event"",""trial"",""time""
""fullscreenenter"",""1"",""1512""
","
","","","-1","","","11","7255","3681","f","elianto","#3366ff99","-1","-1","1","+10","[]","0","2","","","7255","117","8","2","win","no-go","0"
"pit-trial","236","1458116","0.0-122.0","battery-v0.2","","""event"",""trial"",""time""
""fullscreenenter"",""1"",""1512""
","
","
","""event"",""trial"",""time""
""fullscreenenter"",""1"",""1512""
","
","","","-1","","","11","7255","3681","b","elianto","#f73b6a7A","-1","-1","1","0","[]","0","2","","","7255","118","6","4","lose","no-go","0"
"pit-trial","237","1462981","0.0-123.0","battery-v0.2","","""event"",""trial"",""time""
""fullscreenenter"",""1"",""1512""
","
","
","""event"",""trial"",""time""
""fullscreenenter"",""1"",""1512""
","
","","","-1","","","11","7255","3681","n","elianto","#3366ff99","-1","-1","1","+10","[]","0","2","","","7255","119","9","2","win","no-go","0"
"pit-trial","238","1466899","0.0-124.0","battery-v0.2","","""event"",""trial"",""time""
""fullscreenenter"",""1"",""1512""
","
","
","""event"",""trial"",""time""
""fullscreenenter"",""1"",""1512""
","
","","","1062","","","11","7255","3681","c","elianto","#3366ff99"," "," ","1","0","[1912.3000000715256]","1","2","","","7255","120","5","1","win","go","1"
"pit-trial","239","1471764","0.0-125.0","battery-v0.2","","""event"",""trial"",""time""
""fullscreenenter"",""1"",""1512""
","
","
","""event"",""trial"",""time""
""fullscreenenter"",""1"",""1512""
","
","","","-1","","","11","7255","3681","f","elianto","#3366ff99","-1","-1","1","+10","[]","0","2","","","7255","121","8","2","win","no-go","0"
"pit-trial","240","1476627","0.0-126.0","battery-v0.2","","""event"",""trial"",""time""
""fullscreenenter"",""1"",""1512""
","
","
","""event"",""trial"",""time""
""fullscreenenter"",""1"",""1512""
","
","","","-1","","","11","7255","3681","t","elianto","#f73b6a7A"," ","-1","0","-10","[]","0","2","","","7255","122","7","3","lose","go","0"
"pit-trial","241","1481492","0.0-127.0","battery-v0.2","","""event"",""trial"",""time""
""fullscreenenter"",""1"",""1512""
","
","
","""event"",""trial"",""time""
""fullscreenenter"",""1"",""1512""
","
","","","-1","","","11","7255","3681","n","elianto","#3366ff99","-1","-1","1","+10","[]","0","2","","","7255","123","9","2","win","no-go","0"
"pit-trial","242","1485452","0.0-128.0","battery-v0.2","","""event"",""trial"",""time""
""fullscreenenter"",""1"",""1512""
","
","
","""event"",""trial"",""time""
""fullscreenenter"",""1"",""1512""
","
","","","1098.7999999523163","","","11","7255","3681","c","elianto","#3366ff99"," "," ","1","0","[1950.1999999284744]","1","2","","","7255","124","5","1","win","go","1"
"pit-trial","243","1490316","0.0-129.0","battery-v0.2","","""event"",""trial"",""time""
""fullscreenenter"",""1"",""1512""
","
","
","""event"",""trial"",""time""
""fullscreenenter"",""1"",""1512""
","
","","","-1","","","11","7255","3681","f","elianto","#3366ff99","-1","-1","1","0","[]","0","2","","","7255","125","8","2","win","no-go","1"
"pit-trial","244","1495180","0.0-130.0","battery-v0.2","","""event"",""trial"",""time""
""fullscreenenter"",""1"",""1512""
","
","
","""event"",""trial"",""time""
""fullscreenenter"",""1"",""1512""
","
","","","-1","","","11","7255","3681","b","elianto","#f73b6a7A","-1","-1","1","0","[]","0","2","","","7255","126","6","4","lose","no-go","0"
"pit-trial","245","1500044","0.0-131.0","battery-v0.2","","""event"",""trial"",""time""
""fullscreenenter"",""1"",""1512""
","
","
","""event"",""trial"",""time""
""fullscreenenter"",""1"",""1512""
","
","","","-1","","","11","7255","3681","n","elianto","#3366ff99","-1","-1","1","+10","[]","0","2","","","7255","127","9","2","win","no-go","0"
"pit-trial","246","1504907","0.0-132.0","battery-v0.2","","""event"",""trial"",""time""
""fullscreenenter"",""1"",""1512""
","
","
","""event"",""trial"",""time""
""fullscreenenter"",""1"",""1512""
","
","","","-1","","","11","7255","3681","t","elianto","#f73b6a7A"," ","-1","0","-10","[]","0","2","","","7255","128","7","3","lose","go","0"
"pit-trial","247","1509773","0.0-133.0","battery-v0.2","","""event"",""trial"",""time""
""fullscreenenter"",""1"",""1512""
","
","
","""event"",""trial"",""time""
""fullscreenenter"",""1"",""1512""
","
","","","-1","","","11","7255","3681","n","elianto","#3366ff99","-1","-1","1","0","[]","0","2","","","7255","129","9","2","win","no-go","1"
"pit-trial","248","1514507","0.0-134.0","battery-v0.2","","""event"",""trial"",""time""
""fullscreenenter"",""1"",""1512""
","
","
","""event"",""trial"",""time""
""fullscreenenter"",""1"",""1512""
","
","","","1874.1000000238419","","","11","7255","3681","t","elianto","#f73b6a7A"," "," ","1","0","[2725]","1","2","","","7255","130","7","3","lose","go","0"
"pit-trial","249","1519373","0.0-135.0","battery-v0.2","","""event"",""trial"",""time""
""fullscreenenter"",""1"",""1512""
","
","
","""event"",""trial"",""time""
""fullscreenenter"",""1"",""1512""
","
","","","-1","","","11","7255","3681","f","elianto","#3366ff99","-1","-1","1","+10","[]","0","2","","","7255","131","8","2","win","no-go","0"
"pit-trial","250","1524244","0.0-136.0","battery-v0.2","","""event"",""trial"",""time""
""fullscreenenter"",""1"",""1512""
","
","
","""event"",""trial"",""time""
""fullscreenenter"",""1"",""1512""
","
","","","-1","","","11","7255","3681","b","elianto","#f73b6a7A","-1","-1","1","0","[]","0","2","","","7255","132","6","4","lose","no-go","0"
"pit-trial","251","1529107","0.0-137.0","battery-v0.2","","""event"",""trial"",""time""
""fullscreenenter"",""1"",""1512""
","
","
","""event"",""trial"",""time""
""fullscreenenter"",""1"",""1512""
","
","","","-1","","","11","7255","3681","f","elianto","#3366ff99","-1","-1","1","+10","[]","0","2","","","7255","133","8","2","win","no-go","0"
"pit-trial","252","1533971","0.0-138.0","battery-v0.2","","""event"",""trial"",""time""
""fullscreenenter"",""1"",""1512""
","
","
","""event"",""trial"",""time""
""fullscreenenter"",""1"",""1512""
","
","","","-1","","","11","7255","3681","n","elianto","#3366ff99","-1","-1","1","+10","[]","0","2","","","7255","134","9","2","win","no-go","0"
"pit-trial","253","1538091","0.0-139.0","battery-v0.2","","""event"",""trial"",""time""
""fullscreenenter"",""1"",""1512""
","
","
","""event"",""trial"",""time""
""fullscreenenter"",""1"",""1512""
","
","","","1263","","","11","7255","3681","t","elianto","#f73b6a7A"," "," ","1","0","[2114.899999976158]","1","2","","","7255","135","7","3","lose","go","0"
"pit-trial","254","1542956","0.0-140.0","battery-v0.2","","""event"",""trial"",""time""
""fullscreenenter"",""1"",""1512""
","
","
","""event"",""trial"",""time""
""fullscreenenter"",""1"",""1512""
","
","","","-1","","","11","7255","3681","b","elianto","#f73b6a7A","-1","-1","1","0","[]","0","2","","","7255","136","6","4","lose","no-go","0"
"pit-trial","255","1547820","0.0-141.0","battery-v0.2","","""event"",""trial"",""time""
""fullscreenenter"",""1"",""1512""
","
","
","""event"",""trial"",""time""
""fullscreenenter"",""1"",""1512""
","
","","","-1","","","11","7255","3681","f","elianto","#3366ff99","-1","-1","1","0","[]","0","2","","","7255","137","8","2","win","no-go","1"
"pit-trial","256","1552684","0.0-142.0","battery-v0.2","","""event"",""trial"",""time""
""fullscreenenter"",""1"",""1512""
","
","
","""event"",""trial"",""time""
""fullscreenenter"",""1"",""1512""
","
","","","-1","","","11","7255","3681","n","elianto","#3366ff99","-1","-1","1","+10","[]","0","2","","","7255","138","9","2","win","no-go","0"
"pit-trial","257","1557548","0.0-143.0","battery-v0.2","","""event"",""trial"",""time""
""fullscreenenter"",""1"",""1512""
","
","
","""event"",""trial"",""time""
""fullscreenenter"",""1"",""1512""
","
","","","-1","","","11","7255","3681","b","elianto","#f73b6a7A","-1","-1","1","0","[]","0","2","","","7255","139","6","4","lose","no-go","0"
"pit-trial","258","1561748","0.0-144.0","battery-v0.2","","""event"",""trial"",""time""
""fullscreenenter"",""1"",""1512""
","
","
","""event"",""trial"",""time""
""fullscreenenter"",""1"",""1512""
","
","","","1337.5999999046326","","","11","7255","3681","t","elianto","#f73b6a7A"," "," ","1","0","[2188]","1","2","","","7255","140","7","3","lose","go","0"
"pit-instructions","259","1609788","0.0-145.0","battery-v0.2","","""event"",""trial"",""time""
""fullscreenenter"",""1"",""1512""
","
","
","""event"",""trial"",""time""
""fullscreenenter"",""1"",""1512""
","
","","[{""page_index"":0,""viewing_time"":38255.699999928474},{""page_index"":1,""viewing_time"":9780.300000071526}]","48036.59999990463","","","","","","","","","","","","","","","","","","","","","","","",""
"pit-trial","260","1614691","0.0-146.0","battery-v0.2","","""event"",""trial"",""time""
""fullscreenenter"",""1"",""1512""
","
","
","""event"",""trial"",""time""
""fullscreenenter"",""1"",""1512""
","
","","","-1","","","11","7255","3681","w","elianto","#f73b6a7A","-1","-1","1","0","[]","0","3","","","7255","141","3","4","lose","no-go","0"
"pit-trial","261","1619292","0.0-147.0","battery-v0.2","","""event"",""trial"",""time""
""fullscreenenter"",""1"",""1512""
","
","
","""event"",""trial"",""time""
""fullscreenenter"",""1"",""1512""
","
","","","1727.6000000238419","","","11","7255","3681","e","elianto","#f73b6a7A"," "," ","1","0","[2581.100000023842]","1","3","","","7255","142","2","3","lose","go","0"
"pit-trial","262","1624159","0.0-148.0","battery-v0.2","","""event"",""trial"",""time""
""fullscreenenter"",""1"",""1512""
","
","
","""event"",""trial"",""time""
""fullscreenenter"",""1"",""1512""
","
","","","-1","","","11","7255","3681","d","elianto","#3366ff99","-1","-1","1","+10","[2869]","1","3","","","7255","143","1","2","win","no-go","0"
"pit-trial","263","1629041","0.0-149.0","battery-v0.2","","""event"",""trial"",""time""
""fullscreenenter"",""1"",""1512""
","
","
","""event"",""trial"",""time""
""fullscreenenter"",""1"",""1512""
","
","","","-1","","","11","7255","3681","j","elianto","#f73b6a7A"," ","-1","0","0","[]","0","3","","","7255","144","0","3","lose","go","1"
"pit-trial","264","1633926","0.0-150.0","battery-v0.2","","""event"",""trial"",""time""
""fullscreenenter"",""1"",""1512""
","
","
","""event"",""trial"",""time""
""fullscreenenter"",""1"",""1512""
","
","","","-1","","","11","7255","3681","w","elianto","#f73b6a7A","-1","-1","1","0","[]","0","3","","","7255","145","3","4","lose","no-go","0"
"pit-trial","265","1638243","0.0-151.0","battery-v0.2","","""event"",""trial"",""time""
""fullscreenenter"",""1"",""1512""
","
","
","""event"",""trial"",""time""
""fullscreenenter"",""1"",""1512""
","
","","","1460.2999999523163","","","11","7255","3681","d","elianto","#3366ff99","-1"," ","0","0","[2310.5]","1","3","","","7255","146","1","2","win","no-go","0"
"pit-trial","266","1643107","0.0-152.0","battery-v0.2","","""event"",""trial"",""time""
""fullscreenenter"",""1"",""1512""
","
","
","""event"",""trial"",""time""
""fullscreenenter"",""1"",""1512""
","
","","","-1","","","11","7255","3681","j","elianto","#f73b6a7A"," ","-1","0","-10","[]","0","3","","","7255","147","0","3","lose","go","0"
"pit-trial","267","1647971","0.0-153.0","battery-v0.2","","""event"",""trial"",""time""
""fullscreenenter"",""1"",""1512""
","
","
","""event"",""trial"",""time""
""fullscreenenter"",""1"",""1512""
","
","","","-1","","","11","7255","3681","e","elianto","#f73b6a7A"," ","-1","0","-10","[]","0","3","","","7255","148","2","3","lose","go","0"
"pit-trial","268","1652220","0.0-154.0","battery-v0.2","","""event"",""trial"",""time""
""fullscreenenter"",""1"",""1512""
","
","
","""event"",""trial"",""time""
""fullscreenenter"",""1"",""1512""
","
","","","1386","","","11","7255","3681","e","elianto","#f73b6a7A"," "," ","1","-10","[2238.100000023842]","1","3","","","7255","149","2","3","lose","go","1"
"pit-trial","269","1656555","0.0-155.0","battery-v0.2","","""event"",""trial"",""time""
""fullscreenenter"",""1"",""1512""
","
","
","""event"",""trial"",""time""
""fullscreenenter"",""1"",""1512""
","
