"trial_type","trial_index","time_elapsed","internal_node_id","task_version","subject_id","interactions","blur_events","focus_events","fullscreenenter_events","fullscreenexit_events","success","view_history","rt","responses","num_errors","age","subject","participantId","rune","rune_set","hex","correct","choice","accuracy","outcome","keys","total_keys","block","practice","value","sub","trial","stimulus","robot","valence","action","sham"
"pavlovia","0","7","0.0-0.0","battery-v0.2","","""event"",""trial"",""time""
""fullscreenenter"",""1"",""5233""
","
","
","""event"",""trial"",""time""
""fullscreenenter"",""1"",""5233""
","
","","","","","","","","","","","","","","","","","","","","","","","","","","",""
"fullscreen","1","6209","0.0-1.0","battery-v0.2","","""event"",""trial"",""time""
""fullscreenenter"",""1"",""5233""
","
","
","""event"",""trial"",""time""
""fullscreenenter"",""1"",""5233""
","
","true","","","","","","","","","","","","","","","","","","","","","","","","","",""
"pit-instructions","2","13832","0.0-2.0-0.0","battery-v0.2","","""event"",""trial"",""time""
""fullscreenenter"",""1"",""5233""
","
","
","""event"",""trial"",""time""
""fullscreenenter"",""1"",""5233""
","
","","[{""page_index"":0,""viewing_time"":7618.100000023842}]","7618.900000095367","","","","","","","","","","","","","","","","","","","","","","","",""
"pit-comprehension","3","26007","0.0-2.0-1.0-0.0","battery-v0.2","","""event"",""trial"",""time""
""fullscreenenter"",""1"",""5233""
","
","
","""event"",""trial"",""time""
""fullscreenenter"",""1"",""5233""
","
","","","12169","[""shark""]","0","24","10103","4751","","","","","","","","","","","","","","","","","","",""
"pit-instructions","4","26996","0.0-2.0-1.0-1.0","battery-v0.2","","""event"",""trial"",""time""
""fullscreenenter"",""1"",""5233""
","
","
","""event"",""trial"",""time""
""fullscreenenter"",""1"",""5233""
","
","","[{""page_index"":0,""viewing_time"":980.5}]","981.0999999046326","","","","","","","","","","","","","","","","","","","","","","","",""
"pit-comprehension","5","29169","0.0-2.0-2.0-0.0","battery-v0.2","","""event"",""trial"",""time""
""fullscreenenter"",""1"",""5233""
","
","
","""event"",""trial"",""time""
""fullscreenenter"",""1"",""5233""
","
","","","2167.399999976158","[""tiger""]","0","24","10103","4751","","","","","","","","","","","","","","","","","","",""
"pit-instructions","6","29954","0.0-2.0-2.0-1.0","battery-v0.2","","""event"",""trial"",""time""
""fullscreenenter"",""1"",""5233""
","
","
","""event"",""trial"",""time""
""fullscreenenter"",""1"",""5233""
","
","","[{""page_index"":0,""viewing_time"":780}]","780.7999999523163","","","","","","","","","","","","","","","","","","","","","","","",""
"pit-instructions","7","122419","0.0-2.0-3.0","battery-v0.2","","""event"",""trial"",""time""
""fullscreenenter"",""1"",""5233""
","
","
","""event"",""trial"",""time""
""fullscreenenter"",""1"",""5233""
","
","","[{""page_index"":0,""viewing_time"":7777.199999928474},{""page_index"":1,""viewing_time"":5454.600000023842},{""page_index"":2,""viewing_time"":6034.800000071526},{""page_index"":3,""viewing_time"":5246.199999928474},{""page_index"":4,""viewing_time"":6401.700000047684},{""page_index"":5,""viewing_time"":5022.100000023842},{""page_index"":6,""viewing_time"":5524.399999976158},{""page_index"":7,""viewing_time"":6562.399999976158},{""page_index"":8,""viewing_time"":6199.200000047684},{""page_index"":9,""viewing_time"":7833.799999952316},{""page_index"":10,""viewing_time"":7502.200000047684},{""page_index"":11,""viewing_time"":7387.899999976158},{""page_index"":12,""viewing_time"":10000.299999952316},{""page_index"":13,""viewing_time"":5513.800000071526}]","92461.19999992847","","","","","","","","","","","","","","","","","","","","","","","",""
"pit-trial","8","125887","0.0-2.0-4.0-0.0","battery-v0.2","","""event"",""trial"",""time""
""fullscreenenter"",""1"",""5233""
","
","
","""event"",""trial"",""time""
""fullscreenenter"",""1"",""5233""
","
","","","603","","","24","10103","4751","&#9784;","elianto","#FFFFF080"," "," ","1","&#10004","[1454]","1","0","0","","","","","","","",""
"pit-trial","9","129241","0.0-2.0-4.1-0.1","battery-v0.2","","""event"",""trial"",""time""
""fullscreenenter"",""1"",""5233""
","
","
","""event"",""trial"",""time""
""fullscreenenter"",""1"",""5233""
","
","","","499","","","24","10103","4751","&#9784;","elianto","#FFFFF080"," "," ","1","&#10004","[1349.5]","1","0","0","","","","","","","",""
"pit-trial","10","132588","0.0-2.0-4.2-0.2","battery-v0.2","","""event"",""trial"",""time""
""fullscreenenter"",""1"",""5233""
","
","
","""event"",""trial"",""time""
""fullscreenenter"",""1"",""5233""
","
","","","483.40000009536743","","","24","10103","4751","&#9784;","elianto","#FFFFF080"," "," ","1","&#10004","[1335.6000000238419]","1","0","0","","","","","","","",""
"pit-trial","11","135934","0.0-2.0-4.3-0.3","battery-v0.2","","""event"",""trial"",""time""
""fullscreenenter"",""1"",""5233""
","
","
","""event"",""trial"",""time""
""fullscreenenter"",""1"",""5233""
","
","","","486.2000000476837","","","24","10103","4751","&#9784;","elianto","#FFFFF080"," "," ","1","&#10004","[1340]","1","0","0","","","","","","","",""
"pit-trial","12","139283","0.0-2.0-4.4-0.4","battery-v0.2","","""event"",""trial"",""time""
""fullscreenenter"",""1"",""5233""
","
","
","""event"",""trial"",""time""
""fullscreenenter"",""1"",""5233""
","
","","","481.2999999523163","","","24","10103","4751","&#9784;","elianto","#FFFFF080"," "," ","1","&#10004","[1332.5]","1","0","0","","","","","","","",""
"pit-instructions","13","159340","0.0-2.0-5.0","battery-v0.2","","""event"",""trial"",""time""
""fullscreenenter"",""1"",""5233""
","
","
","""event"",""trial"",""time""
""fullscreenenter"",""1"",""5233""
","
","","[{""page_index"":0,""viewing_time"":4681.799999952316},{""page_index"":1,""viewing_time"":5423.899999976158},{""page_index"":2,""viewing_time"":4851.800000071526},{""page_index"":3,""viewing_time"":5095.600000023842}]","20053.699999928474","","","","","","","","","","","","","","","","","","","","","","","",""
"pit-trial","14","164201","0.0-2.0-6.0-0.0","battery-v0.2","","""event"",""trial"",""time""
""fullscreenenter"",""1"",""5233""
","
","
","""event"",""trial"",""time""
""fullscreenenter"",""1"",""5233""
","
","","","-1","","","24","10103","4751","&#9854;","elianto","#FFFFF080","-1","-1","1","&#10004","[]","0","0","1","","","","","","","",""
"pit-trial","15","169078","0.0-2.0-6.1-0.1","battery-v0.2","","""event"",""trial"",""time""
""fullscreenenter"",""1"",""5233""
","
","
","""event"",""trial"",""time""
""fullscreenenter"",""1"",""5233""
","
","","","-1","","","24","10103","4751","&#9854;","elianto","#FFFFF080","-1","-1","1","&#10004","[]","0","0","1","","","","","","","",""
"pit-trial","16","173940","0.0-2.0-6.2-0.2","battery-v0.2","","""event"",""trial"",""time""
""fullscreenenter"",""1"",""5233""
","
","
","""event"",""trial"",""time""
""fullscreenenter"",""1"",""5233""
","
","","","-1","","","24","10103","4751","&#9854;","elianto","#FFFFF080","-1","-1","1","&#10004","[]","0","0","1","","","","","","","",""
"pit-trial","17","178813","0.0-2.0-6.3-0.3","battery-v0.2","","""event"",""trial"",""time""
""fullscreenenter"",""1"",""5233""
","
","
","""event"",""trial"",""time""
""fullscreenenter"",""1"",""5233""
","
","","","-1","","","24","10103","4751","&#9854;","elianto","#FFFFF080","-1","-1","1","&#10004","[]","0","0","1","","","","","","","",""
"pit-trial","18","183682","0.0-2.0-6.4-0.4","battery-v0.2","","""event"",""trial"",""time""
""fullscreenenter"",""1"",""5233""
","
","
","""event"",""trial"",""time""
""fullscreenenter"",""1"",""5233""
","
","","","-1","","","24","10103","4751","&#9854;","elianto","#FFFFF080","-1","-1","1","&#10004","[]","0","0","1","","","","","","","",""
"pit-instructions","19","304130","0.0-2.0-7.0","battery-v0.2","","""event"",""trial"",""time""
""fullscreenenter"",""1"",""5233""
","
","
","""event"",""trial"",""time""
""fullscreenenter"",""1"",""5233""
","
","","[{""page_index"":0,""viewing_time"":7310.299999952316},{""page_index"":1,""viewing_time"":11182.100000023842},{""page_index"":2,""viewing_time"":9272.100000023842},{""page_index"":3,""viewing_time"":5670},{""page_index"":4,""viewing_time"":5846.299999952316},{""page_index"":5,""viewing_time"":5663.600000023842},{""page_index"":6,""viewing_time"":4007.2999999523163},{""page_index"":7,""viewing_time"":7008.400000095367},{""page_index"":8,""viewing_time"":6644.5},{""page_index"":9,""viewing_time"":5603.699999928474},{""page_index"":10,""viewing_time"":9309.700000047684},{""page_index"":11,""viewing_time"":4347.5},{""page_index"":12,""viewing_time"":6150.600000023842},{""page_index"":13,""viewing_time"":6329.199999928474},{""page_index"":14,""viewing_time"":6684.399999976158},{""page_index"":15,""viewing_time"":6017.800000071526},{""page_index"":16,""viewing_time"":6529.199999928474},{""page_index"":17,""viewing_time"":6866.600000023842}]","120443.89999997616","","","","","","","","","","","","","","","","","","","","","","","",""
"pit-trial","20","307471","0.0-2.0-8.0-0.0","battery-v0.2","","""event"",""trial"",""time""
""fullscreenenter"",""1"",""5233""
","
","
","""event"",""trial"",""time""
""fullscreenenter"",""1"",""5233""
","
","","","471.60000002384186","","","24","10103","4751","&#9776;","elianto","#3366ff99"," "," ","1","+10","[1329.7999999523163]","1","0","1","","","","","","","",""
"pit-trial","21","310784","0.0-2.0-8.0-1.0","battery-v0.2","","""event"",""trial"",""time""
""fullscreenenter"",""1"",""5233""
","
","
","""event"",""trial"",""time""
""fullscreenenter"",""1"",""5233""
","
","","","450.89999997615814","","","24","10103","4751","&#9776;","elianto","#3366ff99"," "," ","1","+10","[1307.8999999761581]","1","0","1","","","","","","","",""
"pit-trial","22","314119","0.0-2.0-8.0-2.0","battery-v0.2","","""event"",""trial"",""time""
""fullscreenenter"",""1"",""5233""
","
","
","""event"",""trial"",""time""
""fullscreenenter"",""1"",""5233""
","
","","","459.2999999523163","","","24","10103","4751","&#9776;","elianto","#3366ff99"," "," ","1","+10","[1321.8999999761581]","1","0","1","","","","","","","",""
"pit-trial","23","317449","0.0-2.0-8.0-3.0","battery-v0.2","","""event"",""trial"",""time""
""fullscreenenter"",""1"",""5233""
","
","
","""event"",""trial"",""time""
""fullscreenenter"",""1"",""5233""
","
","","","464.7999999523163","","","24","10103","4751","&#9776;","elianto","#3366ff99"," "," ","1","0","[1322.6000000238419]","1","0","1","","","","","","","",""
"pit-trial","24","320736","0.0-2.0-8.0-4.0","battery-v0.2","","""event"",""trial"",""time""
""fullscreenenter"",""1"",""5233""
","
","
","""event"",""trial"",""time""
""fullscreenenter"",""1"",""5233""
","
","","","418.5","","","24","10103","4751","&#9776;","elianto","#3366ff99"," "," ","1","+10","[1272.2000000476837]","1","0","1","","","","","","","",""
"pit-trial","25","324135","0.0-2.0-8.1-0.1","battery-v0.2","","""event"",""trial"",""time""
""fullscreenenter"",""1"",""5233""
","
","
","""event"",""trial"",""time""
""fullscreenenter"",""1"",""5233""
","
","","","543.1000000238419","","","24","10103","4751","&#9776;","elianto","#3366ff99"," "," ","1","+10","[1395.8000000715256]","1","0","1","","","","","","","",""
"pit-trial","26","327467","0.0-2.0-8.1-1.1","battery-v0.2","","""event"",""trial"",""time""
""fullscreenenter"",""1"",""5233""
","
","
","""event"",""trial"",""time""
""fullscreenenter"",""1"",""5233""
","
","","","459.60000002384186","","","24","10103","4751","&#9776;","elianto","#3366ff99"," "," ","1","+10","[1315.6000000238419]","1","0","1","","","","","","","",""
"pit-trial","27","330846","0.0-2.0-8.1-2.1","battery-v0.2","","""event"",""trial"",""time""
""fullscreenenter"",""1"",""5233""
","
","
","""event"",""trial"",""time""
""fullscreenenter"",""1"",""5233""
","
","","","508.2000000476837","","","24","10103","4751","&#9776;","elianto","#3366ff99"," "," ","1","+10","[1367.8000000715256]","1","0","1","","","","","","","",""
"pit-trial","28","334201","0.0-2.0-8.1-3.1","battery-v0.2","","""event"",""trial"",""time""
""fullscreenenter"",""1"",""5233""
","
","
","""event"",""trial"",""time""
""fullscreenenter"",""1"",""5233""
","
","","","494.39999997615814","","","24","10103","4751","&#9776;","elianto","#3366ff99"," "," ","1","0","[1352.5999999046326]","1","0","1","","","","","","","",""
"pit-trial","29","337631","0.0-2.0-8.1-4.1","battery-v0.2","","""event"",""trial"",""time""
""fullscreenenter"",""1"",""5233""
","
","
","""event"",""trial"",""time""
""fullscreenenter"",""1"",""5233""
","
","","","576.1999999284744","","","24","10103","4751","&#9776;","elianto","#3366ff99"," "," ","1","+10","[1426.8999999761581]","1","0","1","","","","","","","",""
"pit-trial","30","340883","0.0-2.0-8.2-0.2","battery-v0.2","","""event"",""trial"",""time""
""fullscreenenter"",""1"",""5233""
","
","
","""event"",""trial"",""time""
""fullscreenenter"",""1"",""5233""
","
","","","396.2999999523163","","","24","10103","4751","&#9776;","elianto","#3366ff99"," "," ","1","+10","[1248.6000000238419]","1","0","1","","","","","","","",""
"pit-trial","31","344160","0.0-2.0-8.2-1.2","battery-v0.2","","""event"",""trial"",""time""
""fullscreenenter"",""1"",""5233""
","
","
","""event"",""trial"",""time""
""fullscreenenter"",""1"",""5233""
","
","","","422.5","","","24","10103","4751","&#9776;","elianto","#3366ff99"," "," ","1","+10","[1273.7999999523163]","1","0","1","","","","","","","",""
"pit-trial","32","347400","0.0-2.0-8.2-2.2","battery-v0.2","","""event"",""trial"",""time""
""fullscreenenter"",""1"",""5233""
","
","
","""event"",""trial"",""time""
""fullscreenenter"",""1"",""5233""
","
","","","387.2000000476837","","","24","10103","4751","&#9776;","elianto","#3366ff99"," "," ","1","+10","[1237.2999999523163]","1","0","1","","","","","","","",""
"pit-trial","33","350667","0.0-2.0-8.2-3.2","battery-v0.2","","""event"",""trial"",""time""
""fullscreenenter"",""1"",""5233""
","
","
","""event"",""trial"",""time""
""fullscreenenter"",""1"",""5233""
","
","","","413.89999997615814","","","24","10103","4751","&#9776;","elianto","#3366ff99"," "," ","1","0","[1264.3999999761581]","1","0","1","","","","","","","",""
"pit-trial","34","353986","0.0-2.0-8.2-4.2","battery-v0.2","","""event"",""trial"",""time""
""fullscreenenter"",""1"",""5233""
","
","
","""event"",""trial"",""time""
""fullscreenenter"",""1"",""5233""
","
","","","465.3000000715256","","","24","10103","4751","&#9776;","elianto","#3366ff99"," "," ","1","+10","[1315.8000000715256]","1","0","1","","","","","","","",""
"call-function","35","353988","0.0-2.0-9.0","battery-v0.2","","""event"",""trial"",""time""
""fullscreenenter"",""1"",""5233""
","
","
","""event"",""trial"",""time""
""fullscreenenter"",""1"",""5233""
","
","","","","","","","","","","","","","","","","","","","","","","","","","","",""
"pit-instructions","36","392192","0.0-2.0-10.0","battery-v0.2","","""event"",""trial"",""time""
""fullscreenenter"",""1"",""5233""
","
","
","""event"",""trial"",""time""
""fullscreenenter"",""1"",""5233""
","
","","[{""page_index"":0,""viewing_time"":5843.5},{""page_index"":1,""viewing_time"":6686.200000047684},{""page_index"":2,""viewing_time"":9539.399999976158},{""page_index"":3,""viewing_time"":8931.199999928474},{""page_index"":4,""viewing_time"":7202.300000071526}]","38203.200000047684","","","","","","","","","","","","","","","","","","","","","","","",""
"pit-trial","37","395726","0.0-2.0-11.0-0.0","battery-v0.2","","""event"",""trial"",""time""
""fullscreenenter"",""1"",""5233""
","
","
","""event"",""trial"",""time""
""fullscreenenter"",""1"",""5233""
","
","","","664.5","","","24","10103","4751","&#9761;","elianto","#3366ff99","-1"," ","0","0","[1523.1000000238419]","1","0","2","","","","","","","",""
"pit-trial","38","400584","0.0-2.0-11.0-1.0","battery-v0.2","","""event"",""trial"",""time""
""fullscreenenter"",""1"",""5233""
","
","
","""event"",""trial"",""time""
""fullscreenenter"",""1"",""5233""
","
","","","-1","","","24","10103","4751","&#9761;","elianto","#3366ff99","-1","-1","1","+10","[]","0","0","2","","","","","","","",""
"pit-trial","39","405457","0.0-2.0-11.0-2.0","battery-v0.2","","""event"",""trial"",""time""
""fullscreenenter"",""1"",""5233""
","
","
","""event"",""trial"",""time""
""fullscreenenter"",""1"",""5233""
","
","","","-1","","","24","10103","4751","&#9761;","elianto","#3366ff99","-1","-1","1","+10","[]","0","0","2","","","","","","","",""
"pit-trial","40","410315","0.0-2.0-11.0-3.0","battery-v0.2","","""event"",""trial"",""time""
""fullscreenenter"",""1"",""5233""
","
","
","""event"",""trial"",""time""
""fullscreenenter"",""1"",""5233""
","
","","","-1","","","24","10103","4751","&#9761;","elianto","#3366ff99","-1","-1","1","0","[]","0","0","2","","","","","","","",""
"pit-trial","41","415183","0.0-2.0-11.0-4.0","battery-v0.2","","""event"",""trial"",""time""
""fullscreenenter"",""1"",""5233""
","
","
","""event"",""trial"",""time""
""fullscreenenter"",""1"",""5233""
","
","","","-1","","","24","10103","4751","&#9761;","elianto","#3366ff99","-1","-1","1","+10","[]","0","0","2","","","","","","","",""
"pit-trial","42","420065","0.0-2.0-11.1-0.1","battery-v0.2","","""event"",""trial"",""time""
""fullscreenenter"",""1"",""5233""
","
","
","""event"",""trial"",""time""
""fullscreenenter"",""1"",""5233""
","
","","","-1","","","24","10103","4751","&#9761;","elianto","#3366ff99","-1","-1","1","+10","[]","0","0","2","","","","","","","",""
"pit-trial","43","424918","0.0-2.0-11.1-1.1","battery-v0.2","","""event"",""trial"",""time""
""fullscreenenter"",""1"",""5233""
","
","
","""event"",""trial"",""time""
""fullscreenenter"",""1"",""5233""
","
","","","-1","","","24","10103","4751","&#9761;","elianto","#3366ff99","-1","-1","1","+10","[]","0","0","2","","","","","","","",""
"pit-trial","44","429772","0.0-2.0-11.1-2.1","battery-v0.2","","""event"",""trial"",""time""
""fullscreenenter"",""1"",""5233""
","
","
","""event"",""trial"",""time""
""fullscreenenter"",""1"",""5233""
","
","","","-1","","","24","10103","4751","&#9761;","elianto","#3366ff99","-1","-1","1","+10","[]","0","0","2","","","","","","","",""
"pit-trial","45","434625","0.0-2.0-11.1-3.1","battery-v0.2","","""event"",""trial"",""time""
""fullscreenenter"",""1"",""5233""
","
","
","""event"",""trial"",""time""
""fullscreenenter"",""1"",""5233""
","
","","","-1","","","24","10103","4751","&#9761;","elianto","#3366ff99","-1","-1","1","0","[]","0","0","2","","","","","","","",""
"pit-trial","46","439478","0.0-2.0-11.1-4.1","battery-v0.2","","""event"",""trial"",""time""
""fullscreenenter"",""1"",""5233""
","
","
","""event"",""trial"",""time""
""fullscreenenter"",""1"",""5233""
","
","","","-1","","","24","10103","4751","&#9761;","elianto","#3366ff99","-1","-1","1","+10","[]","0","0","2","","","","","","","",""
"pit-trial","47","444332","0.0-2.0-11.2-0.2","battery-v0.2","","""event"",""trial"",""time""
""fullscreenenter"",""1"",""5233""
","
","
","""event"",""trial"",""time""
""fullscreenenter"",""1"",""5233""
","
","","","-1","","","24","10103","4751","&#9761;","elianto","#3366ff99","-1","-1","1","+10","[]","0","0","2","","","","","","","",""
"pit-trial","48","449186","0.0-2.0-11.2-1.2","battery-v0.2","","""event"",""trial"",""time""
""fullscreenenter"",""1"",""5233""
","
","
","""event"",""trial"",""time""
""fullscreenenter"",""1"",""5233""
","
","","","-1","","","24","10103","4751","&#9761;","elianto","#3366ff99","-1","-1","1","+10","[]","0","0","2","","","","","","","",""
"pit-trial","49","454039","0.0-2.0-11.2-2.2","battery-v0.2","","""event"",""trial"",""time""
""fullscreenenter"",""1"",""5233""
","
","
","""event"",""trial"",""time""
""fullscreenenter"",""1"",""5233""
","
","","","-1","","","24","10103","4751","&#9761;","elianto","#3366ff99","-1","-1","1","+10","[]","0","0","2","","","","","","","",""
"pit-trial","50","458893","0.0-2.0-11.2-3.2","battery-v0.2","","""event"",""trial"",""time""
""fullscreenenter"",""1"",""5233""
","
","
","""event"",""trial"",""time""
""fullscreenenter"",""1"",""5233""
","
","","","-1","","","24","10103","4751","&#9761;","elianto","#3366ff99","-1","-1","1","0","[]","0","0","2","","","","","","","",""
"pit-trial","51","463746","0.0-2.0-11.2-4.2","battery-v0.2","","""event"",""trial"",""time""
""fullscreenenter"",""1"",""5233""
","
","
","""event"",""trial"",""time""
""fullscreenenter"",""1"",""5233""
","
","","","-1","","","24","10103","4751","&#9761;","elianto","#3366ff99","-1","-1","1","+10","[]","0","0","2","","","","","","","",""
"pit-trial","52","468601","0.0-2.0-11.3-0.3","battery-v0.2","","""event"",""trial"",""time""
""fullscreenenter"",""1"",""5233""
","
","
","""event"",""trial"",""time""
""fullscreenenter"",""1"",""5233""
","
","","","-1","","","24","10103","4751","&#9761;","elianto","#3366ff99","-1","-1","1","+10","[]","0","0","2","","","","","","","",""
"pit-trial","53","473454","0.0-2.0-11.3-1.3","battery-v0.2","","""event"",""trial"",""time""
""fullscreenenter"",""1"",""5233""
","
","
","""event"",""trial"",""time""
""fullscreenenter"",""1"",""5233""
","
","","","-1","","","24","10103","4751","&#9761;","elianto","#3366ff99","-1","-1","1","+10","[]","0","0","2","","","","","","","",""
"pit-trial","54","478308","0.0-2.0-11.3-2.3","battery-v0.2","","""event"",""trial"",""time""
""fullscreenenter"",""1"",""5233""
","
","
","""event"",""trial"",""time""
""fullscreenenter"",""1"",""5233""
","
","","","-1","","","24","10103","4751","&#9761;","elianto","#3366ff99","-1","-1","1","+10","[]","0","0","2","","","","","","","",""
"pit-trial","55","483160","0.0-2.0-11.3-3.3","battery-v0.2","","""event"",""trial"",""time""
""fullscreenenter"",""1"",""5233""
","
","
","""event"",""trial"",""time""
""fullscreenenter"",""1"",""5233""
","
","","","-1","","","24","10103","4751","&#9761;","elianto","#3366ff99","-1","-1","1","0","[]","0","0","2","","","","","","","",""
"pit-trial","56","488014","0.0-2.0-11.3-4.3","battery-v0.2","","""event"",""trial"",""time""
""fullscreenenter"",""1"",""5233""
","
","
","""event"",""trial"",""time""
""fullscreenenter"",""1"",""5233""
","
","","","-1","","","24","10103","4751","&#9761;","elianto","#3366ff99","-1","-1","1","+10","[]","0","0","2","","","","","","","",""
"call-function","57","488015","0.0-2.0-12.0","battery-v0.2","","""event"",""trial"",""time""
""fullscreenenter"",""1"",""5233""
","
","
","""event"",""trial"",""time""
""fullscreenenter"",""1"",""5233""
","
","","","","","","","","","","","","","","","","","","","","","","","","","","",""
"pit-instructions","58","518270","0.0-2.0-13.0","battery-v0.2","","""event"",""trial"",""time""
""fullscreenenter"",""1"",""5233""
","
","
","""event"",""trial"",""time""
""fullscreenenter"",""1"",""5233""
","
","","[{""page_index"":0,""viewing_time"":5063},{""page_index"":1,""viewing_time"":6726.799999952316},{""page_index"":2,""viewing_time"":3361.7999999523163},{""page_index"":3,""viewing_time"":10199.600000023842},{""page_index"":4,""viewing_time"":4902.300000071526}]","30254.299999952316","","","","","","","","","","","","","","","","","","","","","","","",""
"pit-trial","59","523134","0.0-2.0-14.0-0.0","battery-v0.2","","""event"",""trial"",""time""
""fullscreenenter"",""1"",""5233""
","
","
","""event"",""trial"",""time""
""fullscreenenter"",""1"",""5233""
","
","","","-1","","","24","10103","4751","&#9826;","elianto","#f73b6a7A","-1","-1","1","0","[]","0","0","3","","","","","","","",""
"pit-trial","60","528001","0.0-2.0-14.0-1.0","battery-v0.2","","""event"",""trial"",""time""
""fullscreenenter"",""1"",""5233""
","
","
","""event"",""trial"",""time""
""fullscreenenter"",""1"",""5233""
","
","","","-1","","","24","10103","4751","&#9826;","elianto","#f73b6a7A","-1","-1","1","0","[]","0","0","3","","","","","","","",""
"pit-trial","61","532870","0.0-2.0-14.0-2.0","battery-v0.2","","""event"",""trial"",""time""
""fullscreenenter"",""1"",""5233""
","
","
","""event"",""trial"",""time""
""fullscreenenter"",""1"",""5233""
","
","","","-1","","","24","10103","4751","&#9826;","elianto","#f73b6a7A","-1","-1","1","0","[]","0","0","3","","","","","","","",""
"pit-trial","62","537735","0.0-2.0-14.0-3.0","battery-v0.2","","""event"",""trial"",""time""
""fullscreenenter"",""1"",""5233""
","
","
","""event"",""trial"",""time""
""fullscreenenter"",""1"",""5233""
","
","","","-1","","","24","10103","4751","&#9826;","elianto","#f73b6a7A","-1","-1","1","-10","[]","0","0","3","","","","","","","",""
"pit-trial","63","542606","0.0-2.0-14.0-4.0","battery-v0.2","","""event"",""trial"",""time""
""fullscreenenter"",""1"",""5233""
","
","
","""event"",""trial"",""time""
""fullscreenenter"",""1"",""5233""
","
","","","-1","","","24","10103","4751","&#9826;","elianto","#f73b6a7A","-1","-1","1","0","[]","0","0","3","","","","","","","",""
"pit-trial","64","547470","0.0-2.0-14.1-0.1","battery-v0.2","","""event"",""trial"",""time""
""fullscreenenter"",""1"",""5233""
","
","
","""event"",""trial"",""time""
""fullscreenenter"",""1"",""5233""
","
","","","-1","","","24","10103","4751","&#9826;","elianto","#f73b6a7A","-1","-1","1","0","[]","0","0","3","","","","","","","",""
"pit-trial","65","552323","0.0-2.0-14.1-1.1","battery-v0.2","","""event"",""trial"",""time""
""fullscreenenter"",""1"",""5233""
","
","
","""event"",""trial"",""time""
""fullscreenenter"",""1"",""5233""
","
","","","-1","","","24","10103","4751","&#9826;","elianto","#f73b6a7A","-1","-1","1","0","[]","0","0","3","","","","","","","",""
"pit-trial","66","557178","0.0-2.0-14.1-2.1","battery-v0.2","","""event"",""trial"",""time""
""fullscreenenter"",""1"",""5233""
","
","
","""event"",""trial"",""time""
""fullscreenenter"",""1"",""5233""
","
","","","-1","","","24","10103","4751","&#9826;","elianto","#f73b6a7A","-1","-1","1","0","[]","0","0","3","","","","","","","",""
"pit-trial","67","562031","0.0-2.0-14.1-3.1","battery-v0.2","","""event"",""trial"",""time""
""fullscreenenter"",""1"",""5233""
","
","
","""event"",""trial"",""time""
""fullscreenenter"",""1"",""5233""
","
","","","-1","","","24","10103","4751","&#9826;","elianto","#f73b6a7A","-1","-1","1","-10","[]","0","0","3","","","","","","","",""
"pit-trial","68","566885","0.0-2.0-14.1-4.1","battery-v0.2","","""event"",""trial"",""time""
""fullscreenenter"",""1"",""5233""
","
","
","""event"",""trial"",""time""
""fullscreenenter"",""1"",""5233""
","
","","","-1","","","24","10103","4751","&#9826;","elianto","#f73b6a7A","-1","-1","1","0","[]","0","0","3","","","","","","","",""
"pit-trial","69","571746","0.0-2.0-14.2-0.2","battery-v0.2","","""event"",""trial"",""time""
""fullscreenenter"",""1"",""5233""
","
","
","""event"",""trial"",""time""
""fullscreenenter"",""1"",""5233""
","
","","","-1","","","24","10103","4751","&#9826;","elianto","#f73b6a7A","-1","-1","1","0","[]","0","0","3","","","","","","","",""
"pit-trial","70","576599","0.0-2.0-14.2-1.2","battery-v0.2","","""event"",""trial"",""time""
""fullscreenenter"",""1"",""5233""
","
","
","""event"",""trial"",""time""
""fullscreenenter"",""1"",""5233""
","
","","","-1","","","24","10103","4751","&#9826;","elianto","#f73b6a7A","-1","-1","1","0","[]","0","0","3","","","","","","","",""
"pit-trial","71","581452","0.0-2.0-14.2-2.2","battery-v0.2","","""event"",""trial"",""time""
""fullscreenenter"",""1"",""5233""
","
","
","""event"",""trial"",""time""
""fullscreenenter"",""1"",""5233""
","
","","","-1","","","24","10103","4751","&#9826;","elianto","#f73b6a7A","-1","-1","1","0","[]","0","0","3","","","","","","","",""
"pit-trial","72","586307","0.0-2.0-14.2-3.2","battery-v0.2","","""event"",""trial"",""time""
""fullscreenenter"",""1"",""5233""
","
","
","""event"",""trial"",""time""
""fullscreenenter"",""1"",""5233""
","
","","","-1","","","24","10103","4751","&#9826;","elianto","#f73b6a7A","-1","-1","1","-10","[]","0","0","3","","","","","","","",""
"pit-trial","73","591162","0.0-2.0-14.2-4.2","battery-v0.2","","""event"",""trial"",""time""
""fullscreenenter"",""1"",""5233""
","
","
","""event"",""trial"",""time""
""fullscreenenter"",""1"",""5233""
","
","","","-1","","","24","10103","4751","&#9826;","elianto","#f73b6a7A","-1","-1","1","0","[]","0","0","3","","","","","","","",""
"pit-trial","74","596017","0.0-2.0-14.3-0.3","battery-v0.2","","""event"",""trial"",""time""
""fullscreenenter"",""1"",""5233""
","
","
","""event"",""trial"",""time""
""fullscreenenter"",""1"",""5233""
","
","","","-1","","","24","10103","4751","&#9826;","elianto","#f73b6a7A","-1","-1","1","0","[]","0","0","3","","","","","","","",""
"pit-trial","75","600881","0.0-2.0-14.3-1.3","battery-v0.2","","""event"",""trial"",""time""
""fullscreenenter"",""1"",""5233""
","
","
","""event"",""trial"",""time""
""fullscreenenter"",""1"",""5233""
","
","","","-1","","","24","10103","4751","&#9826;","elianto","#f73b6a7A","-1","-1","1","0","[]","0","0","3","","","","","","","",""
"pit-trial","76","605734","0.0-2.0-14.3-2.3","battery-v0.2","","""event"",""trial"",""time""
""fullscreenenter"",""1"",""5233""
","
","
","""event"",""trial"",""time""
""fullscreenenter"",""1"",""5233""
","
","","","-1","","","24","10103","4751","&#9826;","elianto","#f73b6a7A","-1","-1","1","0","[]","0","0","3","","","","","","","",""
"pit-trial","77","610588","0.0-2.0-14.3-3.3","battery-v0.2","","""event"",""trial"",""time""
""fullscreenenter"",""1"",""5233""
","
","
","""event"",""trial"",""time""
""fullscreenenter"",""1"",""5233""
","
","","","-1","","","24","10103","4751","&#9826;","elianto","#f73b6a7A","-1","-1","1","-10","[]","0","0","3","","","","","","","",""
"pit-trial","78","615441","0.0-2.0-14.3-4.3","battery-v0.2","","""event"",""trial"",""time""
""fullscreenenter"",""1"",""5233""
","
","
","""event"",""trial"",""time""
""fullscreenenter"",""1"",""5233""
","
","","","-1","","","24","10103","4751","&#9826;","elianto","#f73b6a7A","-1","-1","1","0","[]","0","0","3","","","","","","","",""
"call-function","79","615443","0.0-2.0-15.0","battery-v0.2","","""event"",""trial"",""time""
""fullscreenenter"",""1"",""5233""
","
","
","""event"",""trial"",""time""
""fullscreenenter"",""1"",""5233""
","
","","","","","","","","","","","","","","","","","","","","","","","","","","",""
"pit-instructions","80","644945","0.0-2.0-16.0","battery-v0.2","","""event"",""trial"",""time""
""fullscreenenter"",""1"",""5233""
","
","
","""event"",""trial"",""time""
""fullscreenenter"",""1"",""5233""
","
","","[{""page_index"":0,""viewing_time"":10524.699999928474},{""page_index"":1,""viewing_time"":9334.100000023842},{""page_index"":2,""viewing_time"":4283.5},{""page_index"":3,""viewing_time"":5358}]","29501","","","","","","","","","","","","","","","","","","","","","","","",""
"pit-trial","81","649821","0.0-2.0-17.0-0.0","battery-v0.2","","""event"",""trial"",""time""
""fullscreenenter"",""1"",""5233""
","
","
","""event"",""trial"",""time""
""fullscreenenter"",""1"",""5233""
","
","","","-1","","","24","10103","4751","&#9789;","elianto","#f73b6a7A"," ","-1","0","-10","[3428.600000023842]","1","0","4","","","","","","","",""
"pit-trial","82","653099","0.0-2.0-17.0-1.0","battery-v0.2","","""event"",""trial"",""time""
""fullscreenenter"",""1"",""5233""
","
","
","""event"",""trial"",""time""
""fullscreenenter"",""1"",""5233""
","
","","","402.5","","","24","10103","4751","&#9789;","elianto","#f73b6a7A"," "," ","1","0","[1265.8999999761581]","1","0","4","","","","","","","",""
"pit-trial","83","656327","0.0-2.0-17.0-2.0","battery-v0.2","","""event"",""trial"",""time""
""fullscreenenter"",""1"",""5233""
","
","
","""event"",""trial"",""time""
""fullscreenenter"",""1"",""5233""
","
","","","361.39999997615814","","","24","10103","4751","&#9789;","elianto","#f73b6a7A"," "," ","1","0","[1219]","1","0","4","","","","","","","",""
"pit-trial","84","659576","0.0-2.0-17.0-3.0","battery-v0.2","","""event"",""trial"",""time""
""fullscreenenter"",""1"",""5233""
","
","
","""event"",""trial"",""time""
""fullscreenenter"",""1"",""5233""
","
","","","384","","","24","10103","4751","&#9789;","elianto","#f73b6a7A"," "," ","1","-10","[1235.1000000238419]","1","0","4","","","","","","","",""
"pit-trial","85","662772","0.0-2.0-17.0-4.0","battery-v0.2","","""event"",""trial"",""time""
""fullscreenenter"",""1"",""5233""
","
","
","""event"",""trial"",""time""
""fullscreenenter"",""1"",""5233""
","
","","","333","","","24","10103","4751","&#9789;","elianto","#f73b6a7A"," "," ","1","0","[1185.2000000476837]","1","0","4","","","","","","","",""
"pit-trial","86","666056","0.0-2.0-17.1-0.1","battery-v0.2","","""event"",""trial"",""time""
""fullscreenenter"",""1"",""5233""
","
","
","""event"",""trial"",""time""
""fullscreenenter"",""1"",""5233""
","
","","","416.5","","","24","10103","4751","&#9789;","elianto","#f73b6a7A"," "," ","1","0","[1270.0999999046326]","1","0","4","","","","","","","",""
"pit-trial","87","669263","0.0-2.0-17.1-1.1","battery-v0.2","","""event"",""trial"",""time""
""fullscreenenter"",""1"",""5233""
","
","
","""event"",""trial"",""time""
""fullscreenenter"",""1"",""5233""
","
","","","348.6999999284744","","","24","10103","4751","&#9789;","elianto","#f73b6a7A"," "," ","1","0","[1201.8999999761581]","1","0","4","","","","","","","",""
"pit-trial","88","672479","0.0-2.0-17.1-2.1","battery-v0.2","","""event"",""trial"",""time""
""fullscreenenter"",""1"",""5233""
","
","
","""event"",""trial"",""time""
""fullscreenenter"",""1"",""5233""
","
","","","362.39999997615814","","","24","10103","4751","&#9789;","elianto","#f73b6a7A"," "," ","1","0","[1213.1000000238419]","1","0","4","","","","","","","",""
"pit-trial","89","675869","0.0-2.0-17.1-3.1","battery-v0.2","","""event"",""trial"",""time""
""fullscreenenter"",""1"",""5233""
","
","
","""event"",""trial"",""time""
""fullscreenenter"",""1"",""5233""
","
","","","531.5999999046326","","","24","10103","4751","&#9789;","elianto","#f73b6a7A"," "," ","1","-10","[1388]","1","0","4","","","","","","","",""
"pit-trial","90","679066","0.0-2.0-17.1-4.1","battery-v0.2","","""event"",""trial"",""time""
""fullscreenenter"",""1"",""5233""
","
","
","""event"",""trial"",""time""
""fullscreenenter"",""1"",""5233""
","
","","","343.39999997615814","","","24","10103","4751","&#9789;","elianto","#f73b6a7A"," "," ","1","0","[1194.1000000238419]","1","0","4","","","","","","","",""
"pit-trial","91","682134","0.0-2.0-17.2-0.2","battery-v0.2","","""event"",""trial"",""time""
""fullscreenenter"",""1"",""5233""
","
","
","""event"",""trial"",""time""
""fullscreenenter"",""1"",""5233""
","
","","","214.10000002384186","","","24","10103","4751","&#9789;","elianto","#f73b6a7A"," "," ","1","0","[1064.2000000476837]","1","0","4","","","","","","","",""
"pit-trial","92","685260","0.0-2.0-17.2-1.2","battery-v0.2","","""event"",""trial"",""time""
""fullscreenenter"",""1"",""5233""
","
","
","""event"",""trial"",""time""
""fullscreenenter"",""1"",""5233""
","
","","","273.7000000476837","","","24","10103","4751","&#9789;","elianto","#f73b6a7A"," "," ","1","0","[1124.1000000238419]","1","0","4","","","","","","","",""
"pit-trial","93","688383","0.0-2.0-17.2-2.2","battery-v0.2","","""event"",""trial"",""time""
""fullscreenenter"",""1"",""5233""
","
","
","""event"",""trial"",""time""
""fullscreenenter"",""1"",""5233""
","
","","","269.2999999523163","","","24","10103","4751","&#9789;","elianto","#f73b6a7A"," "," ","1","0","[1120.5]","1","0","4","","","","","","","",""
"pit-trial","94","691569","0.0-2.0-17.2-3.2","battery-v0.2","","""event"",""trial"",""time""
""fullscreenenter"",""1"",""5233""
","
","
","""event"",""trial"",""time""
""fullscreenenter"",""1"",""5233""
","
","","","332.39999997615814","","","24","10103","4751","&#9789;","elianto","#f73b6a7A"," "," ","1","-10","[1183.6999999284744]","1","0","4","","","","","","","",""
"pit-trial","95","694851","0.0-2.0-17.2-4.2","battery-v0.2","","""event"",""trial"",""time""
""fullscreenenter"",""1"",""5233""
","
","
","""event"",""trial"",""time""
""fullscreenenter"",""1"",""5233""
","
","","","428.2000000476837","","","24","10103","4751","&#9789;","elianto","#f73b6a7A"," "," ","1","0","[1279.2000000476837]","1","0","4","","","","","","","",""
"pit-trial","96","698034","0.0-2.0-17.3-0.3","battery-v0.2","","""event"",""trial"",""time""
""fullscreenenter"",""1"",""5233""
","
","
","""event"",""trial"",""time""
""fullscreenenter"",""1"",""5233""
","
","","","329.89999997615814","","","24","10103","4751","&#9789;","elianto","#f73b6a7A"," "," ","1","0","[1180.1999999284744]","1","0","4","","","","","","","",""
"pit-trial","97","701192","0.0-2.0-17.3-1.3","battery-v0.2","","""event"",""trial"",""time""
""fullscreenenter"",""1"",""5233""
","
","
","""event"",""trial"",""time""
""fullscreenenter"",""1"",""5233""
","
","","","305","","","24","10103","4751","&#9789;","elianto","#f73b6a7A"," "," ","1","0","[1155.7000000476837]","1","0","4","","","","","","","",""
"pit-trial","98","704329","0.0-2.0-17.3-2.3","battery-v0.2","","""event"",""trial"",""time""
""fullscreenenter"",""1"",""5233""
","
","
","""event"",""trial"",""time""
""fullscreenenter"",""1"",""5233""
","
","","","282.89999997615814","","","24","10103","4751","&#9789;","elianto","#f73b6a7A"," "," ","1","0","[1134.1000000238419]","1","0","4","","","","","","","",""
"pit-trial","99","707449","0.0-2.0-17.3-3.3","battery-v0.2","","""event"",""trial"",""time""
""fullscreenenter"",""1"",""5233""
","
","
","""event"",""trial"",""time""
""fullscreenenter"",""1"",""5233""
","
","","","267.60000002384186","","","24","10103","4751","&#9789;","elianto","#f73b6a7A"," "," ","1","-10","[1117.8999999761581]","1","0","4","","","","","","","",""
"pit-trial","100","710699","0.0-2.0-17.3-4.3","battery-v0.2","","""event"",""trial"",""time""
""fullscreenenter"",""1"",""5233""
","
","
","""event"",""trial"",""time""
""fullscreenenter"",""1"",""5233""
","
","","","398.10000002384186","","","24","10103","4751","&#9789;","elianto","#f73b6a7A"," "," ","1","0","[1248.6000000238419]","1","0","4","","","","","","","",""
"call-function","101","710701","0.0-2.0-18.0","battery-v0.2","","""event"",""trial"",""time""
""fullscreenenter"",""1"",""5233""
","
","
","""event"",""trial"",""time""
""fullscreenenter"",""1"",""5233""
","
","","","","","","","","","","","","","","","","","","","","","","","","","","",""
"pit-instructions","102","768883","0.0-2.0-19.0","battery-v0.2","","""event"",""trial"",""time""
""fullscreenenter"",""1"",""5233""
","
","
","""event"",""trial"",""time""
""fullscreenenter"",""1"",""5233""
","
","","[{""page_index"":0,""viewing_time"":7133.5},{""page_index"":1,""viewing_time"":7945.100000023842},{""page_index"":2,""viewing_time"":9055.700000047684},{""page_index"":3,""viewing_time"":4061.600000023842},{""page_index"":4,""viewing_time"":6075.599999904633},{""page_index"":5,""viewing_time"":9637.900000095367},{""page_index"":6,""viewing_time"":4918.299999952316},{""page_index"":7,""viewing_time"":5653.899999976158},{""page_index"":8,""viewing_time"":3698.399999976158}]","58180.700000047684","","","","","","","","","","","","","","","","","","","","","","","",""
"pit-comprehension","103","774044","0.0-2.0-20.0-0.0","battery-v0.2","","""event"",""trial"",""time""
""fullscreenenter"",""1"",""5233""
","
","
","""event"",""trial"",""time""
""fullscreenenter"",""1"",""5233""
","
","","","5155.399999976158","[""SPACE""]","0","24","10103","4751","","","","","","","","","","","","","","","","","","",""
"pit-instructions","104","777838","0.0-2.0-20.0-1.0","battery-v0.2","","""event"",""trial"",""time""
""fullscreenenter"",""1"",""5233""
","
","
","""event"",""trial"",""time""
""fullscreenenter"",""1"",""5233""
","
","","[{""page_index"":0,""viewing_time"":3735.6999999284744}]","3736.399999976158","","","","","","","","","","","","","","","","","","","","","","","",""
"pit-comprehension","105","783411","0.0-2.0-21.0-0.0","battery-v0.2","","""event"",""trial"",""time""
""fullscreenenter"",""1"",""5233""
","
","
","""event"",""trial"",""time""
""fullscreenenter"",""1"",""5233""
","
","","","5568.899999976158","[""10""]","0","24","10103","4751","","","","","","","","","","","","","","","","","","",""
"pit-instructions","106","785675","0.0-2.0-21.0-1.0","battery-v0.2","","""event"",""trial"",""time""
""fullscreenenter"",""1"",""5233""
","
","
","""event"",""trial"",""time""
""fullscreenenter"",""1"",""5233""
","
","","[{""page_index"":0,""viewing_time"":2228.100000023842}]","2228.7000000476837","","","","","","","","","","","","","","","","","","","","","","","",""
"pit-comprehension","107","792277","0.0-2.0-22.0-0.0","battery-v0.2","","""event"",""trial"",""time""
""fullscreenenter"",""1"",""5233""
","
","
","""event"",""trial"",""time""
""fullscreenenter"",""1"",""5233""
","
","","","6597.899999976158","[""0""]","0","24","10103","4751","","","","","","","","","","","","","","","","","","",""
"pit-instructions","108","799109","0.0-2.0-22.0-1.0","battery-v0.2","","""event"",""trial"",""time""
""fullscreenenter"",""1"",""5233""
","
","
","""event"",""trial"",""time""
""fullscreenenter"",""1"",""5233""
","
","","[{""page_index"":0,""viewing_time"":6793.800000071526}]","6794.300000071526","","","","","","","","","","","","","","","","","","","","","","","",""
"pit-comprehension","109","807636","0.0-2.0-23.0-0.0","battery-v0.2","","""event"",""trial"",""time""
""fullscreenenter"",""1"",""5233""
","
","
","""event"",""trial"",""time""
""fullscreenenter"",""1"",""5233""
","
","","","8524.100000023842","[""True""]","0","24","10103","4751","","","","","","","","","","","","","","","","","","",""
"pit-instructions","110","813090","0.0-2.0-23.0-1.0","battery-v0.2","","""event"",""trial"",""time""
""fullscreenenter"",""1"",""5233""
","
","
","""event"",""trial"",""time""
""fullscreenenter"",""1"",""5233""
","
","","[{""page_index"":0,""viewing_time"":5416}]","5416.599999904633","","","","","","","","","","","","","","","","","","","","","","","",""
"pit-comprehension","111","820437","0.0-2.0-24.0-0.0","battery-v0.2","","""event"",""trial"",""time""
""fullscreenenter"",""1"",""5233""
","
","
","""event"",""trial"",""time""
""fullscreenenter"",""1"",""5233""
","
","","","7342.200000047684","[""True""]","0","24","10103","4751","","","","","","","","","","","","","","","","","","",""
"pit-instructions","112","822774","0.0-2.0-24.0-1.0","battery-v0.2","","""event"",""trial"",""time""
""fullscreenenter"",""1"",""5233""
","
","
","""event"",""trial"",""time""
""fullscreenenter"",""1"",""5233""
","
","","[{""page_index"":0,""viewing_time"":2300}]","2300.5","","","","","","","","","","","","","","","","","","","","","","","",""
"pit-comprehension","113","829377","0.0-2.0-25.0-0.0","battery-v0.2","","""event"",""trial"",""time""
""fullscreenenter"",""1"",""5233""
","
","
","""event"",""trial"",""time""
""fullscreenenter"",""1"",""5233""
","
","","","6598.799999952316","[""True""]","0","24","10103","4751","","","","","","","","","","","","","","","","","","",""
"pit-instructions","114","832105","0.0-2.0-25.0-1.0","battery-v0.2","","""event"",""trial"",""time""
""fullscreenenter"",""1"",""5233""
","
","
","""event"",""trial"",""time""
""fullscreenenter"",""1"",""5233""
","
","","[{""page_index"":0,""viewing_time"":2688.3000000715256}]","2689","","","","","","","","","","","","","","","","","","","","","","","",""
"pit-comprehension","115","836710","0.0-2.0-26.0-0.0","battery-v0.2","","""event"",""trial"",""time""
""fullscreenenter"",""1"",""5233""
","
","
","""event"",""trial"",""time""
""fullscreenenter"",""1"",""5233""
","
","","","4600.600000023842","[""False""]","0","24","10103","4751","","","","","","","","","","","","","","","","","","",""
"pit-instructions","116","840975","0.0-2.0-26.0-1.0","battery-v0.2","","""event"",""trial"",""time""
""fullscreenenter"",""1"",""5233""
","
","
","""event"",""trial"",""time""
""fullscreenenter"",""1"",""5233""
","
","","[{""page_index"":0,""viewing_time"":4239.600000023842}]","4240.200000047684","","","","","","","","","","","","","","","","","","","","","","","",""
"pit-instructions","117","857071","0.0-3.0","battery-v0.2","","""event"",""trial"",""time""
""fullscreenenter"",""1"",""5233""
","
","
","""event"",""trial"",""time""
""fullscreenenter"",""1"",""5233""
","
","","[{""page_index"":0,""viewing_time"":3666.7000000476837},{""page_index"":1,""viewing_time"":5268.200000047684},{""page_index"":2,""viewing_time"":7157.5}]","16093.100000023842","","","","","","","","","","","","","","","","","","","","","","","",""
"pit-trial","118","860868","0.0-4.0","battery-v0.2","","""event"",""trial"",""time""
""fullscreenenter"",""1"",""5233""
","
","
","""event"",""trial"",""time""
""fullscreenenter"",""1"",""5233""
","
","","","930.8999999761581","","","24","10103","4751","&#9730;","elianto","#3366ff99"," "," ","1","+10","[1786.2999999523163]","1","1","","","10103","1","1","1","win","go","0"
"pit-trial","119","865735","0.0-5.0","battery-v0.2","","""event"",""trial"",""time""
""fullscreenenter"",""1"",""5233""
","
","
","""event"",""trial"",""time""
""fullscreenenter"",""1"",""5233""
","
","","","-1","","","24","10103","4751","&#9728;","elianto","#f73b6a7A","-1","-1","1","0","[]","0","1","","","10103","2","0","4","lose","no-go","0"
"pit-trial","120","869446","0.0-6.0","battery-v0.2","","""event"",""trial"",""time""
""fullscreenenter"",""1"",""5233""
","
","
","""event"",""trial"",""time""
""fullscreenenter"",""1"",""5233""
","
","","","841.7000000476837","","","24","10103","4751","&#9733;","elianto","#3366ff99","-1"," ","0","0","[1695.6000000238419]","1","1","","","10103","3","2","2","win","no-go","0"
"pit-trial","121","874302","0.0-7.0","battery-v0.2","","""event"",""trial"",""time""
""fullscreenenter"",""1"",""5233""
","
","
","""event"",""trial"",""time""
""fullscreenenter"",""1"",""5233""
","
","","","-1","","","24","10103","4751","&#9752;","elianto","#f73b6a7A"," ","-1","0","0","[]","0","1","","","10103","4","3","3","lose","go","1"
"pit-trial","122","879168","0.0-8.0","battery-v0.2","","""event"",""trial"",""time""
""fullscreenenter"",""1"",""5233""
","
","
","""event"",""trial"",""time""
""fullscreenenter"",""1"",""5233""
","
","","","-1","","","24","10103","4751","&#9728;","elianto","#f73b6a7A","-1","-1","1","0","[]","0","1","","","10103","5","0","4","lose","no-go","0"
"pit-trial","123","882864","0.0-9.0","battery-v0.2","","""event"",""trial"",""time""
""fullscreenenter"",""1"",""5233""
","
","
","""event"",""trial"",""time""
""fullscreenenter"",""1"",""5233""
","
","","","828.5","","","24","10103","4751","&#9733;","elianto","#3366ff99","-1"," ","0","0","[1685.7000000476837]","1","1","","","10103","6","2","2","win","no-go","0"
"pit-trial","124","887725","0.0-10.0","battery-v0.2","","""event"",""trial"",""time""
""fullscreenenter"",""1"",""5233""
","
","
","""event"",""trial"",""time""
""fullscreenenter"",""1"",""5233""
","
","","","-1","","","24","10103","4751","&#9752;","elianto","#f73b6a7A"," ","-1","0","-10","[]","0","1","","","10103","7","3","3","lose","go","0"
"pit-trial","125","891448","0.0-11.0","battery-v0.2","","""event"",""trial"",""time""
""fullscreenenter"",""1"",""5233""
","
","
","""event"",""trial"",""time""
""fullscreenenter"",""1"",""5233""
","
","","","869.8000000715256","","","24","10103","4751","&#9730;","elianto","#3366ff99"," "," ","1","+10","[1720.1000000238419]","1","1","","","10103","8","1","1","win","go","0"
"pit-trial","126","896301","0.0-12.0","battery-v0.2","","""event"",""trial"",""time""
""fullscreenenter"",""1"",""5233""
","
","
","""event"",""trial"",""time""
""fullscreenenter"",""1"",""5233""
","
","","","-1","","","24","10103","4751","&#9752;","elianto","#f73b6a7A"," ","-1","0","0","[]","0","1","","","10103","9","3","3","lose","go","1"
"pit-trial","127","900304","0.0-13.0","battery-v0.2","","""event"",""trial"",""time""
""fullscreenenter"",""1"",""5233""
","
","
","""event"",""trial"",""time""
""fullscreenenter"",""1"",""5233""
","
","","","1149.9000000953674","","","24","10103","4751","&#9728;","elianto","#f73b6a7A","-1"," ","0","-10","[2000.3000000715256]","1","1","","","10103","10","0","4","lose","no-go","0"
"pit-trial","128","905157","0.0-14.0","battery-v0.2","","""event"",""trial"",""time""
""fullscreenenter"",""1"",""5233""
","
","
","""event"",""trial"",""time""
""fullscreenenter"",""1"",""5233""
","
","","","-1","","","24","10103","4751","&#9730;","elianto","#3366ff99"," ","-1","0","+10","[]","0","1","","","10103","11","1","1","win","go","1"
"pit-trial","129","908789","0.0-15.0","battery-v0.2","","""event"",""trial"",""time""
""fullscreenenter"",""1"",""5233""
","
","
","""event"",""trial"",""time""
""fullscreenenter"",""1"",""5233""
","
","","","778","","","24","10103","4751","&#9733;","elianto","#3366ff99","-1"," ","0","0","[1628.7000000476837]","1","1","","","10103","12","2","2","win","no-go","0"
"pit-trial","130","913642","0.0-16.0","battery-v0.2","","""event"",""trial"",""time""
""fullscreenenter"",""1"",""5233""
","
","
","""event"",""trial"",""time""
""fullscreenenter"",""1"",""5233""
","
","","","-1","","","24","10103","4751","&#9752;","elianto","#f73b6a7A"," ","-1","0","-10","[]","0","1","","","10103","13","3","3","lose","go","0"
"pit-trial","131","917902","0.0-17.0","battery-v0.2","","""event"",""trial"",""time""
""fullscreenenter"",""1"",""5233""
","
","
","""event"",""trial"",""time""
""fullscreenenter"",""1"",""5233""
","
","","","1407","","","24","10103","4751","&#9733;","elianto","#3366ff99","-1"," ","0","0","[2257.399999976158]","1","1","","","10103","14","2","2","win","no-go","0"
"pit-trial","132","921596","0.0-18.0","battery-v0.2","","""event"",""trial"",""time""
""fullscreenenter"",""1"",""5233""
","
","
","""event"",""trial"",""time""
""fullscreenenter"",""1"",""5233""
","
","","","838.7000000476837","","","24","10103","4751","&#9730;","elianto","#3366ff99"," "," ","1","0","[1689.8999999761581]","1","1","","","10103","15","1","1","win","go","1"
"pit-trial","133","926464","0.0-19.0","battery-v0.2","","""event"",""trial"",""time""
""fullscreenenter"",""1"",""5233""
","
","
","""event"",""trial"",""time""
""fullscreenenter"",""1"",""5233""
","
","","","-1","","","24","10103","4751","&#9728;","elianto","#f73b6a7A","-1","-1","1","0","[]","0","1","","","10103","16","0","4","lose","no-go","0"
"pit-trial","134","930331","0.0-20.0","battery-v0.2","","""event"",""trial"",""time""
""fullscreenenter"",""1"",""5233""
","
","
","""event"",""trial"",""time""
""fullscreenenter"",""1"",""5233""
","
","","","1012.7000000476837","","","24","10103","4751","&#9730;","elianto","#3366ff99"," "," ","1","+10","[1864.1999999284744]","1","1","","","10103","17","1","1","win","go","0"
"pit-trial","135","935186","0.0-21.0","battery-v0.2","","""event"",""trial"",""time""
""fullscreenenter"",""1"",""5233""
","
","
","""event"",""trial"",""time""
""fullscreenenter"",""1"",""5233""
","
","","","-1","","","24","10103","4751","&#9733;","elianto","#3366ff99","-1","-1","1","+10","[]","0","1","","","10103","18","2","2","win","no-go","0"
"pit-trial","136","940041","0.0-22.0","battery-v0.2","","""event"",""trial"",""time""
""fullscreenenter"",""1"",""5233""
","
","
","""event"",""trial"",""time""
""fullscreenenter"",""1"",""5233""
","
","","","-1","","","24","10103","4751","&#9752;","elianto","#f73b6a7A"," ","-1","0","-10","[]","0","1","","","10103","19","3","3","lose","go","0"
"pit-trial","137","944895","0.0-23.0","battery-v0.2","","""event"",""trial"",""time""
""fullscreenenter"",""1"",""5233""
","
","
","""event"",""trial"",""time""
""fullscreenenter"",""1"",""5233""
","
","","","-1","","","24","10103","4751","&#9728;","elianto","#f73b6a7A","-1","-1","1","0","[]","0","1","","","10103","20","0","4","lose","no-go","0"
"pit-instructions","138","957602","0.0-24.0","battery-v0.2","","""event"",""trial"",""time""
""fullscreenenter"",""1"",""5233""
","
","
","""event"",""trial"",""time""
""fullscreenenter"",""1"",""5233""
","
","","[{""page_index"":0,""viewing_time"":5732.5},{""page_index"":1,""viewing_time"":6971.799999952316}]","12704.799999952316","","","","","","","","","","","","","","","","","","","","","","","",""
"pit-trial","139","962486","0.0-25.0","battery-v0.2","","""event"",""trial"",""time""
""fullscreenenter"",""1"",""5233""
","
","
","""event"",""trial"",""time""
""fullscreenenter"",""1"",""5233""
","
","","","-1","","","24","10103","4751","m","elianto","#f73b6a7A","-1","-1","1","-10","[]","0","2","","","10103","21","0","4","lose","no-go","1"
"pit-trial","140","967352","0.0-26.0","battery-v0.2","","""event"",""trial"",""time""
""fullscreenenter"",""1"",""5233""
","
","
","""event"",""trial"",""time""
""fullscreenenter"",""1"",""5233""
","
","","","-1","","","24","10103","4751","h","elianto","#f73b6a7A"," ","-1","0","-10","[]","0","2","","","10103","22","3","3","lose","go","0"
"pit-trial","141","972209","0.0-27.0","battery-v0.2","","""event"",""trial"",""time""
""fullscreenenter"",""1"",""5233""
","
","
","""event"",""trial"",""time""
""fullscreenenter"",""1"",""5233""
","
","","","-1","","","24","10103","4751","r","elianto","#3366ff99"," ","-1","0","0","[]","0","2","","","10103","23","1","1","win","go","0"
"pit-trial","142","977085","0.0-28.0","battery-v0.2","","""event"",""trial"",""time""
""fullscreenenter"",""1"",""5233""
","
","
","""event"",""trial"",""time""
""fullscreenenter"",""1"",""5233""
","
","","","-1","","","24","10103","4751","y","elianto","#f73b6a7A","-1","-1","1","-10","[]","0","2","","","10103","24","2","4","lose","no-go","1"
"pit-trial","143","980870","0.0-29.0","battery-v0.2","","""event"",""trial"",""time""
""fullscreenenter"",""1"",""5233""
","
","
","""event"",""trial"",""time""
""fullscreenenter"",""1"",""5233""
","
","","","906.3999999761581","","","24","10103","4751","y","elianto","#f73b6a7A","-1"," ","0","-10","[1766.5]","1","2","","","10103","25","2","4","lose","no-go","0"
"pit-trial","144","985750","0.0-30.0","battery-v0.2","","""event"",""trial"",""time""
""fullscreenenter"",""1"",""5233""
","
","
","""event"",""trial"",""time""
""fullscreenenter"",""1"",""5233""
","
","","","-1","","","24","10103","4751","r","elianto","#3366ff99"," ","-1","0","0","[]","0","2","","","10103","26","1","1","win","go","0"
"pit-trial","145","989833","0.0-31.0","battery-v0.2","","""event"",""trial"",""time""
""fullscreenenter"",""1"",""5233""
","
","
","""event"",""trial"",""time""
""fullscreenenter"",""1"",""5233""
","
","","","1224.7000000476837","","","24","10103","4751","h","elianto","#f73b6a7A"," "," ","1","-10","[2079.399999976158]","1","2","","","10103","27","3","3","lose","go","1"
"pit-trial","146","993592","0.0-32.0","battery-v0.2","","""event"",""trial"",""time""
""fullscreenenter"",""1"",""5233""
","
","
","""event"",""trial"",""time""
""fullscreenenter"",""1"",""5233""
","
","","","906.1999999284744","","","24","10103","4751","m","elianto","#f73b6a7A","-1"," ","0","0","[1756.7999999523163]","1","2","","","10103","28","0","4","lose","no-go","1"
"pit-trial","147","997403","0.0-33.0","battery-v0.2","","""event"",""trial"",""time""
""fullscreenenter"",""1"",""5233""
","
","
","""event"",""trial"",""time""
""fullscreenenter"",""1"",""5233""
","
","","","956.8999999761581","","","24","10103","4751","r","elianto","#3366ff99"," "," ","1","+10","[1808.5999999046326]","1","2","","","10103","29","1","1","win","go","0"
"pit-trial","148","1002263","0.0-34.0","battery-v0.2","","""event"",""trial"",""time""
""fullscreenenter"",""1"",""5233""
","
","
","""event"",""trial"",""time""
""fullscreenenter"",""1"",""5233""
","
","","","-1","","","24","10103","4751","h","elianto","#f73b6a7A"," ","-1","0","-10","[]","0","2","","","10103","30","3","3","lose","go","0"
"pit-trial","149","1006085","0.0-35.0","battery-v0.2","","""event"",""trial"",""time""
""fullscreenenter"",""1"",""5233""
","
","
","""event"",""trial"",""time""
""fullscreenenter"",""1"",""5233""
","
","","","966.8999999761581","","","24","10103","4751","m","elianto","#f73b6a7A","-1"," ","0","-10","[1818.7999999523163]","1","2","","","10103","31","0","4","lose","no-go","0"
"pit-trial","150","1010065","0.0-36.0","battery-v0.2","","""event"",""trial"",""time""
""fullscreenenter"",""1"",""5233""
","
","
","""event"",""trial"",""time""
""fullscreenenter"",""1"",""5233""
","
","","","1126.1999999284744","","","24","10103","4751","y","elianto","#f73b6a7A","-1"," ","0","-10","[1977.3000000715256]","1","2","","","10103","32","2","4","lose","no-go","0"
"pit-trial","151","1014033","0.0-37.0","battery-v0.2","","""event"",""trial"",""time""
""fullscreenenter"",""1"",""5233""
","
","
","""event"",""trial"",""time""
""fullscreenenter"",""1"",""5233""
","
","","","1114.5","","","24","10103","4751","h","elianto","#f73b6a7A"," "," ","1","0","[1964.6999999284744]","1","2","","","10103","33","3","3","lose","go","0"
"pit-trial","152","1017834","0.0-38.0","battery-v0.2","","""event"",""trial"",""time""
""fullscreenenter"",""1"",""5233""
","
","
","""event"",""trial"",""time""
""fullscreenenter"",""1"",""5233""
","
","","","948.5","","","24","10103","4751","m","elianto","#f73b6a7A","-1"," ","0","0","[1798.8999999761581]","1","2","","","10103","34","0","4","lose","no-go","1"
"pit-trial","153","1021451","0.0-39.0","battery-v0.2","","""event"",""trial"",""time""
""fullscreenenter"",""1"",""5233""
","
","
","""event"",""trial"",""time""
""fullscreenenter"",""1"",""5233""
","
","","","763.6999999284744","","","24","10103","4751","r","elianto","#3366ff99"," "," ","1","+10","[1614.1000000238419]","1","2","","","10103","35","1","1","win","go","0"
"pit-trial","154","1026305","0.0-40.0","battery-v0.2","","""event"",""trial"",""time""
""fullscreenenter"",""1"",""5233""
","
","
","""event"",""trial"",""time""
""fullscreenenter"",""1"",""5233""
","
","","","-1","","","24","10103","4751","y","elianto","#f73b6a7A","-1","-1","1","-10","[]","0","2","","","10103","36","2","4","lose","no-go","1"
"pit-trial","155","1030109","0.0-41.0","battery-v0.2","","""event"",""trial"",""time""
""fullscreenenter"",""1"",""5233""
","
","
","""event"",""trial"",""time""
""fullscreenenter"",""1"",""5233""
","
","","","950","","","24","10103","4751","r","elianto","#3366ff99"," "," ","1","0","[1801]","1","2","","","10103","37","1","1","win","go","1"
"pit-trial","156","1034963","0.0-42.0","battery-v0.2","","""event"",""trial"",""time""
""fullscreenenter"",""1"",""5233""
","
","
","""event"",""trial"",""time""
""fullscreenenter"",""1"",""5233""
","
","","","-1","","","24","10103","4751","h","elianto","#f73b6a7A"," ","-1","0","-10","[]","0","2","","","10103","38","3","3","lose","go","0"
"pit-trial","157","1038744","0.0-43.0","battery-v0.2","","""event"",""trial"",""time""
""fullscreenenter"",""1"",""5233""
","
","
","""event"",""trial"",""time""
""fullscreenenter"",""1"",""5233""
","
","","","928.5","","","24","10103","4751","m","elianto","#f73b6a7A","-1"," ","0","-10","[1778.5]","1","2","","","10103","39","0","4","lose","no-go","0"
"pit-trial","158","1042334","0.0-44.0","battery-v0.2","","""event"",""trial"",""time""
""fullscreenenter"",""1"",""5233""
","
","
","""event"",""trial"",""time""
""fullscreenenter"",""1"",""5233""
","
","","","734.8000000715256","","","24","10103","4751","y","elianto","#f73b6a7A","-1"," ","0","0","[1585.8000000715256]","1","2","","","10103","40","2","4","lose","no-go","1"
"pit-trial","159","1046042","0.0-45.0","battery-v0.2","","""event"",""trial"",""time""
""fullscreenenter"",""1"",""5233""
","
","
","""event"",""trial"",""time""
""fullscreenenter"",""1"",""5233""
","
","","","854.4000000953674","","","24","10103","4751","m","elianto","#f73b6a7A","-1"," ","0","-10","[1704.8000000715256]","1","2","","","10103","41","0","4","lose","no-go","0"
"pit-trial","160","1049661","0.0-46.0","battery-v0.2","","""event"",""trial"",""time""
""fullscreenenter"",""1"",""5233""
","
","
","""event"",""trial"",""time""
""fullscreenenter"",""1"",""5233""
","
","","","765.8999999761581","","","24","10103","4751","h","elianto","#f73b6a7A"," "," ","1","0","[1616.1999999284744]","1","2","","","10103","42","3","3","lose","go","0"
"pit-trial","161","1053468","0.0-47.0","battery-v0.2","","""event"",""trial"",""time""
""fullscreenenter"",""1"",""5233""
","
","
","""event"",""trial"",""time""
""fullscreenenter"",""1"",""5233""
","
","","","953.2999999523163","","","24","10103","4751","r","elianto","#3366ff99"," "," ","1","+10","[1804]","1","2","","","10103","43","1","1","win","go","0"
"pit-trial","162","1058322","0.0-48.0","battery-v0.2","","""event"",""trial"",""time""
""fullscreenenter"",""1"",""5233""
","
","
","""event"",""trial"",""time""
""fullscreenenter"",""1"",""5233""
","
","","","-1","","","24","10103","4751","y","elianto","#f73b6a7A","-1","-1","1","0","[]","0","2","","","10103","44","2","4","lose","no-go","0"
"pit-trial","163","1063175","0.0-49.0","battery-v0.2","","""event"",""trial"",""time""
""fullscreenenter"",""1"",""5233""
","
","
","""event"",""trial"",""time""
""fullscreenenter"",""1"",""5233""
","
","","","-1","","","24","10103","4751","y","elianto","#f73b6a7A","-1","-1","1","0","[]","0","2","","","10103","45","2","4","lose","no-go","0"
"pit-trial","164","1067071","0.0-50.0","battery-v0.2","","""event"",""trial"",""time""
""fullscreenenter"",""1"",""5233""
","
","
","""event"",""trial"",""time""
""fullscreenenter"",""1"",""5233""
","
","","","1041.6000000238419","","","24","10103","4751","z","elianto","#3366ff99","-1"," ","0","+10","[1893.2000000476837]","1","2","","","10103","46","4","2","win","no-go","1"
"pit-trial","165","1071925","0.0-51.0","battery-v0.2","","""event"",""trial"",""time""
""fullscreenenter"",""1"",""5233""
","
","
","""event"",""trial"",""time""
""fullscreenenter"",""1"",""5233""
","
","","","-1","","","24","10103","4751","h","elianto","#f73b6a7A"," ","-1","0","-10","[]","0","2","","","10103","47","3","3","lose","go","0"
"pit-trial","166","1075847","0.0-52.0","battery-v0.2","","""event"",""trial"",""time""
""fullscreenenter"",""1"",""5233""
","
","
","""event"",""trial"",""time""
""fullscreenenter"",""1"",""5233""
","
","","","1069.6999999284744","","","24","10103","4751","m","elianto","#f73b6a7A","-1"," ","0","-10","[1919.7000000476837]","1","2","","","10103","48","0","4","lose","no-go","0"
"pit-trial","167","1079818","0.0-53.0","battery-v0.2","","""event"",""trial"",""time""
""fullscreenenter"",""1"",""5233""
","
","
","""event"",""trial"",""time""
""fullscreenenter"",""1"",""5233""
","
","","","1115.6000000238419","","","24","10103","4751","r","elianto","#3366ff99"," "," ","1","+10","[1967.7999999523163]","1","2","","","10103","49","1","1","win","go","0"
"pit-trial","168","1083632","0.0-54.0","battery-v0.2","","""event"",""trial"",""time""
""fullscreenenter"",""1"",""5233""
","
","
","""event"",""trial"",""time""
""fullscreenenter"",""1"",""5233""
","
","","","960.9000000953674","","","24","10103","4751","z","elianto","#3366ff99","-1"," ","0","0","[1811.7000000476837]","1","2","","","10103","50","4","2","win","no-go","0"
"pit-trial","169","1088485","0.0-55.0","battery-v0.2","","""event"",""trial"",""time""
""fullscreenenter"",""1"",""5233""
","
","
","""event"",""trial"",""time""
""fullscreenenter"",""1"",""5233""
","
","","","-1","","","24","10103","4751","m","elianto","#f73b6a7A","-1","-1","1","-10","[]","0","2","","","10103","51","0","4","lose","no-go","1"
"pit-trial","170","1092514","0.0-56.0","battery-v0.2","","""event"",""trial"",""time""
""fullscreenenter"",""1"",""5233""
","
","
","""event"",""trial"",""time""
""fullscreenenter"",""1"",""5233""
","
","","","1175.6000000238419","","","24","10103","4751","h","elianto","#f73b6a7A"," "," ","1","0","[2026.1000000238419]","1","2","","","10103","52","3","3","lose","go","0"
"pit-trial","171","1096209","0.0-57.0","battery-v0.2","","""event"",""trial"",""time""
""fullscreenenter"",""1"",""5233""
","
","
","""event"",""trial"",""time""
""fullscreenenter"",""1"",""5233""
","
","","","840.0999999046326","","","24","10103","4751","r","elianto","#3366ff99"," "," ","1","+10","[1690.7999999523163]","1","2","","","10103","53","1","1","win","go","0"
"pit-trial","172","1099955","0.0-58.0","battery-v0.2","","""event"",""trial"",""time""
""fullscreenenter"",""1"",""5233""
","
","
","""event"",""trial"",""time""
""fullscreenenter"",""1"",""5233""
","
","","","892.6000000238419","","","24","10103","4751","m","elianto","#f73b6a7A","-1"," ","0","-10","[1743.1000000238419]","1","2","","","10103","54","0","4","lose","no-go","0"
"pit-trial","173","1103866","0.0-59.0","battery-v0.2","","""event"",""trial"",""time""
""fullscreenenter"",""1"",""5233""
","
","
","""event"",""trial"",""time""
""fullscreenenter"",""1"",""5233""
","
","","","1057.5","","","24","10103","4751","y","elianto","#f73b6a7A","-1"," ","0","-10","[1908.3999999761581]","1","2","","","10103","55","2","4","lose","no-go","0"
"pit-trial","174","1107364","0.0-60.0","battery-v0.2","","""event"",""trial"",""time""
""fullscreenenter"",""1"",""5233""
","
","
","""event"",""trial"",""time""
""fullscreenenter"",""1"",""5233""
","
","","","640.1000000238419","","","24","10103","4751","z","elianto","#3366ff99","-1"," ","0","+10","[1495.2000000476837]","1","2","","","10103","56","4","2","win","no-go","1"
"pit-trial","175","1110891","0.0-61.0","battery-v0.2","","""event"",""trial"",""time""
""fullscreenenter"",""1"",""5233""
","
","
","""event"",""trial"",""time""
""fullscreenenter"",""1"",""5233""
","
","","","671.3999999761581","","","24","10103","4751","z","elianto","#3366ff99","-1"," ","0","0","[1523.1000000238419]","1","2","","","10103","57","4","2","win","no-go","0"
"pit-trial","176","1114757","0.0-62.0","battery-v0.2","","""event"",""trial"",""time""
""fullscreenenter"",""1"",""5233""
","
","
","""event"",""trial"",""time""
""fullscreenenter"",""1"",""5233""
","
","","","1012.3999999761581","","","24","10103","4751","h","elianto","#f73b6a7A"," "," ","1","0","[1863]","1","2","","","10103","58","3","3","lose","go","0"
"pit-trial","177","1118644","0.0-63.0","battery-v0.2","","""event"",""trial"",""time""
""fullscreenenter"",""1"",""5233""
","
","
","""event"",""trial"",""time""
""fullscreenenter"",""1"",""5233""
","
","","","1033.8999999761581","","","24","10103","4751","m","elianto","#f73b6a7A","-1"," ","0","-10","[1884.8999999761581]","1","2","","","10103","59","0","4","lose","no-go","0"
"pit-trial","178","1122483","0.0-64.0","battery-v0.2","","""event"",""trial"",""time""
""fullscreenenter"",""1"",""5233""
","
","
","""event"",""trial"",""time""
""fullscreenenter"",""1"",""5233""
","
","","","985.2000000476837","","","24","10103","4751","r","elianto","#3366ff99"," "," ","1","+10","[1836.1000000238419]","1","2","","","10103","60","1","1","win","go","0"
"pit-trial","179","1126155","0.0-65.0","battery-v0.2","","""event"",""trial"",""time""
""fullscreenenter"",""1"",""5233""
","
","
","""event"",""trial"",""time""
""fullscreenenter"",""1"",""5233""
","
","","","819.1999999284744","","","24","10103","4751","z","elianto","#3366ff99","-1"," ","0","0","[1669.2999999523163]","1","2","","","10103","61","4","2","win","no-go","0"
"pit-trial","180","1131008","0.0-66.0","battery-v0.2","","""event"",""trial"",""time""
""fullscreenenter"",""1"",""5233""
","
","
","""event"",""trial"",""time""
""fullscreenenter"",""1"",""5233""
","
","","","-1","","","24","10103","4751","y","elianto","#f73b6a7A","-1","-1","1","0","[]","0","2","","","10103","62","2","4","lose","no-go","0"
"pit-trial","181","1134553","0.0-67.0","battery-v0.2","","""event"",""trial"",""time""
""fullscreenenter"",""1"",""5233""
","
","
","""event"",""trial"",""time""
""fullscreenenter"",""1"",""5233""
","
","","","691.5","","","24","10103","4751","r","elianto","#3366ff99"," "," ","1","+10","[1542.1000000238419]","1","2","","","10103","63","1","1","win","go","0"
"pit-trial","182","1139408","0.0-68.0","battery-v0.2","","""event"",""trial"",""time""
""fullscreenenter"",""1"",""5233""
","
","
","""event"",""trial"",""time""
""fullscreenenter"",""1"",""5233""
","
","","","-1","","","24","10103","4751","h","elianto","#f73b6a7A"," ","-1","0","-10","[]","0","2","","","10103","64","3","3","lose","go","0"
"pit-trial","183","1144262","0.0-69.0","battery-v0.2","","""event"",""trial"",""time""
""fullscreenenter"",""1"",""5233""
","
","
","""event"",""trial"",""time""
""fullscreenenter"",""1"",""5233""
","
","","","-1","","","24","10103","4751","y","elianto","#f73b6a7A","-1","-1","1","0","[]","0","2","","","10103","65","2","4","lose","no-go","0"
"pit-trial","184","1147788","0.0-70.0","battery-v0.2","","""event"",""trial"",""time""
""fullscreenenter"",""1"",""5233""
","
","
","""event"",""trial"",""time""
""fullscreenenter"",""1"",""5233""
","
","","","671.0999999046326","","","24","10103","4751","z","elianto","#3366ff99","-1"," ","0","0","[1522.6000000238419]","1","2","","","10103","66","4","2","win","no-go","0"
"pit-trial","185","1151329","0.0-71.0","battery-v0.2","","""event"",""trial"",""time""
""fullscreenenter"",""1"",""5233""
","
","
","""event"",""trial"",""time""
""fullscreenenter"",""1"",""5233""
","
","","","687","","","24","10103","4751","r","elianto","#3366ff99"," "," ","1","0","[1538.1000000238419]","1","2","","","10103","67","1","1","win","go","1"
"pit-trial","186","1156183","0.0-72.0","battery-v0.2","","""event"",""trial"",""time""
""fullscreenenter"",""1"",""5233""
","
","
","""event"",""trial"",""time""
""fullscreenenter"",""1"",""5233""
","
","","","-1","","","24","10103","4751","h","elianto","#f73b6a7A"," ","-1","0","-10","[]","0","2","","","10103","68","3","3","lose","go","0"
"pit-trial","187","1159617","0.0-73.0","battery-v0.2","","""event"",""trial"",""time""
""fullscreenenter"",""1"",""5233""
","
","
","""event"",""trial"",""time""
""fullscreenenter"",""1"",""5233""
","
","","","580.2000000476837","","","24","10103","4751","z","elianto","#3366ff99","-1"," ","0","0","[1431.1000000238419]","1","2","","","10103","69","4","2","win","no-go","0"
"pit-trial","188","1163242","0.0-74.0","battery-v0.2","","""event"",""trial"",""time""
""fullscreenenter"",""1"",""5233""
","
","
","""event"",""trial"",""time""
""fullscreenenter"",""1"",""5233""
","
","","","771.5999999046326","","","24","10103","4751","c","elianto","#3366ff99"," "," ","1","+10","[1622.2000000476837]","1","2","","","10103","70","5","1","win","go","0"
"pit-trial","189","1166960","0.0-75.0","battery-v0.2","","""event"",""trial"",""time""
""fullscreenenter"",""1"",""5233""
","
","
","""event"",""trial"",""time""
""fullscreenenter"",""1"",""5233""
","
","","","864.7999999523163","","","24","10103","4751","r","elianto","#3366ff99"," "," ","1","+10","[1715.8999999761581]","1","2","","","10103","71","1","1","win","go","0"
"pit-trial","190","1171814","0.0-76.0","battery-v0.2","","""event"",""trial"",""time""
""fullscreenenter"",""1"",""5233""
","
","
","""event"",""trial"",""time""
""fullscreenenter"",""1"",""5233""
","
","","","-1","","","24","10103","4751","h","elianto","#f73b6a7A"," ","-1","0","-10","[]","0","2","","","10103","72","3","3","lose","go","0"
"pit-trial","191","1175347","0.0-77.0","battery-v0.2","","""event"",""trial"",""time""
""fullscreenenter"",""1"",""5233""
","
","
","""event"",""trial"",""time""
""fullscreenenter"",""1"",""5233""
","
","","","679.1000000238419","","","24","10103","4751","r","elianto","#3366ff99"," "," ","1","+10","[1529.6000000238419]","1","2","","","10103","73","1","1","win","go","0"
"pit-trial","192","1178846","0.0-78.0","battery-v0.2","","""event"",""trial"",""time""
""fullscreenenter"",""1"",""5233""
","
","
","""event"",""trial"",""time""
""fullscreenenter"",""1"",""5233""
","
","","","646.8999999761581","","","24","10103","4751","z","elianto","#3366ff99","-1"," ","0","0","[1496.8999999761581]","1","2","","","10103","74","4","2","win","no-go","0"
"pit-trial","193","1182584","0.0-79.0","battery-v0.2","","""event"",""trial"",""time""
""fullscreenenter"",""1"",""5233""
","
","
","""event"",""trial"",""time""
""fullscreenenter"",""1"",""5233""
","
","","","884.1000000238419","","","24","10103","4751","c","elianto","#3366ff99"," "," ","1","0","[1735.1000000238419]","1","2","","","10103","75","5","1","win","go","1"
"pit-trial","194","1187396","0.0-80.0","battery-v0.2","","""event"",""trial"",""time""
""fullscreenenter"",""1"",""5233""
","
","
","""event"",""trial"",""time""
""fullscreenenter"",""1"",""5233""
","
","","","1958.8999999761581","","","24","10103","4751","h","elianto","#f73b6a7A"," "," ","1","0","[2809.5]","1","2","","","10103","76","3","3","lose","go","0"
"pit-trial","195","1191147","0.0-81.0","battery-v0.2","","""event"",""trial"",""time""
""fullscreenenter"",""1"",""5233""
","
","
","""event"",""trial"",""time""
""fullscreenenter"",""1"",""5233""
","
","","","898.3000000715256","","","24","10103","4751","c","elianto","#3366ff99"," "," ","1","+10","[1748.6000000238419]","1","2","","","10103","77","5","1","win","go","0"
"pit-trial","196","1194813","0.0-82.0","battery-v0.2","","""event"",""trial"",""time""
""fullscreenenter"",""1"",""5233""
","
","
","""event"",""trial"",""time""
""fullscreenenter"",""1"",""5233""
","
","","","811.2999999523163","","","24","10103","4751","h","elianto","#f73b6a7A"," "," ","1","-10","[1662.1999999284744]","1","2","","","10103","78","3","3","lose","go","1"
"pit-trial","197","1198355","0.0-83.0","battery-v0.2","","""event"",""trial"",""time""
""fullscreenenter"",""1"",""5233""
","
","
","""event"",""trial"",""time""
""fullscreenenter"",""1"",""5233""
","
","","","688.8000000715256","","","24","10103","4751","z","elianto","#3366ff99","-1"," ","0","0","[1539.7000000476837]","1","2","","","10103","79","4","2","win","no-go","0"
"pit-trial","198","1202400","0.0-84.0","battery-v0.2","","""event"",""trial"",""time""
""fullscreenenter"",""1"",""5233""
","
","
","""event"",""trial"",""time""
""fullscreenenter"",""1"",""5233""
","
","","","1191.2000000476837","","","24","10103","4751","b","elianto","#f73b6a7A","-1"," ","0","-10","[2041.5]","1","2","","","10103","80","6","4","lose","no-go","0"
"pit-trial","199","1207254","0.0-85.0","battery-v0.2","","""event"",""trial"",""time""
""fullscreenenter"",""1"",""5233""
","
","
","""event"",""trial"",""time""
""fullscreenenter"",""1"",""5233""
","
","","","-1","","","24","10103","4751","t","elianto","#f73b6a7A"," ","-1","0","-10","[]","0","2","","","10103","81","7","3","lose","go","0"
"pit-trial","200","1210841","0.0-86.0","battery-v0.2","","""event"",""trial"",""time""
""fullscreenenter"",""1"",""5233""
","
","
","""event"",""trial"",""time""
""fullscreenenter"",""1"",""5233""
","
","","","732.2999999523163","","","24","10103","4751","c","elianto","#3366ff99"," "," ","1","+10","[1583.1999999284744]","1","2","","","10103","82","5","1","win","go","0"
"pit-trial","201","1214701","0.0-87.0","battery-v0.2","","""event"",""trial"",""time""
""fullscreenenter"",""1"",""5233""
","
","
","""event"",""trial"",""time""
""fullscreenenter"",""1"",""5233""
","
","","","1005.8000000715256","","","24","10103","4751","b","elianto","#f73b6a7A","-1"," ","0","-10","[1856.8999999761581]","1","2","","","10103","83","6","4","lose","no-go","0"
"pit-trial","202","1218241","0.0-88.0","battery-v0.2","","""event"",""trial"",""time""
""fullscreenenter"",""1"",""5233""
","
","
","""event"",""trial"",""time""
""fullscreenenter"",""1"",""5233""
","
","","","685.9000000953674","","","24","10103","4751","z","elianto","#3366ff99","-1"," ","0","0","[1536.8000000715256]","1","2","","","10103","84","4","2","win","no-go","0"
"pit-trial","203","1223094","0.0-89.0","battery-v0.2","","""event"",""trial"",""time""
""fullscreenenter"",""1"",""5233""
","
","
","""event"",""trial"",""time""
""fullscreenenter"",""1"",""5233""
","
","","","-1","","","24","10103","4751","b","elianto","#f73b6a7A","-1","-1","1","0","[]","0","2","","","10103","85","6","4","lose","no-go","0"
"pit-trial","204","1227948","0.0-90.0","battery-v0.2","","""event"",""trial"",""time""
""fullscreenenter"",""1"",""5233""
","
","
","""event"",""trial"",""time""
""fullscreenenter"",""1"",""5233""
","
","","","-1","","","24","10103","4751","z","elianto","#3366ff99","-1","-1","1","0","[]","0","2","","","10103","86","4","2","win","no-go","1"
"pit-trial","205","1232802","0.0-91.0","battery-v0.2","","""event"",""trial"",""time""
""fullscreenenter"",""1"",""5233""
","
","
","""event"",""trial"",""time""
""fullscreenenter"",""1"",""5233""
","
","","","-1","","","24","10103","4751","t","elianto","#f73b6a7A"," ","-1","0","-10","[]","0","2","","","10103","87","7","3","lose","go","0"
"pit-trial","206","1236808","0.0-92.0","battery-v0.2","","""event"",""trial"",""time""
""fullscreenenter"",""1"",""5233""
","
","
","""event"",""trial"",""time""
""fullscreenenter"",""1"",""5233""
","
","","","1154.2999999523163","","","24","10103","4751","c","elianto","#3366ff99"," "," ","1","+10","[2004.2999999523163]","1","2","","","10103","88","5","1","win","go","0"
"pit-trial","207","1241032","0.0-93.0","battery-v0.2","","""event"",""trial"",""time""
""fullscreenenter"",""1"",""5233""
","
","
","""event"",""trial"",""time""
""fullscreenenter"",""1"",""5233""
","
","","","1370.1999999284744","","","24","10103","4751","t","elianto","#f73b6a7A"," "," ","1","0","[2220.7000000476837]","1","2","","","10103","89","7","3","lose","go","0"
"pit-trial","208","1245886","0.0-94.0","battery-v0.2","","""event"",""trial"",""time""
""fullscreenenter"",""1"",""5233""
","
","
","""event"",""trial"",""time""
""fullscreenenter"",""1"",""5233""
","
","","","-1","","","24","10103","4751","z","elianto","#3366ff99","-1","-1","1","+10","[]","0","2","","","10103","90","4","2","win","no-go","0"
"pit-trial","209","1249599","0.0-95.0","battery-v0.2","","""event"",""trial"",""time""
""fullscreenenter"",""1"",""5233""
","
","
","""event"",""trial"",""time""
""fullscreenenter"",""1"",""5233""
","
","","","858.6000000238419","","","24","10103","4751","c","elianto","#3366ff99"," "," ","1","+10","[1708.7000000476837]","1","2","","","10103","91","5","1","win","go","0"
"pit-trial","210","1254452","0.0-96.0","battery-v0.2","","""event"",""trial"",""time""
""fullscreenenter"",""1"",""5233""
","
","
","""event"",""trial"",""time""
""fullscreenenter"",""1"",""5233""
","
","","","-1","","","24","10103","4751","b","elianto","#f73b6a7A","-1","-1","1","-10","[]","0","2","","","10103","92","6","4","lose","no-go","1"
"pit-trial","211","1258269","0.0-97.0","battery-v0.2","","""event"",""trial"",""time""
""fullscreenenter"",""1"",""5233""
","
","
","""event"",""trial"",""time""
""fullscreenenter"",""1"",""5233""
","
","","","962.1000000238419","","","24","10103","4751","c","elianto","#3366ff99"," "," ","1","0","[1813.1999999284744]","1","2","","","10103","93","5","1","win","go","1"
"pit-trial","212","1262417","0.0-98.0","battery-v0.2","","""event"",""trial"",""time""
""fullscreenenter"",""1"",""5233""
","
","
","""event"",""trial"",""time""
""fullscreenenter"",""1"",""5233""
","
","","","1293.8999999761581","","","24","10103","4751","t","elianto","#f73b6a7A"," "," ","1","-10","[2144.399999976158]","1","2","","","10103","94","7","3","lose","go","1"
"pit-trial","213","1267271","0.0-99.0","battery-v0.2","","""event"",""trial"",""time""
""fullscreenenter"",""1"",""5233""
","
","
","""event"",""trial"",""time""
""fullscreenenter"",""1"",""5233""
","
","","","-1","","","24","10103","4751","f","elianto","#3366ff99","-1","-1","1","+10","[]","0","2","","","10103","95","8","2","win","no-go","0"
"pit-trial","214","1272124","0.0-100.0","battery-v0.2","","""event"",""trial"",""time""
""fullscreenenter"",""1"",""5233""
","
","
","""event"",""trial"",""time""
""fullscreenenter"",""1"",""5233""
","
","","","-1","","","24","10103","4751","b","elianto","#f73b6a7A","-1","-1","1","-10","[2880.600000023842]","1","2","","","10103","96","6","4","lose","no-go","1"
"pit-trial","215","1276297","0.0-101.0","battery-v0.2","","""event"",""trial"",""time""
""fullscreenenter"",""1"",""5233""
","
","
","""event"",""trial"",""time""
""fullscreenenter"",""1"",""5233""
","
","","","1319.4000000953674","","","24","10103","4751","f","elianto","#3366ff99","-1"," ","0","0","[2170]","1","2","","","10103","97","8","2","win","no-go","0"
"pit-trial","216","1280119","0.0-102.0","battery-v0.2","","""event"",""trial"",""time""
""fullscreenenter"",""1"",""5233""
","
","
","""event"",""trial"",""time""
""fullscreenenter"",""1"",""5233""
","
","","","968.7999999523163","","","24","10103","4751","c","elianto","#3366ff99"," "," ","1","+10","[1819]","1","2","","","10103","98","5","1","win","go","0"
"pit-trial","217","1284194","0.0-103.0","battery-v0.2","","""event"",""trial"",""time""
""fullscreenenter"",""1"",""5233""
","
","
","""event"",""trial"",""time""
""fullscreenenter"",""1"",""5233""
","
","","","1223.5","","","24","10103","4751","t","elianto","#f73b6a7A"," "," ","1","0","[2073.6999999284744]","1","2","","","10103","99","7","3","lose","go","0"
"pit-trial","218","1289048","0.0-104.0","battery-v0.2","","""event"",""trial"",""time""
""fullscreenenter"",""1"",""5233""
","
","
","""event"",""trial"",""time""
""fullscreenenter"",""1"",""5233""
","
","","","-1","","","24","10103","4751","b","elianto","#f73b6a7A","-1","-1","1","-10","[]","0","2","","","10103","100","6","4","lose","no-go","1"
"pit-trial","219","1293197","0.0-105.0","battery-v0.2","","""event"",""trial"",""time""
""fullscreenenter"",""1"",""5233""
","
","
","""event"",""trial"",""time""
""fullscreenenter"",""1"",""5233""
","
","","","1295","","","24","10103","4751","n","elianto","#3366ff99","-1"," ","0","0","[2145.600000023842]","1","2","","","10103","101","9","2","win","no-go","0"
"pit-trial","220","1297440","0.0-106.0","battery-v0.2","","""event"",""trial"",""time""
""fullscreenenter"",""1"",""5233""
","
","
","""event"",""trial"",""time""
""fullscreenenter"",""1"",""5233""
","
","","","1389.1000000238419","","","24","10103","4751","c","elianto","#3366ff99"," "," ","1","0","[2239.7000000476837]","1","2","","","10103","102","5","1","win","go","1"
"pit-trial","221","1302294","0.0-107.0","battery-v0.2","","""event"",""trial"",""time""
""fullscreenenter"",""1"",""5233""
","
","
","""event"",""trial"",""time""
""fullscreenenter"",""1"",""5233""
","
","","","-1","","","24","10103","4751","b","elianto","#f73b6a7A","-1","-1","1","0","[]","0","2","","","10103","103","6","4","lose","no-go","0"
"pit-trial","222","1306679","0.0-108.0","battery-v0.2","","""event"",""trial"",""time""
""fullscreenenter"",""1"",""5233""
","
","
","""event"",""trial"",""time""
""fullscreenenter"",""1"",""5233""
","
","","","1530.7999999523163","","","24","10103","4751","f","elianto","#3366ff99","-1"," ","0","+10","[2381.7999999523163]","1","2","","","10103","104","8","2","win","no-go","1"
"pit-trial","223","1311532","0.0-109.0","battery-v0.2","","""event"",""trial"",""time""
""fullscreenenter"",""1"",""5233""
","
","
","""event"",""trial"",""time""
""fullscreenenter"",""1"",""5233""
","
","","","-1","","","24","10103","4751","n","elianto","#3366ff99","-1","-1","1","0","[]","0","2","","","10103","105","9","2","win","no-go","1"
"pit-trial","224","1316385","0.0-110.0","battery-v0.2","","""event"",""trial"",""time""
""fullscreenenter"",""1"",""5233""
","
","
","""event"",""trial"",""time""
""fullscreenenter"",""1"",""5233""
","
","","","-1","","","24","10103","4751","f","elianto","#3366ff99","-1","-1","1","+10","[]","0","2","","","10103","106","8","2","win","no-go","0"
"pit-trial","225","1321240","0.0-111.0","battery-v0.2","","""event"",""trial"",""time""
""fullscreenenter"",""1"",""5233""
","
","
","""event"",""trial"",""time""
""fullscreenenter"",""1"",""5233""
","
","","","-1","","","24","10103","4751","c","elianto","#3366ff99"," ","-1","0","0","[]","0","2","","","10103","107","5","1","win","go","0"
"pit-trial","226","1326093","0.0-112.0","battery-v0.2","","""event"",""trial"",""time""
""fullscreenenter"",""1"",""5233""
","
","
","""event"",""trial"",""time""
""fullscreenenter"",""1"",""5233""
","
","","","-1","","","24","10103","4751","b","elianto","#f73b6a7A","-1","-1","1","0","[]","0","2","","","10103","108","6","4","lose","no-go","0"
"pit-trial","227","1330946","0.0-113.0","battery-v0.2","","""event"",""trial"",""time""
""fullscreenenter"",""1"",""5233""
","
","
","""event"",""trial"",""time""
""fullscreenenter"",""1"",""5233""
","
","","","-1","","","24","10103","4751","f","elianto","#3366ff99","-1","-1","1","+10","[]","0","2","","","10103","109","8","2","win","no-go","0"
"pit-trial","228","1335800","0.0-114.0","battery-v0.2","","""event"",""trial"",""time""
""fullscreenenter"",""1"",""5233""
","
","
","""event"",""trial"",""time""
""fullscreenenter"",""1"",""5233""
","
","","","-1","","","24","10103","4751","n","elianto","#3366ff99","-1","-1","1","+10","[]","0","2","","","10103","110","9","2","win","no-go","0"
"pit-trial","229","1340652","0.0-115.0","battery-v0.2","","""event"",""trial"",""time""
""fullscreenenter"",""1"",""5233""
","
","
","""event"",""trial"",""time""
""fullscreenenter"",""1"",""5233""
","
","","","-1","","","24","10103","4751","b","elianto","#f73b6a7A","-1","-1","1","0","[]","0","2","","","10103","111","6","4","lose","no-go","0"
"pit-trial","230","1344511","0.0-116.0","battery-v0.2","","""event"",""trial"",""time""
""fullscreenenter"",""1"",""5233""
","
","
","""event"",""trial"",""time""
""fullscreenenter"",""1"",""5233""
","
","","","1005","","","24","10103","4751","c","elianto","#3366ff99"," "," ","1","+10","[1856.1000000238419]","1","2","","","10103","112","5","1","win","go","0"
"pit-trial","231","1349365","0.0-117.0","battery-v0.2","","""event"",""trial"",""time""
""fullscreenenter"",""1"",""5233""
","
","
","""event"",""trial"",""time""
""fullscreenenter"",""1"",""5233""
","
","","","-1","","","24","10103","4751","f","elianto","#3366ff99","-1","-1","1","+10","[]","0","2","","","10103","113","8","2","win","no-go","0"
"pit-trial","232","1354219","0.0-118.0","battery-v0.2","","""event"",""trial"",""time""
""fullscreenenter"",""1"",""5233""
","
","
","""event"",""trial"",""time""
""fullscreenenter"",""1"",""5233""
","
","","","-1","","","24","10103","4751","n","elianto","#3366ff99","-1","-1","1","+10","[]","0","2","","","10103","114","9","2","win","no-go","0"
"pit-trial","233","1358525","0.0-119.0","battery-v0.2","","""event"",""trial"",""time""
""fullscreenenter"",""1"",""5233""
","
","
","""event"",""trial"",""time""
""fullscreenenter"",""1"",""5233""
","
","","","1453.1000000238419","","","24","10103","4751","t","elianto","#f73b6a7A"," "," ","1","0","[2303.5]","1","2","","","10103","115","7","3","lose","go","0"
"pit-trial","234","1362924","0.0-120.0","battery-v0.2","","""event"",""trial"",""time""
""fullscreenenter"",""1"",""5233""
","
","
","""event"",""trial"",""time""
""fullscreenenter"",""1"",""5233""
","
","","","1544.6999999284744","","","24","10103","4751","c","elianto","#3366ff99"," "," ","1","+10","[2395.6999999284744]","1","2","","","10103","116","5","1","win","go","0"
"pit-trial","235","1367778","0.0-121.0","battery-v0.2","","""event"",""trial"",""time""
""fullscreenenter"",""1"",""5233""
","
","
","""event"",""trial"",""time""
""fullscreenenter"",""1"",""5233""
","
","","","-1","","","24","10103","4751","f","elianto","#3366ff99","-1","-1","1","+10","[]","0","2","","","10103","117","8","2","win","no-go","0"
"pit-trial","236","1372632","0.0-122.0","battery-v0.2","","""event"",""trial"",""time""
""fullscreenenter"",""1"",""5233""
","
","
","""event"",""trial"",""time""
""fullscreenenter"",""1"",""5233""
","
","","","-1","","","24","10103","4751","n","elianto","#3366ff99","-1","-1","1","+10","[]","0","2","","","10103","118","9","2","win","no-go","0"
"pit-trial","237","1377485","0.0-123.0","battery-v0.2","","""event"",""trial"",""time""
""fullscreenenter"",""1"",""5233""
","
","
","""event"",""trial"",""time""
""fullscreenenter"",""1"",""5233""
","
","","","-1","","","24","10103","4751","b","elianto","#f73b6a7A","-1","-1","1","0","[]","0","2","","","10103","119","6","4","lose","no-go","0"
"pit-trial","238","1381175","0.0-124.0","battery-v0.2","","""event"",""trial"",""time""
""fullscreenenter"",""1"",""5233""
","
","
","""event"",""trial"",""time""
""fullscreenenter"",""1"",""5233""
","
","","","836.7000000476837","","","24","10103","4751","c","elianto","#3366ff99"," "," ","1","+10","[1687.5]","1","2","","","10103","120","5","1","win","go","0"
"pit-trial","239","1384784","0.0-125.0","battery-v0.2","","""event"",""trial"",""time""
""fullscreenenter"",""1"",""5233""
","
","
","""event"",""trial"",""time""
""fullscreenenter"",""1"",""5233""
","
","","","756.3999999761581","","","24","10103","4751","c","elianto","#3366ff99"," "," ","1","+10","[1606.5999999046326]","1","2","","","10103","121","5","1","win","go","0"
"pit-trial","240","1389548","0.0-126.0","battery-v0.2","","""event"",""trial"",""time""
""fullscreenenter"",""1"",""5233""
","
","
","""event"",""trial"",""time""
""fullscreenenter"",""1"",""5233""
","
","","","1910.5","","","24","10103","4751","t","elianto","#f73b6a7A"," "," ","1","0","[2760.7999999523163]","1","2","","","10103","122","7","3","lose","go","0"
"pit-trial","241","1394402","0.0-127.0","battery-v0.2","","""event"",""trial"",""time""
""fullscreenenter"",""1"",""5233""
","
","
","""event"",""trial"",""time""
""fullscreenenter"",""1"",""5233""
","
","","","-1","","","24","10103","4751","n","elianto","#3366ff99","-1","-1","1","+10","[]","0","2","","","10103","123","9","2","win","no-go","0"
"pit-trial","242","1399255","0.0-128.0","battery-v0.2","","""event"",""trial"",""time""
""fullscreenenter"",""1"",""5233""
","
","
","""event"",""trial"",""time""
""fullscreenenter"",""1"",""5233""
","
","","","-1","","","24","10103","4751","f","elianto","#3366ff99","-1","-1","1","+10","[]","0","2","","","10103","124","8","2","win","no-go","0"
"pit-trial","243","1404108","0.0-129.0","battery-v0.2","","""event"",""trial"",""time""
""fullscreenenter"",""1"",""5233""
","
","
","""event"",""trial"",""time""
""fullscreenenter"",""1"",""5233""
","
","","","-1","","","24","10103","4751","n","elianto","#3366ff99","-1","-1","1","+10","[]","0","2","","","10103","125","9","2","win","no-go","0"
"pit-trial","244","1408963","0.0-130.0","battery-v0.2","","""event"",""trial"",""time""
""fullscreenenter"",""1"",""5233""
","
","
","""event"",""trial"",""time""
""fullscreenenter"",""1"",""5233""
","
","","","-1","","","24","10103","4751","f","elianto","#3366ff99","-1","-1","1","+10","[]","0","2","","","10103","126","8","2","win","no-go","0"
"pit-trial","245","1412858","0.0-131.0","battery-v0.2","","""event"",""trial"",""time""
""fullscreenenter"",""1"",""5233""
","
","
","""event"",""trial"",""time""
""fullscreenenter"",""1"",""5233""
","
","","","1041.6000000238419","","","24","10103","4751","t","elianto","#f73b6a7A"," "," ","1","-10","[1892.6000000238419]","1","2","","","10103","127","7","3","lose","go","1"
"pit-trial","246","1417727","0.0-132.0","battery-v0.2","","""event"",""trial"",""time""
""fullscreenenter"",""1"",""5233""
","
","
","""event"",""trial"",""time""
""fullscreenenter"",""1"",""5233""
","
","","","-1","","","24","10103","4751","b","elianto","#f73b6a7A","-1","-1","1","0","[]","0","2","","","10103","128","6","4","lose","no-go","0"
"pit-trial","247","1422582","0.0-133.0","battery-v0.2","","""event"",""trial"",""time""
""fullscreenenter"",""1"",""5233""
","
","
","""event"",""trial"",""time""
""fullscreenenter"",""1"",""5233""
","
","","","-1","","","24","10103","4751","n","elianto","#3366ff99","-1","-1","1","0","[]","0","2","","","10103","129","9","2","win","no-go","1"
"pit-trial","248","1427435","0.0-134.0","battery-v0.2","","""event"",""trial"",""time""
""fullscreenenter"",""1"",""5233""
","
","
","""event"",""trial"",""time""
""fullscreenenter"",""1"",""5233""
","
","","","-1","","","24","10103","4751","f","elianto","#3366ff99","-1","-1","1","+10","[]","0","2","","","10103","130","8","2","win","no-go","0"
"pit-trial","249","1432290","0.0-135.0","battery-v0.2","","""event"",""trial"",""time""
""fullscreenenter"",""1"",""5233""
","
","
","""event"",""trial"",""time""
""fullscreenenter"",""1"",""5233""
","
","","","-1","","","24","10103","4751","b","elianto","#f73b6a7A","-1","-1","1","-10","[]","0","2","","","10103","131","6","4","lose","no-go","1"
"pit-trial","250","1436021","0.0-136.0","battery-v0.2","","""event"",""trial"",""time""
""fullscreenenter"",""1"",""5233""
","
","
","""event"",""trial"",""time""
""fullscreenenter"",""1"",""5233""
","
","","","875.3000000715256","","","24","10103","4751","t","elianto","#f73b6a7A"," "," ","1","0","[1727.1000000238419]","1","2","","","10103","132","7","3","lose","go","0"
"pit-trial","251","1440478","0.0-137.0","battery-v0.2","","""event"",""trial"",""time""
""fullscreenenter"",""1"",""5233""
","
","
","""event"",""trial"",""time""
""fullscreenenter"",""1"",""5233""
","
","","","1603.3999999761581","","","24","10103","4751","t","elianto","#f73b6a7A"," "," ","1","-10","[2453.6999999284744]","1","2","","","10103","133","7","3","lose","go","1"
"pit-trial","252","1445332","0.0-138.0","battery-v0.2","","""event"",""trial"",""time""
""fullscreenenter"",""1"",""5233""
","
","
","""event"",""trial"",""time""
""fullscreenenter"",""1"",""5233""
","
","","","-1","","","24","10103","4751","b","elianto","#f73b6a7A","-1","-1","1","0","[]","0","2","","","10103","134","6","4","lose","no-go","0"
"pit-trial","253","1450185","0.0-139.0","battery-v0.2","","""event"",""trial"",""time""
""fullscreenenter"",""1"",""5233""
","
","
","""event"",""trial"",""time""
""fullscreenenter"",""1"",""5233""
","
","","","-1","","","24","10103","4751","f","elianto","#3366ff99","-1","-1","1","+10","[]","0","2","","","10103","135","8","2","win","no-go","0"
"pit-trial","254","1455038","0.0-140.0","battery-v0.2","","""event"",""trial"",""time""
""fullscreenenter"",""1"",""5233""
","
","
","""event"",""trial"",""time""
""fullscreenenter"",""1"",""5233""
","
","","","-1","","","24","10103","4751","n","elianto","#3366ff99","-1","-1","1","+10","[]","0","2","","","10103","136","9","2","win","no-go","0"
"pit-trial","255","1459091","0.0-141.0","battery-v0.2","","""event"",""trial"",""time""
""fullscreenenter"",""1"",""5233""
","
","
","""event"",""trial"",""time""
""fullscreenenter"",""1"",""5233""
","
","","","1199.1999999284744","","","24","10103","4751","t","elianto","#f73b6a7A"," "," ","1","0","[2049.3000000715256]","1","2","","","10103","137","7","3","lose","go","0"
"pit-trial","256","1463945","0.0-142.0","battery-v0.2","","""event"",""trial"",""time""
""fullscreenenter"",""1"",""5233""
","
","
","""event"",""trial"",""time""
""fullscreenenter"",""1"",""5233""
","
","","","-1","","","24","10103","4751","f","elianto","#3366ff99","-1","-1","1","+10","[]","0","2","","","10103","138","8","2","win","no-go","0"
"pit-trial","257","1468799","0.0-143.0","battery-v0.2","","""event"",""trial"",""time""
""fullscreenenter"",""1"",""5233""
","
","
","""event"",""trial"",""time""
""fullscreenenter"",""1"",""5233""
","
","","","-1","","","24","10103","4751","n","elianto","#3366ff99","-1","-1","1","+10","[]","0","2","","","10103","139","9","2","win","no-go","0"
"pit-trial","258","1473652","0.0-144.0","battery-v0.2","","""event"",""trial"",""time""
""fullscreenenter"",""1"",""5233""
","
","
","""event"",""trial"",""time""
""fullscreenenter"",""1"",""5233""
","
","","","-1","","","24","10103","4751","b","elianto","#f73b6a7A","-1","-1","1","0","[]","0","2","","","10103","140","6","4","lose","no-go","0"
"pit-instructions","259","1521198","0.0-145.0","battery-v0.2","","""event"",""trial"",""time""
""fullscreenenter"",""1"",""5233""
","
","
","""event"",""trial"",""time""
""fullscreenenter"",""1"",""5233""
","
","","[{""page_index"":0,""viewing_time"":5996.100000023842},{""page_index"":1,""viewing_time"":41547.39999997616}]","47544.10000002384","","","","","","","","","","","","","","","","","","","","","","","",""
"pit-trial","260","1526055","0.0-146.0","battery-v0.2","","""event"",""trial"",""time""
""fullscreenenter"",""1"",""5233""
","
","
","""event"",""trial"",""time""
""fullscreenenter"",""1"",""5233""
","
","","","-1","","","24","10103","4751","e","elianto","#f73b6a7A"," ","-1","0","-10","[]","0","3","","","10103","141","2","3","lose","go","0"
"pit-trial","261","1530082","0.0-147.0","battery-v0.2","","""event"",""trial"",""time""
""fullscreenenter"",""1"",""5233""
","
","
","""event"",""trial"",""time""
""fullscreenenter"",""1"",""5233""
","
","","","1172.3000000715256","","","24","10103","4751","d","elianto","#3366ff99","-1"," ","0","0","[2023.3000000715256]","1","3","","","10103","142","1","2","win","no-go","0"
"pit-trial","262","1534934","0.0-148.0","battery-v0.2","","""event"",""trial"",""time""
""fullscreenenter"",""1"",""5233""
","
","
","""event"",""trial"",""time""
""fullscreenenter"",""1"",""5233""
","
","","","-1","","","24","10103","4751","j","elianto","#f73b6a7A"," ","-1","0","-10","[]","0","3","","","10103","143","0","3","lose","go","0"
"pit-trial","263","1539788","0.0-149.0","battery-v0.2","","""event"",""trial"",""time""
""fullscreenenter"",""1"",""5233""
","
","
","""event"",""trial"",""time""
""fullscreenenter"",""1"",""5233""
","
","","","-1","","","24","10103","4751","w","elianto","#f73b6a7A","-1","-1","1","0","[]","0","3","","","10103","144","3","4","lose","no-go","0"
"pit-trial","264","1544642","0.0-150.0","battery-v0.2","","""event"",""trial"",""time""
""fullscreenenter"",""1"",""5233""
","
","
","""event"",""trial"",""time""
""fullscreenenter"",""1"",""5233""
","
","","","-1","","","24","10103","4751","w","elianto","#f73b6a7A","-1","-1","1","0","[]","0","3","","","10103","145","3","4","lose","no-go","0"
"pit-trial","265","1548624","0.0-151.0","battery-v0.2","","""event"",""trial"",""time""
""fullscreenenter"",""1"",""5233""
","
","
","""event"",""trial"",""time""
""fullscreenenter"",""1"",""5233""
","
","","","1129.6000000238419","","","24","10103","4751","e","elianto","#f73b6a7A"," "," ","1","0","[1979.7000000476837]","1","3","","","10103","146","2","3","lose","go","0"
"pit-trial","266","1552726","0.0-152.0","battery-v0.2","","""event"",""trial"",""time""
""fullscreenenter"",""1"",""5233""
","
","
","""event"",""trial"",""time""
""fullscreenenter"",""1"",""5233""
","
","","","1248","","","24","10103","4751","j","elianto","#f73b6a7A"," "," ","1","0","[2098.899999976158]","1","3","","","10103","147","0","3","lose","go","0"
