"trial_type","trial_index","time_elapsed","internal_node_id","task_version","subject_id","interactions","blur_events","focus_events","fullscreenenter_events","fullscreenexit_events","success","view_history","rt","responses","num_errors","age","subject","participantId","rune","rune_set","hex","correct","choice","accuracy","outcome","keys","total_keys","block","practice","value","sub","trial","stimulus","robot","valence","action","sham"
"pavlovia","0","6","0.0-0.0","battery-v0.2","","""event"",""trial"",""time""
""fullscreenenter"",""1"",""2496""
","
","
","""event"",""trial"",""time""
""fullscreenenter"",""1"",""2496""
","
","","","","","","","","","","","","","","","","","","","","","","","","","","",""
"fullscreen","1","3485","0.0-1.0","battery-v0.2","","""event"",""trial"",""time""
""fullscreenenter"",""1"",""2496""
","
","
","""event"",""trial"",""time""
""fullscreenenter"",""1"",""2496""
","
","true","","","","","","","","","","","","","","","","","","","","","","","","","",""
"pit-instructions","2","14274","0.0-2.0-0.0","battery-v0.2","","""event"",""trial"",""time""
""fullscreenenter"",""1"",""2496""
","
","
","""event"",""trial"",""time""
""fullscreenenter"",""1"",""2496""
","
","","[{""page_index"":0,""viewing_time"":10788}]","10788","","","","","","","","","","","","","","","","","","","","","","","",""
"pit-comprehension","3","16821","0.0-2.0-1.0-0.0","battery-v0.2","","""event"",""trial"",""time""
""fullscreenenter"",""1"",""2496""
","
","
","""event"",""trial"",""time""
""fullscreenenter"",""1"",""2496""
","
","","","2547","[""shark""]","0","24","10093","4868","","","","","","","","","","","","","","","","","","",""
"pit-instructions","4","18653","0.0-2.0-1.0-1.0","battery-v0.2","","""event"",""trial"",""time""
""fullscreenenter"",""1"",""2496""
","
","
","""event"",""trial"",""time""
""fullscreenenter"",""1"",""2496""
","
","","[{""page_index"":0,""viewing_time"":1826}]","1826","","","","","","","","","","","","","","","","","","","","","","","",""
"pit-comprehension","5","20904","0.0-2.0-2.0-0.0","battery-v0.2","","""event"",""trial"",""time""
""fullscreenenter"",""1"",""2496""
","
","
","""event"",""trial"",""time""
""fullscreenenter"",""1"",""2496""
","
","","","2249","[""tiger""]","0","24","10093","4868","","","","","","","","","","","","","","","","","","",""
"pit-instructions","6","22022","0.0-2.0-2.0-1.0","battery-v0.2","","""event"",""trial"",""time""
""fullscreenenter"",""1"",""2496""
","
","
","""event"",""trial"",""time""
""fullscreenenter"",""1"",""2496""
","
","","[{""page_index"":0,""viewing_time"":1116}]","1116","","","","","","","","","","","","","","","","","","","","","","","",""
"pit-instructions","7","131642","0.0-2.0-3.0","battery-v0.2","","""event"",""trial"",""time""
""fullscreenenter"",""1"",""2496""
","
","
","""event"",""trial"",""time""
""fullscreenenter"",""1"",""2496""
","
","","[{""page_index"":0,""viewing_time"":10451},{""page_index"":1,""viewing_time"":7396},{""page_index"":2,""viewing_time"":6593},{""page_index"":3,""viewing_time"":6153},{""page_index"":4,""viewing_time"":7688},{""page_index"":5,""viewing_time"":7862},{""page_index"":6,""viewing_time"":8392},{""page_index"":7,""viewing_time"":8733},{""page_index"":8,""viewing_time"":7187},{""page_index"":9,""viewing_time"":8511},{""page_index"":10,""viewing_time"":9436},{""page_index"":11,""viewing_time"":8583},{""page_index"":12,""viewing_time"":6896},{""page_index"":13,""viewing_time"":5737}]","109618","","","","","","","","","","","","","","","","","","","","","","","",""
"pit-trial","8","135002","0.0-2.0-4.0-0.0","battery-v0.2","","""event"",""trial"",""time""
""fullscreenenter"",""1"",""2496""
","
","
","""event"",""trial"",""time""
""fullscreenenter"",""1"",""2496""
","
","","","489","","","24","10093","4868","&#9784;","elianto","#FFFFF080"," "," ","1","&#10004","[1346]","1","0","0","","","","","","","",""
"pit-trial","9","138377","0.0-2.0-4.1-0.1","battery-v0.2","","""event"",""trial"",""time""
""fullscreenenter"",""1"",""2496""
","
","
","""event"",""trial"",""time""
""fullscreenenter"",""1"",""2496""
","
","","","516","","","24","10093","4868","&#9784;","elianto","#FFFFF080"," "," ","1","&#10004","[1367]","1","0","0","","","","","","","",""
"pit-trial","10","141892","0.0-2.0-4.2-0.2","battery-v0.2","","""event"",""trial"",""time""
""fullscreenenter"",""1"",""2496""
","
","
","""event"",""trial"",""time""
""fullscreenenter"",""1"",""2496""
","
","","","662","","","24","10093","4868","&#9784;","elianto","#FFFFF080"," "," ","1","&#10004","[1512]","1","0","0","","","","","","","",""
"pit-trial","11","145205","0.0-2.0-4.3-0.3","battery-v0.2","","""event"",""trial"",""time""
""fullscreenenter"",""1"",""2496""
","
","
","""event"",""trial"",""time""
""fullscreenenter"",""1"",""2496""
","
","","","444","","","24","10093","4868","&#9784;","elianto","#FFFFF080"," "," ","1","&#10004","[1301]","1","0","0","","","","","","","",""
"pit-trial","12","148469","0.0-2.0-4.4-0.4","battery-v0.2","","""event"",""trial"",""time""
""fullscreenenter"",""1"",""2496""
","
","
","""event"",""trial"",""time""
""fullscreenenter"",""1"",""2496""
","
","","","404","","","24","10093","4868","&#9784;","elianto","#FFFFF080"," "," ","1","&#10004","[1260]","1","0","0","","","","","","","",""
"pit-instructions","13","171598","0.0-2.0-5.0","battery-v0.2","","""event"",""trial"",""time""
""fullscreenenter"",""1"",""2496""
","
","
","""event"",""trial"",""time""
""fullscreenenter"",""1"",""2496""
","
","","[{""page_index"":0,""viewing_time"":5590},{""page_index"":1,""viewing_time"":6294},{""page_index"":2,""viewing_time"":5208},{""page_index"":3,""viewing_time"":6035}]","23127","","","","","","","","","","","","","","","","","","","","","","","",""
"pit-trial","14","176466","0.0-2.0-6.0-0.0","battery-v0.2","","""event"",""trial"",""time""
""fullscreenenter"",""1"",""2496""
","
","
","""event"",""trial"",""time""
""fullscreenenter"",""1"",""2496""
","
","","","-1","","","24","10093","4868","&#9854;","elianto","#FFFFF080","-1","-1","1","&#10004","[]","0","0","1","","","","","","","",""
"pit-trial","15","181334","0.0-2.0-6.1-0.1","battery-v0.2","","""event"",""trial"",""time""
""fullscreenenter"",""1"",""2496""
","
","
","""event"",""trial"",""time""
""fullscreenenter"",""1"",""2496""
","
","","","-1","","","24","10093","4868","&#9854;","elianto","#FFFFF080","-1","-1","1","&#10004","[]","0","0","1","","","","","","","",""
"pit-trial","16","186212","0.0-2.0-6.2-0.2","battery-v0.2","","""event"",""trial"",""time""
""fullscreenenter"",""1"",""2496""
","
","
","""event"",""trial"",""time""
""fullscreenenter"",""1"",""2496""
","
","","","-1","","","24","10093","4868","&#9854;","elianto","#FFFFF080","-1","-1","1","&#10004","[]","0","0","1","","","","","","","",""
"pit-trial","17","191087","0.0-2.0-6.3-0.3","battery-v0.2","","""event"",""trial"",""time""
""fullscreenenter"",""1"",""2496""
","
","
","""event"",""trial"",""time""
""fullscreenenter"",""1"",""2496""
","
","","","-1","","","24","10093","4868","&#9854;","elianto","#FFFFF080","-1","-1","1","&#10004","[]","0","0","1","","","","","","","",""
"pit-trial","18","195952","0.0-2.0-6.4-0.4","battery-v0.2","","""event"",""trial"",""time""
""fullscreenenter"",""1"",""2496""
","
","
","""event"",""trial"",""time""
""fullscreenenter"",""1"",""2496""
","
","","","-1","","","24","10093","4868","&#9854;","elianto","#FFFFF080","-1","-1","1","&#10004","[]","0","0","1","","","","","","","",""
"pit-instructions","19","335775","0.0-2.0-7.0","battery-v0.2","","""event"",""trial"",""time""
""fullscreenenter"",""1"",""2496""
","
","
","""event"",""trial"",""time""
""fullscreenenter"",""1"",""2496""
","
","","[{""page_index"":0,""viewing_time"":6239},{""page_index"":1,""viewing_time"":9753},{""page_index"":2,""viewing_time"":6312},{""page_index"":3,""viewing_time"":7486},{""page_index"":4,""viewing_time"":9610},{""page_index"":5,""viewing_time"":6083},{""page_index"":6,""viewing_time"":7571},{""page_index"":7,""viewing_time"":9584},{""page_index"":8,""viewing_time"":7013},{""page_index"":9,""viewing_time"":7299},{""page_index"":10,""viewing_time"":7165},{""page_index"":11,""viewing_time"":5051},{""page_index"":12,""viewing_time"":9265},{""page_index"":13,""viewing_time"":10842},{""page_index"":14,""viewing_time"":8238},{""page_index"":15,""viewing_time"":7287},{""page_index"":16,""viewing_time"":6999},{""page_index"":17,""viewing_time"":8025}]","139822","","","","","","","","","","","","","","","","","","","","","","","",""
"pit-trial","20","339107","0.0-2.0-8.0-0.0","battery-v0.2","","""event"",""trial"",""time""
""fullscreenenter"",""1"",""2496""
","
","
","""event"",""trial"",""time""
""fullscreenenter"",""1"",""2496""
","
","","","465","","","24","10093","4868","&#9776;","elianto","#3366ff99"," "," ","1","+10","[1316]","1","0","1","","","","","","","",""
"pit-trial","21","342367","0.0-2.0-8.0-1.0","battery-v0.2","","""event"",""trial"",""time""
""fullscreenenter"",""1"",""2496""
","
","
","""event"",""trial"",""time""
""fullscreenenter"",""1"",""2496""
","
","","","403","","","24","10093","4868","&#9776;","elianto","#3366ff99"," "," ","1","+10","[1255]","1","0","1","","","","","","","",""
"pit-trial","22","345412","0.0-2.0-8.0-2.0","battery-v0.2","","""event"",""trial"",""time""
""fullscreenenter"",""1"",""2496""
","
","
","""event"",""trial"",""time""
""fullscreenenter"",""1"",""2496""
","
","","","191","","","24","10093","4868","&#9776;","elianto","#3366ff99"," "," ","1","+10","[1043]","1","0","1","","","","","","","",""
"pit-trial","23","348574","0.0-2.0-8.0-3.0","battery-v0.2","","""event"",""trial"",""time""
""fullscreenenter"",""1"",""2496""
","
","
","""event"",""trial"",""time""
""fullscreenenter"",""1"",""2496""
","
","","","303","","","24","10093","4868","&#9776;","elianto","#3366ff99"," "," ","1","0","[1158]","1","0","1","","","","","","","",""
"pit-trial","24","351619","0.0-2.0-8.0-4.0","battery-v0.2","","""event"",""trial"",""time""
""fullscreenenter"",""1"",""2496""
","
","
","""event"",""trial"",""time""
""fullscreenenter"",""1"",""2496""
","
","","","180","","","24","10093","4868","&#9776;","elianto","#3366ff99"," "," ","1","+10","[1036]","1","0","1","","","","","","","",""
"pit-trial","25","354584","0.0-2.0-8.1-0.1","battery-v0.2","","""event"",""trial"",""time""
""fullscreenenter"",""1"",""2496""
","
","
","""event"",""trial"",""time""
""fullscreenenter"",""1"",""2496""
","
","","","104","","","24","10093","4868","&#9776;","elianto","#3366ff99"," "," ","1","+10","[959]","1","0","1","","","","","","","",""
"pit-trial","26","357552","0.0-2.0-8.1-1.1","battery-v0.2","","""event"",""trial"",""time""
""fullscreenenter"",""1"",""2496""
","
","
","""event"",""trial"",""time""
""fullscreenenter"",""1"",""2496""
","
","","","107","","","24","10093","4868","&#9776;","elianto","#3366ff99"," "," ","1","+10","[962]","1","0","1","","","","","","","",""
"pit-trial","27","360531","0.0-2.0-8.1-2.1","battery-v0.2","","""event"",""trial"",""time""
""fullscreenenter"",""1"",""2496""
","
","
","""event"",""trial"",""time""
""fullscreenenter"",""1"",""2496""
","
","","","126","","","24","10093","4868","&#9776;","elianto","#3366ff99"," "," ","1","+10","[977]","1","0","1","","","","","","","",""
"pit-trial","28","363498","0.0-2.0-8.1-3.1","battery-v0.2","","""event"",""trial"",""time""
""fullscreenenter"",""1"",""2496""
","
","
","""event"",""trial"",""time""
""fullscreenenter"",""1"",""2496""
","
","","","106","","","24","10093","4868","&#9776;","elianto","#3366ff99"," "," ","1","0","[962]","1","0","1","","","","","","","",""
"pit-trial","29","366522","0.0-2.0-8.1-4.1","battery-v0.2","","""event"",""trial"",""time""
""fullscreenenter"",""1"",""2496""
","
","
","""event"",""trial"",""time""
""fullscreenenter"",""1"",""2496""
","
","","","163","","","24","10093","4868","&#9776;","elianto","#3366ff99"," "," ","1","+10","[1019]","1","0","1","","","","","","","",""
"pit-trial","30","369429","0.0-2.0-8.2-0.2","battery-v0.2","","""event"",""trial"",""time""
""fullscreenenter"",""1"",""2496""
","
","
","""event"",""trial"",""time""
""fullscreenenter"",""1"",""2496""
","
","","","54","","","24","10093","4868","&#9776;","elianto","#3366ff99"," "," ","1","+10","[905]","1","0","1","","","","","","","",""
"pit-trial","31","372436","0.0-2.0-8.2-1.2","battery-v0.2","","""event"",""trial"",""time""
""fullscreenenter"",""1"",""2496""
","
","
","""event"",""trial"",""time""
""fullscreenenter"",""1"",""2496""
","
","","","155","","","24","10093","4868","&#9776;","elianto","#3366ff99"," "," ","1","+10","[1005]","1","0","1","","","","","","","",""
"pit-trial","32","375460","0.0-2.0-8.2-2.2","battery-v0.2","","""event"",""trial"",""time""
""fullscreenenter"",""1"",""2496""
","
","
","""event"",""trial"",""time""
""fullscreenenter"",""1"",""2496""
","
","","","173","","","24","10093","4868","&#9776;","elianto","#3366ff99"," "," ","1","+10","[1023]","1","0","1","","","","","","","",""
"pit-trial","33","378670","0.0-2.0-8.2-3.2","battery-v0.2","","""event"",""trial"",""time""
""fullscreenenter"",""1"",""2496""
","
","
","""event"",""trial"",""time""
""fullscreenenter"",""1"",""2496""
","
","","","359","","","24","10093","4868","&#9776;","elianto","#3366ff99"," "," ","1","0","[1209]","1","0","1","","","","","","","",""
"pit-trial","34","381674","0.0-2.0-8.2-4.2","battery-v0.2","","""event"",""trial"",""time""
""fullscreenenter"",""1"",""2496""
","
","
","""event"",""trial"",""time""
""fullscreenenter"",""1"",""2496""
","
","","","138","","","24","10093","4868","&#9776;","elianto","#3366ff99"," "," ","1","+10","[988]","1","0","1","","","","","","","",""
"call-function","35","381675","0.0-2.0-9.0","battery-v0.2","","""event"",""trial"",""time""
""fullscreenenter"",""1"",""2496""
","
","
","""event"",""trial"",""time""
""fullscreenenter"",""1"",""2496""
","
","","","","","","","","","","","","","","","","","","","","","","","","","","",""
"pit-instructions","36","424652","0.0-2.0-10.0","battery-v0.2","","""event"",""trial"",""time""
""fullscreenenter"",""1"",""2496""
","
","
","""event"",""trial"",""time""
""fullscreenenter"",""1"",""2496""
","
","","[{""page_index"":0,""viewing_time"":6518},{""page_index"":1,""viewing_time"":8704},{""page_index"":2,""viewing_time"":9807},{""page_index"":3,""viewing_time"":9848},{""page_index"":4,""viewing_time"":8100}]","42978","","","","","","","","","","","","","","","","","","","","","","","",""
"pit-trial","37","429517","0.0-2.0-11.0-0.0","battery-v0.2","","""event"",""trial"",""time""
""fullscreenenter"",""1"",""2496""
","
","
","""event"",""trial"",""time""
""fullscreenenter"",""1"",""2496""
","
","","","-1","","","24","10093","4868","&#9761;","elianto","#3366ff99","-1","-1","1","+10","[]","0","0","2","","","","","","","",""
"pit-trial","38","434380","0.0-2.0-11.0-1.0","battery-v0.2","","""event"",""trial"",""time""
""fullscreenenter"",""1"",""2496""
","
","
","""event"",""trial"",""time""
""fullscreenenter"",""1"",""2496""
","
","","","-1","","","24","10093","4868","&#9761;","elianto","#3366ff99","-1","-1","1","+10","[]","0","0","2","","","","","","","",""
"pit-trial","39","439252","0.0-2.0-11.0-2.0","battery-v0.2","","""event"",""trial"",""time""
""fullscreenenter"",""1"",""2496""
","
","
","""event"",""trial"",""time""
""fullscreenenter"",""1"",""2496""
","
","","","-1","","","24","10093","4868","&#9761;","elianto","#3366ff99","-1","-1","1","+10","[]","0","0","2","","","","","","","",""
"pit-trial","40","444111","0.0-2.0-11.0-3.0","battery-v0.2","","""event"",""trial"",""time""
""fullscreenenter"",""1"",""2496""
","
","
","""event"",""trial"",""time""
""fullscreenenter"",""1"",""2496""
","
","","","-1","","","24","10093","4868","&#9761;","elianto","#3366ff99","-1","-1","1","0","[]","0","0","2","","","","","","","",""
"pit-trial","41","448966","0.0-2.0-11.0-4.0","battery-v0.2","","""event"",""trial"",""time""
""fullscreenenter"",""1"",""2496""
","
","
","""event"",""trial"",""time""
""fullscreenenter"",""1"",""2496""
","
","","","-1","","","24","10093","4868","&#9761;","elianto","#3366ff99","-1","-1","1","+10","[]","0","0","2","","","","","","","",""
"pit-trial","42","453835","0.0-2.0-11.1-0.1","battery-v0.2","","""event"",""trial"",""time""
""fullscreenenter"",""1"",""2496""
","
","
","""event"",""trial"",""time""
""fullscreenenter"",""1"",""2496""
","
","","","-1","","","24","10093","4868","&#9761;","elianto","#3366ff99","-1","-1","1","+10","[]","0","0","2","","","","","","","",""
"pit-trial","43","458687","0.0-2.0-11.1-1.1","battery-v0.2","","""event"",""trial"",""time""
""fullscreenenter"",""1"",""2496""
","
","
","""event"",""trial"",""time""
""fullscreenenter"",""1"",""2496""
","
","","","-1","","","24","10093","4868","&#9761;","elianto","#3366ff99","-1","-1","1","+10","[]","0","0","2","","","","","","","",""
"pit-trial","44","463539","0.0-2.0-11.1-2.1","battery-v0.2","","""event"",""trial"",""time""
""fullscreenenter"",""1"",""2496""
","
","
","""event"",""trial"",""time""
""fullscreenenter"",""1"",""2496""
","
","","","-1","","","24","10093","4868","&#9761;","elianto","#3366ff99","-1","-1","1","+10","[]","0","0","2","","","","","","","",""
"pit-trial","45","468391","0.0-2.0-11.1-3.1","battery-v0.2","","""event"",""trial"",""time""
""fullscreenenter"",""1"",""2496""
","
","
","""event"",""trial"",""time""
""fullscreenenter"",""1"",""2496""
","
","","","-1","","","24","10093","4868","&#9761;","elianto","#3366ff99","-1","-1","1","0","[]","0","0","2","","","","","","","",""
"pit-trial","46","473243","0.0-2.0-11.1-4.1","battery-v0.2","","""event"",""trial"",""time""
""fullscreenenter"",""1"",""2496""
","
","
","""event"",""trial"",""time""
""fullscreenenter"",""1"",""2496""
","
","","","-1","","","24","10093","4868","&#9761;","elianto","#3366ff99","-1","-1","1","+10","[]","0","0","2","","","","","","","",""
"pit-trial","47","478095","0.0-2.0-11.2-0.2","battery-v0.2","","""event"",""trial"",""time""
""fullscreenenter"",""1"",""2496""
","
","
","""event"",""trial"",""time""
""fullscreenenter"",""1"",""2496""
","
","","","-1","","","24","10093","4868","&#9761;","elianto","#3366ff99","-1","-1","1","+10","[]","0","0","2","","","","","","","",""
"pit-trial","48","482947","0.0-2.0-11.2-1.2","battery-v0.2","","""event"",""trial"",""time""
""fullscreenenter"",""1"",""2496""
","
","
","""event"",""trial"",""time""
""fullscreenenter"",""1"",""2496""
","
","","","-1","","","24","10093","4868","&#9761;","elianto","#3366ff99","-1","-1","1","+10","[]","0","0","2","","","","","","","",""
"pit-trial","49","487799","0.0-2.0-11.2-2.2","battery-v0.2","","""event"",""trial"",""time""
""fullscreenenter"",""1"",""2496""
","
","
","""event"",""trial"",""time""
""fullscreenenter"",""1"",""2496""
","
","","","-1","","","24","10093","4868","&#9761;","elianto","#3366ff99","-1","-1","1","+10","[]","0","0","2","","","","","","","",""
"pit-trial","50","492651","0.0-2.0-11.2-3.2","battery-v0.2","","""event"",""trial"",""time""
""fullscreenenter"",""1"",""2496""
","
","
","""event"",""trial"",""time""
""fullscreenenter"",""1"",""2496""
","
","","","-1","","","24","10093","4868","&#9761;","elianto","#3366ff99","-1","-1","1","0","[]","0","0","2","","","","","","","",""
"pit-trial","51","497503","0.0-2.0-11.2-4.2","battery-v0.2","","""event"",""trial"",""time""
""fullscreenenter"",""1"",""2496""
","
","
","""event"",""trial"",""time""
""fullscreenenter"",""1"",""2496""
","
","","","-1","","","24","10093","4868","&#9761;","elianto","#3366ff99","-1","-1","1","+10","[]","0","0","2","","","","","","","",""
"pit-trial","52","502356","0.0-2.0-11.3-0.3","battery-v0.2","","""event"",""trial"",""time""
""fullscreenenter"",""1"",""2496""
","
","
","""event"",""trial"",""time""
""fullscreenenter"",""1"",""2496""
","
","","","-1","","","24","10093","4868","&#9761;","elianto","#3366ff99","-1","-1","1","+10","[]","0","0","2","","","","","","","",""
"pit-trial","53","507208","0.0-2.0-11.3-1.3","battery-v0.2","","""event"",""trial"",""time""
""fullscreenenter"",""1"",""2496""
","
","
","""event"",""trial"",""time""
""fullscreenenter"",""1"",""2496""
","
","","","-1","","","24","10093","4868","&#9761;","elianto","#3366ff99","-1","-1","1","+10","[]","0","0","2","","","","","","","",""
"pit-trial","54","512060","0.0-2.0-11.3-2.3","battery-v0.2","","""event"",""trial"",""time""
""fullscreenenter"",""1"",""2496""
","
","
","""event"",""trial"",""time""
""fullscreenenter"",""1"",""2496""
","
","","","-1","","","24","10093","4868","&#9761;","elianto","#3366ff99","-1","-1","1","+10","[]","0","0","2","","","","","","","",""
"pit-trial","55","516912","0.0-2.0-11.3-3.3","battery-v0.2","","""event"",""trial"",""time""
""fullscreenenter"",""1"",""2496""
","
","
","""event"",""trial"",""time""
""fullscreenenter"",""1"",""2496""
","
","","","-1","","","24","10093","4868","&#9761;","elianto","#3366ff99","-1","-1","1","0","[]","0","0","2","","","","","","","",""
"pit-trial","56","521764","0.0-2.0-11.3-4.3","battery-v0.2","","""event"",""trial"",""time""
""fullscreenenter"",""1"",""2496""
","
","
","""event"",""trial"",""time""
""fullscreenenter"",""1"",""2496""
","
","","","-1","","","24","10093","4868","&#9761;","elianto","#3366ff99","-1","-1","1","+10","[]","0","0","2","","","","","","","",""
"call-function","57","521765","0.0-2.0-12.0","battery-v0.2","","""event"",""trial"",""time""
""fullscreenenter"",""1"",""2496""
","
","
","""event"",""trial"",""time""
""fullscreenenter"",""1"",""2496""
","
","","","","","","","","","","","","","","","","","","","","","","","","","","",""
"pit-instructions","58","560664","0.0-2.0-13.0","battery-v0.2","","""event"",""trial"",""time""
""fullscreenenter"",""1"",""2496""
","
","
","""event"",""trial"",""time""
""fullscreenenter"",""1"",""2496""
","
","","[{""page_index"":0,""viewing_time"":9946},{""page_index"":1,""viewing_time"":8166},{""page_index"":2,""viewing_time"":5179},{""page_index"":3,""viewing_time"":10530},{""page_index"":4,""viewing_time"":5078}]","38899","","","","","","","","","","","","","","","","","","","","","","","",""
"pit-trial","59","564156","0.0-2.0-14.0-0.0","battery-v0.2","","""event"",""trial"",""time""
""fullscreenenter"",""1"",""2496""
","
","
","""event"",""trial"",""time""
""fullscreenenter"",""1"",""2496""
","
","","","638","","","24","10093","4868","&#9826;","elianto","#f73b6a7A","-1"," ","0","-10","[1489]","1","0","3","","","","","","","",""
"pit-trial","60","569030","0.0-2.0-14.0-1.0","battery-v0.2","","""event"",""trial"",""time""
""fullscreenenter"",""1"",""2496""
","
","
","""event"",""trial"",""time""
""fullscreenenter"",""1"",""2496""
","
","","","-1","","","24","10093","4868","&#9826;","elianto","#f73b6a7A","-1","-1","1","0","[]","0","0","3","","","","","","","",""
"pit-trial","61","573900","0.0-2.0-14.0-2.0","battery-v0.2","","""event"",""trial"",""time""
""fullscreenenter"",""1"",""2496""
","
","
","""event"",""trial"",""time""
""fullscreenenter"",""1"",""2496""
","
","","","-1","","","24","10093","4868","&#9826;","elianto","#f73b6a7A","-1","-1","1","0","[]","0","0","3","","","","","","","",""
"pit-trial","62","578765","0.0-2.0-14.0-3.0","battery-v0.2","","""event"",""trial"",""time""
""fullscreenenter"",""1"",""2496""
","
","
","""event"",""trial"",""time""
""fullscreenenter"",""1"",""2496""
","
","","","-1","","","24","10093","4868","&#9826;","elianto","#f73b6a7A","-1","-1","1","-10","[]","0","0","3","","","","","","","",""
"pit-trial","63","583625","0.0-2.0-14.0-4.0","battery-v0.2","","""event"",""trial"",""time""
""fullscreenenter"",""1"",""2496""
","
","
","""event"",""trial"",""time""
""fullscreenenter"",""1"",""2496""
","
","","","-1","","","24","10093","4868","&#9826;","elianto","#f73b6a7A","-1","-1","1","0","[]","0","0","3","","","","","","","",""
"pit-trial","64","588483","0.0-2.0-14.1-0.1","battery-v0.2","","""event"",""trial"",""time""
""fullscreenenter"",""1"",""2496""
","
","
","""event"",""trial"",""time""
""fullscreenenter"",""1"",""2496""
","
","","","-1","","","24","10093","4868","&#9826;","elianto","#f73b6a7A","-1","-1","1","0","[]","0","0","3","","","","","","","",""
"pit-trial","65","593334","0.0-2.0-14.1-1.1","battery-v0.2","","""event"",""trial"",""time""
""fullscreenenter"",""1"",""2496""
","
","
","""event"",""trial"",""time""
""fullscreenenter"",""1"",""2496""
","
","","","-1","","","24","10093","4868","&#9826;","elianto","#f73b6a7A","-1","-1","1","0","[]","0","0","3","","","","","","","",""
"pit-trial","66","598187","0.0-2.0-14.1-2.1","battery-v0.2","","""event"",""trial"",""time""
""fullscreenenter"",""1"",""2496""
","
","
","""event"",""trial"",""time""
""fullscreenenter"",""1"",""2496""
","
","","","-1","","","24","10093","4868","&#9826;","elianto","#f73b6a7A","-1","-1","1","0","[]","0","0","3","","","","","","","",""
"pit-trial","67","603039","0.0-2.0-14.1-3.1","battery-v0.2","","""event"",""trial"",""time""
""fullscreenenter"",""1"",""2496""
","
","
","""event"",""trial"",""time""
""fullscreenenter"",""1"",""2496""
","
","","","-1","","","24","10093","4868","&#9826;","elianto","#f73b6a7A","-1","-1","1","-10","[]","0","0","3","","","","","","","",""
"pit-trial","68","607891","0.0-2.0-14.1-4.1","battery-v0.2","","""event"",""trial"",""time""
""fullscreenenter"",""1"",""2496""
","
","
","""event"",""trial"",""time""
""fullscreenenter"",""1"",""2496""
","
","","","-1","","","24","10093","4868","&#9826;","elianto","#f73b6a7A","-1","-1","1","0","[]","0","0","3","","","","","","","",""
"pit-trial","69","612743","0.0-2.0-14.2-0.2","battery-v0.2","","""event"",""trial"",""time""
""fullscreenenter"",""1"",""2496""
","
","
","""event"",""trial"",""time""
""fullscreenenter"",""1"",""2496""
","
","","","-1","","","24","10093","4868","&#9826;","elianto","#f73b6a7A","-1","-1","1","0","[]","0","0","3","","","","","","","",""
"pit-trial","70","617595","0.0-2.0-14.2-1.2","battery-v0.2","","""event"",""trial"",""time""
""fullscreenenter"",""1"",""2496""
","
","
","""event"",""trial"",""time""
""fullscreenenter"",""1"",""2496""
","
","","","-1","","","24","10093","4868","&#9826;","elianto","#f73b6a7A","-1","-1","1","0","[]","0","0","3","","","","","","","",""
"pit-trial","71","622447","0.0-2.0-14.2-2.2","battery-v0.2","","""event"",""trial"",""time""
""fullscreenenter"",""1"",""2496""
","
","
","""event"",""trial"",""time""
""fullscreenenter"",""1"",""2496""
","
","","","-1","","","24","10093","4868","&#9826;","elianto","#f73b6a7A","-1","-1","1","0","[]","0","0","3","","","","","","","",""
"pit-trial","72","627299","0.0-2.0-14.2-3.2","battery-v0.2","","""event"",""trial"",""time""
""fullscreenenter"",""1"",""2496""
","
","
","""event"",""trial"",""time""
""fullscreenenter"",""1"",""2496""
","
","","","-1","","","24","10093","4868","&#9826;","elianto","#f73b6a7A","-1","-1","1","-10","[]","0","0","3","","","","","","","",""
"pit-trial","73","632152","0.0-2.0-14.2-4.2","battery-v0.2","","""event"",""trial"",""time""
""fullscreenenter"",""1"",""2496""
","
","
","""event"",""trial"",""time""
""fullscreenenter"",""1"",""2496""
","
","","","-1","","","24","10093","4868","&#9826;","elianto","#f73b6a7A","-1","-1","1","0","[]","0","0","3","","","","","","","",""
"pit-trial","74","637004","0.0-2.0-14.3-0.3","battery-v0.2","","""event"",""trial"",""time""
""fullscreenenter"",""1"",""2496""
","
","
","""event"",""trial"",""time""
""fullscreenenter"",""1"",""2496""
","
","","","-1","","","24","10093","4868","&#9826;","elianto","#f73b6a7A","-1","-1","1","0","[]","0","0","3","","","","","","","",""
"pit-trial","75","641856","0.0-2.0-14.3-1.3","battery-v0.2","","""event"",""trial"",""time""
""fullscreenenter"",""1"",""2496""
","
","
","""event"",""trial"",""time""
""fullscreenenter"",""1"",""2496""
","
","","","-1","","","24","10093","4868","&#9826;","elianto","#f73b6a7A","-1","-1","1","0","[]","0","0","3","","","","","","","",""
"pit-trial","76","646708","0.0-2.0-14.3-2.3","battery-v0.2","","""event"",""trial"",""time""
""fullscreenenter"",""1"",""2496""
","
","
","""event"",""trial"",""time""
""fullscreenenter"",""1"",""2496""
","
","","","-1","","","24","10093","4868","&#9826;","elianto","#f73b6a7A","-1","-1","1","0","[]","0","0","3","","","","","","","",""
"pit-trial","77","651561","0.0-2.0-14.3-3.3","battery-v0.2","","""event"",""trial"",""time""
""fullscreenenter"",""1"",""2496""
","
","
","""event"",""trial"",""time""
""fullscreenenter"",""1"",""2496""
","
","","","-1","","","24","10093","4868","&#9826;","elianto","#f73b6a7A","-1","-1","1","-10","[]","0","0","3","","","","","","","",""
"pit-trial","78","656413","0.0-2.0-14.3-4.3","battery-v0.2","","""event"",""trial"",""time""
""fullscreenenter"",""1"",""2496""
","
","
","""event"",""trial"",""time""
""fullscreenenter"",""1"",""2496""
","
","","","-1","","","24","10093","4868","&#9826;","elianto","#f73b6a7A","-1","-1","1","0","[]","0","0","3","","","","","","","",""
"call-function","79","656413","0.0-2.0-15.0","battery-v0.2","","""event"",""trial"",""time""
""fullscreenenter"",""1"",""2496""
","
","
","""event"",""trial"",""time""
""fullscreenenter"",""1"",""2496""
","
","","","","","","","","","","","","","","","","","","","","","","","","","","",""
"pit-instructions","80","684097","0.0-2.0-16.0","battery-v0.2","","""event"",""trial"",""time""
""fullscreenenter"",""1"",""2496""
","
","
","""event"",""trial"",""time""
""fullscreenenter"",""1"",""2496""
","
","","[{""page_index"":0,""viewing_time"":7656},{""page_index"":1,""viewing_time"":9649},{""page_index"":2,""viewing_time"":5199},{""page_index"":3,""viewing_time"":5178}]","27682","","","","","","","","","","","","","","","","","","","","","","","",""
"pit-trial","81","687349","0.0-2.0-17.0-0.0","battery-v0.2","","""event"",""trial"",""time""
""fullscreenenter"",""1"",""2496""
","
","
","""event"",""trial"",""time""
""fullscreenenter"",""1"",""2496""
","
","","","394","","","24","10093","4868","&#9789;","elianto","#f73b6a7A"," "," ","1","0","[1244]","1","0","4","","","","","","","",""
"pit-trial","82","690514","0.0-2.0-17.0-1.0","battery-v0.2","","""event"",""trial"",""time""
""fullscreenenter"",""1"",""2496""
","
","
","""event"",""trial"",""time""
""fullscreenenter"",""1"",""2496""
","
","","","295","","","24","10093","4868","&#9789;","elianto","#f73b6a7A"," "," ","1","0","[1149]","1","0","4","","","","","","","",""
"pit-trial","83","693535","0.0-2.0-17.0-2.0","battery-v0.2","","""event"",""trial"",""time""
""fullscreenenter"",""1"",""2496""
","
","
","""event"",""trial"",""time""
""fullscreenenter"",""1"",""2496""
","
","","","151","","","24","10093","4868","&#9789;","elianto","#f73b6a7A"," "," ","1","0","[1008]","1","0","4","","","","","","","",""
"pit-trial","84","696479","0.0-2.0-17.0-3.0","battery-v0.2","","""event"",""trial"",""time""
""fullscreenenter"",""1"",""2496""
","
","
","""event"",""trial"",""time""
""fullscreenenter"",""1"",""2496""
","
","","","77","","","24","10093","4868","&#9789;","elianto","#f73b6a7A"," "," ","1","-10","[932]","1","0","4","","","","","","","",""
"pit-trial","85","699518","0.0-2.0-17.0-4.0","battery-v0.2","","""event"",""trial"",""time""
""fullscreenenter"",""1"",""2496""
","
","
","""event"",""trial"",""time""
""fullscreenenter"",""1"",""2496""
","
","","","185","","","24","10093","4868","&#9789;","elianto","#f73b6a7A"," "," ","1","0","[1036]","1","0","4","","","","","","","",""
"pit-trial","86","702497","0.0-2.0-17.1-0.1","battery-v0.2","","""event"",""trial"",""time""
""fullscreenenter"",""1"",""2496""
","
","
","""event"",""trial"",""time""
""fullscreenenter"",""1"",""2496""
","
","","","113","","","24","10093","4868","&#9789;","elianto","#f73b6a7A"," "," ","1","0","[964]","1","0","4","","","","","","","",""
"pit-trial","87","705526","0.0-2.0-17.1-1.1","battery-v0.2","","""event"",""trial"",""time""
""fullscreenenter"",""1"",""2496""
","
","
","""event"",""trial"",""time""
""fullscreenenter"",""1"",""2496""
","
","","","171","","","24","10093","4868","&#9789;","elianto","#f73b6a7A"," "," ","1","0","[1026]","1","0","4","","","","","","","",""
"pit-trial","88","708511","0.0-2.0-17.1-2.1","battery-v0.2","","""event"",""trial"",""time""
""fullscreenenter"",""1"",""2496""
","
","
","""event"",""trial"",""time""
""fullscreenenter"",""1"",""2496""
","
","","","126","","","24","10093","4868","&#9789;","elianto","#f73b6a7A"," "," ","1","0","[980]","1","0","4","","","","","","","",""
"pit-trial","89","711580","0.0-2.0-17.1-3.1","battery-v0.2","","""event"",""trial"",""time""
""fullscreenenter"",""1"",""2496""
","
","
","""event"",""trial"",""time""
""fullscreenenter"",""1"",""2496""
","
","","","204","","","24","10093","4868","&#9789;","elianto","#f73b6a7A"," "," ","1","-10","[1061]","1","0","4","","","","","","","",""
"pit-trial","90","714524","0.0-2.0-17.1-4.1","battery-v0.2","","""event"",""trial"",""time""
""fullscreenenter"",""1"",""2496""
","
","
","""event"",""trial"",""time""
""fullscreenenter"",""1"",""2496""
","
","","","86","","","24","10093","4868","&#9789;","elianto","#f73b6a7A"," "," ","1","0","[942]","1","0","4","","","","","","","",""
"pit-trial","91","717436","0.0-2.0-17.2-0.2","battery-v0.2","","""event"",""trial"",""time""
""fullscreenenter"",""1"",""2496""
","
","
","""event"",""trial"",""time""
""fullscreenenter"",""1"",""2496""
","
","","","61","","","24","10093","4868","&#9789;","elianto","#f73b6a7A"," "," ","1","0","[911]","1","0","4","","","","","","","",""
"pit-trial","92","720533","0.0-2.0-17.2-1.2","battery-v0.2","","""event"",""trial"",""time""
""fullscreenenter"",""1"",""2496""
","
","
","""event"",""trial"",""time""
""fullscreenenter"",""1"",""2496""
","
","","","245","","","24","10093","4868","&#9789;","elianto","#f73b6a7A"," "," ","1","0","[1095]","1","0","4","","","","","","","",""
"pit-trial","93","723564","0.0-2.0-17.2-2.2","battery-v0.2","","""event"",""trial"",""time""
""fullscreenenter"",""1"",""2496""
","
","
","""event"",""trial"",""time""
""fullscreenenter"",""1"",""2496""
","
","","","179","","","24","10093","4868","&#9789;","elianto","#f73b6a7A"," "," ","1","0","[1030]","1","0","4","","","","","","","",""
"pit-trial","94","726510","0.0-2.0-17.2-3.2","battery-v0.2","","""event"",""trial"",""time""
""fullscreenenter"",""1"",""2496""
","
","
","""event"",""trial"",""time""
""fullscreenenter"",""1"",""2496""
","
","","","95","","","24","10093","4868","&#9789;","elianto","#f73b6a7A"," "," ","1","-10","[945]","1","0","4","","","","","","","",""
"pit-trial","95","729478","0.0-2.0-17.2-4.2","battery-v0.2","","""event"",""trial"",""time""
""fullscreenenter"",""1"",""2496""
","
","
","""event"",""trial"",""time""
""fullscreenenter"",""1"",""2496""
","
","","","116","","","24","10093","4868","&#9789;","elianto","#f73b6a7A"," "," ","1","0","[967]","1","0","4","","","","","","","",""
"pit-trial","96","732484","0.0-2.0-17.3-0.3","battery-v0.2","","""event"",""trial"",""time""
""fullscreenenter"",""1"",""2496""
","
","
","""event"",""trial"",""time""
""fullscreenenter"",""1"",""2496""
","
","","","154","","","24","10093","4868","&#9789;","elianto","#f73b6a7A"," "," ","1","0","[1005]","1","0","4","","","","","","","",""
"pit-trial","97","735532","0.0-2.0-17.3-1.3","battery-v0.2","","""event"",""trial"",""time""
""fullscreenenter"",""1"",""2496""
","
","
","""event"",""trial"",""time""
""fullscreenenter"",""1"",""2496""
","
","","","197","","","24","10093","4868","&#9789;","elianto","#f73b6a7A"," "," ","1","0","[1047]","1","0","4","","","","","","","",""
"pit-trial","98","738533","0.0-2.0-17.3-2.3","battery-v0.2","","""event"",""trial"",""time""
""fullscreenenter"",""1"",""2496""
","
","
","""event"",""trial"",""time""
""fullscreenenter"",""1"",""2496""
","
","","","149","","","24","10093","4868","&#9789;","elianto","#f73b6a7A"," "," ","1","0","[999]","1","0","4","","","","","","","",""
"pit-trial","99","741524","0.0-2.0-17.3-3.3","battery-v0.2","","""event"",""trial"",""time""
""fullscreenenter"",""1"",""2496""
","
","
","""event"",""trial"",""time""
""fullscreenenter"",""1"",""2496""
","
","","","139","","","24","10093","4868","&#9789;","elianto","#f73b6a7A"," "," ","1","-10","[990]","1","0","4","","","","","","","",""
"pit-trial","100","744452","0.0-2.0-17.3-4.3","battery-v0.2","","""event"",""trial"",""time""
""fullscreenenter"",""1"",""2496""
","
","
","""event"",""trial"",""time""
""fullscreenenter"",""1"",""2496""
","
","","","76","","","24","10093","4868","&#9789;","elianto","#f73b6a7A"," "," ","1","0","[926]","1","0","4","","","","","","","",""
"call-function","101","744453","0.0-2.0-18.0","battery-v0.2","","""event"",""trial"",""time""
""fullscreenenter"",""1"",""2496""
","
","
","""event"",""trial"",""time""
""fullscreenenter"",""1"",""2496""
","
","","","","","","","","","","","","","","","","","","","","","","","","","","",""
"pit-instructions","102","815887","0.0-2.0-19.0","battery-v0.2","","""event"",""trial"",""time""
""fullscreenenter"",""1"",""2496""
","
","
","""event"",""trial"",""time""
""fullscreenenter"",""1"",""2496""
","
","","[{""page_index"":0,""viewing_time"":7160},{""page_index"":1,""viewing_time"":5806},{""page_index"":2,""viewing_time"":13404},{""page_index"":3,""viewing_time"":7410},{""page_index"":4,""viewing_time"":8487},{""page_index"":5,""viewing_time"":10008},{""page_index"":6,""viewing_time"":8564},{""page_index"":7,""viewing_time"":6406},{""page_index"":8,""viewing_time"":4189}]","71434","","","","","","","","","","","","","","","","","","","","","","","",""
"pit-comprehension","103","820430","0.0-2.0-20.0-0.0","battery-v0.2","","""event"",""trial"",""time""
""fullscreenenter"",""1"",""2496""
","
","
","""event"",""trial"",""time""
""fullscreenenter"",""1"",""2496""
","
","","","4541","[""SPACE""]","0","24","10093","4868","","","","","","","","","","","","","","","","","","",""
"pit-instructions","104","823728","0.0-2.0-20.0-1.0","battery-v0.2","","""event"",""trial"",""time""
""fullscreenenter"",""1"",""2496""
","
","
","""event"",""trial"",""time""
""fullscreenenter"",""1"",""2496""
","
","","[{""page_index"":0,""viewing_time"":3275}]","3275","","","","","","","","","","","","","","","","","","","","","","","",""
"pit-comprehension","105","829869","0.0-2.0-21.0-0.0","battery-v0.2","","""event"",""trial"",""time""
""fullscreenenter"",""1"",""2496""
","
","
","""event"",""trial"",""time""
""fullscreenenter"",""1"",""2496""
","
","","","6140","[""10""]","0","24","10093","4868","","","","","","","","","","","","","","","","","","",""
"pit-instructions","106","832512","0.0-2.0-21.0-1.0","battery-v0.2","","""event"",""trial"",""time""
""fullscreenenter"",""1"",""2496""
","
","
","""event"",""trial"",""time""
""fullscreenenter"",""1"",""2496""
","
","","[{""page_index"":0,""viewing_time"":2623}]","2623","","","","","","","","","","","","","","","","","","","","","","","",""
"pit-comprehension","107","839052","0.0-2.0-22.0-0.0","battery-v0.2","","""event"",""trial"",""time""
""fullscreenenter"",""1"",""2496""
","
","
","""event"",""trial"",""time""
""fullscreenenter"",""1"",""2496""
","
","","","6540","[""0""]","0","24","10093","4868","","","","","","","","","","","","","","","","","","",""
"pit-instructions","108","841253","0.0-2.0-22.0-1.0","battery-v0.2","","""event"",""trial"",""time""
""fullscreenenter"",""1"",""2496""
","
","
","""event"",""trial"",""time""
""fullscreenenter"",""1"",""2496""
","
","","[{""page_index"":0,""viewing_time"":2180}]","2180","","","","","","","","","","","","","","","","","","","","","","","",""
"pit-comprehension","109","850692","0.0-2.0-23.0-0.0","battery-v0.2","","""event"",""trial"",""time""
""fullscreenenter"",""1"",""2496""
","
","
","""event"",""trial"",""time""
""fullscreenenter"",""1"",""2496""
","
","","","9439","[""True""]","0","24","10093","4868","","","","","","","","","","","","","","","","","","",""
"pit-instructions","110","852567","0.0-2.0-23.0-1.0","battery-v0.2","","""event"",""trial"",""time""
""fullscreenenter"",""1"",""2496""
","
","
","""event"",""trial"",""time""
""fullscreenenter"",""1"",""2496""
","
","","[{""page_index"":0,""viewing_time"":1854}]","1854","","","","","","","","","","","","","","","","","","","","","","","",""
"pit-comprehension","111","860019","0.0-2.0-24.0-0.0","battery-v0.2","","""event"",""trial"",""time""
""fullscreenenter"",""1"",""2496""
","
","
","""event"",""trial"",""time""
""fullscreenenter"",""1"",""2496""
","
","","","7451","[""True""]","0","24","10093","4868","","","","","","","","","","","","","","","","","","",""
"pit-instructions","112","861553","0.0-2.0-24.0-1.0","battery-v0.2","","""event"",""trial"",""time""
""fullscreenenter"",""1"",""2496""
","
","
","""event"",""trial"",""time""
""fullscreenenter"",""1"",""2496""
","
","","[{""page_index"":0,""viewing_time"":1511}]","1511","","","","","","","","","","","","","","","","","","","","","","","",""
"pit-comprehension","113","867922","0.0-2.0-25.0-0.0","battery-v0.2","","""event"",""trial"",""time""
""fullscreenenter"",""1"",""2496""
","
","
","""event"",""trial"",""time""
""fullscreenenter"",""1"",""2496""
","
","","","6367","[""True""]","0","24","10093","4868","","","","","","","","","","","","","","","","","","",""
"pit-instructions","114","870281","0.0-2.0-25.0-1.0","battery-v0.2","","""event"",""trial"",""time""
""fullscreenenter"",""1"",""2496""
","
","
","""event"",""trial"",""time""
""fullscreenenter"",""1"",""2496""
","
","","[{""page_index"":0,""viewing_time"":2338}]","2338","","","","","","","","","","","","","","","","","","","","","","","",""
"pit-comprehension","115","875168","0.0-2.0-26.0-0.0","battery-v0.2","","""event"",""trial"",""time""
""fullscreenenter"",""1"",""2496""
","
","
","""event"",""trial"",""time""
""fullscreenenter"",""1"",""2496""
","
","","","4887","[""False""]","0","24","10093","4868","","","","","","","","","","","","","","","","","","",""
"pit-instructions","116","876676","0.0-2.0-26.0-1.0","battery-v0.2","","""event"",""trial"",""time""
""fullscreenenter"",""1"",""2496""
","
","
","""event"",""trial"",""time""
""fullscreenenter"",""1"",""2496""
","
","","[{""page_index"":0,""viewing_time"":1485}]","1485","","","","","","","","","","","","","","","","","","","","","","","",""
"pit-instructions","117","894894","0.0-3.0","battery-v0.2","","""event"",""trial"",""time""
""fullscreenenter"",""1"",""2496""
","
","
","""event"",""trial"",""time""
""fullscreenenter"",""1"",""2496""
","
","","[{""page_index"":0,""viewing_time"":4194},{""page_index"":1,""viewing_time"":6432},{""page_index"":2,""viewing_time"":7589}]","18215","","","","","","","","","","","","","","","","","","","","","","","",""
"pit-trial","118","898239","0.0-4.0","battery-v0.2","","""event"",""trial"",""time""
""fullscreenenter"",""1"",""2496""
","
","
","""event"",""trial"",""time""
""fullscreenenter"",""1"",""2496""
","
","","","483","","","24","10093","4868","&#9730;","elianto","#3366ff99"," "," ","1","0","[1332]","1","1","","","10093","1","1","1","win","go","1"
"pit-trial","119","901638","0.0-5.0","battery-v0.2","","""event"",""trial"",""time""
""fullscreenenter"",""1"",""2496""
","
","
","""event"",""trial"",""time""
""fullscreenenter"",""1"",""2496""
","
","","","535","","","24","10093","4868","&#9728;","elianto","#f73b6a7A","-1"," ","0","-10","[1387]","1","1","","","10093","2","0","4","lose","no-go","0"
"pit-trial","120","905371","0.0-6.0","battery-v0.2","","""event"",""trial"",""time""
""fullscreenenter"",""1"",""2496""
","
","
","""event"",""trial"",""time""
""fullscreenenter"",""1"",""2496""
","
","","","880","","","24","10093","4868","&#9752;","elianto","#f73b6a7A"," "," ","1","-10","[1731]","1","1","","","10093","3","3","3","lose","go","1"
"pit-trial","121","909638","0.0-7.0","battery-v0.2","","""event"",""trial"",""time""
""fullscreenenter"",""1"",""2496""
","
","
","""event"",""trial"",""time""
""fullscreenenter"",""1"",""2496""
","
","","","1408","","","24","10093","4868","&#9733;","elianto","#3366ff99","-1"," ","0","+10","[2264]","1","1","","","10093","4","2","2","win","no-go","1"
"pit-trial","122","914494","0.0-8.0","battery-v0.2","","""event"",""trial"",""time""
""fullscreenenter"",""1"",""2496""
","
","
","""event"",""trial"",""time""
""fullscreenenter"",""1"",""2496""
","
","","","-1","","","24","10093","4868","&#9752;","elianto","#f73b6a7A"," ","-1","0","-10","[]","0","1","","","10093","5","3","3","lose","go","0"
"pit-trial","123","919353","0.0-9.0","battery-v0.2","","""event"",""trial"",""time""
""fullscreenenter"",""1"",""2496""
","
","
","""event"",""trial"",""time""
""fullscreenenter"",""1"",""2496""
","
","","","-1","","","24","10093","4868","&#9728;","elianto","#f73b6a7A","-1","-1","1","-10","[]","0","1","","","10093","6","0","4","lose","no-go","1"
"pit-trial","124","924211","0.0-10.0","battery-v0.2","","""event"",""trial"",""time""
""fullscreenenter"",""1"",""2496""
","
","
","""event"",""trial"",""time""
""fullscreenenter"",""1"",""2496""
","
","","","-1","","","24","10093","4868","&#9730;","elianto","#3366ff99"," ","-1","0","0","[]","0","1","","","10093","7","1","1","win","go","0"
"pit-trial","125","927637","0.0-11.0","battery-v0.2","","""event"",""trial"",""time""
""fullscreenenter"",""1"",""2496""
","
","
","""event"",""trial"",""time""
""fullscreenenter"",""1"",""2496""
","
","","","575","","","24","10093","4868","&#9733;","elianto","#3366ff99","-1"," ","0","0","[1425]","1","1","","","10093","8","2","2","win","no-go","0"
"pit-trial","126","930980","0.0-12.0","battery-v0.2","","""event"",""trial"",""time""
""fullscreenenter"",""1"",""2496""
","
","
","""event"",""trial"",""time""
""fullscreenenter"",""1"",""2496""
","
","","","491","","","24","10093","4868","&#9728;","elianto","#f73b6a7A","-1"," ","0","-10","[1342]","1","1","","","10093","9","0","4","lose","no-go","0"
"pit-trial","127","935832","0.0-13.0","battery-v0.2","","""event"",""trial"",""time""
""fullscreenenter"",""1"",""2496""
","
","
","""event"",""trial"",""time""
""fullscreenenter"",""1"",""2496""
","
","","","-1","","","24","10093","4868","&#9730;","elianto","#3366ff99"," ","-1","0","0","[]","0","1","","","10093","10","1","1","win","go","0"
"pit-trial","128","939396","0.0-14.0","battery-v0.2","","""event"",""trial"",""time""
""fullscreenenter"",""1"",""2496""
","
","
","""event"",""trial"",""time""
""fullscreenenter"",""1"",""2496""
","
","","","712","","","24","10093","4868","&#9752;","elianto","#f73b6a7A"," "," ","1","0","[1562]","1","1","","","10093","11","3","3","lose","go","0"
"pit-trial","129","942815","0.0-15.0","battery-v0.2","","""event"",""trial"",""time""
""fullscreenenter"",""1"",""2496""
","
","
","""event"",""trial"",""time""
""fullscreenenter"",""1"",""2496""
","
","","","567","","","24","10093","4868","&#9733;","elianto","#3366ff99","-1"," ","0","0","[1417]","1","1","","","10093","12","2","2","win","no-go","0"
"pit-trial","130","946509","0.0-16.0","battery-v0.2","","""event"",""trial"",""time""
""fullscreenenter"",""1"",""2496""
","
","
","""event"",""trial"",""time""
""fullscreenenter"",""1"",""2496""
","
","","","842","","","24","10093","4868","&#9730;","elianto","#3366ff99"," "," ","1","0","[1692]","1","1","","","10093","13","1","1","win","go","1"
"pit-trial","131","950229","0.0-17.0","battery-v0.2","","""event"",""trial"",""time""
""fullscreenenter"",""1"",""2496""
","
","
","""event"",""trial"",""time""
""fullscreenenter"",""1"",""2496""
","
","","","868","","","24","10093","4868","&#9733;","elianto","#3366ff99","-1"," ","0","0","[1718]","1","1","","","10093","14","2","2","win","no-go","0"
"pit-trial","132","954198","0.0-18.0","battery-v0.2","","""event"",""trial"",""time""
""fullscreenenter"",""1"",""2496""
","
","
","""event"",""trial"",""time""
""fullscreenenter"",""1"",""2496""
","
","","","1117","","","24","10093","4868","&#9752;","elianto","#f73b6a7A"," "," ","1","0","[1968]","1","1","","","10093","15","3","3","lose","go","0"
"pit-trial","133","959050","0.0-19.0","battery-v0.2","","""event"",""trial"",""time""
""fullscreenenter"",""1"",""2496""
","
","
","""event"",""trial"",""time""
""fullscreenenter"",""1"",""2496""
","
","","","-1","","","24","10093","4868","&#9728;","elianto","#f73b6a7A","-1","-1","1","0","[]","0","1","","","10093","16","0","4","lose","no-go","0"
"pit-trial","134","963902","0.0-20.0","battery-v0.2","","""event"",""trial"",""time""
""fullscreenenter"",""1"",""2496""
","
","
","""event"",""trial"",""time""
""fullscreenenter"",""1"",""2496""
","
","","","-1","","","24","10093","4868","&#9752;","elianto","#f73b6a7A"," ","-1","0","-10","[]","0","1","","","10093","17","3","3","lose","go","0"
"pit-trial","135","968754","0.0-21.0","battery-v0.2","","""event"",""trial"",""time""
""fullscreenenter"",""1"",""2496""
","
","
","""event"",""trial"",""time""
""fullscreenenter"",""1"",""2496""
","
","","","-1","","","24","10093","4868","&#9733;","elianto","#3366ff99","-1","-1","1","+10","[]","0","1","","","10093","18","2","2","win","no-go","0"
"pit-trial","136","972901","0.0-22.0","battery-v0.2","","""event"",""trial"",""time""
""fullscreenenter"",""1"",""2496""
","
","
","""event"",""trial"",""time""
""fullscreenenter"",""1"",""2496""
","
","","","1294","","","24","10093","4868","&#9730;","elianto","#3366ff99"," "," ","1","+10","[2145]","1","1","","","10093","19","1","1","win","go","0"
"pit-trial","137","977753","0.0-23.0","battery-v0.2","","""event"",""trial"",""time""
""fullscreenenter"",""1"",""2496""
","
","
","""event"",""trial"",""time""
""fullscreenenter"",""1"",""2496""
","
","","","-1","","","24","10093","4868","&#9728;","elianto","#f73b6a7A","-1","-1","1","-10","[]","0","1","","","10093","20","0","4","lose","no-go","1"
"pit-instructions","138","990971","0.0-24.0","battery-v0.2","","""event"",""trial"",""time""
""fullscreenenter"",""1"",""2496""
","
","
","""event"",""trial"",""time""
""fullscreenenter"",""1"",""2496""
","
","","[{""page_index"":0,""viewing_time"":6453},{""page_index"":1,""viewing_time"":6763}]","13216","","","","","","","","","","","","","","","","","","","","","","","",""
"pit-trial","139","994621","0.0-25.0","battery-v0.2","","""event"",""trial"",""time""
""fullscreenenter"",""1"",""2496""
","
","
","""event"",""trial"",""time""
""fullscreenenter"",""1"",""2496""
","
","","","788","","","24","10093","4868","h","elianto","#f73b6a7A","-1"," ","0","-10","[1640]","1","2","","","10093","21","3","4","lose","no-go","0"
"pit-trial","140","998538","0.0-26.0","battery-v0.2","","""event"",""trial"",""time""
""fullscreenenter"",""1"",""2496""
","
","
","""event"",""trial"",""time""
""fullscreenenter"",""1"",""2496""
","
","","","1049","","","24","10093","4868","y","elianto","#f73b6a7A"," "," ","1","0","[1901]","1","2","","","10093","22","2","3","lose","go","0"
"pit-trial","141","1002701","0.0-27.0","battery-v0.2","","""event"",""trial"",""time""
""fullscreenenter"",""1"",""2496""
","
","
","""event"",""trial"",""time""
""fullscreenenter"",""1"",""2496""
","
","","","1310","","","24","10093","4868","m","elianto","#f73b6a7A"," "," ","1","0","[2159]","1","2","","","10093","23","0","3","lose","go","0"
"pit-trial","142","1006968","0.0-28.0","battery-v0.2","","""event"",""trial"",""time""
""fullscreenenter"",""1"",""2496""
","
","
","""event"",""trial"",""time""
""fullscreenenter"",""1"",""2496""
","
","","","1401","","","24","10093","4868","r","elianto","#3366ff99","-1"," ","0","+10","[2253]","1","2","","","10093","24","1","2","win","no-go","1"
"pit-trial","143","1010678","0.0-29.0","battery-v0.2","","""event"",""trial"",""time""
""fullscreenenter"",""1"",""2496""
","
","
","""event"",""trial"",""time""
""fullscreenenter"",""1"",""2496""
","
","","","851","","","24","10093","4868","r","elianto","#3366ff99","-1"," ","0","+10","[1706]","1","2","","","10093","25","1","2","win","no-go","1"
"pit-trial","144","1015536","0.0-30.0","battery-v0.2","","""event"",""trial"",""time""
""fullscreenenter"",""1"",""2496""
","
","
","""event"",""trial"",""time""
""fullscreenenter"",""1"",""2496""
","
","","","-1","","","24","10093","4868","y","elianto","#f73b6a7A"," ","-1","0","0","[]","0","2","","","10093","26","2","3","lose","go","1"
"pit-trial","145","1020399","0.0-31.0","battery-v0.2","","""event"",""trial"",""time""
""fullscreenenter"",""1"",""2496""
","
","
","""event"",""trial"",""time""
""fullscreenenter"",""1"",""2496""
","
","","","-1","","","24","10093","4868","h","elianto","#f73b6a7A","-1","-1","1","0","[]","0","2","","","10093","27","3","4","lose","no-go","0"
"pit-trial","146","1024423","0.0-32.0","battery-v0.2","","""event"",""trial"",""time""
""fullscreenenter"",""1"",""2496""
","
","
","""event"",""trial"",""time""
""fullscreenenter"",""1"",""2496""
","
","","","1173","","","24","10093","4868","m","elianto","#f73b6a7A"," "," ","1","0","[2021]","1","2","","","10093","28","0","3","lose","go","0"
"pit-trial","147","1029275","0.0-33.0","battery-v0.2","","""event"",""trial"",""time""
""fullscreenenter"",""1"",""2496""
","
","
","""event"",""trial"",""time""
""fullscreenenter"",""1"",""2496""
","
","","","-1","","","24","10093","4868","h","elianto","#f73b6a7A","-1","-1","1","0","[]","0","2","","","10093","29","3","4","lose","no-go","0"
"pit-trial","148","1032933","0.0-34.0","battery-v0.2","","""event"",""trial"",""time""
""fullscreenenter"",""1"",""2496""
","
","
","""event"",""trial"",""time""
""fullscreenenter"",""1"",""2496""
","
","","","805","","","24","10093","4868","m","elianto","#f73b6a7A"," "," ","1","-10","[1656]","1","2","","","10093","30","0","3","lose","go","1"
"pit-trial","149","1036524","0.0-35.0","battery-v0.2","","""event"",""trial"",""time""
""fullscreenenter"",""1"",""2496""
","
","
","""event"",""trial"",""time""
""fullscreenenter"",""1"",""2496""
","
","","","740","","","24","10093","4868","r","elianto","#3366ff99","-1"," ","0","+10","[1590]","1","2","","","10093","31","1","2","win","no-go","1"
"pit-trial","150","1041377","0.0-36.0","battery-v0.2","","""event"",""trial"",""time""
""fullscreenenter"",""1"",""2496""
","
","
","""event"",""trial"",""time""
""fullscreenenter"",""1"",""2496""
","
","","","-1","","","24","10093","4868","y","elianto","#f73b6a7A"," ","-1","0","-10","[]","0","2","","","10093","32","2","3","lose","go","0"
"pit-trial","151","1044837","0.0-37.0","battery-v0.2","","""event"",""trial"",""time""
""fullscreenenter"",""1"",""2496""
","
","
","""event"",""trial"",""time""
""fullscreenenter"",""1"",""2496""
","
","","","608","","","24","10093","4868","r","elianto","#3366ff99","-1"," ","0","0","[1459]","1","2","","","10093","33","1","2","win","no-go","0"
"pit-trial","152","1049260","0.0-38.0","battery-v0.2","","""event"",""trial"",""time""
""fullscreenenter"",""1"",""2496""
","
","
","""event"",""trial"",""time""
""fullscreenenter"",""1"",""2496""
","
","","","1571","","","24","10093","4868","y","elianto","#f73b6a7A"," "," ","1","0","[2421]","1","2","","","10093","34","2","3","lose","go","0"
"pit-trial","153","1054119","0.0-39.0","battery-v0.2","","""event"",""trial"",""time""
""fullscreenenter"",""1"",""2496""
","
","
","""event"",""trial"",""time""
""fullscreenenter"",""1"",""2496""
","
","","","-1","","","24","10093","4868","h","elianto","#f73b6a7A","-1","-1","1","-10","[]","0","2","","","10093","35","3","4","lose","no-go","1"
"pit-trial","154","1057772","0.0-40.0","battery-v0.2","","""event"",""trial"",""time""
""fullscreenenter"",""1"",""2496""
","
","
","""event"",""trial"",""time""
""fullscreenenter"",""1"",""2496""
","
","","","802","","","24","10093","4868","m","elianto","#f73b6a7A"," "," ","1","0","[1653]","1","2","","","10093","36","0","3","lose","go","0"
"pit-trial","155","1061796","0.0-41.0","battery-v0.2","","""event"",""trial"",""time""
""fullscreenenter"",""1"",""2496""
","
","
","""event"",""trial"",""time""
""fullscreenenter"",""1"",""2496""
","
","","","1173","","","24","10093","4868","m","elianto","#f73b6a7A"," "," ","1","0","[2023]","1","2","","","10093","37","0","3","lose","go","0"
"pit-trial","156","1065540","0.0-42.0","battery-v0.2","","""event"",""trial"",""time""
""fullscreenenter"",""1"",""2496""
","
","
","""event"",""trial"",""time""
""fullscreenenter"",""1"",""2496""
","
","","","892","","","24","10093","4868","y","elianto","#f73b6a7A"," "," ","1","0","[1742]","1","2","","","10093","38","2","3","lose","go","0"
"pit-trial","157","1068988","0.0-43.0","battery-v0.2","","""event"",""trial"",""time""
""fullscreenenter"",""1"",""2496""
","
","
","""event"",""trial"",""time""
""fullscreenenter"",""1"",""2496""
","
","","","597","","","24","10093","4868","r","elianto","#3366ff99","-1"," ","0","+10","[1447]","1","2","","","10093","39","1","2","win","no-go","1"
"pit-trial","158","1073840","0.0-44.0","battery-v0.2","","""event"",""trial"",""time""
""fullscreenenter"",""1"",""2496""
","
","
","""event"",""trial"",""time""
""fullscreenenter"",""1"",""2496""
","
","","","-1","","","24","10093","4868","h","elianto","#f73b6a7A","-1","-1","1","0","[]","0","2","","","10093","40","3","4","lose","no-go","0"
"pit-trial","159","1078692","0.0-45.0","battery-v0.2","","""event"",""trial"",""time""
""fullscreenenter"",""1"",""2496""
","
","
","""event"",""trial"",""time""
""fullscreenenter"",""1"",""2496""
","
","","","-1","","","24","10093","4868","h","elianto","#f73b6a7A","-1","-1","1","-10","[]","0","2","","","10093","41","3","4","lose","no-go","1"
"pit-trial","160","1082476","0.0-46.0","battery-v0.2","","""event"",""trial"",""time""
""fullscreenenter"",""1"",""2496""
","
","
","""event"",""trial"",""time""
""fullscreenenter"",""1"",""2496""
","
","","","932","","","24","10093","4868","y","elianto","#f73b6a7A"," "," ","1","0","[1783]","1","2","","","10093","42","2","3","lose","go","0"
"pit-trial","161","1086084","0.0-47.0","battery-v0.2","","""event"",""trial"",""time""
""fullscreenenter"",""1"",""2496""
","
","
","""event"",""trial"",""time""
""fullscreenenter"",""1"",""2496""
","
","","","755","","","24","10093","4868","r","elianto","#3366ff99","-1"," ","0","0","[1606]","1","2","","","10093","43","1","2","win","no-go","0"
"pit-trial","162","1089899","0.0-48.0","battery-v0.2","","""event"",""trial"",""time""
""fullscreenenter"",""1"",""2496""
","
","
","""event"",""trial"",""time""
""fullscreenenter"",""1"",""2496""
","
","","","965","","","24","10093","4868","m","elianto","#f73b6a7A"," "," ","1","0","[1816]","1","2","","","10093","44","0","3","lose","go","0"
"pit-trial","163","1094301","0.0-49.0","battery-v0.2","","""event"",""trial"",""time""
""fullscreenenter"",""1"",""2496""
","
","
","""event"",""trial"",""time""
""fullscreenenter"",""1"",""2496""
","
","","","1549","","","24","10093","4868","y","elianto","#f73b6a7A"," "," ","1","0","[2400]","1","2","","","10093","45","2","3","lose","go","0"
"pit-trial","164","1098380","0.0-50.0","battery-v0.2","","""event"",""trial"",""time""
""fullscreenenter"",""1"",""2496""
","
","
","""event"",""trial"",""time""
""fullscreenenter"",""1"",""2496""
","
","","","1227","","","24","10093","4868","m","elianto","#f73b6a7A"," "," ","1","-10","[2078]","1","2","","","10093","46","0","3","lose","go","1"
"pit-trial","165","1101972","0.0-51.0","battery-v0.2","","""event"",""trial"",""time""
""fullscreenenter"",""1"",""2496""
","
","
","""event"",""trial"",""time""
""fullscreenenter"",""1"",""2496""
","
","","","739","","","24","10093","4868","r","elianto","#3366ff99","-1"," ","0","0","[1591]","1","2","","","10093","47","1","2","win","no-go","0"
"pit-trial","166","1106824","0.0-52.0","battery-v0.2","","""event"",""trial"",""time""
""fullscreenenter"",""1"",""2496""
","
","
","""event"",""trial"",""time""
""fullscreenenter"",""1"",""2496""
","
","","","-1","","","24","10093","4868","h","elianto","#f73b6a7A","-1","-1","1","0","[]","0","2","","","10093","48","3","4","lose","no-go","0"
"pit-trial","167","1111677","0.0-53.0","battery-v0.2","","""event"",""trial"",""time""
""fullscreenenter"",""1"",""2496""
","
","
","""event"",""trial"",""time""
""fullscreenenter"",""1"",""2496""
","
","","","-1","","","24","10093","4868","h","elianto","#f73b6a7A","-1","-1","1","0","[]","0","2","","","10093","49","3","4","lose","no-go","0"
"pit-trial","168","1115404","0.0-54.0","battery-v0.2","","""event"",""trial"",""time""
""fullscreenenter"",""1"",""2496""
","
","
","""event"",""trial"",""time""
""fullscreenenter"",""1"",""2496""
","
","","","876","","","24","10093","4868","m","elianto","#f73b6a7A"," "," ","1","0","[1726]","1","2","","","10093","50","0","3","lose","go","0"
"pit-trial","169","1120256","0.0-55.0","battery-v0.2","","""event"",""trial"",""time""
""fullscreenenter"",""1"",""2496""
","
","
","""event"",""trial"",""time""
""fullscreenenter"",""1"",""2496""
","
","","","-1","","","24","10093","4868","r","elianto","#3366ff99","-1","-1","1","+10","[]","0","2","","","10093","51","1","2","win","no-go","0"
"pit-trial","170","1124100","0.0-56.0","battery-v0.2","","""event"",""trial"",""time""
""fullscreenenter"",""1"",""2496""
","
","
","""event"",""trial"",""time""
""fullscreenenter"",""1"",""2496""
","
","","","991","","","24","10093","4868","y","elianto","#f73b6a7A"," "," ","1","0","[1841]","1","2","","","10093","52","2","3","lose","go","0"
"pit-trial","171","1128952","0.0-57.0","battery-v0.2","","""event"",""trial"",""time""
""fullscreenenter"",""1"",""2496""
","
","
","""event"",""trial"",""time""
""fullscreenenter"",""1"",""2496""
","
","","","-1","","","24","10093","4868","h","elianto","#f73b6a7A","-1","-1","1","0","[]","0","2","","","10093","53","3","4","lose","no-go","0"
"pit-trial","172","1132661","0.0-58.0","battery-v0.2","","""event"",""trial"",""time""
""fullscreenenter"",""1"",""2496""
","
","
","""event"",""trial"",""time""
""fullscreenenter"",""1"",""2496""
","
","","","856","","","24","10093","4868","m","elianto","#f73b6a7A"," "," ","1","0","[1707]","1","2","","","10093","54","0","3","lose","go","0"
"pit-trial","173","1136460","0.0-59.0","battery-v0.2","","""event"",""trial"",""time""
""fullscreenenter"",""1"",""2496""
","
","
","""event"",""trial"",""time""
""fullscreenenter"",""1"",""2496""
","
","","","948","","","24","10093","4868","y","elianto","#f73b6a7A"," "," ","1","0","[1797]","1","2","","","10093","55","2","3","lose","go","0"
"pit-trial","174","1141312","0.0-60.0","battery-v0.2","","""event"",""trial"",""time""
""fullscreenenter"",""1"",""2496""
","
","
","""event"",""trial"",""time""
""fullscreenenter"",""1"",""2496""
","
","","","-1","","","24","10093","4868","r","elianto","#3366ff99","-1","-1","1","+10","[]","0","2","","","10093","56","1","2","win","no-go","0"
"pit-trial","175","1146164","0.0-61.0","battery-v0.2","","""event"",""trial"",""time""
""fullscreenenter"",""1"",""2496""
","
","
","""event"",""trial"",""time""
""fullscreenenter"",""1"",""2496""
","
","","","-1","","","24","10093","4868","h","elianto","#f73b6a7A","-1","-1","1","0","[]","0","2","","","10093","57","3","4","lose","no-go","0"
"pit-trial","176","1149844","0.0-62.0","battery-v0.2","","""event"",""trial"",""time""
""fullscreenenter"",""1"",""2496""
","
","
","""event"",""trial"",""time""
""fullscreenenter"",""1"",""2496""
","
","","","828","","","24","10093","4868","m","elianto","#f73b6a7A"," "," ","1","0","[1678]","1","2","","","10093","58","0","3","lose","go","0"
"pit-trial","177","1153588","0.0-63.0","battery-v0.2","","""event"",""trial"",""time""
""fullscreenenter"",""1"",""2496""
","
","
","""event"",""trial"",""time""
""fullscreenenter"",""1"",""2496""
","
","","","892","","","24","10093","4868","y","elianto","#f73b6a7A"," "," ","1","0","[1743]","1","2","","","10093","59","2","3","lose","go","0"
"pit-trial","178","1157796","0.0-64.0","battery-v0.2","","""event"",""trial"",""time""
""fullscreenenter"",""1"",""2496""
","
","
","""event"",""trial"",""time""
""fullscreenenter"",""1"",""2496""
","
","","","1356","","","24","10093","4868","z","elianto","#3366ff99"," "," ","1","+10","[2206]","1","2","","","10093","60","4","1","win","go","0"
"pit-trial","179","1161420","0.0-65.0","battery-v0.2","","""event"",""trial"",""time""
""fullscreenenter"",""1"",""2496""
","
","
","""event"",""trial"",""time""
""fullscreenenter"",""1"",""2496""
","
","","","773","","","24","10093","4868","z","elianto","#3366ff99"," "," ","1","+10","[1623]","1","2","","","10093","61","4","1","win","go","0"
"pit-trial","180","1165158","0.0-66.0","battery-v0.2","","""event"",""trial"",""time""
""fullscreenenter"",""1"",""2496""
","
","
","""event"",""trial"",""time""
""fullscreenenter"",""1"",""2496""
","
","","","887","","","24","10093","4868","r","elianto","#3366ff99","-1"," ","0","0","[1738]","1","2","","","10093","62","1","2","win","no-go","0"
"pit-trial","181","1169052","0.0-67.0","battery-v0.2","","""event"",""trial"",""time""
""fullscreenenter"",""1"",""2496""
","
","
","""event"",""trial"",""time""
""fullscreenenter"",""1"",""2496""
","
","","","1042","","","24","10093","4868","y","elianto","#f73b6a7A"," "," ","1","0","[1892]","1","2","","","10093","63","2","3","lose","go","0"
"pit-trial","182","1173904","0.0-68.0","battery-v0.2","","""event"",""trial"",""time""
""fullscreenenter"",""1"",""2496""
","
","
","""event"",""trial"",""time""
""fullscreenenter"",""1"",""2496""
","
","","","-1","","","24","10093","4868","h","elianto","#f73b6a7A","-1","-1","1","0","[]","0","2","","","10093","64","3","4","lose","no-go","0"
"pit-trial","183","1178756","0.0-69.0","battery-v0.2","","""event"",""trial"",""time""
""fullscreenenter"",""1"",""2496""
","
","
","""event"",""trial"",""time""
""fullscreenenter"",""1"",""2496""
","
","","","-1","","","24","10093","4868","c","elianto","#3366ff99","-1","-1","1","0","[]","0","2","","","10093","65","5","2","win","no-go","1"
"pit-trial","184","1182276","0.0-70.0","battery-v0.2","","""event"",""trial"",""time""
""fullscreenenter"",""1"",""2496""
","
","
","""event"",""trial"",""time""
""fullscreenenter"",""1"",""2496""
","
","","","669","","","24","10093","4868","z","elianto","#3366ff99"," "," ","1","+10","[1519]","1","2","","","10093","66","4","1","win","go","0"
"pit-trial","185","1187128","0.0-71.0","battery-v0.2","","""event"",""trial"",""time""
""fullscreenenter"",""1"",""2496""
","
","
","""event"",""trial"",""time""
""fullscreenenter"",""1"",""2496""
","
","","","-1","","","24","10093","4868","h","elianto","#f73b6a7A","-1","-1","1","0","[]","0","2","","","10093","67","3","4","lose","no-go","0"
"pit-trial","186","1191980","0.0-72.0","battery-v0.2","","""event"",""trial"",""time""
""fullscreenenter"",""1"",""2496""
","
","
","""event"",""trial"",""time""
""fullscreenenter"",""1"",""2496""
","
","","","-1","","","24","10093","4868","r","elianto","#3366ff99","-1","-1","1","+10","[]","0","2","","","10093","68","1","2","win","no-go","0"
"pit-trial","187","1195796","0.0-73.0","battery-v0.2","","""event"",""trial"",""time""
""fullscreenenter"",""1"",""2496""
","
","
","""event"",""trial"",""time""
""fullscreenenter"",""1"",""2496""
","
","","","964","","","24","10093","4868","y","elianto","#f73b6a7A"," "," ","1","0","[1815]","1","2","","","10093","69","2","3","lose","go","0"
"pit-trial","188","1199845","0.0-74.0","battery-v0.2","","""event"",""trial"",""time""
""fullscreenenter"",""1"",""2496""
","
","
","""event"",""trial"",""time""
""fullscreenenter"",""1"",""2496""
","
","","","1196","","","24","10093","4868","c","elianto","#3366ff99","-1"," ","0","0","[2046]","1","2","","","10093","70","5","2","win","no-go","0"
"pit-trial","189","1203588","0.0-75.0","battery-v0.2","","""event"",""trial"",""time""
""fullscreenenter"",""1"",""2496""
","
","
","""event"",""trial"",""time""
""fullscreenenter"",""1"",""2496""
","
","","","893","","","24","10093","4868","z","elianto","#3366ff99"," "," ","1","+10","[1743]","1","2","","","10093","71","4","1","win","go","0"
"pit-trial","190","1208440","0.0-76.0","battery-v0.2","","""event"",""trial"",""time""
""fullscreenenter"",""1"",""2496""
","
","
","""event"",""trial"",""time""
""fullscreenenter"",""1"",""2496""
","
","","","-1","","","24","10093","4868","r","elianto","#3366ff99","-1","-1","1","+10","[]","0","2","","","10093","72","1","2","win","no-go","0"
"pit-trial","191","1213293","0.0-77.0","battery-v0.2","","""event"",""trial"",""time""
""fullscreenenter"",""1"",""2496""
","
","
","""event"",""trial"",""time""
""fullscreenenter"",""1"",""2496""
","
","","","-1","","","24","10093","4868","h","elianto","#f73b6a7A","-1","-1","1","0","[]","0","2","","","10093","73","3","4","lose","no-go","0"
"pit-trial","192","1216924","0.0-78.0","battery-v0.2","","""event"",""trial"",""time""
""fullscreenenter"",""1"",""2496""
","
","
","""event"",""trial"",""time""
""fullscreenenter"",""1"",""2496""
","
","","","780","","","24","10093","4868","z","elianto","#3366ff99"," "," ","1","0","[1630]","1","2","","","10093","74","4","1","win","go","1"
"pit-trial","193","1221776","0.0-79.0","battery-v0.2","","""event"",""trial"",""time""
""fullscreenenter"",""1"",""2496""
","
","
","""event"",""trial"",""time""
""fullscreenenter"",""1"",""2496""
","
","","","-1","","","24","10093","4868","r","elianto","#3366ff99","-1","-1","1","+10","[]","0","2","","","10093","75","1","2","win","no-go","0"
"pit-trial","194","1225492","0.0-80.0","battery-v0.2","","""event"",""trial"",""time""
""fullscreenenter"",""1"",""2496""
","
","
","""event"",""trial"",""time""
""fullscreenenter"",""1"",""2496""
","
","","","864","","","24","10093","4868","c","elianto","#3366ff99","-1"," ","0","0","[1714]","1","2","","","10093","76","5","2","win","no-go","0"
"pit-trial","195","1229596","0.0-81.0","battery-v0.2","","""event"",""trial"",""time""
""fullscreenenter"",""1"",""2496""
","
","
","""event"",""trial"",""time""
""fullscreenenter"",""1"",""2496""
","
","","","1252","","","24","10093","4868","z","elianto","#3366ff99"," "," ","1","0","[2102]","1","2","","","10093","77","4","1","win","go","1"
"pit-trial","196","1234448","0.0-82.0","battery-v0.2","","""event"",""trial"",""time""
""fullscreenenter"",""1"",""2496""
","
","
","""event"",""trial"",""time""
""fullscreenenter"",""1"",""2496""
","
","","","-1","","","24","10093","4868","c","elianto","#3366ff99","-1","-1","1","+10","[]","0","2","","","10093","78","5","2","win","no-go","0"
"pit-trial","197","1238332","0.0-83.0","battery-v0.2","","""event"",""trial"",""time""
""fullscreenenter"",""1"",""2496""
","
","
","""event"",""trial"",""time""
""fullscreenenter"",""1"",""2496""
","
","","","1031","","","24","10093","4868","z","elianto","#3366ff99"," "," ","1","+10","[1882]","1","2","","","10093","79","4","1","win","go","0"
"pit-trial","198","1243184","0.0-84.0","battery-v0.2","","""event"",""trial"",""time""
""fullscreenenter"",""1"",""2496""
","
","
","""event"",""trial"",""time""
""fullscreenenter"",""1"",""2496""
","
","","","-1","","","24","10093","4868","h","elianto","#f73b6a7A","-1","-1","1","0","[]","0","2","","","10093","80","3","4","lose","no-go","0"
"pit-trial","199","1247220","0.0-85.0","battery-v0.2","","""event"",""trial"",""time""
""fullscreenenter"",""1"",""2496""
","
","
","""event"",""trial"",""time""
""fullscreenenter"",""1"",""2496""
","
","","","1185","","","24","10093","4868","t","elianto","#f73b6a7A","-1"," ","0","-10","[2035]","1","2","","","10093","81","7","4","lose","no-go","0"
"pit-trial","200","1251077","0.0-86.0","battery-v0.2","","""event"",""trial"",""time""
""fullscreenenter"",""1"",""2496""
","
","
","""event"",""trial"",""time""
""fullscreenenter"",""1"",""2496""
","
","","","1005","","","24","10093","4868","z","elianto","#3366ff99"," "," ","1","+10","[1855]","1","2","","","10093","82","4","1","win","go","0"
"pit-trial","201","1255929","0.0-87.0","battery-v0.2","","""event"",""trial"",""time""
""fullscreenenter"",""1"",""2496""
","
","
","""event"",""trial"",""time""
""fullscreenenter"",""1"",""2496""
","
","","","-1","","","24","10093","4868","h","elianto","#f73b6a7A","-1","-1","1","-10","[]","0","2","","","10093","83","3","4","lose","no-go","1"
"pit-trial","202","1260780","0.0-88.0","battery-v0.2","","""event"",""trial"",""time""
""fullscreenenter"",""1"",""2496""
","
","
","""event"",""trial"",""time""
""fullscreenenter"",""1"",""2496""
","
","","","-1","","","24","10093","4868","c","elianto","#3366ff99","-1","-1","1","0","[]","0","2","","","10093","84","5","2","win","no-go","1"
"pit-trial","203","1265632","0.0-89.0","battery-v0.2","","""event"",""trial"",""time""
""fullscreenenter"",""1"",""2496""
","
","
","""event"",""trial"",""time""
""fullscreenenter"",""1"",""2496""
","
","","","-1","","","24","10093","4868","t","elianto","#f73b6a7A","-1","-1","1","-10","[]","0","2","","","10093","85","7","4","lose","no-go","1"
"pit-trial","204","1269595","0.0-90.0","battery-v0.2","","""event"",""trial"",""time""
""fullscreenenter"",""1"",""2496""
","
","
","""event"",""trial"",""time""
""fullscreenenter"",""1"",""2496""
","
","","","1112","","","24","10093","4868","b","elianto","#f73b6a7A"," "," ","1","0","[1963]","1","2","","","10093","86","6","3","lose","go","0"
"pit-trial","205","1273396","0.0-91.0","battery-v0.2","","""event"",""trial"",""time""
""fullscreenenter"",""1"",""2496""
","
","
","""event"",""trial"",""time""
""fullscreenenter"",""1"",""2496""
","
","","","948","","","24","10093","4868","z","elianto","#3366ff99"," "," ","1","+10","[1798]","1","2","","","10093","87","4","1","win","go","0"
"pit-trial","206","1277540","0.0-92.0","battery-v0.2","","""event"",""trial"",""time""
""fullscreenenter"",""1"",""2496""
","
","
","""event"",""trial"",""time""
""fullscreenenter"",""1"",""2496""
","
","","","1292","","","24","10093","4868","c","elianto","#3366ff99","-1"," ","0","0","[2142]","1","2","","","10093","88","5","2","win","no-go","0"
"pit-trial","207","1282392","0.0-93.0","battery-v0.2","","""event"",""trial"",""time""
""fullscreenenter"",""1"",""2496""
","
","
","""event"",""trial"",""time""
""fullscreenenter"",""1"",""2496""
","
","","","-1","","","24","10093","4868","c","elianto","#3366ff99","-1","-1","1","+10","[]","0","2","","","10093","89","5","2","win","no-go","0"
"pit-trial","208","1286468","0.0-94.0","battery-v0.2","","""event"",""trial"",""time""
""fullscreenenter"",""1"",""2496""
","
","
","""event"",""trial"",""time""
""fullscreenenter"",""1"",""2496""
","
","","","1225","","","24","10093","4868","t","elianto","#f73b6a7A","-1"," ","0","-10","[2075]","1","2","","","10093","90","7","4","lose","no-go","0"
"pit-trial","209","1290188","0.0-95.0","battery-v0.2","","""event"",""trial"",""time""
""fullscreenenter"",""1"",""2496""
","
","
","""event"",""trial"",""time""
""fullscreenenter"",""1"",""2496""
","
","","","867","","","24","10093","4868","z","elianto","#3366ff99"," "," ","1","+10","[1717]","1","2","","","10093","91","4","1","win","go","0"
"pit-trial","210","1295040","0.0-96.0","battery-v0.2","","""event"",""trial"",""time""
""fullscreenenter"",""1"",""2496""
","
","
","""event"",""trial"",""time""
""fullscreenenter"",""1"",""2496""
","
","","","-1","","","24","10093","4868","b","elianto","#f73b6a7A"," ","-1","0","-10","[]","0","2","","","10093","92","6","3","lose","go","0"
"pit-trial","211","1299111","0.0-97.0","battery-v0.2","","""event"",""trial"",""time""
""fullscreenenter"",""1"",""2496""
","
","
","""event"",""trial"",""time""
""fullscreenenter"",""1"",""2496""
","
","","","1218","","","24","10093","4868","f","elianto","#3366ff99"," "," ","1","+10","[2069]","1","2","","","10093","93","8","1","win","go","0"
"pit-trial","212","1303404","0.0-98.0","battery-v0.2","","""event"",""trial"",""time""
""fullscreenenter"",""1"",""2496""
","
","
","""event"",""trial"",""time""
""fullscreenenter"",""1"",""2496""
","
","","","1440","","","24","10093","4868","t","elianto","#f73b6a7A","-1"," ","0","-10","[2290]","1","2","","","10093","94","7","4","lose","no-go","0"
"pit-trial","213","1308265","0.0-99.0","battery-v0.2","","""event"",""trial"",""time""
""fullscreenenter"",""1"",""2496""
","
","
","""event"",""trial"",""time""
""fullscreenenter"",""1"",""2496""
","
","","","-1","","","24","10093","4868","c","elianto","#3366ff99","-1","-1","1","+10","[]","0","2","","","10093","95","5","2","win","no-go","0"
"pit-trial","214","1312460","0.0-100.0","battery-v0.2","","""event"",""trial"",""time""
""fullscreenenter"",""1"",""2496""
","
","
","""event"",""trial"",""time""
""fullscreenenter"",""1"",""2496""
","
","","","1343","","","24","10093","4868","b","elianto","#f73b6a7A"," "," ","1","0","[2193]","1","2","","","10093","96","6","3","lose","go","0"
"pit-trial","215","1317313","0.0-101.0","battery-v0.2","","""event"",""trial"",""time""
""fullscreenenter"",""1"",""2496""
","
","
","""event"",""trial"",""time""
""fullscreenenter"",""1"",""2496""
","
","","","-1","","","24","10093","4868","c","elianto","#3366ff99","-1","-1","1","0","[]","0","2","","","10093","97","5","2","win","no-go","1"
"pit-trial","216","1321286","0.0-102.0","battery-v0.2","","""event"",""trial"",""time""
""fullscreenenter"",""1"",""2496""
","
","
","""event"",""trial"",""time""
""fullscreenenter"",""1"",""2496""
","
","","","1121","","","24","10093","4868","b","elianto","#f73b6a7A"," "," ","1","0","[1972]","1","2","","","10093","98","6","3","lose","go","0"
"pit-trial","217","1326138","0.0-103.0","battery-v0.2","","""event"",""trial"",""time""
""fullscreenenter"",""1"",""2496""
","
","
","""event"",""trial"",""time""
""fullscreenenter"",""1"",""2496""
","
","","","-1","","","24","10093","4868","t","elianto","#f73b6a7A","-1","-1","1","0","[]","0","2","","","10093","99","7","4","lose","no-go","0"
"pit-trial","218","1329487","0.0-104.0","battery-v0.2","","""event"",""trial"",""time""
""fullscreenenter"",""1"",""2496""
","
","
","""event"",""trial"",""time""
""fullscreenenter"",""1"",""2496""
","
","","","496","","","24","10093","4868","f","elianto","#3366ff99"," "," ","1","+10","[1346]","1","2","","","10093","100","8","1","win","go","0"
"pit-trial","219","1333494","0.0-105.0","battery-v0.2","","""event"",""trial"",""time""
""fullscreenenter"",""1"",""2496""
","
","
","""event"",""trial"",""time""
""fullscreenenter"",""1"",""2496""
","
","","","1153","","","24","10093","4868","n","elianto","#3366ff99"," "," ","1","+10","[2004]","1","2","","","10093","101","9","1","win","go","0"
"pit-trial","220","1337237","0.0-106.0","battery-v0.2","","""event"",""trial"",""time""
""fullscreenenter"",""1"",""2496""
","
","
","""event"",""trial"",""time""
""fullscreenenter"",""1"",""2496""
","
","","","891","","","24","10093","4868","f","elianto","#3366ff99"," "," ","1","0","[1742]","1","2","","","10093","102","8","1","win","go","1"
"pit-trial","221","1342101","0.0-107.0","battery-v0.2","","""event"",""trial"",""time""
""fullscreenenter"",""1"",""2496""
","
","
","""event"",""trial"",""time""
""fullscreenenter"",""1"",""2496""
","
","","","-1","","","24","10093","4868","c","elianto","#3366ff99","-1","-1","1","0","[]","0","2","","","10093","103","5","2","win","no-go","1"
"pit-trial","222","1346953","0.0-108.0","battery-v0.2","","""event"",""trial"",""time""
""fullscreenenter"",""1"",""2496""
","
","
","""event"",""trial"",""time""
""fullscreenenter"",""1"",""2496""
","
","","","-1","","","24","10093","4868","t","elianto","#f73b6a7A","-1","-1","1","-10","[]","0","2","","","10093","104","7","4","lose","no-go","1"
"pit-trial","223","1350973","0.0-109.0","battery-v0.2","","""event"",""trial"",""time""
""fullscreenenter"",""1"",""2496""
","
","
","""event"",""trial"",""time""
""fullscreenenter"",""1"",""2496""
","
","","","1169","","","24","10093","4868","z","elianto","#3366ff99"," "," ","1","+10","[2018]","1","2","","","10093","105","4","1","win","go","0"
"pit-trial","224","1354829","0.0-110.0","battery-v0.2","","""event"",""trial"",""time""
""fullscreenenter"",""1"",""2496""
","
","
","""event"",""trial"",""time""
""fullscreenenter"",""1"",""2496""
","
","","","1004","","","24","10093","4868","b","elianto","#f73b6a7A"," "," ","1","0","[1854]","1","2","","","10093","106","6","3","lose","go","0"
"pit-trial","225","1358589","0.0-111.0","battery-v0.2","","""event"",""trial"",""time""
""fullscreenenter"",""1"",""2496""
","
","
","""event"",""trial"",""time""
""fullscreenenter"",""1"",""2496""
","
","","","907","","","24","10093","4868","n","elianto","#3366ff99"," "," ","1","+10","[1758]","1","2","","","10093","107","9","1","win","go","0"
"pit-trial","226","1362335","0.0-112.0","battery-v0.2","","""event"",""trial"",""time""
""fullscreenenter"",""1"",""2496""
","
","
","""event"",""trial"",""time""
""fullscreenenter"",""1"",""2496""
","
","","","894","","","24","10093","4868","f","elianto","#3366ff99"," "," ","1","+10","[1745]","1","2","","","10093","108","8","1","win","go","0"
"pit-trial","227","1367187","0.0-113.0","battery-v0.2","","""event"",""trial"",""time""
""fullscreenenter"",""1"",""2496""
","
","
","""event"",""trial"",""time""
""fullscreenenter"",""1"",""2496""
","
","","","-1","","","24","10093","4868","c","elianto","#3366ff99","-1","-1","1","+10","[]","0","2","","","10093","109","5","2","win","no-go","0"
"pit-trial","228","1370790","0.0-114.0","battery-v0.2","","""event"",""trial"",""time""
""fullscreenenter"",""1"",""2496""
","
","
","""event"",""trial"",""time""
""fullscreenenter"",""1"",""2496""
","
","","","751","","","24","10093","4868","b","elianto","#f73b6a7A"," "," ","1","0","[1602]","1","2","","","10093","110","6","3","lose","go","0"
"pit-trial","229","1374405","0.0-115.0","battery-v0.2","","""event"",""trial"",""time""
""fullscreenenter"",""1"",""2496""
","
","
","""event"",""trial"",""time""
""fullscreenenter"",""1"",""2496""
","
","","","762","","","24","10093","4868","n","elianto","#3366ff99"," "," ","1","+10","[1614]","1","2","","","10093","111","9","1","win","go","0"
"pit-trial","230","1378110","0.0-116.0","battery-v0.2","","""event"",""trial"",""time""
""fullscreenenter"",""1"",""2496""
","
","
","""event"",""trial"",""time""
""fullscreenenter"",""1"",""2496""
","
","","","851","","","24","10093","4868","f","elianto","#3366ff99"," "," ","1","+10","[1703]","1","2","","","10093","112","8","1","win","go","0"
"pit-trial","231","1381780","0.0-117.0","battery-v0.2","","""event"",""trial"",""time""
""fullscreenenter"",""1"",""2496""
","
","
","""event"",""trial"",""time""
""fullscreenenter"",""1"",""2496""
","
","","","820","","","24","10093","4868","n","elianto","#3366ff99"," "," ","1","+10","[1670]","1","2","","","10093","113","9","1","win","go","0"
"pit-trial","232","1386633","0.0-118.0","battery-v0.2","","""event"",""trial"",""time""
""fullscreenenter"",""1"",""2496""
","
","
","""event"",""trial"",""time""
""fullscreenenter"",""1"",""2496""
","
","","","-1","","","24","10093","4868","c","elianto","#3366ff99","-1","-1","1","+10","[]","0","2","","","10093","114","5","2","win","no-go","0"
"pit-trial","233","1390213","0.0-119.0","battery-v0.2","","""event"",""trial"",""time""
""fullscreenenter"",""1"",""2496""
","
","
","""event"",""trial"",""time""
""fullscreenenter"",""1"",""2496""
","
","","","730","","","24","10093","4868","f","elianto","#3366ff99"," "," ","1","0","[1580]","1","2","","","10093","115","8","1","win","go","1"
"pit-trial","234","1393884","0.0-120.0","battery-v0.2","","""event"",""trial"",""time""
""fullscreenenter"",""1"",""2496""
","
","
","""event"",""trial"",""time""
""fullscreenenter"",""1"",""2496""
","
","","","819","","","24","10093","4868","b","elianto","#f73b6a7A"," "," ","1","0","[1669]","1","2","","","10093","116","6","3","lose","go","0"
"pit-trial","235","1397414","0.0-121.0","battery-v0.2","","""event"",""trial"",""time""
""fullscreenenter"",""1"",""2496""
","
","
","""event"",""trial"",""time""
""fullscreenenter"",""1"",""2496""
","
","","","679","","","24","10093","4868","n","elianto","#3366ff99"," "," ","1","0","[1529]","1","2","","","10093","117","9","1","win","go","1"
"pit-trial","236","1402266","0.0-122.0","battery-v0.2","","""event"",""trial"",""time""
""fullscreenenter"",""1"",""2496""
","
","
","""event"",""trial"",""time""
""fullscreenenter"",""1"",""2496""
","
","","","-1","","","24","10093","4868","c","elianto","#3366ff99","-1","-1","1","+10","[]","0","2","","","10093","118","5","2","win","no-go","0"
"pit-trial","237","1405828","0.0-123.0","battery-v0.2","","""event"",""trial"",""time""
""fullscreenenter"",""1"",""2496""
","
","
","""event"",""trial"",""time""
""fullscreenenter"",""1"",""2496""
","
","","","711","","","24","10093","4868","b","elianto","#f73b6a7A"," "," ","1","0","[1561]","1","2","","","10093","119","6","3","lose","go","0"
"pit-trial","238","1409326","0.0-124.0","battery-v0.2","","""event"",""trial"",""time""
""fullscreenenter"",""1"",""2496""
","
","
","""event"",""trial"",""time""
""fullscreenenter"",""1"",""2496""
","
","","","645","","","24","10093","4868","f","elianto","#3366ff99"," "," ","1","+10","[1495]","1","2","","","10093","120","8","1","win","go","0"
"pit-trial","239","1412885","0.0-125.0","battery-v0.2","","""event"",""trial"",""time""
""fullscreenenter"",""1"",""2496""
","
","
","""event"",""trial"",""time""
""fullscreenenter"",""1"",""2496""
","
","","","707","","","24","10093","4868","b","elianto","#f73b6a7A"," "," ","1","-10","[1558]","1","2","","","10093","121","6","3","lose","go","1"
"pit-trial","240","1416309","0.0-126.0","battery-v0.2","","""event"",""trial"",""time""
""fullscreenenter"",""1"",""2496""
","
","
","""event"",""trial"",""time""
""fullscreenenter"",""1"",""2496""
","
","","","572","","","24","10093","4868","f","elianto","#3366ff99"," "," ","1","+10","[1422]","1","2","","","10093","122","8","1","win","go","0"
"pit-trial","241","1421176","0.0-127.0","battery-v0.2","","""event"",""trial"",""time""
""fullscreenenter"",""1"",""2496""
","
","
","""event"",""trial"",""time""
""fullscreenenter"",""1"",""2496""
","
","","","-1","","","24","10093","4868","t","elianto","#f73b6a7A","-1","-1","1","0","[]","0","2","","","10093","123","7","4","lose","no-go","0"
"pit-trial","242","1424669","0.0-128.0","battery-v0.2","","""event"",""trial"",""time""
""fullscreenenter"",""1"",""2496""
","
","
","""event"",""trial"",""time""
""fullscreenenter"",""1"",""2496""
","
","","","641","","","24","10093","4868","n","elianto","#3366ff99"," "," ","1","+10","[1492]","1","2","","","10093","124","9","1","win","go","0"
"pit-trial","243","1428245","0.0-129.0","battery-v0.2","","""event"",""trial"",""time""
""fullscreenenter"",""1"",""2496""
","
","
","""event"",""trial"",""time""
""fullscreenenter"",""1"",""2496""
","
","","","723","","","24","10093","4868","f","elianto","#3366ff99"," "," ","1","+10","[1575]","1","2","","","10093","125","8","1","win","go","0"
"pit-trial","244","1433097","0.0-130.0","battery-v0.2","","""event"",""trial"",""time""
""fullscreenenter"",""1"",""2496""
","
","
","""event"",""trial"",""time""
""fullscreenenter"",""1"",""2496""
","
","","","-1","","","24","10093","4868","t","elianto","#f73b6a7A","-1","-1","1","-10","[]","0","2","","","10093","126","7","4","lose","no-go","1"
"pit-trial","245","1436604","0.0-131.0","battery-v0.2","","""event"",""trial"",""time""
""fullscreenenter"",""1"",""2496""
","
","
","""event"",""trial"",""time""
""fullscreenenter"",""1"",""2496""
","
","","","657","","","24","10093","4868","n","elianto","#3366ff99"," "," ","1","+10","[1507]","1","2","","","10093","127","9","1","win","go","0"
"pit-trial","246","1440268","0.0-132.0","battery-v0.2","","""event"",""trial"",""time""
""fullscreenenter"",""1"",""2496""
","
","
","""event"",""trial"",""time""
""fullscreenenter"",""1"",""2496""
","
","","","813","","","24","10093","4868","b","elianto","#f73b6a7A"," "," ","1","-10","[1663]","1","2","","","10093","128","6","3","lose","go","1"
"pit-trial","247","1443828","0.0-133.0","battery-v0.2","","""event"",""trial"",""time""
""fullscreenenter"",""1"",""2496""
","
","
","""event"",""trial"",""time""
""fullscreenenter"",""1"",""2496""
","
","","","708","","","24","10093","4868","b","elianto","#f73b6a7A"," "," ","1","-10","[1558]","1","2","","","10093","129","6","3","lose","go","1"
"pit-trial","248","1447324","0.0-134.0","battery-v0.2","","""event"",""trial"",""time""
""fullscreenenter"",""1"",""2496""
","
","
","""event"",""trial"",""time""
""fullscreenenter"",""1"",""2496""
","
","","","643","","","24","10093","4868","n","elianto","#3366ff99"," "," ","1","+10","[1494]","1","2","","","10093","130","9","1","win","go","0"
"pit-trial","249","1451045","0.0-135.0","battery-v0.2","","""event"",""trial"",""time""
""fullscreenenter"",""1"",""2496""
","
","
","""event"",""trial"",""time""
""fullscreenenter"",""1"",""2496""
","
","","","869","","","24","10093","4868","f","elianto","#3366ff99"," "," ","1","+10","[1719]","1","2","","","10093","131","8","1","win","go","0"
"pit-trial","250","1455897","0.0-136.0","battery-v0.2","","""event"",""trial"",""time""
""fullscreenenter"",""1"",""2496""
","
","
","""event"",""trial"",""time""
""fullscreenenter"",""1"",""2496""
","
","","","-1","","","24","10093","4868","t","elianto","#f73b6a7A","-1","-1","1","0","[]","0","2","","","10093","132","7","4","lose","no-go","0"
"pit-trial","251","1460749","0.0-137.0","battery-v0.2","","""event"",""trial"",""time""
""fullscreenenter"",""1"",""2496""
","
","
","""event"",""trial"",""time""
""fullscreenenter"",""1"",""2496""
","
","","","-1","","","24","10093","4868","t","elianto","#f73b6a7A","-1","-1","1","0","[]","0","2","","","10093","133","7","4","lose","no-go","0"
"pit-trial","252","1464228","0.0-138.0","battery-v0.2","","""event"",""trial"",""time""
""fullscreenenter"",""1"",""2496""
","
","
","""event"",""trial"",""time""
""fullscreenenter"",""1"",""2496""
","
","","","627","","","24","10093","4868","n","elianto","#3366ff99"," "," ","1","+10","[1477]","1","2","","","10093","134","9","1","win","go","0"
"pit-trial","253","1467804","0.0-139.0","battery-v0.2","","""event"",""trial"",""time""
""fullscreenenter"",""1"",""2496""
","
","
","""event"",""trial"",""time""
""fullscreenenter"",""1"",""2496""
","
","","","724","","","24","10093","4868","f","elianto","#3366ff99"," "," ","1","+10","[1575]","1","2","","","10093","135","8","1","win","go","0"
"pit-trial","254","1471492","0.0-140.0","battery-v0.2","","""event"",""trial"",""time""
""fullscreenenter"",""1"",""2496""
","
","
","""event"",""trial"",""time""
""fullscreenenter"",""1"",""2496""
","
","","","836","","","24","10093","4868","b","elianto","#f73b6a7A"," "," ","1","0","[1686]","1","2","","","10093","136","6","3","lose","go","0"
"pit-trial","255","1475028","0.0-141.0","battery-v0.2","","""event"",""trial"",""time""
""fullscreenenter"",""1"",""2496""
","
","
","""event"",""trial"",""time""
""fullscreenenter"",""1"",""2496""
","
","","","684","","","24","10093","4868","f","elianto","#3366ff99"," "," ","1","+10","[1534]","1","2","","","10093","137","8","1","win","go","0"
"pit-trial","256","1478710","0.0-142.0","battery-v0.2","","""event"",""trial"",""time""
""fullscreenenter"",""1"",""2496""
","
","
","""event"",""trial"",""time""
""fullscreenenter"",""1"",""2496""
","
","","","830","","","24","10093","4868","b","elianto","#f73b6a7A"," "," ","1","0","[1680]","1","2","","","10093","138","6","3","lose","go","0"
"pit-trial","257","1482212","0.0-143.0","battery-v0.2","","""event"",""trial"",""time""
""fullscreenenter"",""1"",""2496""
","
","
","""event"",""trial"",""time""
""fullscreenenter"",""1"",""2496""
","
","","","650","","","24","10093","4868","n","elianto","#3366ff99"," "," ","1","+10","[1500]","1","2","","","10093","139","9","1","win","go","0"
"pit-trial","258","1487064","0.0-144.0","battery-v0.2","","""event"",""trial"",""time""
""fullscreenenter"",""1"",""2496""
","
","
","""event"",""trial"",""time""
""fullscreenenter"",""1"",""2496""
","
","","","-1","","","24","10093","4868","t","elianto","#f73b6a7A","-1","-1","1","0","[]","0","2","","","10093","140","7","4","lose","no-go","0"
"pit-instructions","259","1521211","0.0-145.0","battery-v0.2","","""event"",""trial"",""time""
""fullscreenenter"",""1"",""2496""
","
","
","""event"",""trial"",""time""
""fullscreenenter"",""1"",""2496""
","
","","[{""page_index"":0,""viewing_time"":25598},{""page_index"":1,""viewing_time"":8547}]","34146","","","","","","","","","","","","","","","","","","","","","","","",""
"pit-trial","260","1524733","0.0-146.0","battery-v0.2","","""event"",""trial"",""time""
""fullscreenenter"",""1"",""2496""
","
","
","""event"",""trial"",""time""
""fullscreenenter"",""1"",""2496""
","
","","","667","","","24","10093","4868","g","elianto","#f73b6a7A"," "," ","1","0","[1518]","1","3","","","10093","141","3","3","lose","go","0"
"pit-trial","261","1529592","0.0-147.0","battery-v0.2","","""event"",""trial"",""time""
""fullscreenenter"",""1"",""2496""
","
","
","""event"",""trial"",""time""
""fullscreenenter"",""1"",""2496""
","
","","","-1","","","24","10093","4868","a","elianto","#f73b6a7A","-1","-1","1","-10","[]","0","3","","","10093","142","2","4","lose","no-go","1"
"pit-trial","262","1533361","0.0-148.0","battery-v0.2","","""event"",""trial"",""time""
""fullscreenenter"",""1"",""2496""
","
","
","""event"",""trial"",""time""
""fullscreenenter"",""1"",""2496""
","
","","","913","","","24","10093","4868","l","elianto","#3366ff99"," "," ","1","0","[1764]","1","3","","","10093","143","1","1","win","go","1"
"pit-trial","263","1538217","0.0-149.0","battery-v0.2","","""event"",""trial"",""time""
""fullscreenenter"",""1"",""2496""
","
","
","""event"",""trial"",""time""
""fullscreenenter"",""1"",""2496""
","
","","","-1","","","24","10093","4868","u","elianto","#f73b6a7A","-1","-1","1","0","[]","0","3","","","10093","144","0","4","lose","no-go","0"
"pit-trial","264","1543077","0.0-150.0","battery-v0.2","","""event"",""trial"",""time""
""fullscreenenter"",""1"",""2496""
","
","
","""event"",""trial"",""time""
""fullscreenenter"",""1"",""2496""
","
","","","-1","","","24","10093","4868","u","elianto","#f73b6a7A","-1","-1","1","0","[]","0","3","","","10093","145","0","4","lose","no-go","0"
"pit-trial","265","1546660","0.0-151.0","battery-v0.2","","""event"",""trial"",""time""
""fullscreenenter"",""1"",""2496""
","
","
","""event"",""trial"",""time""
""fullscreenenter"",""1"",""2496""
","
","","","724","","","24","10093","4868","a","elianto","#f73b6a7A","-1"," ","0","0","[1576]","1","3","","","10093","146","2","4","lose","no-go","1"
"pit-trial","266","1550173","0.0-152.0","battery-v0.2","","""event"",""trial"",""time""
""fullscreenenter"",""1"",""2496""
","
","
","""event"",""trial"",""time""
""fullscreenenter"",""1"",""2496""
","
","","","659","","","24","10093","4868","g","elianto","#f73b6a7A"," "," ","1","0","[1509]","1","3","","","10093","147","3","3","lose","go","0"
"pit-trial","267","1555025","0.0-153.0","battery-v0.2","","""event"",""trial"",""time""
""fullscreenenter"",""1"",""2496""
","
","
","""event"",""trial"",""time""
""fullscreenenter"",""1"",""2496""
","
","","","-1","","","24","10093","4868","l","elianto","#3366ff99"," ","-1","0","0","[]","0","3","","","10093","148","1","1","win","go","0"
"pit-trial","268","1559877","0.0-154.0","battery-v0.2","","""event"",""trial"",""time""
""fullscreenenter"",""1"",""2496""
","
","
","""event"",""trial"",""time""
""fullscreenenter"",""1"",""2496""
","
","","","-1","","","24","10093","4868","l","elianto","#3366ff99"," ","-1","0","0","[]","0","3","","","10093","149","1","1","win","go","0"
"pit-trial","269","1564729","0.0-155.0","battery-v0.2","","""event"",""trial"",""time""
""fullscreenenter"",""1"",""2496""
","
","
","""event"",""trial"",""time""
""fullscreenenter"",""1"",""2496""
","
","","","-1","","","24","10093","4868","u","elianto","#f73b6a7A","-1","-1","1","0","[]","0","3","","","10093","150","0","4","lose","no-go","0"
"pit-trial","270","1568253","0.0-156.0","battery-v0.2","","""event"",""trial"",""time""
""fullscreenenter"",""1"",""2496""
","
","
","""event"",""trial"",""time""
""fullscreenenter"",""1"",""2496""
","
","","","672","","","24","10093","4868","g","elianto","#f73b6a7A"," "," ","1","0","[1523]","1","3","","","10093","151","3","3","lose","go","0"
"pit-trial","271","1571870","0.0-157.0","battery-v0.2","","""event"",""trial"",""time""
""fullscreenenter"",""1"",""2496""
","
","
","""event"",""trial"",""time""
""fullscreenenter"",""1"",""2496""
","
","","","765","","","24","10093","4868","a","elianto","#f73b6a7A","-1"," ","0","-10","[1614]","1","3","","","10093","152","2","4","lose","no-go","0"
"pit-trial","272","1575485","0.0-158.0","battery-v0.2","","""event"",""trial"",""time""
""fullscreenenter"",""1"",""2496""
","
","
","""event"",""trial"",""time""
""fullscreenenter"",""1"",""2496""
","
","","","763","","","24","10093","4868","a","elianto","#f73b6a7A","-1"," ","0","-10","[1613]","1","3","","","10093","153","2","4","lose","no-go","0"
"pit-trial","273","1579021","0.0-159.0","battery-v0.2","","""event"",""trial"",""time""
""fullscreenenter"",""1"",""2496""
","
","
","""event"",""trial"",""time""
""fullscreenenter"",""1"",""2496""
","
","","","684","","","24","10093","4868","g","elianto","#f73b6a7A"," "," ","1","0","[1534]","1","3","","","10093","154","3","3","lose","go","0"
"pit-trial","274","1583873","0.0-160.0","battery-v0.2","","""event"",""trial"",""time""
""fullscreenenter"",""1"",""2496""
","
","
","""event"",""trial"",""time""
""fullscreenenter"",""1"",""2496""
","
","","","-1","","","24","10093","4868","u","elianto","#f73b6a7A","-1","-1","1","-10","[]","0","3","","","10093","155","0","4","lose","no-go","1"
"pit-trial","275","1587349","0.0-161.0","battery-v0.2","","""event"",""trial"",""time""
""fullscreenenter"",""1"",""2496""
","
","
","""event"",""trial"",""time""
""fullscreenenter"",""1"",""2496""
","
","","","623","","","24","10093","4868","l","elianto","#3366ff99"," "," ","1","+10","[1473]","1","3","","","10093","156","1","1","win","go","0"
"pit-trial","276","1591164","0.0-162.0","battery-v0.2","","""event"",""trial"",""time""
""fullscreenenter"",""1"",""2496""
","
","
","""event"",""trial"",""time""
""fullscreenenter"",""1"",""2496""
","
","","","965","","","24","10093","4868","a","elianto","#f73b6a7A","-1"," ","0","-10","[1815]","1","3","","","10093","157","2","4","lose","no-go","0"
"pit-trial","277","1594628","0.0-163.0","battery-v0.2","","""event"",""trial"",""time""
""fullscreenenter"",""1"",""2496""
","
","
","""event"",""trial"",""time""
""fullscreenenter"",""1"",""2496""
","
","","","613","","","24","10093","4868","l","elianto","#3366ff99"," "," ","1","+10","[1463]","1","3","","","10093","158","1","1","win","go","0"
"pit-trial","278","1598125","0.0-164.0","battery-v0.2","","""event"",""trial"",""time""
""fullscreenenter"",""1"",""2496""
","
","
