"trial_type","trial_index","time_elapsed","internal_node_id","task_version","subject_id","interactions","blur_events","focus_events","fullscreenenter_events","fullscreenexit_events","success","view_history","rt","responses","num_errors","age","subject","participantId","rune","rune_set","hex","correct","choice","accuracy","outcome","keys","total_keys","block","practice","value","sub","trial","stimulus","robot","valence","action","sham"
"pavlovia","0","5","0.0-0.0","battery-v0.2","","""event"",""trial"",""time""
""fullscreenenter"",""1"",""2275""
","
","
","""event"",""trial"",""time""
""fullscreenenter"",""1"",""2275""
","
","","","","","","","","","","","","","","","","","","","","","","","","","","",""
"fullscreen","1","3268","0.0-1.0","battery-v0.2","","""event"",""trial"",""time""
""fullscreenenter"",""1"",""2275""
","
","
","""event"",""trial"",""time""
""fullscreenenter"",""1"",""2275""
","
","true","","","","","","","","","","","","","","","","","","","","","","","","","",""
"pit-instructions","2","6436","0.0-2.0-0.0","battery-v0.2","","""event"",""trial"",""time""
""fullscreenenter"",""1"",""2275""
","
","
","""event"",""trial"",""time""
""fullscreenenter"",""1"",""2275""
","
","","[{""page_index"":0,""viewing_time"":3163.3000000715256}]","3163.600000023842","","","","","","","","","","","","","","","","","","","","","","","",""
"pit-comprehension","3","10805","0.0-2.0-1.0-0.0","battery-v0.2","","""event"",""trial"",""time""
""fullscreenenter"",""1"",""2275""
","
","
","""event"",""trial"",""time""
""fullscreenenter"",""1"",""2275""
","
","","","4366","[""shark""]","0","11","6345","3747","","","","","","","","","","","","","","","","","","",""
"pit-instructions","4","12468","0.0-2.0-1.0-1.0","battery-v0.2","","""event"",""trial"",""time""
""fullscreenenter"",""1"",""2275""
","
","
","""event"",""trial"",""time""
""fullscreenenter"",""1"",""2275""
","
","","[{""page_index"":0,""viewing_time"":1657.5}]","1657.9000000953674","","","","","","","","","","","","","","","","","","","","","","","",""
"pit-comprehension","5","15165","0.0-2.0-2.0-0.0","battery-v0.2","","""event"",""trial"",""time""
""fullscreenenter"",""1"",""2275""
","
","
","""event"",""trial"",""time""
""fullscreenenter"",""1"",""2275""
","
","","","2695.100000023842","[""tiger""]","0","11","6345","3747","","","","","","","","","","","","","","","","","","",""
"pit-instructions","6","19844","0.0-2.0-2.0-1.0","battery-v0.2","","""event"",""trial"",""time""
""fullscreenenter"",""1"",""2275""
","
","
","""event"",""trial"",""time""
""fullscreenenter"",""1"",""2275""
","
","","[{""page_index"":0,""viewing_time"":4676.199999928474}]","4676.600000023842","","","","","","","","","","","","","","","","","","","","","","","",""
"pit-instructions","7","108316","0.0-2.0-3.0","battery-v0.2","","""event"",""trial"",""time""
""fullscreenenter"",""1"",""2275""
","
","
","""event"",""trial"",""time""
""fullscreenenter"",""1"",""2275""
","
","","[{""page_index"":0,""viewing_time"":7814.100000023842},{""page_index"":1,""viewing_time"":5376},{""page_index"":2,""viewing_time"":7272},{""page_index"":3,""viewing_time"":5408.199999928474},{""page_index"":4,""viewing_time"":5432.100000023842},{""page_index"":5,""viewing_time"":5351.899999976158},{""page_index"":6,""viewing_time"":6535.800000071526},{""page_index"":7,""viewing_time"":6248.299999952316},{""page_index"":8,""viewing_time"":6423.800000071526},{""page_index"":9,""viewing_time"":7311.899999976158},{""page_index"":10,""viewing_time"":7912.199999928474},{""page_index"":11,""viewing_time"":6080},{""page_index"":12,""viewing_time"":6576},{""page_index"":13,""viewing_time"":4727.800000071526}]","88470.5","","","","","","","","","","","","","","","","","","","","","","","",""
"pit-trial","8","111784","0.0-2.0-4.0-0.0","battery-v0.2","","""event"",""trial"",""time""
""fullscreenenter"",""1"",""2275""
","
","
","""event"",""trial"",""time""
""fullscreenenter"",""1"",""2275""
","
","","","596.6000000238419","","","11","6345","3747","&#9784;","elianto","#FFFFF080"," "," ","1","&#10004","[1446.8999999761581]","1","0","0","","","","","","","",""
"pit-trial","9","115334","0.0-2.0-4.1-0.1","battery-v0.2","","""event"",""trial"",""time""
""fullscreenenter"",""1"",""2275""
","
","
","""event"",""trial"",""time""
""fullscreenenter"",""1"",""2275""
","
","","","668.2999999523163","","","11","6345","3747","&#9784;","elianto","#FFFFF080"," "," ","1","&#10004","[1531.4000000953674]","1","0","0","","","","","","","",""
"pit-trial","10","118833","0.0-2.0-4.2-0.2","battery-v0.2","","""event"",""trial"",""time""
""fullscreenenter"",""1"",""2275""
","
","
","""event"",""trial"",""time""
""fullscreenenter"",""1"",""2275""
","
","","","633.8000000715256","","","11","6345","3747","&#9784;","elianto","#FFFFF080"," "," ","1","&#10004","[1484.1999999284744]","1","0","0","","","","","","","",""
"pit-trial","11","122333","0.0-2.0-4.3-0.3","battery-v0.2","","""event"",""trial"",""time""
""fullscreenenter"",""1"",""2275""
","
","
","""event"",""trial"",""time""
""fullscreenenter"",""1"",""2275""
","
","","","638.2000000476837","","","11","6345","3747","&#9784;","elianto","#FFFFF080"," "," ","1","&#10004","[1488.6000000238419]","1","0","0","","","","","","","",""
"pit-trial","12","125743","0.0-2.0-4.4-0.4","battery-v0.2","","""event"",""trial"",""time""
""fullscreenenter"",""1"",""2275""
","
","
","""event"",""trial"",""time""
""fullscreenenter"",""1"",""2275""
","
","","","532.3999999761581","","","11","6345","3747","&#9784;","elianto","#FFFFF080"," "," ","1","&#10004","[1382.7999999523163]","1","0","0","","","","","","","",""
"pit-instructions","13","148988","0.0-2.0-5.0","battery-v0.2","","""event"",""trial"",""time""
""fullscreenenter"",""1"",""2275""
","
","
","""event"",""trial"",""time""
""fullscreenenter"",""1"",""2275""
","
","","[{""page_index"":0,""viewing_time"":6505.600000023842},{""page_index"":1,""viewing_time"":5431.5},{""page_index"":2,""viewing_time"":5152.100000023842},{""page_index"":3,""viewing_time"":6152.099999904633}]","23241.700000047684","","","","","","","","","","","","","","","","","","","","","","","",""
"pit-trial","14","152584","0.0-2.0-6.0-0.0","battery-v0.2","","""event"",""trial"",""time""
""fullscreenenter"",""1"",""2275""
","
","
","""event"",""trial"",""time""
""fullscreenenter"",""1"",""2275""
","
","","","729.1000000238419","","","11","6345","3747","&#9854;","elianto","#FFFFF080","-1"," ","0","&#10060","[1591]","1","0","1","","","","","","","",""
"pit-trial","15","157463","0.0-2.0-6.1-0.1","battery-v0.2","","""event"",""trial"",""time""
""fullscreenenter"",""1"",""2275""
","
","
","""event"",""trial"",""time""
""fullscreenenter"",""1"",""2275""
","
","","","-1","","","11","6345","3747","&#9854;","elianto","#FFFFF080","-1","-1","1","&#10004","[]","0","0","1","","","","","","","",""
"pit-trial","16","162353","0.0-2.0-6.2-0.2","battery-v0.2","","""event"",""trial"",""time""
""fullscreenenter"",""1"",""2275""
","
","
","""event"",""trial"",""time""
""fullscreenenter"",""1"",""2275""
","
","","","-1","","","11","6345","3747","&#9854;","elianto","#FFFFF080","-1","-1","1","&#10004","[]","0","0","1","","","","","","","",""
"pit-trial","17","167223","0.0-2.0-6.3-0.3","battery-v0.2","","""event"",""trial"",""time""
""fullscreenenter"",""1"",""2275""
","
","
","""event"",""trial"",""time""
""fullscreenenter"",""1"",""2275""
","
","","","-1","","","11","6345","3747","&#9854;","elianto","#FFFFF080","-1","-1","1","&#10004","[]","0","0","1","","","","","","","",""
"pit-trial","18","172123","0.0-2.0-6.4-0.4","battery-v0.2","","""event"",""trial"",""time""
""fullscreenenter"",""1"",""2275""
","
","
","""event"",""trial"",""time""
""fullscreenenter"",""1"",""2275""
","
","","","-1","","","11","6345","3747","&#9854;","elianto","#FFFFF080","-1","-1","1","&#10004","[]","0","0","1","","","","","","","",""
"pit-instructions","19","285556","0.0-2.0-7.0","battery-v0.2","","""event"",""trial"",""time""
""fullscreenenter"",""1"",""2275""
","
","
","""event"",""trial"",""time""
""fullscreenenter"",""1"",""2275""
","
","","[{""page_index"":0,""viewing_time"":5773},{""page_index"":1,""viewing_time"":6848.100000023842},{""page_index"":2,""viewing_time"":5919.899999976158},{""page_index"":3,""viewing_time"":7951.799999952316},{""page_index"":4,""viewing_time"":6192.399999976158},{""page_index"":5,""viewing_time"":5711.600000023842},{""page_index"":6,""viewing_time"":4175.800000071526},{""page_index"":7,""viewing_time"":7528.399999976158},{""page_index"":8,""viewing_time"":6312},{""page_index"":9,""viewing_time"":5415.799999952316},{""page_index"":10,""viewing_time"":6360.200000047684},{""page_index"":11,""viewing_time"":4639.899999976158},{""page_index"":12,""viewing_time"":7752.200000047684},{""page_index"":13,""viewing_time"":6327.599999904633},{""page_index"":14,""viewing_time"":6976.400000095367},{""page_index"":15,""viewing_time"":6343.899999976158},{""page_index"":16,""viewing_time"":6736.100000023842},{""page_index"":17,""viewing_time"":6463.699999928474}]","113429.39999997616","","","","","","","","","","","","","","","","","","","","","","","",""
"pit-trial","20","290443","0.0-2.0-8.0-0.0","battery-v0.2","","""event"",""trial"",""time""
""fullscreenenter"",""1"",""2275""
","
","
","""event"",""trial"",""time""
""fullscreenenter"",""1"",""2275""
","
","","","-1","","","11","6345","3747","&#9776;","elianto","#3366ff99"," ","-1","0","0","[]","0","0","1","","","","","","","",""
"pit-trial","21","293793","0.0-2.0-8.0-1.0","battery-v0.2","","""event"",""trial"",""time""
""fullscreenenter"",""1"",""2275""
","
","
","""event"",""trial"",""time""
""fullscreenenter"",""1"",""2275""
","
","","","479.7000000476837","","","11","6345","3747","&#9776;","elianto","#3366ff99"," "," ","1","+10","[1335.5]","1","0","1","","","","","","","",""
"pit-trial","22","297034","0.0-2.0-8.0-2.0","battery-v0.2","","""event"",""trial"",""time""
""fullscreenenter"",""1"",""2275""
","
","
","""event"",""trial"",""time""
""fullscreenenter"",""1"",""2275""
","
","","","359.2000000476837","","","11","6345","3747","&#9776;","elianto","#3366ff99"," "," ","1","+10","[1217.1000000238419]","1","0","1","","","","","","","",""
"pit-trial","23","300379","0.0-2.0-8.0-3.0","battery-v0.2","","""event"",""trial"",""time""
""fullscreenenter"",""1"",""2275""
","
","
","""event"",""trial"",""time""
""fullscreenenter"",""1"",""2275""
","
","","","472","","","11","6345","3747","&#9776;","elianto","#3366ff99"," "," ","1","0","[1323.1000000238419]","1","0","1","","","","","","","",""
"pit-trial","24","303744","0.0-2.0-8.0-4.0","battery-v0.2","","""event"",""trial"",""time""
""fullscreenenter"",""1"",""2275""
","
","
","""event"",""trial"",""time""
""fullscreenenter"",""1"",""2275""
","
","","","498.2000000476837","","","11","6345","3747","&#9776;","elianto","#3366ff99"," "," ","1","+10","[1352.1000000238419]","1","0","1","","","","","","","",""
"pit-trial","25","306863","0.0-2.0-8.1-0.1","battery-v0.2","","""event"",""trial"",""time""
""fullscreenenter"",""1"",""2275""
","
","
","""event"",""trial"",""time""
""fullscreenenter"",""1"",""2275""
","
","","","251.10000002384186","","","11","6345","3747","&#9776;","elianto","#3366ff99"," "," ","1","+10","[1105.7000000476837]","1","0","1","","","","","","","",""
"pit-trial","26","310173","0.0-2.0-8.1-1.1","battery-v0.2","","""event"",""trial"",""time""
""fullscreenenter"",""1"",""2275""
","
","
","""event"",""trial"",""time""
""fullscreenenter"",""1"",""2275""
","
","","","444.09999990463257","","","11","6345","3747","&#9776;","elianto","#3366ff99"," "," ","1","+10","[1298.6000000238419]","1","0","1","","","","","","","",""
"pit-trial","27","313983","0.0-2.0-8.1-2.1","battery-v0.2","","""event"",""trial"",""time""
""fullscreenenter"",""1"",""2275""
","
","
","""event"",""trial"",""time""
""fullscreenenter"",""1"",""2275""
","
","","","921.5999999046326","","","11","6345","3747","&#9776;","elianto","#3366ff99"," "," ","1","+10","[1782.6999999284744]","1","0","1","","","","","","","",""
"pit-trial","28","317660","0.0-2.0-8.1-3.1","battery-v0.2","","""event"",""trial"",""time""
""fullscreenenter"",""1"",""2275""
","
","
","""event"",""trial"",""time""
""fullscreenenter"",""1"",""2275""
","
","","","816.6999999284744","","","11","6345","3747","&#9776;","elianto","#3366ff99"," "," ","1","0","[1667.2999999523163]","1","0","1","","","","","","","",""
"pit-trial","29","320716","0.0-2.0-8.1-4.1","battery-v0.2","","""event"",""trial"",""time""
""fullscreenenter"",""1"",""2275""
","
","
","""event"",""trial"",""time""
""fullscreenenter"",""1"",""2275""
","
","","","191.60000002384186","","","11","6345","3747","&#9776;","elianto","#3366ff99"," "," ","1","+10","[1045.6999999284744]","1","0","1","","","","","","","",""
"pit-trial","30","323692","0.0-2.0-8.2-0.2","battery-v0.2","","""event"",""trial"",""time""
""fullscreenenter"",""1"",""2275""
","
","
","""event"",""trial"",""time""
""fullscreenenter"",""1"",""2275""
","
","","","114.5","","","11","6345","3747","&#9776;","elianto","#3366ff99"," "," ","1","+10","[965.3999999761581]","1","0","1","","","","","","","",""
"pit-trial","31","326844","0.0-2.0-8.2-1.2","battery-v0.2","","""event"",""trial"",""time""
""fullscreenenter"",""1"",""2275""
","
","
","""event"",""trial"",""time""
""fullscreenenter"",""1"",""2275""
","
","","","291.60000002384186","","","11","6345","3747","&#9776;","elianto","#3366ff99"," "," ","1","+10","[1145.2000000476837]","1","0","1","","","","","","","",""
"pit-trial","32","330124","0.0-2.0-8.2-2.2","battery-v0.2","","""event"",""trial"",""time""
""fullscreenenter"",""1"",""2275""
","
","
","""event"",""trial"",""time""
""fullscreenenter"",""1"",""2275""
","
","","","416.39999997615814","","","11","6345","3747","&#9776;","elianto","#3366ff99"," "," ","1","+10","[1270.7999999523163]","1","0","1","","","","","","","",""
"pit-trial","33","333517","0.0-2.0-8.2-3.2","battery-v0.2","","""event"",""trial"",""time""
""fullscreenenter"",""1"",""2275""
","
","
","""event"",""trial"",""time""
""fullscreenenter"",""1"",""2275""
","
","","","528.2999999523163","","","11","6345","3747","&#9776;","elianto","#3366ff99"," "," ","1","0","[1382.5]","1","0","1","","","","","","","",""
"pit-trial","34","336860","0.0-2.0-8.2-4.2","battery-v0.2","","""event"",""trial"",""time""
""fullscreenenter"",""1"",""2275""
","
","
","""event"",""trial"",""time""
""fullscreenenter"",""1"",""2275""
","
","","","482.59999990463257","","","11","6345","3747","&#9776;","elianto","#3366ff99"," "," ","1","+10","[1333.7000000476837]","1","0","1","","","","","","","",""
"call-function","35","336862","0.0-2.0-9.0","battery-v0.2","","""event"",""trial"",""time""
""fullscreenenter"",""1"",""2275""
","
","
","""event"",""trial"",""time""
""fullscreenenter"",""1"",""2275""
","
","","","","","","","","","","","","","","","","","","","","","","","","","","",""
"pit-instructions","36","373988","0.0-2.0-10.0","battery-v0.2","","""event"",""trial"",""time""
""fullscreenenter"",""1"",""2275""
","
","
","""event"",""trial"",""time""
""fullscreenenter"",""1"",""2275""
","
","","[{""page_index"":0,""viewing_time"":5395.899999976158},{""page_index"":1,""viewing_time"":7008.600000023842},{""page_index"":2,""viewing_time"":9287.899999976158},{""page_index"":3,""viewing_time"":8296.399999976158},{""page_index"":4,""viewing_time"":7135.700000047684}]","37124.799999952316","","","","","","","","","","","","","","","","","","","","","","","",""
"pit-trial","37","378880","0.0-2.0-11.0-0.0","battery-v0.2","","""event"",""trial"",""time""
""fullscreenenter"",""1"",""2275""
","
","
","""event"",""trial"",""time""
""fullscreenenter"",""1"",""2275""
","
","","","-1","","","11","6345","3747","&#9761;","elianto","#3366ff99","-1","-1","1","+10","[]","0","0","2","","","","","","","",""
"pit-trial","38","383770","0.0-2.0-11.0-1.0","battery-v0.2","","""event"",""trial"",""time""
""fullscreenenter"",""1"",""2275""
","
","
","""event"",""trial"",""time""
""fullscreenenter"",""1"",""2275""
","
","","","-1","","","11","6345","3747","&#9761;","elianto","#3366ff99","-1","-1","1","+10","[]","0","0","2","","","","","","","",""
"pit-trial","39","388640","0.0-2.0-11.0-2.0","battery-v0.2","","""event"",""trial"",""time""
""fullscreenenter"",""1"",""2275""
","
","
","""event"",""trial"",""time""
""fullscreenenter"",""1"",""2275""
","
","","","-1","","","11","6345","3747","&#9761;","elianto","#3366ff99","-1","-1","1","+10","[]","0","0","2","","","","","","","",""
"pit-trial","40","393525","0.0-2.0-11.0-3.0","battery-v0.2","","""event"",""trial"",""time""
""fullscreenenter"",""1"",""2275""
","
","
","""event"",""trial"",""time""
""fullscreenenter"",""1"",""2275""
","
","","","-1","","","11","6345","3747","&#9761;","elianto","#3366ff99","-1","-1","1","0","[]","0","0","2","","","","","","","",""
"pit-trial","41","398390","0.0-2.0-11.0-4.0","battery-v0.2","","""event"",""trial"",""time""
""fullscreenenter"",""1"",""2275""
","
","
","""event"",""trial"",""time""
""fullscreenenter"",""1"",""2275""
","
","","","-1","","","11","6345","3747","&#9761;","elianto","#3366ff99","-1","-1","1","+10","[]","0","0","2","","","","","","","",""
"pit-trial","42","403260","0.0-2.0-11.1-0.1","battery-v0.2","","""event"",""trial"",""time""
""fullscreenenter"",""1"",""2275""
","
","
","""event"",""trial"",""time""
""fullscreenenter"",""1"",""2275""
","
","","","-1","","","11","6345","3747","&#9761;","elianto","#3366ff99","-1","-1","1","+10","[]","0","0","2","","","","","","","",""
"pit-trial","43","408124","0.0-2.0-11.1-1.1","battery-v0.2","","""event"",""trial"",""time""
""fullscreenenter"",""1"",""2275""
","
","
","""event"",""trial"",""time""
""fullscreenenter"",""1"",""2275""
","
","","","-1","","","11","6345","3747","&#9761;","elianto","#3366ff99","-1","-1","1","+10","[]","0","0","2","","","","","","","",""
"pit-trial","44","412989","0.0-2.0-11.1-2.1","battery-v0.2","","""event"",""trial"",""time""
""fullscreenenter"",""1"",""2275""
","
","
","""event"",""trial"",""time""
""fullscreenenter"",""1"",""2275""
","
","","","-1","","","11","6345","3747","&#9761;","elianto","#3366ff99","-1","-1","1","+10","[]","0","0","2","","","","","","","",""
"pit-trial","45","417853","0.0-2.0-11.1-3.1","battery-v0.2","","""event"",""trial"",""time""
""fullscreenenter"",""1"",""2275""
","
","
","""event"",""trial"",""time""
""fullscreenenter"",""1"",""2275""
","
","","","-1","","","11","6345","3747","&#9761;","elianto","#3366ff99","-1","-1","1","0","[]","0","0","2","","","","","","","",""
"pit-trial","46","422716","0.0-2.0-11.1-4.1","battery-v0.2","","""event"",""trial"",""time""
""fullscreenenter"",""1"",""2275""
","
","
","""event"",""trial"",""time""
""fullscreenenter"",""1"",""2275""
","
","","","-1","","","11","6345","3747","&#9761;","elianto","#3366ff99","-1","-1","1","+10","[]","0","0","2","","","","","","","",""
"pit-trial","47","427580","0.0-2.0-11.2-0.2","battery-v0.2","","""event"",""trial"",""time""
""fullscreenenter"",""1"",""2275""
","
","
","""event"",""trial"",""time""
""fullscreenenter"",""1"",""2275""
","
","","","-1","","","11","6345","3747","&#9761;","elianto","#3366ff99","-1","-1","1","+10","[]","0","0","2","","","","","","","",""
"pit-trial","48","432445","0.0-2.0-11.2-1.2","battery-v0.2","","""event"",""trial"",""time""
""fullscreenenter"",""1"",""2275""
","
","
","""event"",""trial"",""time""
""fullscreenenter"",""1"",""2275""
","
","","","-1","","","11","6345","3747","&#9761;","elianto","#3366ff99","-1","-1","1","+10","[]","0","0","2","","","","","","","",""
"pit-trial","49","437308","0.0-2.0-11.2-2.2","battery-v0.2","","""event"",""trial"",""time""
""fullscreenenter"",""1"",""2275""
","
","
","""event"",""trial"",""time""
""fullscreenenter"",""1"",""2275""
","
","","","-1","","","11","6345","3747","&#9761;","elianto","#3366ff99","-1","-1","1","+10","[]","0","0","2","","","","","","","",""
"pit-trial","50","442172","0.0-2.0-11.2-3.2","battery-v0.2","","""event"",""trial"",""time""
""fullscreenenter"",""1"",""2275""
","
","
","""event"",""trial"",""time""
""fullscreenenter"",""1"",""2275""
","
","","","-1","","","11","6345","3747","&#9761;","elianto","#3366ff99","-1","-1","1","0","[]","0","0","2","","","","","","","",""
"pit-trial","51","447036","0.0-2.0-11.2-4.2","battery-v0.2","","""event"",""trial"",""time""
""fullscreenenter"",""1"",""2275""
","
","
","""event"",""trial"",""time""
""fullscreenenter"",""1"",""2275""
","
","","","-1","","","11","6345","3747","&#9761;","elianto","#3366ff99","-1","-1","1","+10","[]","0","0","2","","","","","","","",""
"pit-trial","52","451899","0.0-2.0-11.3-0.3","battery-v0.2","","""event"",""trial"",""time""
""fullscreenenter"",""1"",""2275""
","
","
","""event"",""trial"",""time""
""fullscreenenter"",""1"",""2275""
","
","","","-1","","","11","6345","3747","&#9761;","elianto","#3366ff99","-1","-1","1","+10","[]","0","0","2","","","","","","","",""
"pit-trial","53","456764","0.0-2.0-11.3-1.3","battery-v0.2","","""event"",""trial"",""time""
""fullscreenenter"",""1"",""2275""
","
","
","""event"",""trial"",""time""
""fullscreenenter"",""1"",""2275""
","
","","","-1","","","11","6345","3747","&#9761;","elianto","#3366ff99","-1","-1","1","+10","[]","0","0","2","","","","","","","",""
"pit-trial","54","461627","0.0-2.0-11.3-2.3","battery-v0.2","","""event"",""trial"",""time""
""fullscreenenter"",""1"",""2275""
","
","
","""event"",""trial"",""time""
""fullscreenenter"",""1"",""2275""
","
","","","-1","","","11","6345","3747","&#9761;","elianto","#3366ff99","-1","-1","1","+10","[]","0","0","2","","","","","","","",""
"pit-trial","55","466491","0.0-2.0-11.3-3.3","battery-v0.2","","""event"",""trial"",""time""
""fullscreenenter"",""1"",""2275""
","
","
","""event"",""trial"",""time""
""fullscreenenter"",""1"",""2275""
","
","","","-1","","","11","6345","3747","&#9761;","elianto","#3366ff99","-1","-1","1","0","[]","0","0","2","","","","","","","",""
"pit-trial","56","471356","0.0-2.0-11.3-4.3","battery-v0.2","","""event"",""trial"",""time""
""fullscreenenter"",""1"",""2275""
","
","
","""event"",""trial"",""time""
""fullscreenenter"",""1"",""2275""
","
","","","-1","","","11","6345","3747","&#9761;","elianto","#3366ff99","-1","-1","1","+10","[]","0","0","2","","","","","","","",""
"call-function","57","471358","0.0-2.0-12.0","battery-v0.2","","""event"",""trial"",""time""
""fullscreenenter"",""1"",""2275""
","
","
","""event"",""trial"",""time""
""fullscreenenter"",""1"",""2275""
","
","","","","","","","","","","","","","","","","","","","","","","","","","","",""
"pit-instructions","58","503884","0.0-2.0-13.0","battery-v0.2","","""event"",""trial"",""time""
""fullscreenenter"",""1"",""2275""
","
","
","""event"",""trial"",""time""
""fullscreenenter"",""1"",""2275""
","
","","[{""page_index"":0,""viewing_time"":5004.700000047684},{""page_index"":1,""viewing_time"":6895.899999976158},{""page_index"":2,""viewing_time"":3672},{""page_index"":3,""viewing_time"":11104.800000071526},{""page_index"":4,""viewing_time"":5847.399999976158}]","32525.100000023842","","","","","","","","","","","","","","","","","","","","","","","",""
"pit-trial","59","507453","0.0-2.0-14.0-0.0","battery-v0.2","","""event"",""trial"",""time""
""fullscreenenter"",""1"",""2275""
","
","
","""event"",""trial"",""time""
""fullscreenenter"",""1"",""2275""
","
","","","707.6999999284744","","","11","6345","3747","&#9826;","elianto","#f73b6a7A","-1"," ","0","-10","[1558.9000000953674]","1","0","3","","","","","","","",""
"pit-trial","60","512335","0.0-2.0-14.0-1.0","battery-v0.2","","""event"",""trial"",""time""
""fullscreenenter"",""1"",""2275""
","
","
","""event"",""trial"",""time""
""fullscreenenter"",""1"",""2275""
","
","","","-1","","","11","6345","3747","&#9826;","elianto","#f73b6a7A","-1","-1","1","0","[]","0","0","3","","","","","","","",""
"pit-trial","61","517216","0.0-2.0-14.0-2.0","battery-v0.2","","""event"",""trial"",""time""
""fullscreenenter"",""1"",""2275""
","
","
","""event"",""trial"",""time""
""fullscreenenter"",""1"",""2275""
","
","","","-1","","","11","6345","3747","&#9826;","elianto","#f73b6a7A","-1","-1","1","0","[]","0","0","3","","","","","","","",""
"pit-trial","62","522086","0.0-2.0-14.0-3.0","battery-v0.2","","""event"",""trial"",""time""
""fullscreenenter"",""1"",""2275""
","
","
","""event"",""trial"",""time""
""fullscreenenter"",""1"",""2275""
","
","","","-1","","","11","6345","3747","&#9826;","elianto","#f73b6a7A","-1","-1","1","-10","[]","0","0","3","","","","","","","",""
"pit-trial","63","526976","0.0-2.0-14.0-4.0","battery-v0.2","","""event"",""trial"",""time""
""fullscreenenter"",""1"",""2275""
","
","
","""event"",""trial"",""time""
""fullscreenenter"",""1"",""2275""
","
","","","-1","","","11","6345","3747","&#9826;","elianto","#f73b6a7A","-1","-1","1","0","[]","0","0","3","","","","","","","",""
"pit-trial","64","531866","0.0-2.0-14.1-0.1","battery-v0.2","","""event"",""trial"",""time""
""fullscreenenter"",""1"",""2275""
","
","
","""event"",""trial"",""time""
""fullscreenenter"",""1"",""2275""
","
","","","-1","","","11","6345","3747","&#9826;","elianto","#f73b6a7A","-1","-1","1","0","[]","0","0","3","","","","","","","",""
"pit-trial","65","536732","0.0-2.0-14.1-1.1","battery-v0.2","","""event"",""trial"",""time""
""fullscreenenter"",""1"",""2275""
","
","
","""event"",""trial"",""time""
""fullscreenenter"",""1"",""2275""
","
","","","-1","","","11","6345","3747","&#9826;","elianto","#f73b6a7A","-1","-1","1","0","[]","0","0","3","","","","","","","",""
"pit-trial","66","541596","0.0-2.0-14.1-2.1","battery-v0.2","","""event"",""trial"",""time""
""fullscreenenter"",""1"",""2275""
","
","
","""event"",""trial"",""time""
""fullscreenenter"",""1"",""2275""
","
","","","-1","","","11","6345","3747","&#9826;","elianto","#f73b6a7A","-1","-1","1","0","[]","0","0","3","","","","","","","",""
"pit-trial","67","546460","0.0-2.0-14.1-3.1","battery-v0.2","","""event"",""trial"",""time""
""fullscreenenter"",""1"",""2275""
","
","
","""event"",""trial"",""time""
""fullscreenenter"",""1"",""2275""
","
","","","-1","","","11","6345","3747","&#9826;","elianto","#f73b6a7A","-1","-1","1","-10","[]","0","0","3","","","","","","","",""
"pit-trial","68","551324","0.0-2.0-14.1-4.1","battery-v0.2","","""event"",""trial"",""time""
""fullscreenenter"",""1"",""2275""
","
","
","""event"",""trial"",""time""
""fullscreenenter"",""1"",""2275""
","
","","","-1","","","11","6345","3747","&#9826;","elianto","#f73b6a7A","-1","-1","1","0","[]","0","0","3","","","","","","","",""
"pit-trial","69","556189","0.0-2.0-14.2-0.2","battery-v0.2","","""event"",""trial"",""time""
""fullscreenenter"",""1"",""2275""
","
","
","""event"",""trial"",""time""
""fullscreenenter"",""1"",""2275""
","
","","","-1","","","11","6345","3747","&#9826;","elianto","#f73b6a7A","-1","-1","1","0","[]","0","0","3","","","","","","","",""
"pit-trial","70","561052","0.0-2.0-14.2-1.2","battery-v0.2","","""event"",""trial"",""time""
""fullscreenenter"",""1"",""2275""
","
","
","""event"",""trial"",""time""
""fullscreenenter"",""1"",""2275""
","
","","","-1","","","11","6345","3747","&#9826;","elianto","#f73b6a7A","-1","-1","1","0","[]","0","0","3","","","","","","","",""
"pit-trial","71","565916","0.0-2.0-14.2-2.2","battery-v0.2","","""event"",""trial"",""time""
""fullscreenenter"",""1"",""2275""
","
","
","""event"",""trial"",""time""
""fullscreenenter"",""1"",""2275""
","
","","","-1","","","11","6345","3747","&#9826;","elianto","#f73b6a7A","-1","-1","1","0","[]","0","0","3","","","","","","","",""
"pit-trial","72","570780","0.0-2.0-14.2-3.2","battery-v0.2","","""event"",""trial"",""time""
""fullscreenenter"",""1"",""2275""
","
","
","""event"",""trial"",""time""
""fullscreenenter"",""1"",""2275""
","
","","","-1","","","11","6345","3747","&#9826;","elianto","#f73b6a7A","-1","-1","1","-10","[]","0","0","3","","","","","","","",""
"pit-trial","73","575644","0.0-2.0-14.2-4.2","battery-v0.2","","""event"",""trial"",""time""
""fullscreenenter"",""1"",""2275""
","
","
","""event"",""trial"",""time""
""fullscreenenter"",""1"",""2275""
","
","","","-1","","","11","6345","3747","&#9826;","elianto","#f73b6a7A","-1","-1","1","0","[]","0","0","3","","","","","","","",""
"pit-trial","74","580508","0.0-2.0-14.3-0.3","battery-v0.2","","""event"",""trial"",""time""
""fullscreenenter"",""1"",""2275""
","
","
","""event"",""trial"",""time""
""fullscreenenter"",""1"",""2275""
","
","","","-1","","","11","6345","3747","&#9826;","elianto","#f73b6a7A","-1","-1","1","0","[]","0","0","3","","","","","","","",""
"pit-trial","75","585373","0.0-2.0-14.3-1.3","battery-v0.2","","""event"",""trial"",""time""
""fullscreenenter"",""1"",""2275""
","
","
","""event"",""trial"",""time""
""fullscreenenter"",""1"",""2275""
","
","","","-1","","","11","6345","3747","&#9826;","elianto","#f73b6a7A","-1","-1","1","0","[]","0","0","3","","","","","","","",""
"pit-trial","76","590236","0.0-2.0-14.3-2.3","battery-v0.2","","""event"",""trial"",""time""
""fullscreenenter"",""1"",""2275""
","
","
","""event"",""trial"",""time""
""fullscreenenter"",""1"",""2275""
","
","","","-1","","","11","6345","3747","&#9826;","elianto","#f73b6a7A","-1","-1","1","0","[]","0","0","3","","","","","","","",""
"pit-trial","77","595100","0.0-2.0-14.3-3.3","battery-v0.2","","""event"",""trial"",""time""
""fullscreenenter"",""1"",""2275""
","
","
","""event"",""trial"",""time""
""fullscreenenter"",""1"",""2275""
","
","","","-1","","","11","6345","3747","&#9826;","elianto","#f73b6a7A","-1","-1","1","-10","[]","0","0","3","","","","","","","",""
"pit-trial","78","599964","0.0-2.0-14.3-4.3","battery-v0.2","","""event"",""trial"",""time""
""fullscreenenter"",""1"",""2275""
","
","
","""event"",""trial"",""time""
""fullscreenenter"",""1"",""2275""
","
","","","-1","","","11","6345","3747","&#9826;","elianto","#f73b6a7A","-1","-1","1","0","[]","0","0","3","","","","","","","",""
"call-function","79","599966","0.0-2.0-15.0","battery-v0.2","","""event"",""trial"",""time""
""fullscreenenter"",""1"",""2275""
","
","
","""event"",""trial"",""time""
""fullscreenenter"",""1"",""2275""
","
","","","","","","","","","","","","","","","","","","","","","","","","","","",""
"pit-instructions","80","623756","0.0-2.0-16.0","battery-v0.2","","""event"",""trial"",""time""
""fullscreenenter"",""1"",""2275""
","
","
","""event"",""trial"",""time""
""fullscreenenter"",""1"",""2275""
","
","","[{""page_index"":0,""viewing_time"":6484.600000023842},{""page_index"":1,""viewing_time"":8440},{""page_index"":2,""viewing_time"":4351.700000047684},{""page_index"":3,""viewing_time"":4512.199999928474}]","23788.900000095367","","","","","","","","","","","","","","","","","","","","","","","",""
"pit-trial","81","627161","0.0-2.0-17.0-0.0","battery-v0.2","","""event"",""trial"",""time""
""fullscreenenter"",""1"",""2275""
","
","
","""event"",""trial"",""time""
""fullscreenenter"",""1"",""2275""
","
","","","522.7000000476837","","","11","6345","3747","&#9789;","elianto","#f73b6a7A"," "," ","1","0","[1383.2000000476837]","1","0","4","","","","","","","",""
"pit-trial","82","630511","0.0-2.0-17.0-1.0","battery-v0.2","","""event"",""trial"",""time""
""fullscreenenter"",""1"",""2275""
","
","
","""event"",""trial"",""time""
""fullscreenenter"",""1"",""2275""
","
","","","467.39999997615814","","","11","6345","3747","&#9789;","elianto","#f73b6a7A"," "," ","1","0","[1324.1000000238419]","1","0","4","","","","","","","",""
"pit-trial","83","633769","0.0-2.0-17.0-2.0","battery-v0.2","","""event"",""trial"",""time""
""fullscreenenter"",""1"",""2275""
","
","
","""event"",""trial"",""time""
""fullscreenenter"",""1"",""2275""
","
","","","380.5","","","11","6345","3747","&#9789;","elianto","#f73b6a7A"," "," ","1","0","[1234.7000000476837]","1","0","4","","","","","","","",""
"pit-trial","84","637351","0.0-2.0-17.0-3.0","battery-v0.2","","""event"",""trial"",""time""
""fullscreenenter"",""1"",""2275""
","
","
","""event"",""trial"",""time""
""fullscreenenter"",""1"",""2275""
","
","","","711.7000000476837","","","11","6345","3747","&#9789;","elianto","#f73b6a7A"," "," ","1","-10","[1561.7000000476837]","1","0","4","","","","","","","",""
"pit-trial","85","640861","0.0-2.0-17.0-4.0","battery-v0.2","","""event"",""trial"",""time""
""fullscreenenter"",""1"",""2275""
","
","
","""event"",""trial"",""time""
""fullscreenenter"",""1"",""2275""
","
","","","635.6000000238419","","","11","6345","3747","&#9789;","elianto","#f73b6a7A"," "," ","1","0","[1485.6000000238419]","1","0","4","","","","","","","",""
"pit-trial","86","644221","0.0-2.0-17.1-0.1","battery-v0.2","","""event"",""trial"",""time""
""fullscreenenter"",""1"",""2275""
","
","
","""event"",""trial"",""time""
""fullscreenenter"",""1"",""2275""
","
","","","479","","","11","6345","3747","&#9789;","elianto","#f73b6a7A"," "," ","1","0","[1332.3999999761581]","1","0","4","","","","","","","",""
"pit-trial","87","647511","0.0-2.0-17.1-1.1","battery-v0.2","","""event"",""trial"",""time""
""fullscreenenter"",""1"",""2275""
","
","
","""event"",""trial"",""time""
""fullscreenenter"",""1"",""2275""
","
","","","408.39999997615814","","","11","6345","3747","&#9789;","elianto","#f73b6a7A"," "," ","1","0","[1269.7000000476837]","1","0","4","","","","","","","",""
"pit-trial","88","650671","0.0-2.0-17.1-2.1","battery-v0.2","","""event"",""trial"",""time""
""fullscreenenter"",""1"",""2275""
","
","
","""event"",""trial"",""time""
""fullscreenenter"",""1"",""2275""
","
","","","276.2000000476837","","","11","6345","3747","&#9789;","elianto","#f73b6a7A"," "," ","1","0","[1130.6000000238419]","1","0","4","","","","","","","",""
"pit-trial","89","653996","0.0-2.0-17.1-3.1","battery-v0.2","","""event"",""trial"",""time""
""fullscreenenter"",""1"",""2275""
","
","
","""event"",""trial"",""time""
""fullscreenenter"",""1"",""2275""
","
","","","456.2999999523163","","","11","6345","3747","&#9789;","elianto","#f73b6a7A"," "," ","1","-10","[1318.1000000238419]","1","0","4","","","","","","","",""
"pit-trial","90","657517","0.0-2.0-17.1-4.1","battery-v0.2","","""event"",""trial"",""time""
""fullscreenenter"",""1"",""2275""
","
","
","""event"",""trial"",""time""
""fullscreenenter"",""1"",""2275""
","
","","","655.1000000238419","","","11","6345","3747","&#9789;","elianto","#f73b6a7A"," "," ","1","0","[1511.1000000238419]","1","0","4","","","","","","","",""
"pit-trial","91","660845","0.0-2.0-17.2-0.2","battery-v0.2","","""event"",""trial"",""time""
""fullscreenenter"",""1"",""2275""
","
","
","""event"",""trial"",""time""
""fullscreenenter"",""1"",""2275""
","
","","","466.2999999523163","","","11","6345","3747","&#9789;","elianto","#f73b6a7A"," "," ","1","0","[1316.5]","1","0","4","","","","","","","",""
"pit-trial","92","664429","0.0-2.0-17.2-1.2","battery-v0.2","","""event"",""trial"",""time""
""fullscreenenter"",""1"",""2275""
","
","
","""event"",""trial"",""time""
""fullscreenenter"",""1"",""2275""
","
","","","723.6000000238419","","","11","6345","3747","&#9789;","elianto","#f73b6a7A"," "," ","1","0","[1577.1999999284744]","1","0","4","","","","","","","",""
"pit-trial","93","667837","0.0-2.0-17.2-2.2","battery-v0.2","","""event"",""trial"",""time""
""fullscreenenter"",""1"",""2275""
","
","
","""event"",""trial"",""time""
""fullscreenenter"",""1"",""2275""
","
","","","541.4000000953674","","","11","6345","3747","&#9789;","elianto","#f73b6a7A"," "," ","1","0","[1397.5]","1","0","4","","","","","","","",""
"pit-trial","94","671612","0.0-2.0-17.2-3.2","battery-v0.2","","""event"",""trial"",""time""
""fullscreenenter"",""1"",""2275""
","
","
","""event"",""trial"",""time""
""fullscreenenter"",""1"",""2275""
","
","","","911.7000000476837","","","11","6345","3747","&#9789;","elianto","#f73b6a7A"," "," ","1","-10","[1766.2000000476837]","1","0","4","","","","","","","",""
"pit-trial","95","674844","0.0-2.0-17.2-4.2","battery-v0.2","","""event"",""trial"",""time""
""fullscreenenter"",""1"",""2275""
","
","
","""event"",""trial"",""time""
""fullscreenenter"",""1"",""2275""
","
","","","368.89999997615814","","","11","6345","3747","&#9789;","elianto","#f73b6a7A"," "," ","1","0","[1224.8999999761581]","1","0","4","","","","","","","",""
"pit-trial","96","678348","0.0-2.0-17.3-0.3","battery-v0.2","","""event"",""trial"",""time""
""fullscreenenter"",""1"",""2275""
","
","
","""event"",""trial"",""time""
""fullscreenenter"",""1"",""2275""
","
","","","640.8000000715256","","","11","6345","3747","&#9789;","elianto","#f73b6a7A"," "," ","1","0","[1493.2000000476837]","1","0","4","","","","","","","",""
"pit-trial","97","681708","0.0-2.0-17.3-1.3","battery-v0.2","","""event"",""trial"",""time""
""fullscreenenter"",""1"",""2275""
","
","
","""event"",""trial"",""time""
""fullscreenenter"",""1"",""2275""
","
","","","499.7000000476837","","","11","6345","3747","&#9789;","elianto","#f73b6a7A"," "," ","1","0","[1350.3999999761581]","1","0","4","","","","","","","",""
"pit-trial","98","685068","0.0-2.0-17.3-2.3","battery-v0.2","","""event"",""trial"",""time""
""fullscreenenter"",""1"",""2275""
","
","
","""event"",""trial"",""time""
""fullscreenenter"",""1"",""2275""
","
","","","498.5","","","11","6345","3747","&#9789;","elianto","#f73b6a7A"," "," ","1","0","[1352.9000000953674]","1","0","4","","","","","","","",""
"pit-trial","99","688044","0.0-2.0-17.3-3.3","battery-v0.2","","""event"",""trial"",""time""
""fullscreenenter"",""1"",""2275""
","
","
","""event"",""trial"",""time""
""fullscreenenter"",""1"",""2275""
","
","","","115.60000002384186","","","11","6345","3747","&#9789;","elianto","#f73b6a7A"," "," ","1","-10","[965.9000000953674]","1","0","4","","","","","","","",""
"pit-trial","100","691292","0.0-2.0-17.3-4.3","battery-v0.2","","""event"",""trial"",""time""
""fullscreenenter"",""1"",""2275""
","
","
","""event"",""trial"",""time""
""fullscreenenter"",""1"",""2275""
","
","","","384","","","11","6345","3747","&#9789;","elianto","#f73b6a7A"," "," ","1","0","[1237.2000000476837]","1","0","4","","","","","","","",""
"call-function","101","691294","0.0-2.0-18.0","battery-v0.2","","""event"",""trial"",""time""
""fullscreenenter"",""1"",""2275""
","
","
","""event"",""trial"",""time""
""fullscreenenter"",""1"",""2275""
","
","","","","","","","","","","","","","","","","","","","","","","","","","","",""
"pit-instructions","102","756828","0.0-2.0-19.0","battery-v0.2","","""event"",""trial"",""time""
""fullscreenenter"",""1"",""2275""
","
","
","""event"",""trial"",""time""
""fullscreenenter"",""1"",""2275""
","
","","[{""page_index"":0,""viewing_time"":6828.600000023842},{""page_index"":1,""viewing_time"":5230.799999952316},{""page_index"":2,""viewing_time"":10688.600000023842},{""page_index"":3,""viewing_time"":7791.399999976158},{""page_index"":4,""viewing_time"":8264.399999976158},{""page_index"":5,""viewing_time"":9000.100000023842},{""page_index"":6,""viewing_time"":8064},{""page_index"":7,""viewing_time"":5448},{""page_index"":8,""viewing_time"":4215.800000071526}]","65532","","","","","","","","","","","","","","","","","","","","","","","",""
"pit-comprehension","103","760956","0.0-2.0-20.0-0.0","battery-v0.2","","""event"",""trial"",""time""
""fullscreenenter"",""1"",""2275""
","
","
","""event"",""trial"",""time""
""fullscreenenter"",""1"",""2275""
","
","","","4125.899999976158","[""SPACE""]","0","11","6345","3747","","","","","","","","","","","","","","","","","","",""
"pit-instructions","104","763451","0.0-2.0-20.0-1.0","battery-v0.2","","""event"",""trial"",""time""
""fullscreenenter"",""1"",""2275""
","
","
","""event"",""trial"",""time""
""fullscreenenter"",""1"",""2275""
","
","","[{""page_index"":0,""viewing_time"":2473.600000023842}]","2473.899999976158","","","","","","","","","","","","","","","","","","","","","","","",""
"pit-comprehension","105","771988","0.0-2.0-21.0-0.0","battery-v0.2","","""event"",""trial"",""time""
""fullscreenenter"",""1"",""2275""
","
","
","""event"",""trial"",""time""
""fullscreenenter"",""1"",""2275""
","
","","","8535.399999976158","[""10""]","0","11","6345","3747","","","","","","","","","","","","","","","","","","",""
"pit-instructions","106","773859","0.0-2.0-21.0-1.0","battery-v0.2","","""event"",""trial"",""time""
""fullscreenenter"",""1"",""2275""
","
","
","""event"",""trial"",""time""
""fullscreenenter"",""1"",""2275""
","
","","[{""page_index"":0,""viewing_time"":1849.8999999761581}]","1850.2000000476837","","","","","","","","","","","","","","","","","","","","","","","",""
"pit-comprehension","107","782476","0.0-2.0-22.0-0.0","battery-v0.2","","""event"",""trial"",""time""
""fullscreenenter"",""1"",""2275""
","
","
","""event"",""trial"",""time""
""fullscreenenter"",""1"",""2275""
","
","","","8615","[""0""]","0","11","6345","3747","","","","","","","","","","","","","","","","","","",""
"pit-instructions","108","784492","0.0-2.0-22.0-1.0","battery-v0.2","","""event"",""trial"",""time""
""fullscreenenter"",""1"",""2275""
","
","
","""event"",""trial"",""time""
""fullscreenenter"",""1"",""2275""
","
","","[{""page_index"":0,""viewing_time"":1994.1999999284744}]","1994.3999999761581","","","","","","","","","","","","","","","","","","","","","","","",""
"pit-comprehension","109","797052","0.0-2.0-23.0-0.0","battery-v0.2","","""event"",""trial"",""time""
""fullscreenenter"",""1"",""2275""
","
","
","""event"",""trial"",""time""
""fullscreenenter"",""1"",""2275""
","
","","","12558.399999976158","[""True""]","0","11","6345","3747","","","","","","","","","","","","","","","","","","",""
"pit-instructions","110","798796","0.0-2.0-23.0-1.0","battery-v0.2","","""event"",""trial"",""time""
""fullscreenenter"",""1"",""2275""
","
","
","""event"",""trial"",""time""
""fullscreenenter"",""1"",""2275""
","
","","[{""page_index"":0,""viewing_time"":1722.7999999523163}]","1723","","","","","","","","","","","","","","","","","","","","","","","",""
"pit-comprehension","111","806211","0.0-2.0-24.0-0.0","battery-v0.2","","""event"",""trial"",""time""
""fullscreenenter"",""1"",""2275""
","
","
","""event"",""trial"",""time""
""fullscreenenter"",""1"",""2275""
","
","","","7413.900000095367","[""True""]","0","11","6345","3747","","","","","","","","","","","","","","","","","","",""
"pit-instructions","112","807955","0.0-2.0-24.0-1.0","battery-v0.2","","""event"",""trial"",""time""
""fullscreenenter"",""1"",""2275""
","
","
","""event"",""trial"",""time""
""fullscreenenter"",""1"",""2275""
","
","","[{""page_index"":0,""viewing_time"":1723.7000000476837}]","1724","","","","","","","","","","","","","","","","","","","","","","","",""
"pit-comprehension","113","814372","0.0-2.0-25.0-0.0","battery-v0.2","","""event"",""trial"",""time""
""fullscreenenter"",""1"",""2275""
","
","
","""event"",""trial"",""time""
""fullscreenenter"",""1"",""2275""
","
","","","6414.899999976158","[""True""]","0","11","6345","3747","","","","","","","","","","","","","","","","","","",""
"pit-instructions","114","815915","0.0-2.0-25.0-1.0","battery-v0.2","","""event"",""trial"",""time""
""fullscreenenter"",""1"",""2275""
","
","
","""event"",""trial"",""time""
""fullscreenenter"",""1"",""2275""
","
","","[{""page_index"":0,""viewing_time"":1521.3000000715256}]","1521.5","","","","","","","","","","","","","","","","","","","","","","","",""
"pit-comprehension","115","820516","0.0-2.0-26.0-0.0","battery-v0.2","","""event"",""trial"",""time""
""fullscreenenter"",""1"",""2275""
","
","
","""event"",""trial"",""time""
""fullscreenenter"",""1"",""2275""
","
","","","4599.100000023842","[""False""]","0","11","6345","3747","","","","","","","","","","","","","","","","","","",""
"pit-instructions","116","822099","0.0-2.0-26.0-1.0","battery-v0.2","","""event"",""trial"",""time""
""fullscreenenter"",""1"",""2275""
","
","
","""event"",""trial"",""time""
""fullscreenenter"",""1"",""2275""
","
","","[{""page_index"":0,""viewing_time"":1561.4000000953674}]","1561.6000000238419","","","","","","","","","","","","","","","","","","","","","","","",""
"pit-instructions","117","838388","0.0-3.0","battery-v0.2","","""event"",""trial"",""time""
""fullscreenenter"",""1"",""2275""
","
","
","""event"",""trial"",""time""
""fullscreenenter"",""1"",""2275""
","
","","[{""page_index"":0,""viewing_time"":3615.0999999046326},{""page_index"":1,""viewing_time"":5520.200000047684},{""page_index"":2,""viewing_time"":7152.200000047684}]","16287.899999976158","","","","","","","","","","","","","","","","","","","","","","","",""
"pit-trial","118","842104","0.0-4.0","battery-v0.2","","""event"",""trial"",""time""
""fullscreenenter"",""1"",""2275""
","
","
","""event"",""trial"",""time""
""fullscreenenter"",""1"",""2275""
","
","","","833.3999999761581","","","11","6345","3747","&#9728;","elianto","#f73b6a7A","-1"," ","0","-10","[1693.2000000476837]","1","1","","","6345","1","0","4","lose","no-go","0"
"pit-trial","119","845814","0.0-5.0","battery-v0.2","","""event"",""trial"",""time""
""fullscreenenter"",""1"",""2275""
","
","
","""event"",""trial"",""time""
""fullscreenenter"",""1"",""2275""
","
","","","828.6000000238419","","","11","6345","3747","&#9733;","elianto","#3366ff99","-1"," ","0","0","[1690.3999999761581]","1","1","","","6345","2","2","2","win","no-go","0"
"pit-trial","120","849604","0.0-6.0","battery-v0.2","","""event"",""trial"",""time""
""fullscreenenter"",""1"",""2275""
","
","
","""event"",""trial"",""time""
""fullscreenenter"",""1"",""2275""
","
","","","920.2000000476837","","","11","6345","3747","&#9752;","elianto","#f73b6a7A"," "," ","1","0","[1771.6000000238419]","1","1","","","6345","3","3","3","lose","go","0"
"pit-trial","121","853263","0.0-7.0","battery-v0.2","","""event"",""trial"",""time""
""fullscreenenter"",""1"",""2275""
","
","
","""event"",""trial"",""time""
""fullscreenenter"",""1"",""2275""
","
","","","787.8000000715256","","","11","6345","3747","&#9730;","elianto","#3366ff99"," "," ","1","0","[1649.8999999761581]","1","1","","","6345","4","1","1","win","go","1"
"pit-trial","122","858144","0.0-8.0","battery-v0.2","","""event"",""trial"",""time""
""fullscreenenter"",""1"",""2275""
","
","
","""event"",""trial"",""time""
""fullscreenenter"",""1"",""2275""
","
","","","-1","","","11","6345","3747","&#9728;","elianto","#f73b6a7A","-1","-1","1","0","[]","0","1","","","6345","5","0","4","lose","no-go","0"
"pit-trial","123","863043","0.0-9.0","battery-v0.2","","""event"",""trial"",""time""
""fullscreenenter"",""1"",""2275""
","
","
","""event"",""trial"",""time""
""fullscreenenter"",""1"",""2275""
","
","","","-1","","","11","6345","3747","&#9730;","elianto","#3366ff99"," ","-1","0","0","[]","0","1","","","6345","6","1","1","win","go","0"
"pit-trial","124","867914","0.0-10.0","battery-v0.2","","""event"",""trial"",""time""
""fullscreenenter"",""1"",""2275""
","
","
","""event"",""trial"",""time""
""fullscreenenter"",""1"",""2275""
","
","","","-1","","","11","6345","3747","&#9752;","elianto","#f73b6a7A"," ","-1","0","-10","[]","0","1","","","6345","7","3","3","lose","go","0"
"pit-trial","125","871404","0.0-11.0","battery-v0.2","","""event"",""trial"",""time""
""fullscreenenter"",""1"",""2275""
","
","
","""event"",""trial"",""time""
""fullscreenenter"",""1"",""2275""
","
","","","632.6000000238419","","","11","6345","3747","&#9733;","elianto","#3366ff99","-1"," ","0","0","[1484.2000000476837]","1","1","","","6345","8","2","2","win","no-go","0"
"pit-trial","126","875484","0.0-12.0","battery-v0.2","","""event"",""trial"",""time""
""fullscreenenter"",""1"",""2275""
","
","
","""event"",""trial"",""time""
""fullscreenenter"",""1"",""2275""
","
","","","1216.3999999761581","","","11","6345","3747","&#9752;","elianto","#f73b6a7A"," "," ","1","0","[2070.6999999284744]","1","1","","","6345","9","3","3","lose","go","0"
"pit-trial","127","879004","0.0-13.0","battery-v0.2","","""event"",""trial"",""time""
""fullscreenenter"",""1"",""2275""
","
","
","""event"",""trial"",""time""
""fullscreenenter"",""1"",""2275""
","
","","","659.8999999761581","","","11","6345","3747","&#9733;","elianto","#3366ff99","-1"," ","0","0","[1510.7000000476837]","1","1","","","6345","10","2","2","win","no-go","0"
"pit-trial","128","883868","0.0-14.0","battery-v0.2","","""event"",""trial"",""time""
""fullscreenenter"",""1"",""2275""
","
","
","""event"",""trial"",""time""
""fullscreenenter"",""1"",""2275""
","
","","","-1","","","11","6345","3747","&#9728;","elianto","#f73b6a7A","-1","-1","1","-10","[]","0","1","","","6345","11","0","4","lose","no-go","1"
"pit-trial","129","888732","0.0-15.0","battery-v0.2","","""event"",""trial"",""time""
""fullscreenenter"",""1"",""2275""
","
","
","""event"",""trial"",""time""
""fullscreenenter"",""1"",""2275""
","
","","","-1","","","11","6345","3747","&#9730;","elianto","#3366ff99"," ","-1","0","0","[]","0","1","","","6345","12","1","1","win","go","0"
"pit-trial","130","892605","0.0-16.0","battery-v0.2","","""event"",""trial"",""time""
""fullscreenenter"",""1"",""2275""
","
","
","""event"",""trial"",""time""
""fullscreenenter"",""1"",""2275""
","
","","","1012.0999999046326","","","11","6345","3747","&#9733;","elianto","#3366ff99","-1"," ","0","+10","[1864.5999999046326]","1","1","","","6345","13","2","2","win","no-go","1"
"pit-trial","131","897469","0.0-17.0","battery-v0.2","","""event"",""trial"",""time""
""fullscreenenter"",""1"",""2275""
","
","
","""event"",""trial"",""time""
""fullscreenenter"",""1"",""2275""
","
","","","-1","","","11","6345","3747","&#9728;","elianto","#f73b6a7A","-1","-1","1","0","[]","0","1","","","6345","14","0","4","lose","no-go","0"
"pit-trial","132","902332","0.0-18.0","battery-v0.2","","""event"",""trial"",""time""
""fullscreenenter"",""1"",""2275""
","
","
","""event"",""trial"",""time""
""fullscreenenter"",""1"",""2275""
","
","","","-1","","","11","6345","3747","&#9730;","elianto","#3366ff99"," ","-1","0","0","[]","0","1","","","6345","15","1","1","win","go","0"
"pit-trial","133","906828","0.0-19.0","battery-v0.2","","""event"",""trial"",""time""
""fullscreenenter"",""1"",""2275""
","
","
","""event"",""trial"",""time""
""fullscreenenter"",""1"",""2275""
","
","","","1636.7999999523163","","","11","6345","3747","&#9752;","elianto","#f73b6a7A"," "," ","1","0","[2489.0999999046326]","1","1","","","6345","16","3","3","lose","go","0"
"pit-trial","134","911692","0.0-20.0","battery-v0.2","","""event"",""trial"",""time""
""fullscreenenter"",""1"",""2275""
","
","
","""event"",""trial"",""time""
""fullscreenenter"",""1"",""2275""
","
","","","-1","","","11","6345","3747","&#9730;","elianto","#3366ff99"," ","-1","0","+10","[]","0","1","","","6345","17","1","1","win","go","1"
"pit-trial","135","916556","0.0-21.0","battery-v0.2","","""event"",""trial"",""time""
""fullscreenenter"",""1"",""2275""
","
","
","""event"",""trial"",""time""
""fullscreenenter"",""1"",""2275""
","
","","","-1","","","11","6345","3747","&#9728;","elianto","#f73b6a7A","-1","-1","1","0","[]","0","1","","","6345","18","0","4","lose","no-go","0"
"pit-trial","136","920108","0.0-22.0","battery-v0.2","","""event"",""trial"",""time""
""fullscreenenter"",""1"",""2275""
","
","
","""event"",""trial"",""time""
""fullscreenenter"",""1"",""2275""
","
","","","692.2999999523163","","","11","6345","3747","&#9733;","elianto","#3366ff99","-1"," ","0","0","[1546.3999999761581]","1","1","","","6345","19","2","2","win","no-go","0"
"pit-trial","137","923996","0.0-23.0","battery-v0.2","","""event"",""trial"",""time""
""fullscreenenter"",""1"",""2275""
","
","
","""event"",""trial"",""time""
""fullscreenenter"",""1"",""2275""
","
","","","1023.7000000476837","","","11","6345","3747","&#9752;","elianto","#f73b6a7A"," "," ","1","0","[1877.3999999761581]","1","1","","","6345","20","3","3","lose","go","0"
"pit-instructions","138","936419","0.0-24.0","battery-v0.2","","""event"",""trial"",""time""
""fullscreenenter"",""1"",""2275""
","
","
","""event"",""trial"",""time""
""fullscreenenter"",""1"",""2275""
","
","","[{""page_index"":0,""viewing_time"":5716.800000071526},{""page_index"":1,""viewing_time"":6703.799999952316}]","12421","","","","","","","","","","","","","","","","","","","","","","","",""
"pit-trial","139","940181","0.0-25.0","battery-v0.2","","""event"",""trial"",""time""
""fullscreenenter"",""1"",""2275""
","
","
","""event"",""trial"",""time""
""fullscreenenter"",""1"",""2275""
","
","","","880.2000000476837","","","11","6345","3747","e","elianto","#f73b6a7A","-1"," ","0","-10","[1742.6000000238419]","1","2","","","6345","21","2","4","lose","no-go","0"
"pit-trial","140","943886","0.0-26.0","battery-v0.2","","""event"",""trial"",""time""
""fullscreenenter"",""1"",""2275""
","
","
","""event"",""trial"",""time""
""fullscreenenter"",""1"",""2275""
","
","","","829.2000000476837","","","11","6345","3747","j","elianto","#f73b6a7A","-1"," ","0","-10","[1679.7999999523163]","1","2","","","6345","22","0","4","lose","no-go","0"
"pit-trial","141","947626","0.0-27.0","battery-v0.2","","""event"",""trial"",""time""
""fullscreenenter"",""1"",""2275""
","
","
","""event"",""trial"",""time""
""fullscreenenter"",""1"",""2275""
","
","","","853.1999999284744","","","11","6345","3747","d","elianto","#3366ff99"," "," ","1","+10","[1715.5999999046326]","1","2","","","6345","23","1","1","win","go","0"
"pit-trial","142","952506","0.0-28.0","battery-v0.2","","""event"",""trial"",""time""
""fullscreenenter"",""1"",""2275""
","
","
","""event"",""trial"",""time""
""fullscreenenter"",""1"",""2275""
","
","","","-1","","","11","6345","3747","w","elianto","#f73b6a7A"," ","-1","0","-10","[2871.899999976158]","1","2","","","6345","24","3","3","lose","go","0"
"pit-trial","143","957386","0.0-29.0","battery-v0.2","","""event"",""trial"",""time""
""fullscreenenter"",""1"",""2275""
","
","
","""event"",""trial"",""time""
""fullscreenenter"",""1"",""2275""
","
","","","-1","","","11","6345","3747","e","elianto","#f73b6a7A","-1","-1","1","0","[]","0","2","","","6345","25","2","4","lose","no-go","0"
"pit-trial","144","961116","0.0-30.0","battery-v0.2","","""event"",""trial"",""time""
""fullscreenenter"",""1"",""2275""
","
","
","""event"",""trial"",""time""
""fullscreenenter"",""1"",""2275""
","
","","","860","","","11","6345","3747","d","elianto","#3366ff99"," "," ","1","+10","[1722.8999999761581]","1","2","","","6345","26","1","1","win","go","0"
"pit-trial","145","965056","0.0-31.0","battery-v0.2","","""event"",""trial"",""time""
""fullscreenenter"",""1"",""2275""
","
","
","""event"",""trial"",""time""
""fullscreenenter"",""1"",""2275""
","
","","","1059.1000000238419","","","11","6345","3747","w","elianto","#f73b6a7A"," "," ","1","0","[1909.2999999523163]","1","2","","","6345","27","3","3","lose","go","0"
"pit-trial","146","969924","0.0-32.0","battery-v0.2","","""event"",""trial"",""time""
""fullscreenenter"",""1"",""2275""
","
","
","""event"",""trial"",""time""
""fullscreenenter"",""1"",""2275""
","
","","","-1","","","11","6345","3747","j","elianto","#f73b6a7A","-1","-1","1","-10","[]","0","2","","","6345","28","0","4","lose","no-go","1"
"pit-trial","147","974044","0.0-33.0","battery-v0.2","","""event"",""trial"",""time""
""fullscreenenter"",""1"",""2275""
","
","
","""event"",""trial"",""time""
""fullscreenenter"",""1"",""2275""
","
","","","1260.9000000953674","","","11","6345","3747","w","elianto","#f73b6a7A"," "," ","1","-10","[2113.600000023842]","1","2","","","6345","29","3","3","lose","go","1"
"pit-trial","148","977532","0.0-34.0","battery-v0.2","","""event"",""trial"",""time""
""fullscreenenter"",""1"",""2275""
","
","
","""event"",""trial"",""time""
""fullscreenenter"",""1"",""2275""
","
","","","624","","","11","6345","3747","d","elianto","#3366ff99"," "," ","1","+10","[1477]","1","2","","","6345","30","1","1","win","go","0"
"pit-trial","149","982395","0.0-35.0","battery-v0.2","","""event"",""trial"",""time""
""fullscreenenter"",""1"",""2275""
","
","
","""event"",""trial"",""time""
""fullscreenenter"",""1"",""2275""
","
","","","-1","","","11","6345","3747","j","elianto","#f73b6a7A","-1","-1","1","-10","[]","0","2","","","6345","31","0","4","lose","no-go","1"
"pit-trial","150","986381","0.0-36.0","battery-v0.2","","""event"",""trial"",""time""
""fullscreenenter"",""1"",""2275""
","
","
","""event"",""trial"",""time""
""fullscreenenter"",""1"",""2275""
","
","","","1124.6000000238419","","","11","6345","3747","e","elianto","#f73b6a7A","-1"," ","0","-10","[1977.4000000953674]","1","2","","","6345","32","2","4","lose","no-go","0"
"pit-trial","151","990187","0.0-37.0","battery-v0.2","","""event"",""trial"",""time""
""fullscreenenter"",""1"",""2275""
","
","
","""event"",""trial"",""time""
""fullscreenenter"",""1"",""2275""
","
","","","945.7000000476837","","","11","6345","3747","w","elianto","#f73b6a7A"," "," ","1","0","[1797.2000000476837]","1","2","","","6345","33","3","3","lose","go","0"
"pit-trial","152","994620","0.0-38.0","battery-v0.2","","""event"",""trial"",""time""
""fullscreenenter"",""1"",""2275""
","
","
","""event"",""trial"",""time""
""fullscreenenter"",""1"",""2275""
","
","","","1567.7999999523163","","","11","6345","3747","e","elianto","#f73b6a7A","-1"," ","0","-10","[2422.7999999523163]","1","2","","","6345","34","2","4","lose","no-go","0"
"pit-trial","153","998172","0.0-39.0","battery-v0.2","","""event"",""trial"",""time""
""fullscreenenter"",""1"",""2275""
","
","
","""event"",""trial"",""time""
""fullscreenenter"",""1"",""2275""
","
","","","691.1999999284744","","","11","6345","3747","d","elianto","#3366ff99"," "," ","1","0","[1544.5]","1","2","","","6345","35","1","1","win","go","1"
"pit-trial","154","1003036","0.0-40.0","battery-v0.2","","""event"",""trial"",""time""
""fullscreenenter"",""1"",""2275""
","
","
","""event"",""trial"",""time""
""fullscreenenter"",""1"",""2275""
","
","","","-1","","","11","6345","3747","j","elianto","#f73b6a7A","-1","-1","1","0","[]","0","2","","","6345","36","0","4","lose","no-go","0"
"pit-trial","155","1007900","0.0-41.0","battery-v0.2","","""event"",""trial"",""time""
""fullscreenenter"",""1"",""2275""
","
","
","""event"",""trial"",""time""
""fullscreenenter"",""1"",""2275""
","
","","","-1","","","11","6345","3747","w","elianto","#f73b6a7A"," ","-1","0","-10","[]","0","2","","","6345","37","3","3","lose","go","0"
"pit-trial","156","1011308","0.0-42.0","battery-v0.2","","""event"",""trial"",""time""
""fullscreenenter"",""1"",""2275""
","
","
","""event"",""trial"",""time""
""fullscreenenter"",""1"",""2275""
","
","","","549","","","11","6345","3747","d","elianto","#3366ff99"," "," ","1","+10","[1399.3000000715256]","1","2","","","6345","38","1","1","win","go","0"
"pit-trial","157","1016172","0.0-43.0","battery-v0.2","","""event"",""trial"",""time""
""fullscreenenter"",""1"",""2275""
","
","
","""event"",""trial"",""time""
""fullscreenenter"",""1"",""2275""
","
","","","-1","","","11","6345","3747","j","elianto","#f73b6a7A","-1","-1","1","0","[]","0","2","","","6345","39","0","4","lose","no-go","0"
"pit-trial","158","1021036","0.0-44.0","battery-v0.2","","""event"",""trial"",""time""
""fullscreenenter"",""1"",""2275""
","
","
","""event"",""trial"",""time""
""fullscreenenter"",""1"",""2275""
","
","","","-1","","","11","6345","3747","e","elianto","#f73b6a7A","-1","-1","1","0","[]","0","2","","","6345","40","2","4","lose","no-go","0"
"pit-trial","159","1025900","0.0-45.0","battery-v0.2","","""event"",""trial"",""time""
""fullscreenenter"",""1"",""2275""
","
","
","""event"",""trial"",""time""
""fullscreenenter"",""1"",""2275""
","
","","","-1","","","11","6345","3747","e","elianto","#f73b6a7A","-1","-1","1","0","[]","0","2","","","6345","41","2","4","lose","no-go","0"
"pit-trial","160","1029452","0.0-46.0","battery-v0.2","","""event"",""trial"",""time""
""fullscreenenter"",""1"",""2275""
","
","
","""event"",""trial"",""time""
""fullscreenenter"",""1"",""2275""
","
","","","694.7000000476837","","","11","6345","3747","d","elianto","#3366ff99"," "," ","1","+10","[1545]","1","2","","","6345","42","1","1","win","go","0"
"pit-trial","161","1034316","0.0-47.0","battery-v0.2","","""event"",""trial"",""time""
""fullscreenenter"",""1"",""2275""
","
","
","""event"",""trial"",""time""
""fullscreenenter"",""1"",""2275""
","
","","","-1","","","11","6345","3747","j","elianto","#f73b6a7A","-1","-1","1","0","[]","0","2","","","6345","43","0","4","lose","no-go","0"
"pit-trial","162","1038284","0.0-48.0","battery-v0.2","","""event"",""trial"",""time""
""fullscreenenter"",""1"",""2275""
","
","
","""event"",""trial"",""time""
""fullscreenenter"",""1"",""2275""
","
","","","1106.3999999761581","","","11","6345","3747","w","elianto","#f73b6a7A"," "," ","1","-10","[1957]","1","2","","","6345","44","3","3","lose","go","1"
"pit-trial","163","1043148","0.0-49.0","battery-v0.2","","""event"",""trial"",""time""
""fullscreenenter"",""1"",""2275""
","
","
","""event"",""trial"",""time""
""fullscreenenter"",""1"",""2275""
","
","","","-1","","","11","6345","3747","s","elianto","#3366ff99","-1","-1","1","+10","[]","0","2","","","6345","45","4","2","win","no-go","0"
"pit-trial","164","1048013","0.0-50.0","battery-v0.2","","""event"",""trial"",""time""
""fullscreenenter"",""1"",""2275""
","
","
","""event"",""trial"",""time""
""fullscreenenter"",""1"",""2275""
","
","","","-1","","","11","6345","3747","w","elianto","#f73b6a7A"," ","-1","0","-10","[]","0","2","","","6345","46","3","3","lose","go","0"
"pit-trial","165","1052876","0.0-51.0","battery-v0.2","","""event"",""trial"",""time""
""fullscreenenter"",""1"",""2275""
","
","
","""event"",""trial"",""time""
""fullscreenenter"",""1"",""2275""
","
","","","-1","","","11","6345","3747","e","elianto","#f73b6a7A","-1","-1","1","0","[]","0","2","","","6345","47","2","4","lose","no-go","0"
"pit-trial","166","1057740","0.0-52.0","battery-v0.2","","""event"",""trial"",""time""
""fullscreenenter"",""1"",""2275""
","
","
","""event"",""trial"",""time""
""fullscreenenter"",""1"",""2275""
","
","","","-1","","","11","6345","3747","j","elianto","#f73b6a7A","-1","-1","1","0","[]","0","2","","","6345","48","0","4","lose","no-go","0"
"pit-trial","167","1062605","0.0-53.0","battery-v0.2","","""event"",""trial"",""time""
""fullscreenenter"",""1"",""2275""
","
","
","""event"",""trial"",""time""
""fullscreenenter"",""1"",""2275""
","
","","","-1","","","11","6345","3747","j","elianto","#f73b6a7A","-1","-1","1","-10","[]","0","2","","","6345","49","0","4","lose","no-go","1"
"pit-trial","168","1067468","0.0-54.0","battery-v0.2","","""event"",""trial"",""time""
""fullscreenenter"",""1"",""2275""
","
","
","""event"",""trial"",""time""
""fullscreenenter"",""1"",""2275""
","
","","","-1","","","11","6345","3747","w","elianto","#f73b6a7A"," ","-1","0","0","[]","0","2","","","6345","50","3","3","lose","go","1"
"pit-trial","169","1070908","0.0-55.0","battery-v0.2","","""event"",""trial"",""time""
""fullscreenenter"",""1"",""2275""
","
","
","""event"",""trial"",""time""
""fullscreenenter"",""1"",""2275""
","
","","","579.8000000715256","","","11","6345","3747","d","elianto","#3366ff99"," "," ","1","+10","[1433.6000000238419]","1","2","","","6345","51","1","1","win","go","0"
"pit-trial","170","1075772","0.0-56.0","battery-v0.2","","""event"",""trial"",""time""
""fullscreenenter"",""1"",""2275""
","
","
","""event"",""trial"",""time""
""fullscreenenter"",""1"",""2275""
","
","","","-1","","","11","6345","3747","s","elianto","#3366ff99","-1","-1","1","+10","[]","0","2","","","6345","52","4","2","win","no-go","0"
"pit-trial","171","1079308","0.0-57.0","battery-v0.2","","""event"",""trial"",""time""
""fullscreenenter"",""1"",""2275""
","
","
","""event"",""trial"",""time""
""fullscreenenter"",""1"",""2275""
","
","","","671.7999999523163","","","11","6345","3747","d","elianto","#3366ff99"," "," ","1","0","[1525.7999999523163]","1","2","","","6345","53","1","1","win","go","1"
"pit-trial","172","1084172","0.0-58.0","battery-v0.2","","""event"",""trial"",""time""
""fullscreenenter"",""1"",""2275""
","
","
","""event"",""trial"",""time""
""fullscreenenter"",""1"",""2275""
","
","","","-1","","","11","6345","3747","e","elianto","#f73b6a7A","-1","-1","1","0","[]","0","2","","","6345","54","2","4","lose","no-go","0"
"pit-trial","173","1087661","0.0-59.0","battery-v0.2","","""event"",""trial"",""time""
""fullscreenenter"",""1"",""2275""
","
","
","""event"",""trial"",""time""
""fullscreenenter"",""1"",""2275""
","
","","","626.8999999761581","","","11","6345","3747","j","elianto","#f73b6a7A","-1"," ","0","-10","[1480.7000000476837]","1","2","","","6345","55","0","4","lose","no-go","0"
"pit-trial","174","1092524","0.0-60.0","battery-v0.2","","""event"",""trial"",""time""
""fullscreenenter"",""1"",""2275""
","
","
","""event"",""trial"",""time""
""fullscreenenter"",""1"",""2275""
","
","","","-1","","","11","6345","3747","s","elianto","#3366ff99","-1","-1","1","+10","[]","0","2","","","6345","56","4","2","win","no-go","0"
"pit-trial","175","1097389","0.0-61.0","battery-v0.2","","""event"",""trial"",""time""
""fullscreenenter"",""1"",""2275""
","
","
","""event"",""trial"",""time""
""fullscreenenter"",""1"",""2275""
","
","","","-1","","","11","6345","3747","w","elianto","#f73b6a7A"," ","-1","0","-10","[]","0","2","","","6345","57","3","3","lose","go","0"
"pit-trial","176","1100893","0.0-62.0","battery-v0.2","","""event"",""trial"",""time""
""fullscreenenter"",""1"",""2275""
","
","
","""event"",""trial"",""time""
""fullscreenenter"",""1"",""2275""
","
","","","643.3000000715256","","","11","6345","3747","d","elianto","#3366ff99"," "," ","1","0","[1496.6000000238419]","1","2","","","6345","58","1","1","win","go","1"
"pit-trial","177","1105755","0.0-63.0","battery-v0.2","","""event"",""trial"",""time""
""fullscreenenter"",""1"",""2275""
","
","
","""event"",""trial"",""time""
""fullscreenenter"",""1"",""2275""
","
","","","-1","","","11","6345","3747","s","elianto","#3366ff99","-1","-1","1","+10","[]","0","2","","","6345","59","4","2","win","no-go","0"
"pit-trial","178","1110621","0.0-64.0","battery-v0.2","","""event"",""trial"",""time""
""fullscreenenter"",""1"",""2275""
","
","
","""event"",""trial"",""time""
""fullscreenenter"",""1"",""2275""
","
","","","-1","","","11","6345","3747","j","elianto","#f73b6a7A","-1","-1","1","0","[]","0","2","","","6345","60","0","4","lose","no-go","0"
"pit-trial","179","1114253","0.0-65.0","battery-v0.2","","""event"",""trial"",""time""
""fullscreenenter"",""1"",""2275""
","
","
","""event"",""trial"",""time""
""fullscreenenter"",""1"",""2275""
","
","","","770.8000000715256","","","11","6345","3747","d","elianto","#3366ff99"," "," ","1","0","[1623.8000000715256]","1","2","","","6345","61","1","1","win","go","1"
"pit-trial","180","1119116","0.0-66.0","battery-v0.2","","""event"",""trial"",""time""
""fullscreenenter"",""1"",""2275""
","
","
","""event"",""trial"",""time""
""fullscreenenter"",""1"",""2275""
","
","","","-1","","","11","6345","3747","s","elianto","#3366ff99","-1","-1","1","+10","[]","0","2","","","6345","62","4","2","win","no-go","0"
"pit-trial","181","1123980","0.0-67.0","battery-v0.2","","""event"",""trial"",""time""
""fullscreenenter"",""1"",""2275""
","
","
","""event"",""trial"",""time""
""fullscreenenter"",""1"",""2275""
","
","","","-1","","","11","6345","3747","e","elianto","#f73b6a7A","-1","-1","1","0","[]","0","2","","","6345","63","2","4","lose","no-go","0"
"pit-trial","182","1128173","0.0-68.0","battery-v0.2","","""event"",""trial"",""time""
""fullscreenenter"",""1"",""2275""
","
","
","""event"",""trial"",""time""
""fullscreenenter"",""1"",""2275""
","
","","","1333.5","","","11","6345","3747","w","elianto","#f73b6a7A"," "," ","1","0","[2185.899999976158]","1","2","","","6345","64","3","3","lose","go","0"
"pit-trial","183","1133037","0.0-69.0","battery-v0.2","","""event"",""trial"",""time""
""fullscreenenter"",""1"",""2275""
","
","
","""event"",""trial"",""time""
""fullscreenenter"",""1"",""2275""
","
","","","-1","","","11","6345","3747","s","elianto","#3366ff99","-1","-1","1","+10","[]","0","2","","","6345","65","4","2","win","no-go","0"
"pit-trial","184","1137404","0.0-70.0","battery-v0.2","","""event"",""trial"",""time""
""fullscreenenter"",""1"",""2275""
","
","
","""event"",""trial"",""time""
""fullscreenenter"",""1"",""2275""
","
","","","1504.8000000715256","","","11","6345","3747","w","elianto","#f73b6a7A"," "," ","1","0","[2357]","1","2","","","6345","66","3","3","lose","go","0"
"pit-trial","185","1142276","0.0-71.0","battery-v0.2","","""event"",""trial"",""time""
""fullscreenenter"",""1"",""2275""
","
","
","""event"",""trial"",""time""
""fullscreenenter"",""1"",""2275""
","
","","","-1","","","11","6345","3747","e","elianto","#f73b6a7A","-1","-1","1","-10","[]","0","2","","","6345","67","2","4","lose","no-go","1"
"pit-trial","186","1145773","0.0-72.0","battery-v0.2","","""event"",""trial"",""time""
""fullscreenenter"",""1"",""2275""
","
","
","""event"",""trial"",""time""
""fullscreenenter"",""1"",""2275""
","
","","","636.1000000238419","","","11","6345","3747","d","elianto","#3366ff99"," "," ","1","0","[1490.2999999523163]","1","2","","","6345","68","1","1","win","go","1"
"pit-trial","187","1150636","0.0-73.0","battery-v0.2","","""event"",""trial"",""time""
""fullscreenenter"",""1"",""2275""
","
","
","""event"",""trial"",""time""
""fullscreenenter"",""1"",""2275""
","
","","","-1","","","11","6345","3747","p","elianto","#3366ff99"," ","-1","0","0","[]","0","2","","","6345","69","5","1","win","go","0"
"pit-trial","188","1155502","0.0-74.0","battery-v0.2","","""event"",""trial"",""time""
""fullscreenenter"",""1"",""2275""
","
","
","""event"",""trial"",""time""
""fullscreenenter"",""1"",""2275""
","
","","","-1","","","11","6345","3747","w","elianto","#f73b6a7A"," ","-1","0","-10","[]","0","2","","","6345","70","3","3","lose","go","0"
"pit-trial","189","1160364","0.0-75.0","battery-v0.2","","""event"",""trial"",""time""
""fullscreenenter"",""1"",""2275""
","
","
","""event"",""trial"",""time""
""fullscreenenter"",""1"",""2275""
","
","","","-1","","","11","6345","3747","s","elianto","#3366ff99","-1","-1","1","+10","[]","0","2","","","6345","71","4","2","win","no-go","0"
"pit-trial","190","1163901","0.0-76.0","battery-v0.2","","""event"",""trial"",""time""
""fullscreenenter"",""1"",""2275""
","
","
","""event"",""trial"",""time""
""fullscreenenter"",""1"",""2275""
","
","","","674.8999999761581","","","11","6345","3747","d","elianto","#3366ff99"," "," ","1","+10","[1528.6999999284744]","1","2","","","6345","72","1","1","win","go","0"
"pit-trial","191","1168764","0.0-77.0","battery-v0.2","","""event"",""trial"",""time""
""fullscreenenter"",""1"",""2275""
","
","
","""event"",""trial"",""time""
""fullscreenenter"",""1"",""2275""
","
","","","-1","","","11","6345","3747","s","elianto","#3366ff99","-1","-1","1","+10","[]","0","2","","","6345","73","4","2","win","no-go","0"
"pit-trial","192","1172748","0.0-78.0","battery-v0.2","","""event"",""trial"",""time""
""fullscreenenter"",""1"",""2275""
","
","
","""event"",""trial"",""time""
""fullscreenenter"",""1"",""2275""
","
","","","1123.1000000238419","","","11","6345","3747","w","elianto","#f73b6a7A"," "," ","1","0","[1973.8999999761581]","1","2","","","6345","74","3","3","lose","go","0"
"pit-trial","193","1176285","0.0-79.0","battery-v0.2","","""event"",""trial"",""time""
""fullscreenenter"",""1"",""2275""
","
","
","""event"",""trial"",""time""
""fullscreenenter"",""1"",""2275""
","
","","","675.8000000715256","","","11","6345","3747","d","elianto","#3366ff99"," "," ","1","+10","[1528.2999999523163]","1","2","","","6345","75","1","1","win","go","0"
"pit-trial","194","1180061","0.0-80.0","battery-v0.2","","""event"",""trial"",""time""
""fullscreenenter"",""1"",""2275""
","
","
","""event"",""trial"",""time""
""fullscreenenter"",""1"",""2275""
","
","","","911.3999999761581","","","11","6345","3747","p","elianto","#3366ff99"," "," ","1","+10","[1764.1000000238419]","1","2","","","6345","76","5","1","win","go","0"
"pit-trial","195","1183821","0.0-81.0","battery-v0.2","","""event"",""trial"",""time""
""fullscreenenter"",""1"",""2275""
","
","
","""event"",""trial"",""time""
""fullscreenenter"",""1"",""2275""
","
","","","896","","","11","6345","3747","w","elianto","#f73b6a7A"," "," ","1","0","[1749.3000000715256]","1","2","","","6345","77","3","3","lose","go","0"
"pit-trial","196","1188684","0.0-82.0","battery-v0.2","","""event"",""trial"",""time""
""fullscreenenter"",""1"",""2275""
","
","
","""event"",""trial"",""time""
""fullscreenenter"",""1"",""2275""
","
","","","-1","","","11","6345","3747","s","elianto","#3366ff99","-1","-1","1","+10","[]","0","2","","","6345","78","4","2","win","no-go","0"
"pit-trial","197","1192157","0.0-83.0","battery-v0.2","","""event"",""trial"",""time""
""fullscreenenter"",""1"",""2275""
","
","
","""event"",""trial"",""time""
""fullscreenenter"",""1"",""2275""
","
","","","614.7000000476837","","","11","6345","3747","p","elianto","#3366ff99"," "," ","1","+10","[1464.8999999761581]","1","2","","","6345","79","5","1","win","go","0"
"pit-trial","198","1197021","0.0-84.0","battery-v0.2","","""event"",""trial"",""time""
""fullscreenenter"",""1"",""2275""
","
","
","""event"",""trial"",""time""
""fullscreenenter"",""1"",""2275""
","
","","","-1","","","11","6345","3747","g","elianto","#f73b6a7A","-1","-1","1","-10","[]","0","2","","","6345","80","6","4","lose","no-go","1"
"pit-trial","199","1200621","0.0-85.0","battery-v0.2","","""event"",""trial"",""time""
""fullscreenenter"",""1"",""2275""
","
","
","""event"",""trial"",""time""
""fullscreenenter"",""1"",""2275""
","
","","","736.1999999284744","","","11","6345","3747","p","elianto","#3366ff99"," "," ","1","+10","[1589.0999999046326]","1","2","","","6345","81","5","1","win","go","0"
"pit-trial","200","1205484","0.0-86.0","battery-v0.2","","""event"",""trial"",""time""
""fullscreenenter"",""1"",""2275""
","
","
","""event"",""trial"",""time""
""fullscreenenter"",""1"",""2275""
","
","","","-1","","","11","6345","3747","s","elianto","#3366ff99","-1","-1","1","+10","[]","0","2","","","6345","82","4","2","win","no-go","0"
"pit-trial","201","1210348","0.0-87.0","battery-v0.2","","""event"",""trial"",""time""
""fullscreenenter"",""1"",""2275""
","
","
","""event"",""trial"",""time""
""fullscreenenter"",""1"",""2275""
","
","","","-1","","","11","6345","3747","a","elianto","#f73b6a7A"," ","-1","0","-10","[]","0","2","","","6345","83","7","3","lose","go","0"
"pit-trial","202","1214205","0.0-88.0","battery-v0.2","","""event"",""trial"",""time""
""fullscreenenter"",""1"",""2275""
","
","
","""event"",""trial"",""time""
""fullscreenenter"",""1"",""2275""
","
","","","997.6000000238419","","","11","6345","3747","g","elianto","#f73b6a7A","-1"," ","0","-10","[1847.7000000476837]","1","2","","","6345","84","6","4","lose","no-go","0"
"pit-trial","203","1219068","0.0-89.0","battery-v0.2","","""event"",""trial"",""time""
""fullscreenenter"",""1"",""2275""
","
","
","""event"",""trial"",""time""
""fullscreenenter"",""1"",""2275""
","
","","","-1","","","11","6345","3747","s","elianto","#3366ff99","-1","-1","1","+10","[]","0","2","","","6345","85","4","2","win","no-go","0"
"pit-trial","204","1222797","0.0-90.0","battery-v0.2","","""event"",""trial"",""time""
""fullscreenenter"",""1"",""2275""
","
","
","""event"",""trial"",""time""
""fullscreenenter"",""1"",""2275""
","
","","","864.2000000476837","","","11","6345","3747","a","elianto","#f73b6a7A"," "," ","1","0","[1717]","1","2","","","6345","86","7","3","lose","go","0"
"pit-trial","205","1226861","0.0-91.0","battery-v0.2","","""event"",""trial"",""time""
""fullscreenenter"",""1"",""2275""
","
","
","""event"",""trial"",""time""
""fullscreenenter"",""1"",""2275""
","
","","","1202.6000000238419","","","11","6345","3747","p","elianto","#3366ff99"," "," ","1","+10","[2056.6999999284744]","1","2","","","6345","87","5","1","win","go","0"
"pit-trial","206","1230797","0.0-92.0","battery-v0.2","","""event"",""trial"",""time""
""fullscreenenter"",""1"",""2275""
","
","
","""event"",""trial"",""time""
""fullscreenenter"",""1"",""2275""
","
","","","1071.8000000715256","","","11","6345","3747","g","elianto","#f73b6a7A","-1"," ","0","0","[1925.2000000476837]","1","2","","","6345","88","6","4","lose","no-go","1"
"pit-trial","207","1234909","0.0-93.0","battery-v0.2","","""event"",""trial"",""time""
""fullscreenenter"",""1"",""2275""
","
","
","""event"",""trial"",""time""
""fullscreenenter"",""1"",""2275""
","
","","","1249.2999999523163","","","11","6345","3747","g","elianto","#f73b6a7A","-1"," ","0","-10","[2100.399999976158]","1","2","","","6345","89","6","4","lose","no-go","0"
"pit-trial","208","1239772","0.0-94.0","battery-v0.2","","""event"",""trial"",""time""
""fullscreenenter"",""1"",""2275""
","
","
","""event"",""trial"",""time""
""fullscreenenter"",""1"",""2275""
","
","","","-1","","","11","6345","3747","s","elianto","#3366ff99","-1","-1","1","+10","[]","0","2","","","6345","90","4","2","win","no-go","0"
"pit-trial","209","1243356","0.0-95.0","battery-v0.2","","""event"",""trial"",""time""
""fullscreenenter"",""1"",""2275""
","
","
","""event"",""trial"",""time""
""fullscreenenter"",""1"",""2275""
","
","","","723.3000000715256","","","11","6345","3747","p","elianto","#3366ff99"," "," ","1","+10","[1576.8000000715256]","1","2","","","6345","91","5","1","win","go","0"
"pit-trial","210","1247132","0.0-96.0","battery-v0.2","","""event"",""trial"",""time""
""fullscreenenter"",""1"",""2275""
","
","
","""event"",""trial"",""time""
""fullscreenenter"",""1"",""2275""
","
","","","911.5","","","11","6345","3747","a","elianto","#f73b6a7A"," "," ","1","0","[1765.2000000476837]","1","2","","","6345","92","7","3","lose","go","0"
"pit-trial","211","1250988","0.0-97.0","battery-v0.2","","""event"",""trial"",""time""
""fullscreenenter"",""1"",""2275""
","
","
","""event"",""trial"",""time""
""fullscreenenter"",""1"",""2275""
","
","","","994.7999999523163","","","11","6345","3747","a","elianto","#f73b6a7A"," "," ","1","0","[1845.7999999523163]","1","2","","","6345","93","7","3","lose","go","0"
"pit-trial","212","1254764","0.0-98.0","battery-v0.2","","""event"",""trial"",""time""
""fullscreenenter"",""1"",""2275""
","
","
","""event"",""trial"",""time""
""fullscreenenter"",""1"",""2275""
","
","","","915.5","","","11","6345","3747","g","elianto","#f73b6a7A","-1"," ","0","-10","[1769.5]","1","2","","","6345","94","6","4","lose","no-go","0"
"pit-trial","213","1258364","0.0-99.0","battery-v0.2","","""event"",""trial"",""time""
""fullscreenenter"",""1"",""2275""
","
","
","""event"",""trial"",""time""
""fullscreenenter"",""1"",""2275""
","
","","","738.8999999761581","","","11","6345","3747","p","elianto","#3366ff99"," "," ","1","+10","[1589.8999999761581]","1","2","","","6345","95","5","1","win","go","0"
"pit-trial","214","1262220","0.0-100.0","battery-v0.2","","""event"",""trial"",""time""
""fullscreenenter"",""1"",""2275""
","
","
","""event"",""trial"",""time""
""fullscreenenter"",""1"",""2275""
","
","","","995","","","11","6345","3747","l","elianto","#3366ff99","-1"," ","0","0","[1845.7999999523163]","1","2","","","6345","96","8","2","win","no-go","0"
"pit-trial","215","1265692","0.0-101.0","battery-v0.2","","""event"",""trial"",""time""
""fullscreenenter"",""1"",""2275""
","
","
","""event"",""trial"",""time""
""fullscreenenter"",""1"",""2275""
","
","","","611","","","11","6345","3747","p","elianto","#3366ff99"," "," ","1","+10","[1464.5]","1","2","","","6345","97","5","1","win","go","0"
"pit-trial","216","1270556","0.0-102.0","battery-v0.2","","""event"",""trial"",""time""
""fullscreenenter"",""1"",""2275""
","
","
","""event"",""trial"",""time""
""fullscreenenter"",""1"",""2275""
","
","","","-1","","","11","6345","3747","l","elianto","#3366ff99","-1","-1","1","+10","[]","0","2","","","6345","98","8","2","win","no-go","0"
"pit-trial","217","1274692","0.0-103.0","battery-v0.2","","""event"",""trial"",""time""
""fullscreenenter"",""1"",""2275""
","
","
","""event"",""trial"",""time""
""fullscreenenter"",""1"",""2275""
","
","","","1278.8999999761581","","","11","6345","3747","g","elianto","#f73b6a7A","-1"," ","0","-10","[2132.399999976158]","1","2","","","6345","99","6","4","lose","no-go","0"
"pit-trial","218","1278604","0.0-104.0","battery-v0.2","","""event"",""trial"",""time""
""fullscreenenter"",""1"",""2275""
","
","
","""event"",""trial"",""time""
""fullscreenenter"",""1"",""2275""
","
","","","1050.6000000238419","","","11","6345","3747","a","elianto","#f73b6a7A"," "," ","1","-10","[1904.7999999523163]","1","2","","","6345","100","7","3","lose","go","1"
"pit-trial","219","1282124","0.0-105.0","battery-v0.2","","""event"",""trial"",""time""
""fullscreenenter"",""1"",""2275""
","
","
","""event"",""trial"",""time""
""fullscreenenter"",""1"",""2275""
","
","","","655.7000000476837","","","11","6345","3747","p","elianto","#3366ff99"," "," ","1","+10","[1509]","1","2","","","6345","101","5","1","win","go","0"
"pit-trial","220","1286988","0.0-106.0","battery-v0.2","","""event"",""trial"",""time""
""fullscreenenter"",""1"",""2275""
","
","
","""event"",""trial"",""time""
""fullscreenenter"",""1"",""2275""
","
","","","-1","","","11","6345","3747","l","elianto","#3366ff99","-1","-1","1","+10","[]","0","2","","","6345","102","8","2","win","no-go","0"
"pit-trial","221","1291852","0.0-107.0","battery-v0.2","","""event"",""trial"",""time""
""fullscreenenter"",""1"",""2275""
","
","
","""event"",""trial"",""time""
""fullscreenenter"",""1"",""2275""
","
","","","-1","","","11","6345","3747","u","elianto","#3366ff99","-1","-1","1","+10","[]","0","2","","","6345","103","9","2","win","no-go","0"
"pit-trial","222","1296716","0.0-108.0","battery-v0.2","","""event"",""trial"",""time""
""fullscreenenter"",""1"",""2275""
","
","
","""event"",""trial"",""time""
""fullscreenenter"",""1"",""2275""
","
","","","-1","","","11","6345","3747","g","elianto","#f73b6a7A","-1","-1","1","0","[]","0","2","","","6345","104","6","4","lose","no-go","0"
"pit-trial","223","1301580","0.0-109.0","battery-v0.2","","""event"",""trial"",""time""
""fullscreenenter"",""1"",""2275""
","
","
","""event"",""trial"",""time""
""fullscreenenter"",""1"",""2275""
","
","","","-1","","","11","6345","3747","l","elianto","#3366ff99","-1","-1","1","+10","[]","0","2","","","6345","105","8","2","win","no-go","0"
"pit-trial","224","1306452","0.0-110.0","battery-v0.2","","""event"",""trial"",""time""
""fullscreenenter"",""1"",""2275""
","
","
","""event"",""trial"",""time""
""fullscreenenter"",""1"",""2275""
","
","","","-1","","","11","6345","3747","u","elianto","#3366ff99","-1","-1","1","+10","[]","0","2","","","6345","106","9","2","win","no-go","0"
"pit-trial","225","1311324","0.0-111.0","battery-v0.2","","""event"",""trial"",""time""
""fullscreenenter"",""1"",""2275""
","
","
","""event"",""trial"",""time""
""fullscreenenter"",""1"",""2275""
","
","","","-1","","","11","6345","3747","g","elianto","#f73b6a7A","-1","-1","1","-10","[]","0","2","","","6345","107","6","4","lose","no-go","1"
"pit-trial","226","1315052","0.0-112.0","battery-v0.2","","""event"",""trial"",""time""
""fullscreenenter"",""1"",""2275""
","
","
","""event"",""trial"",""time""
""fullscreenenter"",""1"",""2275""
","
","","","865.3000000715256","","","11","6345","3747","p","elianto","#3366ff99"," "," ","1","0","[1718.5]","1","2","","","6345","108","5","1","win","go","1"
"pit-trial","227","1318508","0.0-113.0","battery-v0.2","","""event"",""trial"",""time""
""fullscreenenter"",""1"",""2275""
","
","
","""event"",""trial"",""time""
""fullscreenenter"",""1"",""2275""
","
","","","592.0999999046326","","","11","6345","3747","p","elianto","#3366ff99"," "," ","1","+10","[1444.5999999046326]","1","2","","","6345","109","5","1","win","go","0"
"pit-trial","228","1323373","0.0-114.0","battery-v0.2","","""event"",""trial"",""time""
""fullscreenenter"",""1"",""2275""
","
","
","""event"",""trial"",""time""
""fullscreenenter"",""1"",""2275""
","
","","","-1","","","11","6345","3747","u","elianto","#3366ff99","-1","-1","1","+10","[]","0","2","","","6345","110","9","2","win","no-go","0"
"pit-trial","229","1328235","0.0-115.0","battery-v0.2","","""event"",""trial"",""time""
""fullscreenenter"",""1"",""2275""
","
","
","""event"",""trial"",""time""
""fullscreenenter"",""1"",""2275""
","
","","","-1","","","11","6345","3747","l","elianto","#3366ff99","-1","-1","1","+10","[]","0","2","","","6345","111","8","2","win","no-go","0"
"pit-trial","230","1333100","0.0-116.0","battery-v0.2","","""event"",""trial"",""time""
""fullscreenenter"",""1"",""2275""
","
","
","""event"",""trial"",""time""
""fullscreenenter"",""1"",""2275""
","
","","","-1","","","11","6345","3747","g","elianto","#f73b6a7A","-1","-1","1","0","[]","0","2","","","6345","112","6","4","lose","no-go","0"
"pit-trial","231","1337964","0.0-117.0","battery-v0.2","","""event"",""trial"",""time""
""fullscreenenter"",""1"",""2275""
","
","
","""event"",""trial"",""time""
""fullscreenenter"",""1"",""2275""
","
","","","-1","","","11","6345","3747","u","elianto","#3366ff99","-1","-1","1","0","[]","0","2","","","6345","113","9","2","win","no-go","1"
"pit-trial","232","1341708","0.0-118.0","battery-v0.2","","""event"",""trial"",""time""
""fullscreenenter"",""1"",""2275""
","
","
","""event"",""trial"",""time""
""fullscreenenter"",""1"",""2275""
","
","","","886.7000000476837","","","11","6345","3747","p","elianto","#3366ff99"," "," ","1","+10","[1736.8999999761581]","1","2","","","6345","114","5","1","win","go","0"
"pit-trial","233","1345356","0.0-119.0","battery-v0.2","","""event"",""trial"",""time""
""fullscreenenter"",""1"",""2275""
","
","
","""event"",""trial"",""time""
""fullscreenenter"",""1"",""2275""
","
","","","783.6999999284744","","","11","6345","3747","a","elianto","#f73b6a7A"," "," ","1","0","[1638]","1","2","","","6345","115","7","3","lose","go","0"
"pit-trial","234","1350220","0.0-120.0","battery-v0.2","","""event"",""trial"",""time""
""fullscreenenter"",""1"",""2275""
","
","
","""event"",""trial"",""time""
""fullscreenenter"",""1"",""2275""
","
","","","-1","","","11","6345","3747","l","elianto","#3366ff99","-1","-1","1","+10","[]","0","2","","","6345","116","8","2","win","no-go","0"
"pit-trial","235","1355085","0.0-121.0","battery-v0.2","","""event"",""trial"",""time""
""fullscreenenter"",""1"",""2275""
","
","
","""event"",""trial"",""time""
""fullscreenenter"",""1"",""2275""
","
","","","-1","","","11","6345","3747","u","elianto","#3366ff99","-1","-1","1","+10","[]","0","2","","","6345","117","9","2","win","no-go","0"
"pit-trial","236","1359949","0.0-122.0","battery-v0.2","","""event"",""trial"",""time""
""fullscreenenter"",""1"",""2275""
","
","
","""event"",""trial"",""time""
""fullscreenenter"",""1"",""2275""
","
","","","-1","","","11","6345","3747","l","elianto","#3366ff99","-1","-1","1","+10","[]","0","2","","","6345","118","8","2","win","no-go","0"
"pit-trial","237","1363597","0.0-123.0","battery-v0.2","","""event"",""trial"",""time""
""fullscreenenter"",""1"",""2275""
","
","
","""event"",""trial"",""time""
""fullscreenenter"",""1"",""2275""
","
","","","788.6999999284744","","","11","6345","3747","p","elianto","#3366ff99"," "," ","1","+10","[1640.8999999761581]","1","2","","","6345","119","5","1","win","go","0"
"pit-trial","238","1368460","0.0-124.0","battery-v0.2","","""event"",""trial"",""time""
""fullscreenenter"",""1"",""2275""
","
","
","""event"",""trial"",""time""
""fullscreenenter"",""1"",""2275""
","
","","","-1","","","11","6345","3747","g","elianto","#f73b6a7A","-1","-1","1","0","[]","0","2","","","6345","120","6","4","lose","no-go","0"
"pit-trial","239","1373324","0.0-125.0","battery-v0.2","","""event"",""trial"",""time""
""fullscreenenter"",""1"",""2275""
","
","
","""event"",""trial"",""time""
""fullscreenenter"",""1"",""2275""
","
","","","-1","","","11","6345","3747","l","elianto","#3366ff99","-1","-1","1","0","[]","0","2","","","6345","121","8","2","win","no-go","1"
"pit-trial","240","1376957","0.0-126.0","battery-v0.2","","""event"",""trial"",""time""
""fullscreenenter"",""1"",""2275""
","
","
","""event"",""trial"",""time""
""fullscreenenter"",""1"",""2275""
","
","","","772","","","11","6345","3747","a","elianto","#f73b6a7A"," "," ","1","0","[1625.6999999284744]","1","2","","","6345","122","7","3","lose","go","0"
"pit-trial","241","1380421","0.0-127.0","battery-v0.2","","""event"",""trial"",""time""
""fullscreenenter"",""1"",""2275""
","
","
","""event"",""trial"",""time""
""fullscreenenter"",""1"",""2275""
","
","","","606.7000000476837","","","11","6345","3747","p","elianto","#3366ff99"," "," ","1","+10","[1459.8999999761581]","1","2","","","6345","123","5","1","win","go","0"
"pit-trial","242","1385284","0.0-128.0","battery-v0.2","","""event"",""trial"",""time""
""fullscreenenter"",""1"",""2275""
","
","
","""event"",""trial"",""time""
""fullscreenenter"",""1"",""2275""
","
","","","-1","","","11","6345","3747","u","elianto","#3366ff99","-1","-1","1","0","[]","0","2","","","6345","124","9","2","win","no-go","1"
"pit-trial","243","1390148","0.0-129.0","battery-v0.2","","""event"",""trial"",""time""
""fullscreenenter"",""1"",""2275""
","
","
","""event"",""trial"",""time""
""fullscreenenter"",""1"",""2275""
","
","","","-1","","","11","6345","3747","l","elianto","#3366ff99","-1","-1","1","+10","[]","0","2","","","6345","125","8","2","win","no-go","0"
"pit-trial","244","1395012","0.0-130.0","battery-v0.2","","""event"",""trial"",""time""
""fullscreenenter"",""1"",""2275""
","
","
","""event"",""trial"",""time""
""fullscreenenter"",""1"",""2275""
","
","","","-1","","","11","6345","3747","u","elianto","#3366ff99","-1","-1","1","+10","[]","0","2","","","6345","126","9","2","win","no-go","0"
"pit-trial","245","1398572","0.0-131.0","battery-v0.2","","""event"",""trial"",""time""
""fullscreenenter"",""1"",""2275""
","
","
","""event"",""trial"",""time""
""fullscreenenter"",""1"",""2275""
","
","","","701.2000000476837","","","11","6345","3747","a","elianto","#f73b6a7A"," "," ","1","-10","[1553.5]","1","2","","","6345","127","7","3","lose","go","1"
"pit-trial","246","1403437","0.0-132.0","battery-v0.2","","""event"",""trial"",""time""
""fullscreenenter"",""1"",""2275""
","
","
","""event"",""trial"",""time""
""fullscreenenter"",""1"",""2275""
","
","","","-1","","","11","6345","3747","g","elianto","#f73b6a7A","-1","-1","1","0","[]","0","2","","","6345","128","6","4","lose","no-go","0"
"pit-trial","247","1408301","0.0-133.0","battery-v0.2","","""event"",""trial"",""time""
""fullscreenenter"",""1"",""2275""
","
","
","""event"",""trial"",""time""
""fullscreenenter"",""1"",""2275""
","
","","","-1","","","11","6345","3747","l","elianto","#3366ff99","-1","-1","1","+10","[]","0","2","","","6345","129","8","2","win","no-go","0"
"pit-trial","248","1413164","0.0-134.0","battery-v0.2","","""event"",""trial"",""time""
""fullscreenenter"",""1"",""2275""
","
","
","""event"",""trial"",""time""
""fullscreenenter"",""1"",""2275""
","
","","","-1","","","11","6345","3747","g","elianto","#f73b6a7A","-1","-1","1","0","[]","0","2","","","6345","130","6","4","lose","no-go","0"
"pit-trial","249","1418029","0.0-135.0","battery-v0.2","","""event"",""trial"",""time""
""fullscreenenter"",""1"",""2275""
","
","
","""event"",""trial"",""time""
""fullscreenenter"",""1"",""2275""
","
","","","-1","","","11","6345","3747","u","elianto","#3366ff99","-1","-1","1","0","[]","0","2","","","6345","131","9","2","win","no-go","1"
"pit-trial","250","1421772","0.0-136.0","battery-v0.2","","""event"",""trial"",""time""
""fullscreenenter"",""1"",""2275""
","
","
","""event"",""trial"",""time""
""fullscreenenter"",""1"",""2275""
","
","","","881","","","11","6345","3747","a","elianto","#f73b6a7A"," "," ","1","-10","[1733]","1","2","","","6345","132","7","3","lose","go","1"
"pit-trial","251","1425755","0.0-137.0","battery-v0.2","","""event"",""trial"",""time""
""fullscreenenter"",""1"",""2275""
","
","
","""event"",""trial"",""time""
""fullscreenenter"",""1"",""2275""
","
","","","1119.9000000953674","","","11","6345","3747","a","elianto","#f73b6a7A"," "," ","1","0","[1974]","1","2","","","6345","133","7","3","lose","go","0"
"pit-trial","252","1430619","0.0-138.0","battery-v0.2","","""event"",""trial"",""time""
""fullscreenenter"",""1"",""2275""
","
","
","""event"",""trial"",""time""
""fullscreenenter"",""1"",""2275""
","
","","","-1","","","11","6345","3747","u","elianto","#3366ff99","-1","-1","1","+10","[]","0","2","","","6345","134","9","2","win","no-go","0"
"pit-trial","253","1435484","0.0-139.0","battery-v0.2","","""event"",""trial"",""time""
""fullscreenenter"",""1"",""2275""
","
","
","""event"",""trial"",""time""
""fullscreenenter"",""1"",""2275""
","
","","","-1","","","11","6345","3747","l","elianto","#3366ff99","-1","-1","1","+10","[]","0","2","","","6345","135","8","2","win","no-go","0"
"pit-trial","254","1440348","0.0-140.0","battery-v0.2","","""event"",""trial"",""time""
""fullscreenenter"",""1"",""2275""
","
","
","""event"",""trial"",""time""
""fullscreenenter"",""1"",""2275""
","
","","","-1","","","11","6345","3747","g","elianto","#f73b6a7A","-1","-1","1","0","[]","0","2","","","6345","136","6","4","lose","no-go","0"
"pit-trial","255","1445212","0.0-141.0","battery-v0.2","","""event"",""trial"",""time""
""fullscreenenter"",""1"",""2275""
","
","
","""event"",""trial"",""time""
""fullscreenenter"",""1"",""2275""
","
","","","-1","","","11","6345","3747","g","elianto","#f73b6a7A","-1","-1","1","0","[]","0","2","","","6345","137","6","4","lose","no-go","0"
"pit-trial","256","1450076","0.0-142.0","battery-v0.2","","""event"",""trial"",""time""
""fullscreenenter"",""1"",""2275""
","
","
","""event"",""trial"",""time""
""fullscreenenter"",""1"",""2275""
","
","","","-1","","","11","6345","3747","l","elianto","#3366ff99","-1","-1","1","0","[]","0","2","","","6345","138","8","2","win","no-go","1"
"pit-trial","257","1453755","0.0-143.0","battery-v0.2","","""event"",""trial"",""time""
""fullscreenenter"",""1"",""2275""
","
","
","""event"",""trial"",""time""
""fullscreenenter"",""1"",""2275""
","
","","","819.6999999284744","","","11","6345","3747","a","elianto","#f73b6a7A"," "," ","1","0","[1673.0999999046326]","1","2","","","6345","139","7","3","lose","go","0"
"pit-trial","258","1458621","0.0-144.0","battery-v0.2","","""event"",""trial"",""time""
""fullscreenenter"",""1"",""2275""
","
","
","""event"",""trial"",""time""
""fullscreenenter"",""1"",""2275""
","
","","","-1","","","11","6345","3747","u","elianto","#3366ff99","-1","-1","1","+10","[]","0","2","","","6345","140","9","2","win","no-go","0"
"pit-instructions","259","1503731","0.0-145.0","battery-v0.2","","""event"",""trial"",""time""
""fullscreenenter"",""1"",""2275""
","
","
","""event"",""trial"",""time""
""fullscreenenter"",""1"",""2275""
","
","","[{""page_index"":0,""viewing_time"":36788.200000047684},{""page_index"":1,""viewing_time"":8320.099999904633}]","45108.60000002384","","","","","","","","","","","","","","","","","","","","","","","",""
"pit-trial","260","1508610","0.0-146.0","battery-v0.2","","""event"",""trial"",""time""
""fullscreenenter"",""1"",""2275""
","
","
","""event"",""trial"",""time""
""fullscreenenter"",""1"",""2275""
","
","","","-1","","","11","6345","3747","m","elianto","#f73b6a7A"," ","-1","0","-10","[]","0","3","","","6345","141","0","3","lose","go","0"
"pit-trial","261","1512380","0.0-147.0","battery-v0.2","","""event"",""trial"",""time""
""fullscreenenter"",""1"",""2275""
","
","
","""event"",""trial"",""time""
""fullscreenenter"",""1"",""2275""
","
","","","891.9000000953674","","","11","6345","3747","r","elianto","#3366ff99","-1"," ","0","0","[1746.9000000953674]","1","3","","","6345","142","1","2","win","no-go","0"
"pit-trial","262","1517250","0.0-148.0","battery-v0.2","","""event"",""trial"",""time""
""fullscreenenter"",""1"",""2275""
","
","
","""event"",""trial"",""time""
""fullscreenenter"",""1"",""2275""
","
","","","-1","","","11","6345","3747","h","elianto","#f73b6a7A","-1","-1","1","0","[]","0","3","","","6345","143","3","4","lose","no-go","0"
"pit-trial","263","1522129","0.0-149.0","battery-v0.2","","""event"",""trial"",""time""
""fullscreenenter"",""1"",""2275""
","
","
","""event"",""trial"",""time""
""fullscreenenter"",""1"",""2275""
","
","","","-1","","","11","6345","3747","y","elianto","#f73b6a7A"," ","-1","0","-10","[]","0","3","","","6345","144","2","3","lose","go","0"
"pit-trial","264","1527005","0.0-150.0","battery-v0.2","","""event"",""trial"",""time""
""fullscreenenter"",""1"",""2275""
","
","
","""event"",""trial"",""time""
""fullscreenenter"",""1"",""2275""
","
","","","-1","","","11","6345","3747","r","elianto","#3366ff99","-1","-1","1","0","[]","0","3","","","6345","145","1","2","win","no-go","1"
"pit-trial","265","1531870","0.0-151.0","battery-v0.2","","""event"",""trial"",""time""
""fullscreenenter"",""1"",""2275""
","
","
","""event"",""trial"",""time""
""fullscreenenter"",""1"",""2275""
","
","","","-1","","","11","6345","3747","h","elianto","#f73b6a7A","-1","-1","1","0","[]","0","3","","","6345","146","3","4","lose","no-go","0"
"pit-trial","266","1535692","0.0-152.0","battery-v0.2","","""event"",""trial"",""time""
""fullscreenenter"",""1"",""2275""
","
","
","""event"",""trial"",""time""
""fullscreenenter"",""1"",""2275""
","
","","","957.8999999761581","","","11","6345","3747","y","elianto","#f73b6a7A"," "," ","1","-10","[1814.7999999523163]","1","3","","","6345","147","2","3","lose","go","1"
"pit-trial","267","1539596","0.0-153.0","battery-v0.2","","""event"",""trial"",""time""
""fullscreenenter"",""1"",""2275""
","
","
","""event"",""trial"",""time""
""fullscreenenter"",""1"",""2275""
","
","","","1039.5","","","11","6345","3747","m","elianto","#f73b6a7A"," "," ","1","0","[1893.6000000238419]","1","3","","","6345","148","0","3","lose","go","0"
"pit-trial","268","1543628","0.0-154.0","battery-v0.2","","""event"",""trial"",""time""
""fullscreenenter"",""1"",""2275""
","
","
","""event"",""trial"",""time""
""fullscreenenter"",""1"",""2275""
","
","","","1169.5","","","11","6345","3747","m","elianto","#f73b6a7A"," "," ","1","0","[2020.6000000238419]","1","3","","","6345","149","0","3","lose","go","0"
