"trial_type","trial_index","time_elapsed","internal_node_id","task_version","subject_id","interactions","blur_events","focus_events","fullscreenenter_events","fullscreenexit_events","success","view_history","rt","responses","num_errors","age","subject","participantId","rune","rune_set","hex","correct","choice","accuracy","outcome","keys","total_keys","block","practice","value","sub","trial","stimulus","robot","valence","action","sham"
"pavlovia","0","7","0.0-0.0","battery-v0.2","","""event"",""trial"",""time""
""focus"",""0"",""0""
""blur"",""1"",""2169""
""focus"",""1"",""2322""
""fullscreenenter"",""1"",""2329""
","""event"",""trial"",""time""
""blur"",""1"",""2169""
","""event"",""trial"",""time""
""focus"",""0"",""0""
""focus"",""1"",""2322""
","""event"",""trial"",""time""
""fullscreenenter"",""1"",""2329""
","
","","","","","","","","","","","","","","","","","","","","","","","","","","",""
"fullscreen","1","2874","0.0-1.0","battery-v0.2","","""event"",""trial"",""time""
""focus"",""0"",""0""
""blur"",""1"",""2169""
""focus"",""1"",""2322""
""fullscreenenter"",""1"",""2329""
","""event"",""trial"",""time""
""blur"",""1"",""2169""
","""event"",""trial"",""time""
""focus"",""0"",""0""
""focus"",""1"",""2322""
","""event"",""trial"",""time""
""fullscreenenter"",""1"",""2329""
","
","true","","","","","","","","","","","","","","","","","","","","","","","","","",""
"pit-instructions","2","11467","0.0-2.0-0.0","battery-v0.2","","""event"",""trial"",""time""
""focus"",""0"",""0""
""blur"",""1"",""2169""
""focus"",""1"",""2322""
""fullscreenenter"",""1"",""2329""
","""event"",""trial"",""time""
""blur"",""1"",""2169""
","""event"",""trial"",""time""
""focus"",""0"",""0""
""focus"",""1"",""2322""
","""event"",""trial"",""time""
""fullscreenenter"",""1"",""2329""
","
","","[{""page_index"":0,""viewing_time"":8589}]","8589","","","","","","","","","","","","","","","","","","","","","","","",""
"pit-comprehension","3","23375","0.0-2.0-1.0-0.0","battery-v0.2","","""event"",""trial"",""time""
""focus"",""0"",""0""
""blur"",""1"",""2169""
""focus"",""1"",""2322""
""fullscreenenter"",""1"",""2329""
","""event"",""trial"",""time""
""blur"",""1"",""2169""
","""event"",""trial"",""time""
""focus"",""0"",""0""
""focus"",""1"",""2322""
","""event"",""trial"",""time""
""fullscreenenter"",""1"",""2329""
","
","","","11905","[""shark""]","0","12","3019","2497","","","","","","","","","","","","","","","","","","",""
"pit-instructions","4","24719","0.0-2.0-1.0-1.0","battery-v0.2","","""event"",""trial"",""time""
""focus"",""0"",""0""
""blur"",""1"",""2169""
""focus"",""1"",""2322""
""fullscreenenter"",""1"",""2329""
","""event"",""trial"",""time""
""blur"",""1"",""2169""
","""event"",""trial"",""time""
""focus"",""0"",""0""
""focus"",""1"",""2322""
","""event"",""trial"",""time""
""fullscreenenter"",""1"",""2329""
","
","","[{""page_index"":0,""viewing_time"":1339}]","1339","","","","","","","","","","","","","","","","","","","","","","","",""
"pit-comprehension","5","29501","0.0-2.0-2.0-0.0","battery-v0.2","","""event"",""trial"",""time""
""focus"",""0"",""0""
""blur"",""1"",""2169""
""focus"",""1"",""2322""
""fullscreenenter"",""1"",""2329""
","""event"",""trial"",""time""
""blur"",""1"",""2169""
","""event"",""trial"",""time""
""focus"",""0"",""0""
""focus"",""1"",""2322""
","""event"",""trial"",""time""
""fullscreenenter"",""1"",""2329""
","
","","","4778","[""tiger""]","0","12","3019","2497","","","","","","","","","","","","","","","","","","",""
"pit-instructions","6","30615","0.0-2.0-2.0-1.0","battery-v0.2","","""event"",""trial"",""time""
""focus"",""0"",""0""
""blur"",""1"",""2169""
""focus"",""1"",""2322""
""fullscreenenter"",""1"",""2329""
","""event"",""trial"",""time""
""blur"",""1"",""2169""
","""event"",""trial"",""time""
""focus"",""0"",""0""
""focus"",""1"",""2322""
","""event"",""trial"",""time""
""fullscreenenter"",""1"",""2329""
","
","","[{""page_index"":0,""viewing_time"":1113}]","1113","","","","","","","","","","","","","","","","","","","","","","","",""
"pit-instructions","7","124116","0.0-2.0-3.0","battery-v0.2","","""event"",""trial"",""time""
""focus"",""0"",""0""
""blur"",""1"",""2169""
""focus"",""1"",""2322""
""fullscreenenter"",""1"",""2329""
","""event"",""trial"",""time""
""blur"",""1"",""2169""
","""event"",""trial"",""time""
""focus"",""0"",""0""
""focus"",""1"",""2322""
","""event"",""trial"",""time""
""fullscreenenter"",""1"",""2329""
","
","","[{""page_index"":0,""viewing_time"":9366},{""page_index"":1,""viewing_time"":5467},{""page_index"":2,""viewing_time"":6050},{""page_index"":3,""viewing_time"":6163},{""page_index"":4,""viewing_time"":5071},{""page_index"":5,""viewing_time"":5715},{""page_index"":6,""viewing_time"":9585},{""page_index"":7,""viewing_time"":7166},{""page_index"":8,""viewing_time"":6117},{""page_index"":9,""viewing_time"":7942},{""page_index"":10,""viewing_time"":7292},{""page_index"":11,""viewing_time"":6810},{""page_index"":12,""viewing_time"":6382},{""page_index"":13,""viewing_time"":4363}]","93501","","","","","","","","","","","","","","","","","","","","","","","",""
"pit-trial","8","127009","0.0-2.0-4.0-0.0","battery-v0.2","","""event"",""trial"",""time""
""focus"",""0"",""0""
""blur"",""1"",""2169""
""focus"",""1"",""2322""
""fullscreenenter"",""1"",""2329""
","""event"",""trial"",""time""
""blur"",""1"",""2169""
","""event"",""trial"",""time""
""focus"",""0"",""0""
""focus"",""1"",""2322""
","""event"",""trial"",""time""
""fullscreenenter"",""1"",""2329""
","
","","","30","","","12","3019","2497","&#9784;","elianto","#FFFFF080"," "," ","1","&#10004","[883]","1","0","0","","","","","","","",""
"pit-trial","9","130226","0.0-2.0-4.1-0.1","battery-v0.2","","""event"",""trial"",""time""
""focus"",""0"",""0""
""blur"",""1"",""2169""
""focus"",""1"",""2322""
""fullscreenenter"",""1"",""2329""
","""event"",""trial"",""time""
""blur"",""1"",""2169""
","""event"",""trial"",""time""
""focus"",""0"",""0""
""focus"",""1"",""2322""
","""event"",""trial"",""time""
""fullscreenenter"",""1"",""2329""
","
","","","357","","","12","3019","2497","&#9784;","elianto","#FFFFF080"," "," ","1","&#10004","[1209]","1","0","0","","","","","","","",""
"pit-trial","10","133350","0.0-2.0-4.2-0.2","battery-v0.2","","""event"",""trial"",""time""
""focus"",""0"",""0""
""blur"",""1"",""2169""
""focus"",""1"",""2322""
""fullscreenenter"",""1"",""2329""
","""event"",""trial"",""time""
""blur"",""1"",""2169""
","""event"",""trial"",""time""
""focus"",""0"",""0""
""focus"",""1"",""2322""
","""event"",""trial"",""time""
""fullscreenenter"",""1"",""2329""
","
","","","262","","","12","3019","2497","&#9784;","elianto","#FFFFF080"," "," ","1","&#10004","[1113]","1","0","0","","","","","","","",""
"pit-trial","11","136639","0.0-2.0-4.3-0.3","battery-v0.2","","""event"",""trial"",""time""
""focus"",""0"",""0""
""blur"",""1"",""2169""
""focus"",""1"",""2322""
""fullscreenenter"",""1"",""2329""
","""event"",""trial"",""time""
""blur"",""1"",""2169""
","""event"",""trial"",""time""
""focus"",""0"",""0""
""focus"",""1"",""2322""
","""event"",""trial"",""time""
""fullscreenenter"",""1"",""2329""
","
","","","433","","","12","3019","2497","&#9784;","elianto","#FFFFF080"," "," ","1","&#10004","[1284]","1","0","0","","","","","","","",""
"pit-trial","12","139882","0.0-2.0-4.4-0.4","battery-v0.2","","""event"",""trial"",""time""
""focus"",""0"",""0""
""blur"",""1"",""2169""
""focus"",""1"",""2322""
""fullscreenenter"",""1"",""2329""
","""event"",""trial"",""time""
""blur"",""1"",""2169""
","""event"",""trial"",""time""
""focus"",""0"",""0""
""focus"",""1"",""2322""
","""event"",""trial"",""time""
""fullscreenenter"",""1"",""2329""
","
","","","387","","","12","3019","2497","&#9784;","elianto","#FFFFF080"," "," ","1","&#10004","[1236]","1","0","0","","","","","","","",""
"pit-instructions","13","160999","0.0-2.0-5.0","battery-v0.2","","""event"",""trial"",""time""
""focus"",""0"",""0""
""blur"",""1"",""2169""
""focus"",""1"",""2322""
""fullscreenenter"",""1"",""2329""
","""event"",""trial"",""time""
""blur"",""1"",""2169""
","""event"",""trial"",""time""
""focus"",""0"",""0""
""focus"",""1"",""2322""
","""event"",""trial"",""time""
""fullscreenenter"",""1"",""2329""
","
","","[{""page_index"":0,""viewing_time"":4729},{""page_index"":1,""viewing_time"":6301},{""page_index"":2,""viewing_time"":4801},{""page_index"":3,""viewing_time"":5281}]","21113","","","","","","","","","","","","","","","","","","","","","","","",""
"pit-trial","14","164489","0.0-2.0-6.0-0.0","battery-v0.2","","""event"",""trial"",""time""
""focus"",""0"",""0""
""blur"",""1"",""2169""
""focus"",""1"",""2322""
""fullscreenenter"",""1"",""2329""
","""event"",""trial"",""time""
""blur"",""1"",""2169""
","""event"",""trial"",""time""
""focus"",""0"",""0""
""focus"",""1"",""2322""
","""event"",""trial"",""time""
""fullscreenenter"",""1"",""2329""
","
","","","628","","","12","3019","2497","&#9854;","elianto","#FFFFF080","-1"," ","0","&#10060","[1482]","1","0","1","","","","","","","",""
"pit-trial","15","169352","0.0-2.0-6.1-0.1","battery-v0.2","","""event"",""trial"",""time""
""focus"",""0"",""0""
""blur"",""1"",""2169""
""focus"",""1"",""2322""
""fullscreenenter"",""1"",""2329""
","""event"",""trial"",""time""
""blur"",""1"",""2169""
","""event"",""trial"",""time""
""focus"",""0"",""0""
""focus"",""1"",""2322""
","""event"",""trial"",""time""
""fullscreenenter"",""1"",""2329""
","
","","","-1","","","12","3019","2497","&#9854;","elianto","#FFFFF080","-1","-1","1","&#10004","[]","0","0","1","","","","","","","",""
"pit-trial","16","174206","0.0-2.0-6.2-0.2","battery-v0.2","","""event"",""trial"",""time""
""focus"",""0"",""0""
""blur"",""1"",""2169""
""focus"",""1"",""2322""
""fullscreenenter"",""1"",""2329""
","""event"",""trial"",""time""
""blur"",""1"",""2169""
","""event"",""trial"",""time""
""focus"",""0"",""0""
""focus"",""1"",""2322""
","""event"",""trial"",""time""
""fullscreenenter"",""1"",""2329""
","
","","","-1","","","12","3019","2497","&#9854;","elianto","#FFFFF080","-1","-1","1","&#10004","[]","0","0","1","","","","","","","",""
"pit-trial","17","179064","0.0-2.0-6.3-0.3","battery-v0.2","","""event"",""trial"",""time""
""focus"",""0"",""0""
""blur"",""1"",""2169""
""focus"",""1"",""2322""
""fullscreenenter"",""1"",""2329""
","""event"",""trial"",""time""
""blur"",""1"",""2169""
","""event"",""trial"",""time""
""focus"",""0"",""0""
""focus"",""1"",""2322""
","""event"",""trial"",""time""
""fullscreenenter"",""1"",""2329""
","
","","","-1","","","12","3019","2497","&#9854;","elianto","#FFFFF080","-1","-1","1","&#10004","[]","0","0","1","","","","","","","",""
"pit-trial","18","183923","0.0-2.0-6.4-0.4","battery-v0.2","","""event"",""trial"",""time""
""focus"",""0"",""0""
""blur"",""1"",""2169""
""focus"",""1"",""2322""
""fullscreenenter"",""1"",""2329""
","""event"",""trial"",""time""
""blur"",""1"",""2169""
","""event"",""trial"",""time""
""focus"",""0"",""0""
""focus"",""1"",""2322""
","""event"",""trial"",""time""
""fullscreenenter"",""1"",""2329""
","
","","","-1","","","12","3019","2497","&#9854;","elianto","#FFFFF080","-1","-1","1","&#10004","[]","0","0","1","","","","","","","",""
"pit-instructions","19","304514","0.0-2.0-7.0","battery-v0.2","","""event"",""trial"",""time""
""focus"",""0"",""0""
""blur"",""1"",""2169""
""focus"",""1"",""2322""
""fullscreenenter"",""1"",""2329""
","""event"",""trial"",""time""
""blur"",""1"",""2169""
","""event"",""trial"",""time""
""focus"",""0"",""0""
""focus"",""1"",""2322""
","""event"",""trial"",""time""
""fullscreenenter"",""1"",""2329""
","
","","[{""page_index"":0,""viewing_time"":5372},{""page_index"":1,""viewing_time"":7584},{""page_index"":2,""viewing_time"":6935},{""page_index"":3,""viewing_time"":6715},{""page_index"":4,""viewing_time"":6535},{""page_index"":5,""viewing_time"":6082},{""page_index"":6,""viewing_time"":5085},{""page_index"":7,""viewing_time"":7184},{""page_index"":8,""viewing_time"":6533},{""page_index"":9,""viewing_time"":7216},{""page_index"":10,""viewing_time"":10867},{""page_index"":11,""viewing_time"":4500},{""page_index"":12,""viewing_time"":6082},{""page_index"":13,""viewing_time"":6068},{""page_index"":14,""viewing_time"":6182},{""page_index"":15,""viewing_time"":6035},{""page_index"":16,""viewing_time"":6351},{""page_index"":17,""viewing_time"":9262}]","120588","","","","","","","","","","","","","","","","","","","","","","","",""
"pit-trial","20","308058","0.0-2.0-8.0-0.0","battery-v0.2","","""event"",""trial"",""time""
""focus"",""0"",""0""
""blur"",""1"",""2169""
""focus"",""1"",""2322""
""fullscreenenter"",""1"",""2329""
","""event"",""trial"",""time""
""blur"",""1"",""2169""
","""event"",""trial"",""time""
""focus"",""0"",""0""
""focus"",""1"",""2322""
","""event"",""trial"",""time""
""fullscreenenter"",""1"",""2329""
","
","","","683","","","12","3019","2497","&#9776;","elianto","#3366ff99"," "," ","1","+10","[1536]","1","0","1","","","","","","","",""
"pit-trial","21","311383","0.0-2.0-8.0-1.0","battery-v0.2","","""event"",""trial"",""time""
""focus"",""0"",""0""
""blur"",""1"",""2169""
""focus"",""1"",""2322""
""fullscreenenter"",""1"",""2329""
","""event"",""trial"",""time""
""blur"",""1"",""2169""
","""event"",""trial"",""time""
""focus"",""0"",""0""
""focus"",""1"",""2322""
","""event"",""trial"",""time""
""fullscreenenter"",""1"",""2329""
","
","","","468","","","12","3019","2497","&#9776;","elianto","#3366ff99"," "," ","1","+10","[1318]","1","0","1","","","","","","","",""
"pit-trial","22","314625","0.0-2.0-8.0-2.0","battery-v0.2","","""event"",""trial"",""time""
""focus"",""0"",""0""
""blur"",""1"",""2169""
""focus"",""1"",""2322""
""fullscreenenter"",""1"",""2329""
","""event"",""trial"",""time""
""blur"",""1"",""2169""
","""event"",""trial"",""time""
""focus"",""0"",""0""
""focus"",""1"",""2322""
","""event"",""trial"",""time""
""fullscreenenter"",""1"",""2329""
","
","","","384","","","12","3019","2497","&#9776;","elianto","#3366ff99"," "," ","1","+10","[1235,1810,2666]","3","0","1","","","","","","","",""
"pit-trial","23","319051","0.0-2.0-8.0-3.0","battery-v0.2","","""event"",""trial"",""time""
""focus"",""0"",""0""
""blur"",""1"",""2169""
""focus"",""1"",""2322""
""fullscreenenter"",""1"",""2329""
","""event"",""trial"",""time""
""blur"",""1"",""2169""
","""event"",""trial"",""time""
""focus"",""0"",""0""
""focus"",""1"",""2322""
","""event"",""trial"",""time""
""fullscreenenter"",""1"",""2329""
","
","","","1570","","","12","3019","2497","&#9776;","elianto","#3366ff99"," "," ","1","0","[641,2423,3933,4124,4268,4407]","6","0","1","","","","","","","",""
"pit-trial","24","321955","0.0-2.0-8.0-4.0","battery-v0.2","","""event"",""trial"",""time""
""focus"",""0"",""0""
""blur"",""1"",""2169""
""focus"",""1"",""2322""
""fullscreenenter"",""1"",""2329""
","""event"",""trial"",""time""
""blur"",""1"",""2169""
","""event"",""trial"",""time""
""focus"",""0"",""0""
""focus"",""1"",""2322""
","""event"",""trial"",""time""
""fullscreenenter"",""1"",""2329""
","
","","","45","","","12","3019","2497","&#9776;","elianto","#3366ff99"," "," ","1","+10","[263,421,614,772,897,1077,1376,1542,1729,1894,2097,2293,2484,2695]","14","0","1","","","","","","","",""
"call-function","25","321958","0.0-2.0-9.0","battery-v0.2","","""event"",""trial"",""time""
""focus"",""0"",""0""
""blur"",""1"",""2169""
""focus"",""1"",""2322""
""fullscreenenter"",""1"",""2329""
","""event"",""trial"",""time""
""blur"",""1"",""2169""
","""event"",""trial"",""time""
""focus"",""0"",""0""
""focus"",""1"",""2322""
","""event"",""trial"",""time""
""fullscreenenter"",""1"",""2329""
","
","","","","","","","","","","","","","","","","","","","","","","","","","","",""
"pit-instructions","26","361482","0.0-2.0-10.0","battery-v0.2","","""event"",""trial"",""time""
""focus"",""0"",""0""
""blur"",""1"",""2169""
""focus"",""1"",""2322""
""fullscreenenter"",""1"",""2329""
","""event"",""trial"",""time""
""blur"",""1"",""2169""
","""event"",""trial"",""time""
""focus"",""0"",""0""
""focus"",""1"",""2322""
","""event"",""trial"",""time""
""fullscreenenter"",""1"",""2329""
","
","","[{""page_index"":0,""viewing_time"":5874},{""page_index"":1,""viewing_time"":6134},{""page_index"":2,""viewing_time"":9633},{""page_index"":3,""viewing_time"":9150},{""page_index"":4,""viewing_time"":8733}]","39524","","","","","","","","","","","","","","","","","","","","","","","",""
"pit-trial","27","365048","0.0-2.0-11.0-0.0","battery-v0.2","","""event"",""trial"",""time""
""focus"",""0"",""0""
""blur"",""1"",""2169""
""focus"",""1"",""2322""
""fullscreenenter"",""1"",""2329""
","""event"",""trial"",""time""
""blur"",""1"",""2169""
","""event"",""trial"",""time""
""focus"",""0"",""0""
""focus"",""1"",""2322""
","""event"",""trial"",""time""
""fullscreenenter"",""1"",""2329""
","
","","","705","","","12","3019","2497","&#9761;","elianto","#3366ff99","-1"," ","0","0","[1559]","1","0","2","","","","","","","",""
"pit-trial","28","369909","0.0-2.0-11.0-1.0","battery-v0.2","","""event"",""trial"",""time""
""focus"",""0"",""0""
""blur"",""1"",""2169""
""focus"",""1"",""2322""
""fullscreenenter"",""1"",""2329""
","""event"",""trial"",""time""
""blur"",""1"",""2169""
","""event"",""trial"",""time""
""focus"",""0"",""0""
""focus"",""1"",""2322""
","""event"",""trial"",""time""
""fullscreenenter"",""1"",""2329""
","
","","","-1","","","12","3019","2497","&#9761;","elianto","#3366ff99","-1","-1","1","+10","[]","0","0","2","","","","","","","",""
"pit-trial","29","374768","0.0-2.0-11.0-2.0","battery-v0.2","","""event"",""trial"",""time""
""focus"",""0"",""0""
""blur"",""1"",""2169""
""focus"",""1"",""2322""
""fullscreenenter"",""1"",""2329""
","""event"",""trial"",""time""
""blur"",""1"",""2169""
","""event"",""trial"",""time""
""focus"",""0"",""0""
""focus"",""1"",""2322""
","""event"",""trial"",""time""
""fullscreenenter"",""1"",""2329""
","
","","","-1","","","12","3019","2497","&#9761;","elianto","#3366ff99","-1","-1","1","+10","[]","0","0","2","","","","","","","",""
"pit-trial","30","379627","0.0-2.0-11.0-3.0","battery-v0.2","","""event"",""trial"",""time""
""focus"",""0"",""0""
""blur"",""1"",""2169""
""focus"",""1"",""2322""
""fullscreenenter"",""1"",""2329""
","""event"",""trial"",""time""
""blur"",""1"",""2169""
","""event"",""trial"",""time""
""focus"",""0"",""0""
""focus"",""1"",""2322""
","""event"",""trial"",""time""
""fullscreenenter"",""1"",""2329""
","
","","","-1","","","12","3019","2497","&#9761;","elianto","#3366ff99","-1","-1","1","0","[]","0","0","2","","","","","","","",""
"pit-trial","31","383169","0.0-2.0-11.0-4.0","battery-v0.2","","""event"",""trial"",""time""
""focus"",""0"",""0""
""blur"",""1"",""2169""
""focus"",""1"",""2322""
""fullscreenenter"",""1"",""2329""
","""event"",""trial"",""time""
""blur"",""1"",""2169""
","""event"",""trial"",""time""
""focus"",""0"",""0""
""focus"",""1"",""2322""
","""event"",""trial"",""time""
""fullscreenenter"",""1"",""2329""
","
","","","683","","","12","3019","2497","&#9761;","elianto","#3366ff99","-1"," ","0","0","[1535]","1","0","2","","","","","","","",""
"pit-trial","32","388026","0.0-2.0-11.1-0.1","battery-v0.2","","""event"",""trial"",""time""
""focus"",""0"",""0""
""blur"",""1"",""2169""
""focus"",""1"",""2322""
""fullscreenenter"",""1"",""2329""
","""event"",""trial"",""time""
""blur"",""1"",""2169""
","""event"",""trial"",""time""
""focus"",""0"",""0""
""focus"",""1"",""2322""
","""event"",""trial"",""time""
""fullscreenenter"",""1"",""2329""
","
","","","-1","","","12","3019","2497","&#9761;","elianto","#3366ff99","-1","-1","1","+10","[]","0","0","2","","","","","","","",""
"pit-trial","33","392886","0.0-2.0-11.1-1.1","battery-v0.2","","""event"",""trial"",""time""
""focus"",""0"",""0""
""blur"",""1"",""2169""
""focus"",""1"",""2322""
""fullscreenenter"",""1"",""2329""
","""event"",""trial"",""time""
""blur"",""1"",""2169""
","""event"",""trial"",""time""
""focus"",""0"",""0""
""focus"",""1"",""2322""
","""event"",""trial"",""time""
""fullscreenenter"",""1"",""2329""
","
","","","-1","","","12","3019","2497","&#9761;","elianto","#3366ff99","-1","-1","1","+10","[]","0","0","2","","","","","","","",""
"pit-trial","34","397740","0.0-2.0-11.1-2.1","battery-v0.2","","""event"",""trial"",""time""
""focus"",""0"",""0""
""blur"",""1"",""2169""
""focus"",""1"",""2322""
""fullscreenenter"",""1"",""2329""
","""event"",""trial"",""time""
""blur"",""1"",""2169""
","""event"",""trial"",""time""
""focus"",""0"",""0""
""focus"",""1"",""2322""
","""event"",""trial"",""time""
""fullscreenenter"",""1"",""2329""
","
","","","-1","","","12","3019","2497","&#9761;","elianto","#3366ff99","-1","-1","1","+10","[]","0","0","2","","","","","","","",""
"pit-trial","35","402599","0.0-2.0-11.1-3.1","battery-v0.2","","""event"",""trial"",""time""
""focus"",""0"",""0""
""blur"",""1"",""2169""
""focus"",""1"",""2322""
""fullscreenenter"",""1"",""2329""
","""event"",""trial"",""time""
""blur"",""1"",""2169""
","""event"",""trial"",""time""
""focus"",""0"",""0""
""focus"",""1"",""2322""
","""event"",""trial"",""time""
""fullscreenenter"",""1"",""2329""
","
","","","-1","","","12","3019","2497","&#9761;","elianto","#3366ff99","-1","-1","1","0","[]","0","0","2","","","","","","","",""
"pit-trial","36","407455","0.0-2.0-11.1-4.1","battery-v0.2","","""event"",""trial"",""time""
""focus"",""0"",""0""
""blur"",""1"",""2169""
""focus"",""1"",""2322""
""fullscreenenter"",""1"",""2329""
","""event"",""trial"",""time""
""blur"",""1"",""2169""
","""event"",""trial"",""time""
""focus"",""0"",""0""
""focus"",""1"",""2322""
","""event"",""trial"",""time""
""fullscreenenter"",""1"",""2329""
","
","","","-1","","","12","3019","2497","&#9761;","elianto","#3366ff99","-1","-1","1","+10","[]","0","0","2","","","","","","","",""
"call-function","37","407456","0.0-2.0-12.0","battery-v0.2","","""event"",""trial"",""time""
""focus"",""0"",""0""
""blur"",""1"",""2169""
""focus"",""1"",""2322""
""fullscreenenter"",""1"",""2329""
","""event"",""trial"",""time""
""blur"",""1"",""2169""
","""event"",""trial"",""time""
""focus"",""0"",""0""
""focus"",""1"",""2322""
","""event"",""trial"",""time""
""fullscreenenter"",""1"",""2329""
","
","","","","","","","","","","","","","","","","","","","","","","","","","","",""
"pit-instructions","38","437850","0.0-2.0-13.0","battery-v0.2","","""event"",""trial"",""time""
""focus"",""0"",""0""
""blur"",""1"",""2169""
""focus"",""1"",""2322""
""fullscreenenter"",""1"",""2329""
","""event"",""trial"",""time""
""blur"",""1"",""2169""
","""event"",""trial"",""time""
""focus"",""0"",""0""
""focus"",""1"",""2322""
","""event"",""trial"",""time""
""fullscreenenter"",""1"",""2329""
","
","","[{""page_index"":0,""viewing_time"":4791},{""page_index"":1,""viewing_time"":6135},{""page_index"":2,""viewing_time"":5283},{""page_index"":3,""viewing_time"":10100},{""page_index"":4,""viewing_time"":4084}]","30393","","","","","","","","","","","","","","","","","","","","","","","",""
"pit-trial","39","442713","0.0-2.0-14.0-0.0","battery-v0.2","","""event"",""trial"",""time""
""focus"",""0"",""0""
""blur"",""1"",""2169""
""focus"",""1"",""2322""
""fullscreenenter"",""1"",""2329""
","""event"",""trial"",""time""
""blur"",""1"",""2169""
","""event"",""trial"",""time""
""focus"",""0"",""0""
""focus"",""1"",""2322""
","""event"",""trial"",""time""
""fullscreenenter"",""1"",""2329""
","
","","","-1","","","12","3019","2497","&#9826;","elianto","#f73b6a7A","-1","-1","1","0","[]","0","0","3","","","","","","","",""
"pit-trial","40","445802","0.0-2.0-14.0-1.0","battery-v0.2","","""event"",""trial"",""time""
""focus"",""0"",""0""
""blur"",""1"",""2169""
""focus"",""1"",""2322""
""fullscreenenter"",""1"",""2329""
","""event"",""trial"",""time""
""blur"",""1"",""2169""
","""event"",""trial"",""time""
""focus"",""0"",""0""
""focus"",""1"",""2322""
","""event"",""trial"",""time""
""fullscreenenter"",""1"",""2329""
","
","","","230","","","12","3019","2497","&#9826;","elianto","#f73b6a7A","-1"," ","0","-10","[1081]","1","0","3","","","","","","","",""
"pit-trial","41","450660","0.0-2.0-14.0-2.0","battery-v0.2","","""event"",""trial"",""time""
""focus"",""0"",""0""
""blur"",""1"",""2169""
""focus"",""1"",""2322""
""fullscreenenter"",""1"",""2329""
","""event"",""trial"",""time""
""blur"",""1"",""2169""
","""event"",""trial"",""time""
""focus"",""0"",""0""
""focus"",""1"",""2322""
","""event"",""trial"",""time""
""fullscreenenter"",""1"",""2329""
","
","","","-1","","","12","3019","2497","&#9826;","elianto","#f73b6a7A","-1","-1","1","0","[]","0","0","3","","","","","","","",""
"pit-trial","42","455520","0.0-2.0-14.0-3.0","battery-v0.2","","""event"",""trial"",""time""
""focus"",""0"",""0""
""blur"",""1"",""2169""
""focus"",""1"",""2322""
""fullscreenenter"",""1"",""2329""
","""event"",""trial"",""time""
""blur"",""1"",""2169""
","""event"",""trial"",""time""
""focus"",""0"",""0""
""focus"",""1"",""2322""
","""event"",""trial"",""time""
""fullscreenenter"",""1"",""2329""
","
","","","-1","","","12","3019","2497","&#9826;","elianto","#f73b6a7A","-1","-1","1","-10","[]","0","0","3","","","","","","","",""
"pit-trial","43","460378","0.0-2.0-14.0-4.0","battery-v0.2","","""event"",""trial"",""time""
""focus"",""0"",""0""
""blur"",""1"",""2169""
""focus"",""1"",""2322""
""fullscreenenter"",""1"",""2329""
","""event"",""trial"",""time""
""blur"",""1"",""2169""
","""event"",""trial"",""time""
""focus"",""0"",""0""
""focus"",""1"",""2322""
","""event"",""trial"",""time""
""fullscreenenter"",""1"",""2329""
","
","","","-1","","","12","3019","2497","&#9826;","elianto","#f73b6a7A","-1","-1","1","0","[]","0","0","3","","","","","","","",""
"pit-trial","44","465241","0.0-2.0-14.1-0.1","battery-v0.2","","""event"",""trial"",""time""
""focus"",""0"",""0""
""blur"",""1"",""2169""
""focus"",""1"",""2322""
""fullscreenenter"",""1"",""2329""
","""event"",""trial"",""time""
""blur"",""1"",""2169""
","""event"",""trial"",""time""
""focus"",""0"",""0""
""focus"",""1"",""2322""
","""event"",""trial"",""time""
""fullscreenenter"",""1"",""2329""
","
","","","-1","","","12","3019","2497","&#9826;","elianto","#f73b6a7A","-1","-1","1","0","[]","0","0","3","","","","","","","",""
"pit-trial","45","470097","0.0-2.0-14.1-1.1","battery-v0.2","","""event"",""trial"",""time""
""focus"",""0"",""0""
""blur"",""1"",""2169""
""focus"",""1"",""2322""
""fullscreenenter"",""1"",""2329""
","""event"",""trial"",""time""
""blur"",""1"",""2169""
","""event"",""trial"",""time""
""focus"",""0"",""0""
""focus"",""1"",""2322""
","""event"",""trial"",""time""
""fullscreenenter"",""1"",""2329""
","
","","","-1","","","12","3019","2497","&#9826;","elianto","#f73b6a7A","-1","-1","1","0","[]","0","0","3","","","","","","","",""
"pit-trial","46","474958","0.0-2.0-14.1-2.1","battery-v0.2","","""event"",""trial"",""time""
""focus"",""0"",""0""
""blur"",""1"",""2169""
""focus"",""1"",""2322""
""fullscreenenter"",""1"",""2329""
","""event"",""trial"",""time""
""blur"",""1"",""2169""
","""event"",""trial"",""time""
""focus"",""0"",""0""
""focus"",""1"",""2322""
","""event"",""trial"",""time""
""fullscreenenter"",""1"",""2329""
","
","","","-1","","","12","3019","2497","&#9826;","elianto","#f73b6a7A","-1","-1","1","0","[]","0","0","3","","","","","","","",""
"pit-trial","47","479812","0.0-2.0-14.1-3.1","battery-v0.2","","""event"",""trial"",""time""
""focus"",""0"",""0""
""blur"",""1"",""2169""
""focus"",""1"",""2322""
""fullscreenenter"",""1"",""2329""
","""event"",""trial"",""time""
""blur"",""1"",""2169""
","""event"",""trial"",""time""
""focus"",""0"",""0""
""focus"",""1"",""2322""
","""event"",""trial"",""time""
""fullscreenenter"",""1"",""2329""
","
","","","-1","","","12","3019","2497","&#9826;","elianto","#f73b6a7A","-1","-1","1","-10","[]","0","0","3","","","","","","","",""
"pit-trial","48","484676","0.0-2.0-14.1-4.1","battery-v0.2","","""event"",""trial"",""time""
""focus"",""0"",""0""
""blur"",""1"",""2169""
""focus"",""1"",""2322""
""fullscreenenter"",""1"",""2329""
","""event"",""trial"",""time""
""blur"",""1"",""2169""
","""event"",""trial"",""time""
""focus"",""0"",""0""
""focus"",""1"",""2322""
","""event"",""trial"",""time""
""fullscreenenter"",""1"",""2329""
","
","","","-1","","","12","3019","2497","&#9826;","elianto","#f73b6a7A","-1","-1","1","0","[]","0","0","3","","","","","","","",""
"call-function","49","484678","0.0-2.0-15.0","battery-v0.2","","""event"",""trial"",""time""
""focus"",""0"",""0""
""blur"",""1"",""2169""
""focus"",""1"",""2322""
""fullscreenenter"",""1"",""2329""
","""event"",""trial"",""time""
""blur"",""1"",""2169""
","""event"",""trial"",""time""
""focus"",""0"",""0""
""focus"",""1"",""2322""
","""event"",""trial"",""time""
""fullscreenenter"",""1"",""2329""
","
","","","","","","","","","","","","","","","","","","","","","","","","","","",""
"pit-instructions","50","508165","0.0-2.0-16.0","battery-v0.2","","""event"",""trial"",""time""
""focus"",""0"",""0""
""blur"",""1"",""2169""
""focus"",""1"",""2322""
""fullscreenenter"",""1"",""2329""
","""event"",""trial"",""time""
""blur"",""1"",""2169""
","""event"",""trial"",""time""
""focus"",""0"",""0""
""focus"",""1"",""2322""
","""event"",""trial"",""time""
""fullscreenenter"",""1"",""2329""
","
","","[{""page_index"":0,""viewing_time"":6603},{""page_index"":1,""viewing_time"":8434},{""page_index"":2,""viewing_time"":4299},{""page_index"":3,""viewing_time"":4150}]","23487","","","","","","","","","","","","","","","","","","","","","","","",""
"pit-trial","51","511129","0.0-2.0-17.0-0.0","battery-v0.2","","""event"",""trial"",""time""
""focus"",""0"",""0""
""blur"",""1"",""2169""
""focus"",""1"",""2322""
""fullscreenenter"",""1"",""2329""
","""event"",""trial"",""time""
""blur"",""1"",""2169""
","""event"",""trial"",""time""
""focus"",""0"",""0""
""focus"",""1"",""2322""
","""event"",""trial"",""time""
""fullscreenenter"",""1"",""2329""
","
","","","108","","","12","3019","2497","&#9789;","elianto","#f73b6a7A"," "," ","1","0","[960,1099,1260,1408,1563,1717,1863,2049,2203,2369,2507,2650,2813]","13","0","4","","","","","","","",""
"pit-trial","52","514151","0.0-2.0-17.0-1.0","battery-v0.2","","""event"",""trial"",""time""
""focus"",""0"",""0""
""blur"",""1"",""2169""
""focus"",""1"",""2322""
""fullscreenenter"",""1"",""2329""
","""event"",""trial"",""time""
""blur"",""1"",""2169""
","""event"",""trial"",""time""
""focus"",""0"",""0""
""focus"",""1"",""2322""
","""event"",""trial"",""time""
""fullscreenenter"",""1"",""2329""
","
","","","165","","","12","3019","2497","&#9789;","elianto","#f73b6a7A"," "," ","1","0","[19,184,338,493,666,818,1018,1206,1342,1520,1686,2025,2176,2373,2529,2848,3006]","17","0","4","","","","","","","",""
"pit-trial","53","517019","0.0-2.0-17.0-2.0","battery-v0.2","","""event"",""trial"",""time""
""focus"",""0"",""0""
""blur"",""1"",""2169""
""focus"",""1"",""2322""
""fullscreenenter"",""1"",""2329""
","""event"",""trial"",""time""
""blur"",""1"",""2169""
","""event"",""trial"",""time""
""focus"",""0"",""0""
""focus"",""1"",""2322""
","""event"",""trial"",""time""
""fullscreenenter"",""1"",""2329""
","
","","","13","","","12","3019","2497","&#9789;","elianto","#f73b6a7A"," "," ","1","0","[124,252,417,565,685,865,975,1296,1438,1557,1745,2181,2330,2628]","14","0","4","","","","","","","",""
"pit-trial","54","520021","0.0-2.0-17.0-3.0","battery-v0.2","","""event"",""trial"",""time""
""focus"",""0"",""0""
""blur"",""1"",""2169""
""focus"",""1"",""2322""
""fullscreenenter"",""1"",""2329""
","""event"",""trial"",""time""
""blur"",""1"",""2169""
","""event"",""trial"",""time""
""focus"",""0"",""0""
""focus"",""1"",""2322""
","""event"",""trial"",""time""
""fullscreenenter"",""1"",""2329""
","
","","","148","","","12","3019","2497","&#9789;","elianto","#f73b6a7A"," "," ","1","-10","[53,228,369,529,647,846,1000,1149,1331,1506,1683,1850,2046,2201,2549,2754,2933]","17","0","4","","","","","","","",""
"pit-trial","55","523237","0.0-2.0-17.0-4.0","battery-v0.2","","""event"",""trial"",""time""
""focus"",""0"",""0""
""blur"",""1"",""2169""
""focus"",""1"",""2322""
""fullscreenenter"",""1"",""2329""
","""event"",""trial"",""time""
""blur"",""1"",""2169""
","""event"",""trial"",""time""
""focus"",""0"",""0""
""focus"",""1"",""2322""
","""event"",""trial"",""time""
""fullscreenenter"",""1"",""2329""
","
","","","356","","","12","3019","2497","&#9789;","elianto","#f73b6a7A"," "," ","1","0","[111,327,515,711,1208,1438,1679,1883,2061,2254,2448,2625,2810,3020]","14","0","4","","","","","","","",""
"call-function","56","523239","0.0-2.0-18.0","battery-v0.2","","""event"",""trial"",""time""
""focus"",""0"",""0""
""blur"",""1"",""2169""
""focus"",""1"",""2322""
""fullscreenenter"",""1"",""2329""
","""event"",""trial"",""time""
""blur"",""1"",""2169""
","""event"",""trial"",""time""
""focus"",""0"",""0""
""focus"",""1"",""2322""
","""event"",""trial"",""time""
""fullscreenenter"",""1"",""2329""
","
","","","","","","","","","","","","","","","","","","","","","","","","","","",""
"pit-instructions","57","572884","0.0-2.0-19.0","battery-v0.2","","""event"",""trial"",""time""
""focus"",""0"",""0""
""blur"",""1"",""2169""
""focus"",""1"",""2322""
""fullscreenenter"",""1"",""2329""
","""event"",""trial"",""time""
""blur"",""1"",""2169""
","""event"",""trial"",""time""
""focus"",""0"",""0""
""focus"",""1"",""2322""
","""event"",""trial"",""time""
""fullscreenenter"",""1"",""2329""
","
","","[{""page_index"":0,""viewing_time"":6260},{""page_index"":1,""viewing_time"":4468},{""page_index"":2,""viewing_time"":8197},{""page_index"":3,""viewing_time"":4085},{""page_index"":4,""viewing_time"":6518},{""page_index"":5,""viewing_time"":8383},{""page_index"":6,""viewing_time"":4050},{""page_index"":7,""viewing_time"":4048},{""page_index"":8,""viewing_time"":3635}]","49645","","","","","","","","","","","","","","","","","","","","","","","",""
"pit-comprehension","58","577500","0.0-2.0-20.0-0.0","battery-v0.2","","""event"",""trial"",""time""
""focus"",""0"",""0""
""blur"",""1"",""2169""
""focus"",""1"",""2322""
""fullscreenenter"",""1"",""2329""
","""event"",""trial"",""time""
""blur"",""1"",""2169""
","""event"",""trial"",""time""
""focus"",""0"",""0""
""focus"",""1"",""2322""
","""event"",""trial"",""time""
""fullscreenenter"",""1"",""2329""
","
","","","4614","[""SPACE""]","0","12","3019","2497","","","","","","","","","","","","","","","","","","",""
"pit-instructions","59","580666","0.0-2.0-20.0-1.0","battery-v0.2","","""event"",""trial"",""time""
""focus"",""0"",""0""
""blur"",""1"",""2169""
""focus"",""1"",""2322""
""fullscreenenter"",""1"",""2329""
","""event"",""trial"",""time""
""blur"",""1"",""2169""
","""event"",""trial"",""time""
""focus"",""0"",""0""
""focus"",""1"",""2322""
","""event"",""trial"",""time""
""fullscreenenter"",""1"",""2329""
","
","","[{""page_index"":0,""viewing_time"":3155}]","3155","","","","","","","","","","","","","","","","","","","","","","","",""
"pit-comprehension","60","585984","0.0-2.0-21.0-0.0","battery-v0.2","","""event"",""trial"",""time""
""focus"",""0"",""0""
""blur"",""1"",""2169""
""focus"",""1"",""2322""
""fullscreenenter"",""1"",""2329""
","""event"",""trial"",""time""
""blur"",""1"",""2169""
","""event"",""trial"",""time""
""focus"",""0"",""0""
""focus"",""1"",""2322""
","""event"",""trial"",""time""
""fullscreenenter"",""1"",""2329""
","
","","","5315","[""10""]","0","12","3019","2497","","","","","","","","","","","","","","","","","","",""
"pit-instructions","61","587800","0.0-2.0-21.0-1.0","battery-v0.2","","""event"",""trial"",""time""
""focus"",""0"",""0""
""blur"",""1"",""2169""
""focus"",""1"",""2322""
""fullscreenenter"",""1"",""2329""
","""event"",""trial"",""time""
""blur"",""1"",""2169""
","""event"",""trial"",""time""
""focus"",""0"",""0""
""focus"",""1"",""2322""
","""event"",""trial"",""time""
""fullscreenenter"",""1"",""2329""
","
","","[{""page_index"":0,""viewing_time"":1805}]","1806","","","","","","","","","","","","","","","","","","","","","","","",""
"pit-comprehension","62","596201","0.0-2.0-22.0-0.0","battery-v0.2","","""event"",""trial"",""time""
""focus"",""0"",""0""
""blur"",""1"",""2169""
""focus"",""1"",""2322""
""fullscreenenter"",""1"",""2329""
","""event"",""trial"",""time""
""blur"",""1"",""2169""
","""event"",""trial"",""time""
""focus"",""0"",""0""
""focus"",""1"",""2322""
","""event"",""trial"",""time""
""fullscreenenter"",""1"",""2329""
","
","","","8399","[""0""]","0","12","3019","2497","","","","","","","","","","","","","","","","","","",""
"pit-instructions","63","597617","0.0-2.0-22.0-1.0","battery-v0.2","","""event"",""trial"",""time""
""focus"",""0"",""0""
""blur"",""1"",""2169""
""focus"",""1"",""2322""
""fullscreenenter"",""1"",""2329""
","""event"",""trial"",""time""
""blur"",""1"",""2169""
","""event"",""trial"",""time""
""focus"",""0"",""0""
""focus"",""1"",""2322""
","""event"",""trial"",""time""
""fullscreenenter"",""1"",""2329""
","
","","[{""page_index"":0,""viewing_time"":1404}]","1404","","","","","","","","","","","","","","","","","","","","","","","",""
"pit-comprehension","64","605867","0.0-2.0-23.0-0.0","battery-v0.2","","""event"",""trial"",""time""
""focus"",""0"",""0""
""blur"",""1"",""2169""
""focus"",""1"",""2322""
""fullscreenenter"",""1"",""2329""
","""event"",""trial"",""time""
""blur"",""1"",""2169""
","""event"",""trial"",""time""
""focus"",""0"",""0""
""focus"",""1"",""2322""
","""event"",""trial"",""time""
""fullscreenenter"",""1"",""2329""
","
","","","8249","[""True""]","0","12","3019","2497","","","","","","","","","","","","","","","","","","",""
"pit-instructions","65","607750","0.0-2.0-23.0-1.0","battery-v0.2","","""event"",""trial"",""time""
""focus"",""0"",""0""
""blur"",""1"",""2169""
""focus"",""1"",""2322""
""fullscreenenter"",""1"",""2329""
","""event"",""trial"",""time""
""blur"",""1"",""2169""
","""event"",""trial"",""time""
""focus"",""0"",""0""
""focus"",""1"",""2322""
","""event"",""trial"",""time""
""fullscreenenter"",""1"",""2329""
","
","","[{""page_index"":0,""viewing_time"":1870}]","1871","","","","","","","","","","","","","","","","","","","","","","","",""
"pit-comprehension","66","614950","0.0-2.0-24.0-0.0","battery-v0.2","","""event"",""trial"",""time""
""focus"",""0"",""0""
""blur"",""1"",""2169""
""focus"",""1"",""2322""
""fullscreenenter"",""1"",""2329""
","""event"",""trial"",""time""
""blur"",""1"",""2169""
","""event"",""trial"",""time""
""focus"",""0"",""0""
""focus"",""1"",""2322""
","""event"",""trial"",""time""
""fullscreenenter"",""1"",""2329""
","
","","","7197","[""True""]","0","12","3019","2497","","","","","","","","","","","","","","","","","","",""
"pit-instructions","67","616583","0.0-2.0-24.0-1.0","battery-v0.2","","""event"",""trial"",""time""
""focus"",""0"",""0""
""blur"",""1"",""2169""
""focus"",""1"",""2322""
""fullscreenenter"",""1"",""2329""
","""event"",""trial"",""time""
""blur"",""1"",""2169""
","""event"",""trial"",""time""
""focus"",""0"",""0""
""focus"",""1"",""2322""
","""event"",""trial"",""time""
""fullscreenenter"",""1"",""2329""
","
","","[{""page_index"":0,""viewing_time"":1620}]","1620","","","","","","","","","","","","","","","","","","","","","","","",""
"pit-comprehension","68","622701","0.0-2.0-25.0-0.0","battery-v0.2","","""event"",""trial"",""time""
""focus"",""0"",""0""
""blur"",""1"",""2169""
""focus"",""1"",""2322""
""fullscreenenter"",""1"",""2329""
","""event"",""trial"",""time""
""blur"",""1"",""2169""
","""event"",""trial"",""time""
""focus"",""0"",""0""
""focus"",""1"",""2322""
","""event"",""trial"",""time""
""fullscreenenter"",""1"",""2329""
","
","","","6116","[""True""]","0","12","3019","2497","","","","","","","","","","","","","","","","","","",""
"pit-instructions","69","623764","0.0-2.0-25.0-1.0","battery-v0.2","","""event"",""trial"",""time""
""focus"",""0"",""0""
""blur"",""1"",""2169""
""focus"",""1"",""2322""
""fullscreenenter"",""1"",""2329""
","""event"",""trial"",""time""
""blur"",""1"",""2169""
","""event"",""trial"",""time""
""focus"",""0"",""0""
""focus"",""1"",""2322""
","""event"",""trial"",""time""
""fullscreenenter"",""1"",""2329""
","
","","[{""page_index"":0,""viewing_time"":1061}]","1061","","","","","","","","","","","","","","","","","","","","","","","",""
"pit-comprehension","70","629185","0.0-2.0-26.0-0.0","battery-v0.2","","""event"",""trial"",""time""
""focus"",""0"",""0""
""blur"",""1"",""2169""
""focus"",""1"",""2322""
""fullscreenenter"",""1"",""2329""
","""event"",""trial"",""time""
""blur"",""1"",""2169""
","""event"",""trial"",""time""
""focus"",""0"",""0""
""focus"",""1"",""2322""
","""event"",""trial"",""time""
""fullscreenenter"",""1"",""2329""
","
","","","5419","[""False""]","0","12","3019","2497","","","","","","","","","","","","","","","","","","",""
"pit-instructions","71","630767","0.0-2.0-26.0-1.0","battery-v0.2","","""event"",""trial"",""time""
""focus"",""0"",""0""
""blur"",""1"",""2169""
""focus"",""1"",""2322""
""fullscreenenter"",""1"",""2329""
","""event"",""trial"",""time""
""blur"",""1"",""2169""
","""event"",""trial"",""time""
""focus"",""0"",""0""
""focus"",""1"",""2322""
","""event"",""trial"",""time""
""fullscreenenter"",""1"",""2329""
","
","","[{""page_index"":0,""viewing_time"":1568}]","1568","","","","","","","","","","","","","","","","","","","","","","","",""
"pit-instructions","72","649217","0.0-3.0","battery-v0.2","","""event"",""trial"",""time""
""focus"",""0"",""0""
""blur"",""1"",""2169""
""focus"",""1"",""2322""
""fullscreenenter"",""1"",""2329""
","""event"",""trial"",""time""
""blur"",""1"",""2169""
","""event"",""trial"",""time""
""focus"",""0"",""0""
""focus"",""1"",""2322""
","""event"",""trial"",""time""
""fullscreenenter"",""1"",""2329""
","
","","[{""page_index"":0,""viewing_time"":5730},{""page_index"":1,""viewing_time"":5567},{""page_index"":2,""viewing_time"":7150}]","18447","","","","","","","","","","","","","","","","","","","","","","","",""
"pit-trial","73","654075","0.0-4.0","battery-v0.2","","""event"",""trial"",""time""
""focus"",""0"",""0""
""blur"",""1"",""2169""
""focus"",""1"",""2322""
""fullscreenenter"",""1"",""2329""
","""event"",""trial"",""time""
""blur"",""1"",""2169""
","""event"",""trial"",""time""
""focus"",""0"",""0""
""focus"",""1"",""2322""
","""event"",""trial"",""time""
""fullscreenenter"",""1"",""2329""
","
","","","-1","","","12","3019","2497","&#9752;","elianto","#f73b6a7A"," ","-1","0","-10","[]","0","1","","","3019","1","3","3","lose","go","0"
"pit-trial","74","657517","0.0-5.0","battery-v0.2","","""event"",""trial"",""time""
""focus"",""0"",""0""
""blur"",""1"",""2169""
""focus"",""1"",""2322""
""fullscreenenter"",""1"",""2329""
","""event"",""trial"",""time""
""blur"",""1"",""2169""
","""event"",""trial"",""time""
""focus"",""0"",""0""
""focus"",""1"",""2322""
","""event"",""trial"",""time""
""fullscreenenter"",""1"",""2329""
","
","","","584","","","12","3019","2497","&#9730;","elianto","#3366ff99"," "," ","1","+10","[1435]","1","1","","","3019","2","1","1","win","go","0"
"pit-trial","75","661920","0.0-6.0","battery-v0.2","","""event"",""trial"",""time""
""focus"",""0"",""0""
""blur"",""1"",""2169""
""focus"",""1"",""2322""
""fullscreenenter"",""1"",""2329""
","""event"",""trial"",""time""
""blur"",""1"",""2169""
","""event"",""trial"",""time""
""focus"",""0"",""0""
""focus"",""1"",""2322""
","""event"",""trial"",""time""
""fullscreenenter"",""1"",""2329""
","
","","","1544","","","12","3019","2497","&#9728;","elianto","#f73b6a7A","-1"," ","0","-10","[2396]","1","1","","","3019","3","0","4","lose","no-go","0"
"pit-trial","76","666775","0.0-7.0","battery-v0.2","","""event"",""trial"",""time""
""focus"",""0"",""0""
""blur"",""1"",""2169""
""focus"",""1"",""2322""
""fullscreenenter"",""1"",""2329""
","""event"",""trial"",""time""
""blur"",""1"",""2169""
","""event"",""trial"",""time""
""focus"",""0"",""0""
""focus"",""1"",""2322""
","""event"",""trial"",""time""
""fullscreenenter"",""1"",""2329""
","
","","","-1","","","12","3019","2497","&#9733;","elianto","#3366ff99","-1","-1","1","+10","[]","0","1","","","3019","4","2","2","win","no-go","0"
"pit-trial","77","670822","0.0-8.0","battery-v0.2","","""event"",""trial"",""time""
""focus"",""0"",""0""
""blur"",""1"",""2169""
""focus"",""1"",""2322""
""fullscreenenter"",""1"",""2329""
","""event"",""trial"",""time""
""blur"",""1"",""2169""
","""event"",""trial"",""time""
""focus"",""0"",""0""
""focus"",""1"",""2322""
","""event"",""trial"",""time""
""fullscreenenter"",""1"",""2329""
","
","","","1189","","","12","3019","2497","&#9752;","elianto","#f73b6a7A"," "," ","1","-10","[2042]","1","1","","","3019","5","3","3","lose","go","1"
"pit-trial","78","674323","0.0-9.0","battery-v0.2","","""event"",""trial"",""time""
""focus"",""0"",""0""
""blur"",""1"",""2169""
""focus"",""1"",""2322""
""fullscreenenter"",""1"",""2329""
","""event"",""trial"",""time""
""blur"",""1"",""2169""
","""event"",""trial"",""time""
""focus"",""0"",""0""
""focus"",""1"",""2322""
","""event"",""trial"",""time""
""fullscreenenter"",""1"",""2329""
","
","","","639","","","12","3019","2497","&#9733;","elianto","#3366ff99","-1"," ","0","0","[1493]","1","1","","","3019","6","2","2","win","no-go","0"
"pit-trial","79","679182","0.0-10.0","battery-v0.2","","""event"",""trial"",""time""
""focus"",""0"",""0""
""blur"",""1"",""2169""
""focus"",""1"",""2322""
""fullscreenenter"",""1"",""2329""
","""event"",""trial"",""time""
""blur"",""1"",""2169""
","""event"",""trial"",""time""
""focus"",""0"",""0""
""focus"",""1"",""2322""
","""event"",""trial"",""time""
""fullscreenenter"",""1"",""2329""
","
","","","-1","","","12","3019","2497","&#9730;","elianto","#3366ff99"," ","-1","0","+10","[]","0","1","","","3019","7","1","1","win","go","1"
"pit-trial","80","684043","0.0-11.0","battery-v0.2","","""event"",""trial"",""time""
""focus"",""0"",""0""
""blur"",""1"",""2169""
""focus"",""1"",""2322""
""fullscreenenter"",""1"",""2329""
","""event"",""trial"",""time""
""blur"",""1"",""2169""
","""event"",""trial"",""time""
""focus"",""0"",""0""
""focus"",""1"",""2322""
","""event"",""trial"",""time""
""fullscreenenter"",""1"",""2329""
","
","","","-1","","","12","3019","2497","&#9728;","elianto","#f73b6a7A","-1","-1","1","0","[]","0","1","","","3019","8","0","4","lose","no-go","0"
"pit-trial","81","687903","0.0-12.0","battery-v0.2","","""event"",""trial"",""time""
""focus"",""0"",""0""
""blur"",""1"",""2169""
""focus"",""1"",""2322""
""fullscreenenter"",""1"",""2329""
","""event"",""trial"",""time""
""blur"",""1"",""2169""
","""event"",""trial"",""time""
""focus"",""0"",""0""
""focus"",""1"",""2322""
","""event"",""trial"",""time""
""fullscreenenter"",""1"",""2329""
","
","","","997","","","12","3019","2497","&#9730;","elianto","#3366ff99"," "," ","1","+10","[1851]","1","1","","","3019","9","1","1","win","go","0"
"pit-trial","82","692762","0.0-13.0","battery-v0.2","","""event"",""trial"",""time""
""focus"",""0"",""0""
""blur"",""1"",""2169""
""focus"",""1"",""2322""
""fullscreenenter"",""1"",""2329""
","""event"",""trial"",""time""
""blur"",""1"",""2169""
","""event"",""trial"",""time""
""focus"",""0"",""0""
""focus"",""1"",""2322""
","""event"",""trial"",""time""
""fullscreenenter"",""1"",""2329""
","
","","","-1","","","12","3019","2497","&#9728;","elianto","#f73b6a7A","-1","-1","1","0","[]","0","1","","","3019","10","0","4","lose","no-go","0"
"pit-trial","83","697398","0.0-14.0","battery-v0.2","","""event"",""trial"",""time""
""focus"",""0"",""0""
""blur"",""1"",""2169""
""focus"",""1"",""2322""
""fullscreenenter"",""1"",""2329""
","""event"",""trial"",""time""
""blur"",""1"",""2169""
","""event"",""trial"",""time""
""focus"",""0"",""0""
""focus"",""1"",""2322""
","""event"",""trial"",""time""
""fullscreenenter"",""1"",""2329""
","
","","","1780","","","12","3019","2497","&#9752;","elianto","#f73b6a7A"," "," ","1","0","[2632]","1","1","","","3019","11","3","3","lose","go","0"
"pit-trial","84","700913","0.0-15.0","battery-v0.2","","""event"",""trial"",""time""
""focus"",""0"",""0""
""blur"",""1"",""2169""
""focus"",""1"",""2322""
""fullscreenenter"",""1"",""2329""
","""event"",""trial"",""time""
""blur"",""1"",""2169""
","""event"",""trial"",""time""
""focus"",""0"",""0""
""focus"",""1"",""2322""
","""event"",""trial"",""time""
""fullscreenenter"",""1"",""2329""
","
","","","660","","","12","3019","2497","&#9733;","elianto","#3366ff99","-1"," ","0","0","[1511]","1","1","","","3019","12","2","2","win","no-go","0"
"pit-trial","85","705772","0.0-16.0","battery-v0.2","","""event"",""trial"",""time""
""focus"",""0"",""0""
""blur"",""1"",""2169""
""focus"",""1"",""2322""
""fullscreenenter"",""1"",""2329""
","""event"",""trial"",""time""
""blur"",""1"",""2169""
","""event"",""trial"",""time""
""focus"",""0"",""0""
""focus"",""1"",""2322""
","""event"",""trial"",""time""
""fullscreenenter"",""1"",""2329""
","
","","","-1","","","12","3019","2497","&#9730;","elianto","#3366ff99"," ","-1","0","0","[]","0","1","","","3019","13","1","1","win","go","0"
"pit-trial","86","709347","0.0-17.0","battery-v0.2","","""event"",""trial"",""time""
""focus"",""0"",""0""
""blur"",""1"",""2169""
""focus"",""1"",""2322""
""fullscreenenter"",""1"",""2329""
","""event"",""trial"",""time""
""blur"",""1"",""2169""
","""event"",""trial"",""time""
""focus"",""0"",""0""
""focus"",""1"",""2322""
","""event"",""trial"",""time""
""fullscreenenter"",""1"",""2329""
","
","","","718","","","12","3019","2497","&#9733;","elianto","#3366ff99","-1"," ","0","0","[1570]","1","1","","","3019","14","2","2","win","no-go","0"
"pit-trial","87","714205","0.0-18.0","battery-v0.2","","""event"",""trial"",""time""
""focus"",""0"",""0""
""blur"",""1"",""2169""
""focus"",""1"",""2322""
""fullscreenenter"",""1"",""2329""
","""event"",""trial"",""time""
""blur"",""1"",""2169""
","""event"",""trial"",""time""
""focus"",""0"",""0""
""focus"",""1"",""2322""
","""event"",""trial"",""time""
""fullscreenenter"",""1"",""2329""
","
","","","-1","","","12","3019","2497","&#9752;","elianto","#f73b6a7A"," ","-1","0","0","[]","0","1","","","3019","15","3","3","lose","go","1"
"pit-trial","88","719067","0.0-19.0","battery-v0.2","","""event"",""trial"",""time""
""focus"",""0"",""0""
""blur"",""1"",""2169""
""focus"",""1"",""2322""
""fullscreenenter"",""1"",""2329""
","""event"",""trial"",""time""
""blur"",""1"",""2169""
","""event"",""trial"",""time""
""focus"",""0"",""0""
""focus"",""1"",""2322""
","""event"",""trial"",""time""
""fullscreenenter"",""1"",""2329""
","
","","","-1","","","12","3019","2497","&#9728;","elianto","#f73b6a7A","-1","-1","1","0","[2926]","1","1","","","3019","16","0","4","lose","no-go","0"
"pit-trial","89","723928","0.0-20.0","battery-v0.2","","""event"",""trial"",""time""
""focus"",""0"",""0""
""blur"",""1"",""2169""
""focus"",""1"",""2322""
""fullscreenenter"",""1"",""2329""
","""event"",""trial"",""time""
""blur"",""1"",""2169""
","""event"",""trial"",""time""
""focus"",""0"",""0""
""focus"",""1"",""2322""
","""event"",""trial"",""time""
""fullscreenenter"",""1"",""2329""
","
","","","-1","","","12","3019","2497","&#9752;","elianto","#f73b6a7A"," ","-1","0","-10","[]","0","1","","","3019","17","3","3","lose","go","0"
"pit-trial","90","728789","0.0-21.0","battery-v0.2","","""event"",""trial"",""time""
""focus"",""0"",""0""
""blur"",""1"",""2169""
""focus"",""1"",""2322""
""fullscreenenter"",""1"",""2329""
","""event"",""trial"",""time""
""blur"",""1"",""2169""
","""event"",""trial"",""time""
""focus"",""0"",""0""
""focus"",""1"",""2322""
","""event"",""trial"",""time""
""fullscreenenter"",""1"",""2329""
","
","","","-1","","","12","3019","2497","&#9728;","elianto","#f73b6a7A","-1","-1","1","-10","[]","0","1","","","3019","18","0","4","lose","no-go","1"
"pit-trial","91","732784","0.0-22.0","battery-v0.2","","""event"",""trial"",""time""
""focus"",""0"",""0""
""blur"",""1"",""2169""
""focus"",""1"",""2322""
""fullscreenenter"",""1"",""2329""
","""event"",""trial"",""time""
""blur"",""1"",""2169""
","""event"",""trial"",""time""
""focus"",""0"",""0""
""focus"",""1"",""2322""
","""event"",""trial"",""time""
""fullscreenenter"",""1"",""2329""
","
","","","1134","","","12","3019","2497","&#9733;","elianto","#3366ff99","-1"," ","0","0","[1987,2744,2918,3090,3240]","5","1","","","3019","19","2","2","win","no-go","0"
"pit-trial","92","736268","0.0-23.0","battery-v0.2","","""event"",""trial"",""time""
""focus"",""0"",""0""
""blur"",""1"",""2169""
""focus"",""1"",""2322""
""fullscreenenter"",""1"",""2329""
","""event"",""trial"",""time""
""blur"",""1"",""2169""
","""event"",""trial"",""time""
""focus"",""0"",""0""
""focus"",""1"",""2322""
","""event"",""trial"",""time""
""fullscreenenter"",""1"",""2329""
","
","","","623","","","12","3019","2497","&#9730;","elianto","#3366ff99"," "," ","1","0","[1475]","1","1","","","3019","20","1","1","win","go","1"
"pit-instructions","93","749067","0.0-24.0","battery-v0.2","","""event"",""trial"",""time""
""focus"",""0"",""0""
""blur"",""1"",""2169""
""focus"",""1"",""2322""
""fullscreenenter"",""1"",""2329""
","""event"",""trial"",""time""
""blur"",""1"",""2169""
","""event"",""trial"",""time""
""focus"",""0"",""0""
""focus"",""1"",""2322""
","""event"",""trial"",""time""
""fullscreenenter"",""1"",""2329""
","
","","[{""page_index"":0,""viewing_time"":5711},{""page_index"":1,""viewing_time"":7086}]","12797","","","","","","","","","","","","","","","","","","","","","","","",""
"pit-trial","94","753926","0.0-25.0","battery-v0.2","","""event"",""trial"",""time""
""focus"",""0"",""0""
""blur"",""1"",""2169""
""focus"",""1"",""2322""
""fullscreenenter"",""1"",""2329""
","""event"",""trial"",""time""
""blur"",""1"",""2169""
","""event"",""trial"",""time""
""focus"",""0"",""0""
""focus"",""1"",""2322""
","""event"",""trial"",""time""
""fullscreenenter"",""1"",""2329""
","
","","","-1","","","12","3019","2497","d","elianto","#3366ff99","-1","-1","1","+10","[]","0","2","","","3019","21","1","2","win","no-go","0"
"pit-trial","95","758786","0.0-26.0","battery-v0.2","","""event"",""trial"",""time""
""focus"",""0"",""0""
""blur"",""1"",""2169""
""focus"",""1"",""2322""
""fullscreenenter"",""1"",""2329""
","""event"",""trial"",""time""
""blur"",""1"",""2169""
","""event"",""trial"",""time""
""focus"",""0"",""0""
""focus"",""1"",""2322""
","""event"",""trial"",""time""
""fullscreenenter"",""1"",""2329""
","
","","","-1","","","12","3019","2497","e","elianto","#f73b6a7A"," ","-1","0","-10","[]","0","2","","","3019","22","2","3","lose","go","0"
"pit-trial","96","763645","0.0-27.0","battery-v0.2","","""event"",""trial"",""time""
""focus"",""0"",""0""
""blur"",""1"",""2169""
""focus"",""1"",""2322""
""fullscreenenter"",""1"",""2329""
","""event"",""trial"",""time""
""blur"",""1"",""2169""
","""event"",""trial"",""time""
""focus"",""0"",""0""
""focus"",""1"",""2322""
","""event"",""trial"",""time""
""fullscreenenter"",""1"",""2329""
","
","","","-1","","","12","3019","2497","w","elianto","#f73b6a7A","-1","-1","1","0","[]","0","2","","","3019","23","3","4","lose","no-go","0"
"pit-trial","97","767839","0.0-28.0","battery-v0.2","","""event"",""trial"",""time""
""focus"",""0"",""0""
""blur"",""1"",""2169""
""focus"",""1"",""2322""
""fullscreenenter"",""1"",""2329""
","""event"",""trial"",""time""
""blur"",""1"",""2169""
","""event"",""trial"",""time""
""focus"",""0"",""0""
""focus"",""1"",""2322""
","""event"",""trial"",""time""
""fullscreenenter"",""1"",""2329""
","
","","","1333","","","12","3019","2497","j","elianto","#f73b6a7A"," "," ","1","0","[2185]","1","2","","","3019","24","0","3","lose","go","0"
"pit-trial","98","771291","0.0-29.0","battery-v0.2","","""event"",""trial"",""time""
""focus"",""0"",""0""
""blur"",""1"",""2169""
""focus"",""1"",""2322""
""fullscreenenter"",""1"",""2329""
","""event"",""trial"",""time""
""blur"",""1"",""2169""
","""event"",""trial"",""time""
""focus"",""0"",""0""
""focus"",""1"",""2322""
","""event"",""trial"",""time""
""fullscreenenter"",""1"",""2329""
","
","","","594","","","12","3019","2497","j","elianto","#f73b6a7A"," "," ","1","0","[1449]","1","2","","","3019","25","0","3","lose","go","0"
"pit-trial","99","774740","0.0-30.0","battery-v0.2","","""event"",""trial"",""time""
""focus"",""0"",""0""
""blur"",""1"",""2169""
""focus"",""1"",""2322""
""fullscreenenter"",""1"",""2329""
","""event"",""trial"",""time""
""blur"",""1"",""2169""
","""event"",""trial"",""time""
""focus"",""0"",""0""
""focus"",""1"",""2322""
","""event"",""trial"",""time""
""fullscreenenter"",""1"",""2329""
","
","","","590","","","12","3019","2497","w","elianto","#f73b6a7A","-1"," ","0","-10","[1445]","1","2","","","3019","26","3","4","lose","no-go","0"
"pit-trial","100","779123","0.0-31.0","battery-v0.2","","""event"",""trial"",""time""
""focus"",""0"",""0""
""blur"",""1"",""2169""
""focus"",""1"",""2322""
""fullscreenenter"",""1"",""2329""
","""event"",""trial"",""time""
""blur"",""1"",""2169""
","""event"",""trial"",""time""
""focus"",""0"",""0""
""focus"",""1"",""2322""
","""event"",""trial"",""time""
""fullscreenenter"",""1"",""2329""
","
","","","1519","","","12","3019","2497","d","elianto","#3366ff99","-1"," ","0","0","[2374]","1","2","","","3019","27","1","2","win","no-go","0"
"pit-trial","101","783979","0.0-32.0","battery-v0.2","","""event"",""trial"",""time""
""focus"",""0"",""0""
""blur"",""1"",""2169""
""focus"",""1"",""2322""
""fullscreenenter"",""1"",""2329""
","""event"",""trial"",""time""
""blur"",""1"",""2169""
","""event"",""trial"",""time""
""focus"",""0"",""0""
""focus"",""1"",""2322""
","""event"",""trial"",""time""
""fullscreenenter"",""1"",""2329""
","
","","","-1","","","12","3019","2497","e","elianto","#f73b6a7A"," ","-1","0","-10","[]","0","2","","","3019","28","2","3","lose","go","0"
"pit-trial","102","787738","0.0-33.0","battery-v0.2","","""event"",""trial"",""time""
""focus"",""0"",""0""
""blur"",""1"",""2169""
""focus"",""1"",""2322""
""fullscreenenter"",""1"",""2329""
","""event"",""trial"",""time""
""blur"",""1"",""2169""
","""event"",""trial"",""time""
""focus"",""0"",""0""
""focus"",""1"",""2322""
","""event"",""trial"",""time""
""fullscreenenter"",""1"",""2329""
","
","","","903","","","12","3019","2497","w","elianto","#f73b6a7A","-1"," ","0","-10","[1753]","1","2","","","3019","29","3","4","lose","no-go","0"
"pit-trial","103","791358","0.0-34.0","battery-v0.2","","""event"",""trial"",""time""
""focus"",""0"",""0""
""blur"",""1"",""2169""
""focus"",""1"",""2322""
""fullscreenenter"",""1"",""2329""
","""event"",""trial"",""time""
""blur"",""1"",""2169""
","""event"",""trial"",""time""
""focus"",""0"",""0""
""focus"",""1"",""2322""
","""event"",""trial"",""time""
""fullscreenenter"",""1"",""2329""
","
","","","762","","","12","3019","2497","d","elianto","#3366ff99","-1"," ","0","0","[1616]","1","2","","","3019","30","1","2","win","no-go","0"
"pit-trial","104","796221","0.0-35.0","battery-v0.2","","""event"",""trial"",""time""
""focus"",""0"",""0""
""blur"",""1"",""2169""
""focus"",""1"",""2322""
""fullscreenenter"",""1"",""2329""
","""event"",""trial"",""time""
""blur"",""1"",""2169""
","""event"",""trial"",""time""
""focus"",""0"",""0""
""focus"",""1"",""2322""
","""event"",""trial"",""time""
""fullscreenenter"",""1"",""2329""
","
","","","-1","","","12","3019","2497","e","elianto","#f73b6a7A"," ","-1","0","-10","[]","0","2","","","3019","31","2","3","lose","go","0"
"pit-trial","105","799785","0.0-36.0","battery-v0.2","","""event"",""trial"",""time""
""focus"",""0"",""0""
""blur"",""1"",""2169""
""focus"",""1"",""2322""
""fullscreenenter"",""1"",""2329""
","""event"",""trial"",""time""
""blur"",""1"",""2169""
","""event"",""trial"",""time""
""focus"",""0"",""0""
""focus"",""1"",""2322""
","""event"",""trial"",""time""
""fullscreenenter"",""1"",""2329""
","
","","","705","","","12","3019","2497","j","elianto","#f73b6a7A"," "," ","1","0","[1556]","1","2","","","3019","32","0","3","lose","go","0"
"pit-trial","106","803259","0.0-37.0","battery-v0.2","","""event"",""trial"",""time""
""focus"",""0"",""0""
""blur"",""1"",""2169""
""focus"",""1"",""2322""
""fullscreenenter"",""1"",""2329""
","""event"",""trial"",""time""
""blur"",""1"",""2169""
","""event"",""trial"",""time""
""focus"",""0"",""0""
""focus"",""1"",""2322""
","""event"",""trial"",""time""
""fullscreenenter"",""1"",""2329""
","
","","","622","","","12","3019","2497","j","elianto","#f73b6a7A"," "," ","1","0","[1472]","1","2","","","3019","33","0","3","lose","go","0"
"pit-trial","107","806981","0.0-38.0","battery-v0.2","","""event"",""trial"",""time""
""focus"",""0"",""0""
""blur"",""1"",""2169""
""focus"",""1"",""2322""
""fullscreenenter"",""1"",""2329""
","""event"",""trial"",""time""
""blur"",""1"",""2169""
","""event"",""trial"",""time""
""focus"",""0"",""0""
""focus"",""1"",""2322""
","""event"",""trial"",""time""
""fullscreenenter"",""1"",""2329""
","
","","","862","","","12","3019","2497","d","elianto","#3366ff99","-1"," ","0","0","[1715]","1","2","","","3019","34","1","2","win","no-go","0"
"pit-trial","108","810691","0.0-39.0","battery-v0.2","","""event"",""trial"",""time""
""focus"",""0"",""0""
""blur"",""1"",""2169""
""focus"",""1"",""2322""
""fullscreenenter"",""1"",""2329""
","""event"",""trial"",""time""
""blur"",""1"",""2169""
","""event"",""trial"",""time""
""focus"",""0"",""0""
""focus"",""1"",""2322""
","""event"",""trial"",""time""
""fullscreenenter"",""1"",""2329""
","
","","","855","","","12","3019","2497","w","elianto","#f73b6a7A","-1"," ","0","-10","[1705]","1","2","","","3019","35","3","4","lose","no-go","0"
"pit-trial","109","815549","0.0-40.0","battery-v0.2","","""event"",""trial"",""time""
""focus"",""0"",""0""
""blur"",""1"",""2169""
""focus"",""1"",""2322""
""fullscreenenter"",""1"",""2329""
","""event"",""trial"",""time""
""blur"",""1"",""2169""
","""event"",""trial"",""time""
""focus"",""0"",""0""
""focus"",""1"",""2322""
","""event"",""trial"",""time""
""fullscreenenter"",""1"",""2329""
","
","","","-1","","","12","3019","2497","e","elianto","#f73b6a7A"," ","-1","0","-10","[]","0","2","","","3019","36","2","3","lose","go","0"
"pit-trial","110","820402","0.0-41.0","battery-v0.2","","""event"",""trial"",""time""
""focus"",""0"",""0""
""blur"",""1"",""2169""
""focus"",""1"",""2322""
""fullscreenenter"",""1"",""2329""
","""event"",""trial"",""time""
""blur"",""1"",""2169""
","""event"",""trial"",""time""
""focus"",""0"",""0""
""focus"",""1"",""2322""
","""event"",""trial"",""time""
""fullscreenenter"",""1"",""2329""
","
","","","-1","","","12","3019","2497","d","elianto","#3366ff99","-1","-1","1","+10","[]","0","2","","","3019","37","1","2","win","no-go","0"
"pit-trial","111","824285","0.0-42.0","battery-v0.2","","""event"",""trial"",""time""
""focus"",""0"",""0""
""blur"",""1"",""2169""
""focus"",""1"",""2322""
""fullscreenenter"",""1"",""2329""
","""event"",""trial"",""time""
""blur"",""1"",""2169""
","""event"",""trial"",""time""
""focus"",""0"",""0""
""focus"",""1"",""2322""
","""event"",""trial"",""time""
""fullscreenenter"",""1"",""2329""
","
","","","1030","","","12","3019","2497","j","elianto","#f73b6a7A"," "," ","1","0","[1882]","1","2","","","3019","38","0","3","lose","go","0"
"pit-trial","112","829144","0.0-43.0","battery-v0.2","","""event"",""trial"",""time""
""focus"",""0"",""0""
""blur"",""1"",""2169""
""focus"",""1"",""2322""
""fullscreenenter"",""1"",""2329""
","""event"",""trial"",""time""
""blur"",""1"",""2169""
","""event"",""trial"",""time""
""focus"",""0"",""0""
""focus"",""1"",""2322""
","""event"",""trial"",""time""
""fullscreenenter"",""1"",""2329""
","
","","","-1","","","12","3019","2497","w","elianto","#f73b6a7A","-1","-1","1","0","[]","0","2","","","3019","39","3","4","lose","no-go","0"
"pit-trial","113","834005","0.0-44.0","battery-v0.2","","""event"",""trial"",""time""
""focus"",""0"",""0""
""blur"",""1"",""2169""
""focus"",""1"",""2322""
""fullscreenenter"",""1"",""2329""
","""event"",""trial"",""time""
""blur"",""1"",""2169""
","""event"",""trial"",""time""
""focus"",""0"",""0""
""focus"",""1"",""2322""
","""event"",""trial"",""time""
""fullscreenenter"",""1"",""2329""
","
","","","-1","","","12","3019","2497","e","elianto","#f73b6a7A"," ","-1","0","0","[]","0","2","","","3019","40","2","3","lose","go","1"
"pit-trial","114","838556","0.0-45.0","battery-v0.2","","""event"",""trial"",""time""
""focus"",""0"",""0""
""blur"",""1"",""2169""
""focus"",""1"",""2322""
""fullscreenenter"",""1"",""2329""
","""event"",""trial"",""time""
""blur"",""1"",""2169""
","""event"",""trial"",""time""
""focus"",""0"",""0""
""focus"",""1"",""2322""
","""event"",""trial"",""time""
""fullscreenenter"",""1"",""2329""
","
","","","1693","","","12","3019","2497","j","elianto","#f73b6a7A"," "," ","1","0","[2548]","1","2","","","3019","41","0","3","lose","go","0"
"pit-trial","115","841999","0.0-46.0","battery-v0.2","","""event"",""trial"",""time""
""focus"",""0"",""0""
""blur"",""1"",""2169""
""focus"",""1"",""2322""
""fullscreenenter"",""1"",""2329""
","""event"",""trial"",""time""
""blur"",""1"",""2169""
","""event"",""trial"",""time""
""focus"",""0"",""0""
""focus"",""1"",""2322""
","""event"",""trial"",""time""
""fullscreenenter"",""1"",""2329""
","
","","","583","","","12","3019","2497","d","elianto","#3366ff99","-1"," ","0","0","[1437]","1","2","","","3019","42","1","2","win","no-go","0"
"pit-trial","116","846617","0.0-47.0","battery-v0.2","","""event"",""trial"",""time""
""focus"",""0"",""0""
""blur"",""1"",""2169""
""focus"",""1"",""2322""
""fullscreenenter"",""1"",""2329""
","""event"",""trial"",""time""
""blur"",""1"",""2169""
","""event"",""trial"",""time""
""focus"",""0"",""0""
""focus"",""1"",""2322""
","""event"",""trial"",""time""
""fullscreenenter"",""1"",""2329""
","
","","","1760","","","12","3019","2497","e","elianto","#f73b6a7A"," "," ","1","0","[2614]","1","2","","","3019","43","2","3","lose","go","0"
"pit-trial","117","851476","0.0-48.0","battery-v0.2","","""event"",""trial"",""time""
""focus"",""0"",""0""
""blur"",""1"",""2169""
""focus"",""1"",""2322""
""fullscreenenter"",""1"",""2329""
","""event"",""trial"",""time""
""blur"",""1"",""2169""
","""event"",""trial"",""time""
""focus"",""0"",""0""
""focus"",""1"",""2322""
","""event"",""trial"",""time""
""fullscreenenter"",""1"",""2329""
","
","","","-1","","","12","3019","2497","w","elianto","#f73b6a7A","-1","-1","1","0","[]","0","2","","","3019","44","3","4","lose","no-go","0"
"pit-trial","118","855390","0.0-49.0","battery-v0.2","","""event"",""trial"",""time""
""focus"",""0"",""0""
""blur"",""1"",""2169""
""focus"",""1"",""2322""
""fullscreenenter"",""1"",""2329""
","""event"",""trial"",""time""
""blur"",""1"",""2169""
","""event"",""trial"",""time""
""focus"",""0"",""0""
""focus"",""1"",""2322""
","""event"",""trial"",""time""
""fullscreenenter"",""1"",""2329""
","
","","","1053","","","12","3019","2497","j","elianto","#f73b6a7A"," "," ","1","0","[1907]","1","2","","","3019","45","0","3","lose","go","0"
"pit-trial","119","860247","0.0-50.0","battery-v0.2","","""event"",""trial"",""time""
""focus"",""0"",""0""
""blur"",""1"",""2169""
""focus"",""1"",""2322""
""fullscreenenter"",""1"",""2329""
","""event"",""trial"",""time""
""blur"",""1"",""2169""
","""event"",""trial"",""time""
""focus"",""0"",""0""
""focus"",""1"",""2322""
","""event"",""trial"",""time""
""fullscreenenter"",""1"",""2329""
","
","","","-1","","","12","3019","2497","d","elianto","#3366ff99","-1","-1","1","+10","[]","0","2","","","3019","46","1","2","win","no-go","0"
"pit-trial","120","865103","0.0-51.0","battery-v0.2","","""event"",""trial"",""time""
""focus"",""0"",""0""
""blur"",""1"",""2169""
""focus"",""1"",""2322""
""fullscreenenter"",""1"",""2329""
","""event"",""trial"",""time""
""blur"",""1"",""2169""
","""event"",""trial"",""time""
""focus"",""0"",""0""
""focus"",""1"",""2322""
","""event"",""trial"",""time""
""fullscreenenter"",""1"",""2329""
","
","","","-1","","","12","3019","2497","e","elianto","#f73b6a7A"," ","-1","0","-10","[]","0","2","","","3019","47","2","3","lose","go","0"
"pit-trial","121","869962","0.0-52.0","battery-v0.2","","""event"",""trial"",""time""
""focus"",""0"",""0""
""blur"",""1"",""2169""
""focus"",""1"",""2322""
""fullscreenenter"",""1"",""2329""
","""event"",""trial"",""time""
""blur"",""1"",""2169""
","""event"",""trial"",""time""
""focus"",""0"",""0""
""focus"",""1"",""2322""
","""event"",""trial"",""time""
""fullscreenenter"",""1"",""2329""
","
","","","-1","","","12","3019","2497","w","elianto","#f73b6a7A","-1","-1","1","0","[]","0","2","","","3019","48","3","4","lose","no-go","0"
"pit-trial","122","873682","0.0-53.0","battery-v0.2","","""event"",""trial"",""time""
""focus"",""0"",""0""
""blur"",""1"",""2169""
""focus"",""1"",""2322""
""fullscreenenter"",""1"",""2329""
","""event"",""trial"",""time""
""blur"",""1"",""2169""
","""event"",""trial"",""time""
""focus"",""0"",""0""
""focus"",""1"",""2322""
","""event"",""trial"",""time""
""fullscreenenter"",""1"",""2329""
","
","","","866","","","12","3019","2497","j","elianto","#f73b6a7A"," "," ","1","0","[1718]","1","2","","","3019","49","0","3","lose","go","0"
"pit-trial","123","878539","0.0-54.0","battery-v0.2","","""event"",""trial"",""time""
""focus"",""0"",""0""
""blur"",""1"",""2169""
""focus"",""1"",""2322""
""fullscreenenter"",""1"",""2329""
","""event"",""trial"",""time""
""blur"",""1"",""2169""
","""event"",""trial"",""time""
""focus"",""0"",""0""
""focus"",""1"",""2322""
","""event"",""trial"",""time""
""fullscreenenter"",""1"",""2329""
","
","","","-1","","","12","3019","2497","w","elianto","#f73b6a7A","-1","-1","1","0","[]","0","2","","","3019","50","3","4","lose","no-go","0"
"pit-trial","124","883397","0.0-55.0","battery-v0.2","","""event"",""trial"",""time""
""focus"",""0"",""0""
""blur"",""1"",""2169""
""focus"",""1"",""2322""
""fullscreenenter"",""1"",""2329""
","""event"",""trial"",""time""
""blur"",""1"",""2169""
","""event"",""trial"",""time""
""focus"",""0"",""0""
""focus"",""1"",""2322""
","""event"",""trial"",""time""
""fullscreenenter"",""1"",""2329""
","
","","","-1","","","12","3019","2497","d","elianto","#3366ff99","-1","-1","1","+10","[]","0","2","","","3019","51","1","2","win","no-go","0"
"pit-trial","125","888254","0.0-56.0","battery-v0.2","","""event"",""trial"",""time""
""focus"",""0"",""0""
""blur"",""1"",""2169""
""focus"",""1"",""2322""
""fullscreenenter"",""1"",""2329""
","""event"",""trial"",""time""
""blur"",""1"",""2169""
","""event"",""trial"",""time""
""focus"",""0"",""0""
""focus"",""1"",""2322""
","""event"",""trial"",""time""
""fullscreenenter"",""1"",""2329""
","
","","","-1","","","12","3019","2497","e","elianto","#f73b6a7A"," ","-1","0","-10","[2855]","1","2","","","3019","52","2","3","lose","go","0"
"pit-trial","126","893112","0.0-57.0","battery-v0.2","","""event"",""trial"",""time""
""focus"",""0"",""0""
""blur"",""1"",""2169""
""focus"",""1"",""2322""
""fullscreenenter"",""1"",""2329""
","""event"",""trial"",""time""
""blur"",""1"",""2169""
","""event"",""trial"",""time""
""focus"",""0"",""0""
""focus"",""1"",""2322""
","""event"",""trial"",""time""
""fullscreenenter"",""1"",""2329""
","
","","","-1","","","12","3019","2497","e","elianto","#f73b6a7A"," ","-1","0","0","[]","0","2","","","3019","53","2","3","lose","go","1"
"pit-trial","127","897976","0.0-58.0","battery-v0.2","","""event"",""trial"",""time""
""focus"",""0"",""0""
""blur"",""1"",""2169""
""focus"",""1"",""2322""
""fullscreenenter"",""1"",""2329""
","""event"",""trial"",""time""
""blur"",""1"",""2169""
","""event"",""trial"",""time""
""focus"",""0"",""0""
""focus"",""1"",""2322""
","""event"",""trial"",""time""
""fullscreenenter"",""1"",""2329""
","
","","","-1","","","12","3019","2497","d","elianto","#3366ff99","-1","-1","1","+10","[]","0","2","","","3019","54","1","2","win","no-go","0"
"pit-trial","128","902836","0.0-59.0","battery-v0.2","","""event"",""trial"",""time""
""focus"",""0"",""0""
""blur"",""1"",""2169""
""focus"",""1"",""2322""
""fullscreenenter"",""1"",""2329""
","""event"",""trial"",""time""
""blur"",""1"",""2169""
","""event"",""trial"",""time""
""focus"",""0"",""0""
""focus"",""1"",""2322""
","""event"",""trial"",""time""
""fullscreenenter"",""1"",""2329""
","
","","","-1","","","12","3019","2497","w","elianto","#f73b6a7A","-1","-1","1","0","[]","0","2","","","3019","55","3","4","lose","no-go","0"
"pit-trial","129","906788","0.0-60.0","battery-v0.2","","""event"",""trial"",""time""
""focus"",""0"",""0""
""blur"",""1"",""2169""
""focus"",""1"",""2322""
""fullscreenenter"",""1"",""2329""
","""event"",""trial"",""time""
""blur"",""1"",""2169""
","""event"",""trial"",""time""
""focus"",""0"",""0""
""focus"",""1"",""2322""
","""event"",""trial"",""time""
""fullscreenenter"",""1"",""2329""
","
","","","1091","","","12","3019","2497","j","elianto","#f73b6a7A"," "," ","1","-10","[1945]","1","2","","","3019","56","0","3","lose","go","1"
"pit-trial","130","911646","0.0-61.0","battery-v0.2","","""event"",""trial"",""time""
""focus"",""0"",""0""
""blur"",""1"",""2169""
""focus"",""1"",""2322""
""fullscreenenter"",""1"",""2329""
","""event"",""trial"",""time""
""blur"",""1"",""2169""
","""event"",""trial"",""time""
""focus"",""0"",""0""
""focus"",""1"",""2322""
","""event"",""trial"",""time""
""fullscreenenter"",""1"",""2329""
","
","","","-1","","","12","3019","2497","e","elianto","#f73b6a7A"," ","-1","0","-10","[]","0","2","","","3019","57","2","3","lose","go","0"
"pit-trial","131","915890","0.0-62.0","battery-v0.2","","""event"",""trial"",""time""
""focus"",""0"",""0""
""blur"",""1"",""2169""
""focus"",""1"",""2322""
""fullscreenenter"",""1"",""2329""
","""event"",""trial"",""time""
""blur"",""1"",""2169""
","""event"",""trial"",""time""
""focus"",""0"",""0""
""focus"",""1"",""2322""
","""event"",""trial"",""time""
""fullscreenenter"",""1"",""2329""
","
","","","1385","","","12","3019","2497","w","elianto","#f73b6a7A","-1"," ","0","-10","[2238]","1","2","","","3019","58","3","4","lose","no-go","0"
"pit-trial","132","919624","0.0-63.0","battery-v0.2","","""event"",""trial"",""time""
""focus"",""0"",""0""
""blur"",""1"",""2169""
""focus"",""1"",""2322""
""fullscreenenter"",""1"",""2329""
","""event"",""trial"",""time""
""blur"",""1"",""2169""
","""event"",""trial"",""time""
""focus"",""0"",""0""
""focus"",""1"",""2322""
","""event"",""trial"",""time""
""fullscreenenter"",""1"",""2329""
","
","","","873","","","12","3019","2497","j","elianto","#f73b6a7A"," "," ","1","0","[1729]","1","2","","","3019","59","0","3","lose","go","0"
"pit-trial","133","923147","0.0-64.0","battery-v0.2","","""event"",""trial"",""time""
""focus"",""0"",""0""
""blur"",""1"",""2169""
""focus"",""1"",""2322""
""fullscreenenter"",""1"",""2329""
","""event"",""trial"",""time""
""blur"",""1"",""2169""
","""event"",""trial"",""time""
""focus"",""0"",""0""
""focus"",""1"",""2322""
","""event"",""trial"",""time""
""fullscreenenter"",""1"",""2329""
","
","","","663","","","12","3019","2497","s","elianto","#3366ff99"," "," ","1","+10","[1515]","1","2","","","3019","60","4","1","win","go","0"
"pit-trial","134","928006","0.0-65.0","battery-v0.2","","""event"",""trial"",""time""
""focus"",""0"",""0""
""blur"",""1"",""2169""
""focus"",""1"",""2322""
""fullscreenenter"",""1"",""2329""
","""event"",""trial"",""time""
""blur"",""1"",""2169""
","""event"",""trial"",""time""
""focus"",""0"",""0""
""focus"",""1"",""2322""
","""event"",""trial"",""time""
""fullscreenenter"",""1"",""2329""
","
","","","-1","","","12","3019","2497","d","elianto","#3366ff99","-1","-1","1","+10","[]","0","2","","","3019","61","1","2","win","no-go","0"
"pit-trial","135","932865","0.0-66.0","battery-v0.2","","""event"",""trial"",""time""
""focus"",""0"",""0""
""blur"",""1"",""2169""
""focus"",""1"",""2322""
""fullscreenenter"",""1"",""2329""
","""event"",""trial"",""time""
""blur"",""1"",""2169""
","""event"",""trial"",""time""
""focus"",""0"",""0""
""focus"",""1"",""2322""
","""event"",""trial"",""time""
""fullscreenenter"",""1"",""2329""
","
","","","-1","","","12","3019","2497","w","elianto","#f73b6a7A","-1","-1","1","-10","[]","0","2","","","3019","62","3","4","lose","no-go","1"
"pit-trial","136","937727","0.0-67.0","battery-v0.2","","""event"",""trial"",""time""
""focus"",""0"",""0""
""blur"",""1"",""2169""
""focus"",""1"",""2322""
""fullscreenenter"",""1"",""2329""
","""event"",""trial"",""time""
""blur"",""1"",""2169""
","""event"",""trial"",""time""
""focus"",""0"",""0""
""focus"",""1"",""2322""
","""event"",""trial"",""time""
""fullscreenenter"",""1"",""2329""
","
","","","-1","","","12","3019","2497","e","elianto","#f73b6a7A"," ","-1","0","-10","[765]","1","2","","","3019","63","2","3","lose","go","0"
"pit-trial","137","942132","0.0-68.0","battery-v0.2","","""event"",""trial"",""time""
""focus"",""0"",""0""
""blur"",""1"",""2169""
""focus"",""1"",""2322""
""fullscreenenter"",""1"",""2329""
","""event"",""trial"",""time""
""blur"",""1"",""2169""
","""event"",""trial"",""time""
""focus"",""0"",""0""
""focus"",""1"",""2322""
","""event"",""trial"",""time""
""fullscreenenter"",""1"",""2329""
","
","","","1549","","","12","3019","2497","s","elianto","#3366ff99"," "," ","1","+10","[2399]","1","2","","","3019","64","4","1","win","go","0"
"pit-trial","138","946671","0.0-69.0","battery-v0.2","","""event"",""trial"",""time""
""focus"",""0"",""0""
""blur"",""1"",""2169""
""focus"",""1"",""2322""
""fullscreenenter"",""1"",""2329""
","""event"",""trial"",""time""
""blur"",""1"",""2169""
","""event"",""trial"",""time""
""focus"",""0"",""0""
""focus"",""1"",""2322""
","""event"",""trial"",""time""
""fullscreenenter"",""1"",""2329""
","
","","","1681","","","12","3019","2497","w","elianto","#f73b6a7A","-1"," ","0","-10","[2532]","1","2","","","3019","65","3","4","lose","no-go","0"
"pit-trial","139","951532","0.0-70.0","battery-v0.2","","""event"",""trial"",""time""
""focus"",""0"",""0""
""blur"",""1"",""2169""
""focus"",""1"",""2322""
""fullscreenenter"",""1"",""2329""
","""event"",""trial"",""time""
""blur"",""1"",""2169""
","""event"",""trial"",""time""
""focus"",""0"",""0""
""focus"",""1"",""2322""
","""event"",""trial"",""time""
""fullscreenenter"",""1"",""2329""
","
","","","-1","","","12","3019","2497","p","elianto","#3366ff99","-1","-1","1","+10","[]","0","2","","","3019","66","5","2","win","no-go","0"
"pit-trial","140","955624","0.0-71.0","battery-v0.2","","""event"",""trial"",""time""
""focus"",""0"",""0""
""blur"",""1"",""2169""
""focus"",""1"",""2322""
""fullscreenenter"",""1"",""2329""
","""event"",""trial"",""time""
""blur"",""1"",""2169""
","""event"",""trial"",""time""
""focus"",""0"",""0""
""focus"",""1"",""2322""
","""event"",""trial"",""time""
""fullscreenenter"",""1"",""2329""
","
","","","1231","","","12","3019","2497","s","elianto","#3366ff99"," "," ","1","+10","[2084]","1","2","","","3019","67","4","1","win","go","0"
"pit-trial","141","959842","0.0-72.0","battery-v0.2","","""event"",""trial"",""time""
""focus"",""0"",""0""
""blur"",""1"",""2169""
""focus"",""1"",""2322""
""fullscreenenter"",""1"",""2329""
","""event"",""trial"",""time""
""blur"",""1"",""2169""
","""event"",""trial"",""time""
""focus"",""0"",""0""
""focus"",""1"",""2322""
","""event"",""trial"",""time""
""fullscreenenter"",""1"",""2329""
","
","","","1361","","","12","3019","2497","d","elianto","#3366ff99","-1"," ","0","0","[2212]","1","2","","","3019","68","1","2","win","no-go","0"
"pit-trial","142","963773","0.0-73.0","battery-v0.2","","""event"",""trial"",""time""
""focus"",""0"",""0""
""blur"",""1"",""2169""
""focus"",""1"",""2322""
""fullscreenenter"",""1"",""2329""
","""event"",""trial"",""time""
""blur"",""1"",""2169""
","""event"",""trial"",""time""
""focus"",""0"",""0""
""focus"",""1"",""2322""
","""event"",""trial"",""time""
""fullscreenenter"",""1"",""2329""
","
","","","1076","","","12","3019","2497","s","elianto","#3366ff99"," "," ","1","+10","[1926]","1","2","","","3019","69","4","1","win","go","0"
"pit-trial","143","968632","0.0-74.0","battery-v0.2","","""event"",""trial"",""time""
""focus"",""0"",""0""
""blur"",""1"",""2169""
""focus"",""1"",""2322""
""fullscreenenter"",""1"",""2329""
","""event"",""trial"",""time""
""blur"",""1"",""2169""
","""event"",""trial"",""time""
""focus"",""0"",""0""
""focus"",""1"",""2322""
","""event"",""trial"",""time""
""fullscreenenter"",""1"",""2329""
","
","","","-1","","","12","3019","2497","e","elianto","#f73b6a7A"," ","-1","0","-10","[]","0","2","","","3019","70","2","3","lose","go","0"
"pit-trial","144","973487","0.0-75.0","battery-v0.2","","""event"",""trial"",""time""
""focus"",""0"",""0""
""blur"",""1"",""2169""
""focus"",""1"",""2322""
""fullscreenenter"",""1"",""2329""
","""event"",""trial"",""time""
""blur"",""1"",""2169""
","""event"",""trial"",""time""
""focus"",""0"",""0""
""focus"",""1"",""2322""
","""event"",""trial"",""time""
""fullscreenenter"",""1"",""2329""
","
","","","-1","","","12","3019","2497","p","elianto","#3366ff99","-1","-1","1","+10","[]","0","2","","","3019","71","5","2","win","no-go","0"
"pit-trial","145","978345","0.0-76.0","battery-v0.2","","""event"",""trial"",""time""
""focus"",""0"",""0""
""blur"",""1"",""2169""
""focus"",""1"",""2322""
""fullscreenenter"",""1"",""2329""
","""event"",""trial"",""time""
""blur"",""1"",""2169""
","""event"",""trial"",""time""
""focus"",""0"",""0""
""focus"",""1"",""2322""
","""event"",""trial"",""time""
""fullscreenenter"",""1"",""2329""
","
","","","-1","","","12","3019","2497","d","elianto","#3366ff99","-1","-1","1","+10","[]","0","2","","","3019","72","1","2","win","no-go","0"
"pit-trial","146","983208","0.0-77.0","battery-v0.2","","""event"",""trial"",""time""
""focus"",""0"",""0""
""blur"",""1"",""2169""
""focus"",""1"",""2322""
""fullscreenenter"",""1"",""2329""
","""event"",""trial"",""time""
""blur"",""1"",""2169""
","""event"",""trial"",""time""
""focus"",""0"",""0""
""focus"",""1"",""2322""
","""event"",""trial"",""time""
""fullscreenenter"",""1"",""2329""
","
","","","-1","","","12","3019","2497","d","elianto","#3366ff99","-1","-1","1","+10","[]","0","2","","","3019","73","1","2","win","no-go","0"
"pit-trial","147","988068","0.0-78.0","battery-v0.2","","""event"",""trial"",""time""
""focus"",""0"",""0""
""blur"",""1"",""2169""
""focus"",""1"",""2322""
""fullscreenenter"",""1"",""2329""
","""event"",""trial"",""time""
""blur"",""1"",""2169""
","""event"",""trial"",""time""
""focus"",""0"",""0""
""focus"",""1"",""2322""
","""event"",""trial"",""time""
""fullscreenenter"",""1"",""2329""
","
","","","-1","","","12","3019","2497","s","elianto","#3366ff99"," ","-1","0","0","[]","0","2","","","3019","74","4","1","win","go","0"
"pit-trial","148","992924","0.0-79.0","battery-v0.2","","""event"",""trial"",""time""
""focus"",""0"",""0""
""blur"",""1"",""2169""
""focus"",""1"",""2322""
""fullscreenenter"",""1"",""2329""
","""event"",""trial"",""time""
""blur"",""1"",""2169""
","""event"",""trial"",""time""
""focus"",""0"",""0""
""focus"",""1"",""2322""
","""event"",""trial"",""time""
""fullscreenenter"",""1"",""2329""
","
","","","-1","","","12","3019","2497","p","elianto","#3366ff99","-1","-1","1","+10","[]","0","2","","","3019","75","5","2","win","no-go","0"
"pit-trial","149","997781","0.0-80.0","battery-v0.2","","""event"",""trial"",""time""
""focus"",""0"",""0""
""blur"",""1"",""2169""
""focus"",""1"",""2322""
""fullscreenenter"",""1"",""2329""
","""event"",""trial"",""time""
""blur"",""1"",""2169""
","""event"",""trial"",""time""
""focus"",""0"",""0""
""focus"",""1"",""2322""
","""event"",""trial"",""time""
""fullscreenenter"",""1"",""2329""
","
","","","-1","","","12","3019","2497","w","elianto","#f73b6a7A","-1","-1","1","0","[]","0","2","","","3019","76","3","4","lose","no-go","0"
"pit-trial","150","1001586","0.0-81.0","battery-v0.2","","""event"",""trial"",""time""
""focus"",""0"",""0""
""blur"",""1"",""2169""
""focus"",""1"",""2322""
""fullscreenenter"",""1"",""2329""
","""event"",""trial"",""time""
""blur"",""1"",""2169""
","""event"",""trial"",""time""
""focus"",""0"",""0""
""focus"",""1"",""2322""
","""event"",""trial"",""time""
""fullscreenenter"",""1"",""2329""
","
","","","950","","","12","3019","2497","p","elianto","#3366ff99","-1"," ","0","0","[1802]","1","2","","","3019","77","5","2","win","no-go","0"
"pit-trial","151","1005488","0.0-82.0","battery-v0.2","","""event"",""trial"",""time""
""focus"",""0"",""0""
""blur"",""1"",""2169""
""focus"",""1"",""2322""
""fullscreenenter"",""1"",""2329""
","""event"",""trial"",""time""
""blur"",""1"",""2169""
","""event"",""trial"",""time""
""focus"",""0"",""0""
""focus"",""1"",""2322""
","""event"",""trial"",""time""
""fullscreenenter"",""1"",""2329""
","
","","","1044","","","12","3019","2497","s","elianto","#3366ff99"," "," ","1","+10","[1897]","1","2","","","3019","78","4","1","win","go","0"
"pit-trial","152","1010004","0.0-83.0","battery-v0.2","","""event"",""trial"",""time""
""focus"",""0"",""0""
""blur"",""1"",""2169""
""focus"",""1"",""2322""
""fullscreenenter"",""1"",""2329""
","""event"",""trial"",""time""
""blur"",""1"",""2169""
","""event"",""trial"",""time""
""focus"",""0"",""0""
""focus"",""1"",""2322""
","""event"",""trial"",""time""
""fullscreenenter"",""1"",""2329""
","
","","","1656","","","12","3019","2497","s","elianto","#3366ff99"," "," ","1","+10","[2509]","1","2","","","3019","79","4","1","win","go","0"
"pit-trial","153","1014866","0.0-84.0","battery-v0.2","","""event"",""trial"",""time""
""focus"",""0"",""0""
""blur"",""1"",""2169""
""focus"",""1"",""2322""
""fullscreenenter"",""1"",""2329""
","""event"",""trial"",""time""
""blur"",""1"",""2169""
","""event"",""trial"",""time""
""focus"",""0"",""0""
""focus"",""1"",""2322""
","""event"",""trial"",""time""
""fullscreenenter"",""1"",""2329""
","
","","","-1","","","12","3019","2497","w","elianto","#f73b6a7A","-1","-1","1","-10","[4429]","1","2","","","3019","80","3","4","lose","no-go","1"
"pit-trial","154","1019306","0.0-85.0","battery-v0.2","","""event"",""trial"",""time""
""focus"",""0"",""0""
""blur"",""1"",""2169""
""focus"",""1"",""2322""
""fullscreenenter"",""1"",""2329""
","""event"",""trial"",""time""
""blur"",""1"",""2169""
","""event"",""trial"",""time""
""focus"",""0"",""0""
""focus"",""1"",""2322""
","""event"",""trial"",""time""
""fullscreenenter"",""1"",""2329""
","
","","","1583","","","12","3019","2497","s","elianto","#3366ff99"," "," ","1","+10","[2437]","1","2","","","3019","81","4","1","win","go","0"
"pit-trial","155","1023025","0.0-86.0","battery-v0.2","","""event"",""trial"",""time""
""focus"",""0"",""0""
""blur"",""1"",""2169""
""focus"",""1"",""2322""
""fullscreenenter"",""1"",""2329""
","""event"",""trial"",""time""
""blur"",""1"",""2169""
","""event"",""trial"",""time""
""focus"",""0"",""0""
""focus"",""1"",""2322""
","""event"",""trial"",""time""
""fullscreenenter"",""1"",""2329""
","
","","","856","","","12","3019","2497","w","elianto","#f73b6a7A","-1"," ","0","-10","[1712]","1","2","","","3019","82","3","4","lose","no-go","0"
"pit-trial","156","1026753","0.0-87.0","battery-v0.2","","""event"",""trial"",""time""
""focus"",""0"",""0""
""blur"",""1"",""2169""
""focus"",""1"",""2322""
""fullscreenenter"",""1"",""2329""
","""event"",""trial"",""time""
""blur"",""1"",""2169""
","""event"",""trial"",""time""
""focus"",""0"",""0""
""focus"",""1"",""2322""
","""event"",""trial"",""time""
""fullscreenenter"",""1"",""2329""
","
","","","871","","","12","3019","2497","p","elianto","#3366ff99","-1"," ","0","0","[1725]","1","2","","","3019","83","5","2","win","no-go","0"
"pit-trial","157","1031612","0.0-88.0","battery-v0.2","","""event"",""trial"",""time""
""focus"",""0"",""0""
""blur"",""1"",""2169""
""focus"",""1"",""2322""
""fullscreenenter"",""1"",""2329""
","""event"",""trial"",""time""
""blur"",""1"",""2169""
","""event"",""trial"",""time""
""focus"",""0"",""0""
""focus"",""1"",""2322""
","""event"",""trial"",""time""
""fullscreenenter"",""1"",""2329""
","
","","","-1","","","12","3019","2497","a","elianto","#f73b6a7A","-1","-1","1","0","[]","0","2","","","3019","84","7","4","lose","no-go","0"
"pit-trial","158","1035333","0.0-89.0","battery-v0.2","","""event"",""trial"",""time""
""focus"",""0"",""0""
""blur"",""1"",""2169""
""focus"",""1"",""2322""
""fullscreenenter"",""1"",""2329""
","""event"",""trial"",""time""
""blur"",""1"",""2169""
","""event"",""trial"",""time""
""focus"",""0"",""0""
""focus"",""1"",""2322""
","""event"",""trial"",""time""
""fullscreenenter"",""1"",""2329""
","
","","","861","","","12","3019","2497","s","elianto","#3366ff99"," "," ","1","+10","[1712]","1","2","","","3019","85","4","1","win","go","0"
"pit-trial","159","1040196","0.0-90.0","battery-v0.2","","""event"",""trial"",""time""
""focus"",""0"",""0""
""blur"",""1"",""2169""
""focus"",""1"",""2322""
""fullscreenenter"",""1"",""2329""
","""event"",""trial"",""time""
""blur"",""1"",""2169""
","""event"",""trial"",""time""
""focus"",""0"",""0""
""focus"",""1"",""2322""
","""event"",""trial"",""time""
""fullscreenenter"",""1"",""2329""
","
","","","-1","","","12","3019","2497","g","elianto","#f73b6a7A"," ","-1","0","-10","[3855,4134]","2","2","","","3019","86","6","3","lose","go","0"
"pit-trial","160","1045059","0.0-91.0","battery-v0.2","","""event"",""trial"",""time""
""focus"",""0"",""0""
""blur"",""1"",""2169""
""focus"",""1"",""2322""
""fullscreenenter"",""1"",""2329""
","""event"",""trial"",""time""
""blur"",""1"",""2169""
","""event"",""trial"",""time""
""focus"",""0"",""0""
""focus"",""1"",""2322""
","""event"",""trial"",""time""
""fullscreenenter"",""1"",""2329""
","
","","","-1","","","12","3019","2497","a","elianto","#f73b6a7A","-1","-1","1","-10","[]","0","2","","","3019","87","7","4","lose","no-go","1"
"pit-trial","161","1049151","0.0-92.0","battery-v0.2","","""event"",""trial"",""time""
""focus"",""0"",""0""
""blur"",""1"",""2169""
""focus"",""1"",""2322""
""fullscreenenter"",""1"",""2329""
","""event"",""trial"",""time""
""blur"",""1"",""2169""
","""event"",""trial"",""time""
""focus"",""0"",""0""
""focus"",""1"",""2322""
","""event"",""trial"",""time""
""fullscreenenter"",""1"",""2329""
","
","","","1235","","","12","3019","2497","p","elianto","#3366ff99","-1"," ","0","0","[2086]","1","2","","","3019","88","5","2","win","no-go","0"
"pit-trial","162","1053675","0.0-93.0","battery-v0.2","","""event"",""trial"",""time""
""focus"",""0"",""0""
""blur"",""1"",""2169""
""focus"",""1"",""2322""
""fullscreenenter"",""1"",""2329""
","""event"",""trial"",""time""
""blur"",""1"",""2169""
","""event"",""trial"",""time""
""focus"",""0"",""0""
""focus"",""1"",""2322""
","""event"",""trial"",""time""
""fullscreenenter"",""1"",""2329""
","
","","","1664","","","12","3019","2497","a","elianto","#f73b6a7A","-1"," ","0","0","[2518]","1","2","","","3019","89","7","4","lose","no-go","1"
"pit-trial","163","1057648","0.0-94.0","battery-v0.2","","""event"",""trial"",""time""
""focus"",""0"",""0""
""blur"",""1"",""2169""
""focus"",""1"",""2322""
""fullscreenenter"",""1"",""2329""
","""event"",""trial"",""time""
""blur"",""1"",""2169""
","""event"",""trial"",""time""
""focus"",""0"",""0""
""focus"",""1"",""2322""
","""event"",""trial"",""time""
""fullscreenenter"",""1"",""2329""
","
","","","1114","","","12","3019","2497","g","elianto","#f73b6a7A"," "," ","1","0","[1969]","1","2","","","3019","90","6","3","lose","go","0"
"pit-trial","164","1062504","0.0-95.0","battery-v0.2","","""event"",""trial"",""time""
""focus"",""0"",""0""
""blur"",""1"",""2169""
""focus"",""1"",""2322""
""fullscreenenter"",""1"",""2329""
","""event"",""trial"",""time""
""blur"",""1"",""2169""
","""event"",""trial"",""time""
""focus"",""0"",""0""
""focus"",""1"",""2322""
","""event"",""trial"",""time""
""fullscreenenter"",""1"",""2329""
","
","","","-1","","","12","3019","2497","p","elianto","#3366ff99","-1","-1","1","+10","[]","0","2","","","3019","91","5","2","win","no-go","0"
"pit-trial","165","1066407","0.0-96.0","battery-v0.2","","""event"",""trial"",""time""
""focus"",""0"",""0""
""blur"",""1"",""2169""
""focus"",""1"",""2322""
""fullscreenenter"",""1"",""2329""
","""event"",""trial"",""time""
""blur"",""1"",""2169""
","""event"",""trial"",""time""
""focus"",""0"",""0""
""focus"",""1"",""2322""
","""event"",""trial"",""time""
""fullscreenenter"",""1"",""2329""
","
","","","1044","","","12","3019","2497","s","elianto","#3366ff99"," "," ","1","+10","[1895]","1","2","","","3019","92","4","1","win","go","0"
"pit-trial","166","1071260","0.0-97.0","battery-v0.2","","""event"",""trial"",""time""
""focus"",""0"",""0""
""blur"",""1"",""2169""
""focus"",""1"",""2322""
""fullscreenenter"",""1"",""2329""
","""event"",""trial"",""time""
""blur"",""1"",""2169""
","""event"",""trial"",""time""
""focus"",""0"",""0""
""focus"",""1"",""2322""
","""event"",""trial"",""time""
""fullscreenenter"",""1"",""2329""
","
","","","-1","","","12","3019","2497","a","elianto","#f73b6a7A","-1","-1","1","0","[]","0","2","","","3019","93","7","4","lose","no-go","0"
"pit-trial","167","1076116","0.0-98.0","battery-v0.2","","""event"",""trial"",""time""
""focus"",""0"",""0""
""blur"",""1"",""2169""
""focus"",""1"",""2322""
""fullscreenenter"",""1"",""2329""
","""event"",""trial"",""time""
""blur"",""1"",""2169""
","""event"",""trial"",""time""
""focus"",""0"",""0""
""focus"",""1"",""2322""
","""event"",""trial"",""time""
""fullscreenenter"",""1"",""2329""
","
","","","-1","","","12","3019","2497","p","elianto","#3366ff99","-1","-1","1","0","[3999]","1","2","","","3019","94","5","2","win","no-go","1"
"pit-trial","168","1080978","0.0-99.0","battery-v0.2","","""event"",""trial"",""time""
""focus"",""0"",""0""
""blur"",""1"",""2169""
""focus"",""1"",""2322""
""fullscreenenter"",""1"",""2329""
","""event"",""trial"",""time""
""blur"",""1"",""2169""
","""event"",""trial"",""time""
""focus"",""0"",""0""
""focus"",""1"",""2322""
","""event"",""trial"",""time""
""fullscreenenter"",""1"",""2329""
","
","","","-1","","","12","3019","2497","l","elianto","#3366ff99"," ","-1","0","0","[4206]","1","2","","","3019","95","8","1","win","go","0"
"pit-trial","169","1085839","0.0-100.0","battery-v0.2","","""event"",""trial"",""time""
""focus"",""0"",""0""
""blur"",""1"",""2169""
""focus"",""1"",""2322""
""fullscreenenter"",""1"",""2329""
","""event"",""trial"",""time""
""blur"",""1"",""2169""
","""event"",""trial"",""time""
""focus"",""0"",""0""
""focus"",""1"",""2322""
","""event"",""trial"",""time""
""fullscreenenter"",""1"",""2329""
","
","","","-1","","","12","3019","2497","g","elianto","#f73b6a7A"," ","-1","0","-10","[]","0","2","","","3019","96","6","3","lose","go","0"
"pit-trial","170","1089138","0.0-101.0","battery-v0.2","","""event"",""trial"",""time""
""focus"",""0"",""0""
""blur"",""1"",""2169""
""focus"",""1"",""2322""
""fullscreenenter"",""1"",""2329""
","""event"",""trial"",""time""
""blur"",""1"",""2169""
","""event"",""trial"",""time""
""focus"",""0"",""0""
""focus"",""1"",""2322""
","""event"",""trial"",""time""
""fullscreenenter"",""1"",""2329""
","
","","","442","","","12","3019","2497","l","elianto","#3366ff99"," "," ","1","+10","[1295]","1","2","","","3019","97","8","1","win","go","0"
"pit-trial","171","1093259","0.0-102.0","battery-v0.2","","""event"",""trial"",""time""
""focus"",""0"",""0""
""blur"",""1"",""2169""
""focus"",""1"",""2322""
""fullscreenenter"",""1"",""2329""
","""event"",""trial"",""time""
""blur"",""1"",""2169""
","""event"",""trial"",""time""
""focus"",""0"",""0""
""focus"",""1"",""2322""
","""event"",""trial"",""time""
""fullscreenenter"",""1"",""2329""
","
","","","1266","","","12","3019","2497","p","elianto","#3366ff99","-1"," ","0","0","[2116]","1","2","","","3019","98","5","2","win","no-go","0"
"pit-trial","172","1097326","0.0-103.0","battery-v0.2","","""event"",""trial"",""time""
""focus"",""0"",""0""
""blur"",""1"",""2169""
""focus"",""1"",""2322""
""fullscreenenter"",""1"",""2329""
","""event"",""trial"",""time""
""blur"",""1"",""2169""
","""event"",""trial"",""time""
""focus"",""0"",""0""
""focus"",""1"",""2322""
","""event"",""trial"",""time""
""fullscreenenter"",""1"",""2329""
","
","","","1212","","","12","3019","2497","a","elianto","#f73b6a7A","-1"," ","0","0","[2062]","1","2","","","3019","99","7","4","lose","no-go","1"
"pit-trial","173","1100909","0.0-104.0","battery-v0.2","","""event"",""trial"",""time""
""focus"",""0"",""0""
""blur"",""1"",""2169""
""focus"",""1"",""2322""
""fullscreenenter"",""1"",""2329""
","""event"",""trial"",""time""
""blur"",""1"",""2169""
","""event"",""trial"",""time""
""focus"",""0"",""0""
""focus"",""1"",""2322""
","""event"",""trial"",""time""
""fullscreenenter"",""1"",""2329""
","
","","","726","","","12","3019","2497","g","elianto","#f73b6a7A"," "," ","1","0","[1577]","1","2","","","3019","100","6","3","lose","go","0"
"pit-trial","174","1105767","0.0-105.0","battery-v0.2","","""event"",""trial"",""time""
""focus"",""0"",""0""
""blur"",""1"",""2169""
""focus"",""1"",""2322""
""fullscreenenter"",""1"",""2329""
","""event"",""trial"",""time""
""blur"",""1"",""2169""
","""event"",""trial"",""time""
""focus"",""0"",""0""
""focus"",""1"",""2322""
","""event"",""trial"",""time""
""fullscreenenter"",""1"",""2329""
","
","","","-1","","","12","3019","2497","p","elianto","#3366ff99","-1","-1","1","+10","[]","0","2","","","3019","101","5","2","win","no-go","0"
"pit-trial","175","1110032","0.0-106.0","battery-v0.2","","""event"",""trial"",""time""
""focus"",""0"",""0""
""blur"",""1"",""2169""
""focus"",""1"",""2322""
""fullscreenenter"",""1"",""2329""
","""event"",""trial"",""time""
""blur"",""1"",""2169""
","""event"",""trial"",""time""
""focus"",""0"",""0""
""focus"",""1"",""2322""
","""event"",""trial"",""time""
""fullscreenenter"",""1"",""2329""
","
