"trial_type","trial_index","time_elapsed","internal_node_id","task_version","subject_id","interactions","blur_events","focus_events","fullscreenenter_events","fullscreenexit_events","success","view_history","rt","responses","num_errors","age","subject","participantId","rune","rune_set","hex","correct","choice","accuracy","outcome","keys","total_keys","block","practice","value","sub","trial","stimulus","robot","valence","action","sham"
"pavlovia","0","9","0.0-0.0","battery-v0.2","","""event"",""trial"",""time""
""blur"",""1"",""2150""
""focus"",""1"",""32182""
""fullscreenenter"",""1"",""34677""
","""event"",""trial"",""time""
""blur"",""1"",""2150""
","""event"",""trial"",""time""
""focus"",""1"",""32182""
","""event"",""trial"",""time""
""fullscreenenter"",""1"",""34677""
","
","","","","","","","","","","","","","","","","","","","","","","","","","","",""
"fullscreen","1","35664","0.0-1.0","battery-v0.2","","""event"",""trial"",""time""
""blur"",""1"",""2150""
""focus"",""1"",""32182""
""fullscreenenter"",""1"",""34677""
","""event"",""trial"",""time""
""blur"",""1"",""2150""
","""event"",""trial"",""time""
""focus"",""1"",""32182""
","""event"",""trial"",""time""
""fullscreenenter"",""1"",""34677""
","
","true","","","","","","","","","","","","","","","","","","","","","","","","","",""
"pit-instructions","2","40588","0.0-2.0-0.0","battery-v0.2","","""event"",""trial"",""time""
""blur"",""1"",""2150""
""focus"",""1"",""32182""
""fullscreenenter"",""1"",""34677""
","""event"",""trial"",""time""
""blur"",""1"",""2150""
","""event"",""trial"",""time""
""focus"",""1"",""32182""
","""event"",""trial"",""time""
""fullscreenenter"",""1"",""34677""
","
","","[{""page_index"":0,""viewing_time"":4922.399999976158}]","4922.599999964237","","","","","","","","","","","","","","","","","","","","","","","",""
"pit-comprehension","3","43477","0.0-2.0-1.0-0.0","battery-v0.2","","""event"",""trial"",""time""
""blur"",""1"",""2150""
""focus"",""1"",""32182""
""fullscreenenter"",""1"",""34677""
","""event"",""trial"",""time""
""blur"",""1"",""2150""
","""event"",""trial"",""time""
""focus"",""1"",""32182""
","""event"",""trial"",""time""
""fullscreenenter"",""1"",""34677""
","
","","","2886.2000000476837","[""shark""]","0","19","13395","5534","","","","","","","","","","","","","","","","","","",""
"pit-instructions","4","44276","0.0-2.0-1.0-1.0","battery-v0.2","","""event"",""trial"",""time""
""blur"",""1"",""2150""
""focus"",""1"",""32182""
""fullscreenenter"",""1"",""34677""
","""event"",""trial"",""time""
""blur"",""1"",""2150""
","""event"",""trial"",""time""
""focus"",""1"",""32182""
","""event"",""trial"",""time""
""fullscreenenter"",""1"",""34677""
","
","","[{""page_index"":0,""viewing_time"":790.6999999880791}]","790.9000000357628","","","","","","","","","","","","","","","","","","","","","","","",""
"pit-comprehension","5","46356","0.0-2.0-2.0-0.0","battery-v0.2","","""event"",""trial"",""time""
""blur"",""1"",""2150""
""focus"",""1"",""32182""
""fullscreenenter"",""1"",""34677""
","""event"",""trial"",""time""
""blur"",""1"",""2150""
","""event"",""trial"",""time""
""focus"",""1"",""32182""
","""event"",""trial"",""time""
""fullscreenenter"",""1"",""34677""
","
","","","2077.800000011921","[""tiger""]","0","19","13395","5534","","","","","","","","","","","","","","","","","","",""
"pit-instructions","6","46876","0.0-2.0-2.0-1.0","battery-v0.2","","""event"",""trial"",""time""
""blur"",""1"",""2150""
""focus"",""1"",""32182""
""fullscreenenter"",""1"",""34677""
""blur"",""7"",""53441""
""focus"",""7"",""56807""
""blur"",""7"",""58903""
""focus"",""7"",""63773""
""blur"",""7"",""67983""
""focus"",""7"",""73390""
""blur"",""7"",""73929""
""focus"",""7"",""79270""
""blur"",""7"",""80959""
""focus"",""7"",""85896""
""blur"",""7"",""88535""
""focus"",""7"",""92156""
""blur"",""7"",""92575""
""focus"",""7"",""98359""
""blur"",""7"",""100870""
""focus"",""7"",""106784""
""blur"",""7"",""107295""
""focus"",""7"",""114002""
""blur"",""7"",""120166""
""focus"",""7"",""121863""
""blur"",""7"",""126312""
""focus"",""7"",""127559""
""blur"",""7"",""133759""
""focus"",""7"",""136897""
""blur"",""7"",""137512""
""focus"",""7"",""138913""
""blur"",""7"",""139870""
""focus"",""7"",""141392""
","""event"",""trial"",""time""
""blur"",""1"",""2150""
""blur"",""7"",""53441""
""blur"",""7"",""58903""
""blur"",""7"",""67983""
""blur"",""7"",""73929""
""blur"",""7"",""80959""
""blur"",""7"",""88535""
""blur"",""7"",""92575""
""blur"",""7"",""100870""
""blur"",""7"",""107295""
""blur"",""7"",""120166""
""blur"",""7"",""126312""
""blur"",""7"",""133759""
""blur"",""7"",""137512""
""blur"",""7"",""139870""
","""event"",""trial"",""time""
""focus"",""1"",""32182""
""focus"",""7"",""56807""
""focus"",""7"",""63773""
""focus"",""7"",""73390""
""focus"",""7"",""79270""
""focus"",""7"",""85896""
""focus"",""7"",""92156""
""focus"",""7"",""98359""
""focus"",""7"",""106784""
""focus"",""7"",""114002""
""focus"",""7"",""121863""
""focus"",""7"",""127559""
""focus"",""7"",""136897""
""focus"",""7"",""138913""
""focus"",""7"",""141392""
","""event"",""trial"",""time""
""fullscreenenter"",""1"",""34677""
","
","","[{""page_index"":0,""viewing_time"":516.5}]","516.6000000238419","","","","","","","","","","","","","","","","","","","","","","","",""
"pit-instructions","7","149813","0.0-2.0-3.0","battery-v0.2","","""event"",""trial"",""time""
""blur"",""1"",""2150""
""focus"",""1"",""32182""
""fullscreenenter"",""1"",""34677""
""blur"",""7"",""53441""
""focus"",""7"",""56807""
""blur"",""7"",""58903""
""focus"",""7"",""63773""
""blur"",""7"",""67983""
""focus"",""7"",""73390""
""blur"",""7"",""73929""
""focus"",""7"",""79270""
""blur"",""7"",""80959""
""focus"",""7"",""85896""
""blur"",""7"",""88535""
""focus"",""7"",""92156""
""blur"",""7"",""92575""
""focus"",""7"",""98359""
""blur"",""7"",""100870""
""focus"",""7"",""106784""
""blur"",""7"",""107295""
""focus"",""7"",""114002""
""blur"",""7"",""120166""
""focus"",""7"",""121863""
""blur"",""7"",""126312""
""focus"",""7"",""127559""
""blur"",""7"",""133759""
""focus"",""7"",""136897""
""blur"",""7"",""137512""
""focus"",""7"",""138913""
""blur"",""7"",""139870""
""focus"",""7"",""141392""
","""event"",""trial"",""time""
""blur"",""1"",""2150""
""blur"",""7"",""53441""
""blur"",""7"",""58903""
""blur"",""7"",""67983""
""blur"",""7"",""73929""
""blur"",""7"",""80959""
""blur"",""7"",""88535""
""blur"",""7"",""92575""
""blur"",""7"",""100870""
""blur"",""7"",""107295""
""blur"",""7"",""120166""
""blur"",""7"",""126312""
""blur"",""7"",""133759""
""blur"",""7"",""137512""
""blur"",""7"",""139870""
","""event"",""trial"",""time""
""focus"",""1"",""32182""
""focus"",""7"",""56807""
""focus"",""7"",""63773""
""focus"",""7"",""73390""
""focus"",""7"",""79270""
""focus"",""7"",""85896""
""focus"",""7"",""92156""
""focus"",""7"",""98359""
""focus"",""7"",""106784""
""focus"",""7"",""114002""
""focus"",""7"",""121863""
""focus"",""7"",""127559""
""focus"",""7"",""136897""
""focus"",""7"",""138913""
""focus"",""7"",""141392""
","""event"",""trial"",""time""
""fullscreenenter"",""1"",""34677""
","
","","[{""page_index"":0,""viewing_time"":9990},{""page_index"":1,""viewing_time"":6959.799999952316},{""page_index"":2,""viewing_time"":9600.100000023842},{""page_index"":3,""viewing_time"":6103.600000023842},{""page_index"":4,""viewing_time"":6424.099999964237},{""page_index"":5,""viewing_time"":6247.900000035763},{""page_index"":6,""viewing_time"":6216.299999952316},{""page_index"":7,""viewing_time"":8407.600000023842},{""page_index"":8,""viewing_time"":7872.100000023842},{""page_index"":9,""viewing_time"":7535.799999952316},{""page_index"":10,""viewing_time"":7360.100000023842},{""page_index"":11,""viewing_time"":7353.199999988079},{""page_index"":12,""viewing_time"":6150.800000011921},{""page_index"":13,""viewing_time"":6713.399999976158}]","102935","","","","","","","","","","","","","","","","","","","","","","","",""
"pit-trial","8","153259","0.0-2.0-4.0-0.0","battery-v0.2","","""event"",""trial"",""time""
""blur"",""1"",""2150""
""focus"",""1"",""32182""
""fullscreenenter"",""1"",""34677""
""blur"",""7"",""53441""
""focus"",""7"",""56807""
""blur"",""7"",""58903""
""focus"",""7"",""63773""
""blur"",""7"",""67983""
""focus"",""7"",""73390""
""blur"",""7"",""73929""
""focus"",""7"",""79270""
""blur"",""7"",""80959""
""focus"",""7"",""85896""
""blur"",""7"",""88535""
""focus"",""7"",""92156""
""blur"",""7"",""92575""
""focus"",""7"",""98359""
""blur"",""7"",""100870""
""focus"",""7"",""106784""
""blur"",""7"",""107295""
""focus"",""7"",""114002""
""blur"",""7"",""120166""
""focus"",""7"",""121863""
""blur"",""7"",""126312""
""focus"",""7"",""127559""
""blur"",""7"",""133759""
""focus"",""7"",""136897""
""blur"",""7"",""137512""
""focus"",""7"",""138913""
""blur"",""7"",""139870""
""focus"",""7"",""141392""
","""event"",""trial"",""time""
""blur"",""1"",""2150""
""blur"",""7"",""53441""
""blur"",""7"",""58903""
""blur"",""7"",""67983""
""blur"",""7"",""73929""
""blur"",""7"",""80959""
""blur"",""7"",""88535""
""blur"",""7"",""92575""
""blur"",""7"",""100870""
""blur"",""7"",""107295""
""blur"",""7"",""120166""
""blur"",""7"",""126312""
""blur"",""7"",""133759""
""blur"",""7"",""137512""
""blur"",""7"",""139870""
","""event"",""trial"",""time""
""focus"",""1"",""32182""
""focus"",""7"",""56807""
""focus"",""7"",""63773""
""focus"",""7"",""73390""
""focus"",""7"",""79270""
""focus"",""7"",""85896""
""focus"",""7"",""92156""
""focus"",""7"",""98359""
""focus"",""7"",""106784""
""focus"",""7"",""114002""
""focus"",""7"",""121863""
""focus"",""7"",""127559""
""focus"",""7"",""136897""
""focus"",""7"",""138913""
""focus"",""7"",""141392""
","""event"",""trial"",""time""
""fullscreenenter"",""1"",""34677""
","
","","","569.1999999880791","","","19","13395","5534","&#9784;","elianto","#FFFFF080"," "," ","1","&#10004","[1430.3999999761581]","1","0","0","","","","","","","",""
"pit-trial","9","156628","0.0-2.0-4.1-0.1","battery-v0.2","","""event"",""trial"",""time""
""blur"",""1"",""2150""
""focus"",""1"",""32182""
""fullscreenenter"",""1"",""34677""
""blur"",""7"",""53441""
""focus"",""7"",""56807""
""blur"",""7"",""58903""
""focus"",""7"",""63773""
""blur"",""7"",""67983""
""focus"",""7"",""73390""
""blur"",""7"",""73929""
""focus"",""7"",""79270""
""blur"",""7"",""80959""
""focus"",""7"",""85896""
""blur"",""7"",""88535""
""focus"",""7"",""92156""
""blur"",""7"",""92575""
""focus"",""7"",""98359""
""blur"",""7"",""100870""
""focus"",""7"",""106784""
""blur"",""7"",""107295""
""focus"",""7"",""114002""
""blur"",""7"",""120166""
""focus"",""7"",""121863""
""blur"",""7"",""126312""
""focus"",""7"",""127559""
""blur"",""7"",""133759""
""focus"",""7"",""136897""
""blur"",""7"",""137512""
""focus"",""7"",""138913""
""blur"",""7"",""139870""
""focus"",""7"",""141392""
","""event"",""trial"",""time""
""blur"",""1"",""2150""
""blur"",""7"",""53441""
""blur"",""7"",""58903""
""blur"",""7"",""67983""
""blur"",""7"",""73929""
""blur"",""7"",""80959""
""blur"",""7"",""88535""
""blur"",""7"",""92575""
""blur"",""7"",""100870""
""blur"",""7"",""107295""
""blur"",""7"",""120166""
""blur"",""7"",""126312""
""blur"",""7"",""133759""
""blur"",""7"",""137512""
""blur"",""7"",""139870""
","""event"",""trial"",""time""
""focus"",""1"",""32182""
""focus"",""7"",""56807""
""focus"",""7"",""63773""
""focus"",""7"",""73390""
""focus"",""7"",""79270""
""focus"",""7"",""85896""
""focus"",""7"",""92156""
""focus"",""7"",""98359""
""focus"",""7"",""106784""
""focus"",""7"",""114002""
""focus"",""7"",""121863""
""focus"",""7"",""127559""
""focus"",""7"",""136897""
""focus"",""7"",""138913""
""focus"",""7"",""141392""
","""event"",""trial"",""time""
""fullscreenenter"",""1"",""34677""
","
","","","509.69999998807907","","","19","13395","5534","&#9784;","elianto","#FFFFF080"," "," ","1","&#10004","[1360]","1","0","0","","","","","","","",""
"pit-trial","10","159934","0.0-2.0-4.2-0.2","battery-v0.2","","""event"",""trial"",""time""
""blur"",""1"",""2150""
""focus"",""1"",""32182""
""fullscreenenter"",""1"",""34677""
""blur"",""7"",""53441""
""focus"",""7"",""56807""
""blur"",""7"",""58903""
""focus"",""7"",""63773""
""blur"",""7"",""67983""
""focus"",""7"",""73390""
""blur"",""7"",""73929""
""focus"",""7"",""79270""
""blur"",""7"",""80959""
""focus"",""7"",""85896""
""blur"",""7"",""88535""
""focus"",""7"",""92156""
""blur"",""7"",""92575""
""focus"",""7"",""98359""
""blur"",""7"",""100870""
""focus"",""7"",""106784""
""blur"",""7"",""107295""
""focus"",""7"",""114002""
""blur"",""7"",""120166""
""focus"",""7"",""121863""
""blur"",""7"",""126312""
""focus"",""7"",""127559""
""blur"",""7"",""133759""
""focus"",""7"",""136897""
""blur"",""7"",""137512""
""focus"",""7"",""138913""
""blur"",""7"",""139870""
""focus"",""7"",""141392""
","""event"",""trial"",""time""
""blur"",""1"",""2150""
""blur"",""7"",""53441""
""blur"",""7"",""58903""
""blur"",""7"",""67983""
""blur"",""7"",""73929""
""blur"",""7"",""80959""
""blur"",""7"",""88535""
""blur"",""7"",""92575""
""blur"",""7"",""100870""
""blur"",""7"",""107295""
""blur"",""7"",""120166""
""blur"",""7"",""126312""
""blur"",""7"",""133759""
""blur"",""7"",""137512""
""blur"",""7"",""139870""
","""event"",""trial"",""time""
""focus"",""1"",""32182""
""focus"",""7"",""56807""
""focus"",""7"",""63773""
""focus"",""7"",""73390""
""focus"",""7"",""79270""
""focus"",""7"",""85896""
""focus"",""7"",""92156""
""focus"",""7"",""98359""
""focus"",""7"",""106784""
""focus"",""7"",""114002""
""focus"",""7"",""121863""
""focus"",""7"",""127559""
""focus"",""7"",""136897""
""focus"",""7"",""138913""
""focus"",""7"",""141392""
","""event"",""trial"",""time""
""fullscreenenter"",""1"",""34677""
","
","","","439.5","","","19","13395","5534","&#9784;","elianto","#FFFFF080"," "," ","1","&#10004","[1300.300000011921]","1","0","0","","","","","","","",""
"pit-trial","11","163302","0.0-2.0-4.3-0.3","battery-v0.2","","""event"",""trial"",""time""
""blur"",""1"",""2150""
""focus"",""1"",""32182""
""fullscreenenter"",""1"",""34677""
""blur"",""7"",""53441""
""focus"",""7"",""56807""
""blur"",""7"",""58903""
""focus"",""7"",""63773""
""blur"",""7"",""67983""
""focus"",""7"",""73390""
""blur"",""7"",""73929""
""focus"",""7"",""79270""
""blur"",""7"",""80959""
""focus"",""7"",""85896""
""blur"",""7"",""88535""
""focus"",""7"",""92156""
""blur"",""7"",""92575""
""focus"",""7"",""98359""
""blur"",""7"",""100870""
""focus"",""7"",""106784""
""blur"",""7"",""107295""
""focus"",""7"",""114002""
""blur"",""7"",""120166""
""focus"",""7"",""121863""
""blur"",""7"",""126312""
""focus"",""7"",""127559""
""blur"",""7"",""133759""
""focus"",""7"",""136897""
""blur"",""7"",""137512""
""focus"",""7"",""138913""
""blur"",""7"",""139870""
""focus"",""7"",""141392""
","""event"",""trial"",""time""
""blur"",""1"",""2150""
""blur"",""7"",""53441""
""blur"",""7"",""58903""
""blur"",""7"",""67983""
""blur"",""7"",""73929""
""blur"",""7"",""80959""
""blur"",""7"",""88535""
""blur"",""7"",""92575""
""blur"",""7"",""100870""
""blur"",""7"",""107295""
""blur"",""7"",""120166""
""blur"",""7"",""126312""
""blur"",""7"",""133759""
""blur"",""7"",""137512""
""blur"",""7"",""139870""
","""event"",""trial"",""time""
""focus"",""1"",""32182""
""focus"",""7"",""56807""
""focus"",""7"",""63773""
""focus"",""7"",""73390""
""focus"",""7"",""79270""
""focus"",""7"",""85896""
""focus"",""7"",""92156""
""focus"",""7"",""98359""
""focus"",""7"",""106784""
""focus"",""7"",""114002""
""focus"",""7"",""121863""
""focus"",""7"",""127559""
""focus"",""7"",""136897""
""focus"",""7"",""138913""
""focus"",""7"",""141392""
","""event"",""trial"",""time""
""fullscreenenter"",""1"",""34677""
","
","","","500.5","","","19","13395","5534","&#9784;","elianto","#FFFFF080"," "," ","1","&#10004","[1353,2142.900000035763,2643.800000011921,2820.600000023842,3000,3203.699999988079]","6","0","0","","","","","","","",""
"pit-trial","12","166267","0.0-2.0-4.4-0.4","battery-v0.2","","""event"",""trial"",""time""
""blur"",""1"",""2150""
""focus"",""1"",""32182""
""fullscreenenter"",""1"",""34677""
""blur"",""7"",""53441""
""focus"",""7"",""56807""
""blur"",""7"",""58903""
""focus"",""7"",""63773""
""blur"",""7"",""67983""
""focus"",""7"",""73390""
""blur"",""7"",""73929""
""focus"",""7"",""79270""
""blur"",""7"",""80959""
""focus"",""7"",""85896""
""blur"",""7"",""88535""
""focus"",""7"",""92156""
""blur"",""7"",""92575""
""focus"",""7"",""98359""
""blur"",""7"",""100870""
""focus"",""7"",""106784""
""blur"",""7"",""107295""
""focus"",""7"",""114002""
""blur"",""7"",""120166""
""focus"",""7"",""121863""
""blur"",""7"",""126312""
""focus"",""7"",""127559""
""blur"",""7"",""133759""
""focus"",""7"",""136897""
""blur"",""7"",""137512""
""focus"",""7"",""138913""
""blur"",""7"",""139870""
""focus"",""7"",""141392""
""blur"",""13"",""172903""
""focus"",""13"",""330201""
","""event"",""trial"",""time""
""blur"",""1"",""2150""
""blur"",""7"",""53441""
""blur"",""7"",""58903""
""blur"",""7"",""67983""
""blur"",""7"",""73929""
""blur"",""7"",""80959""
""blur"",""7"",""88535""
""blur"",""7"",""92575""
""blur"",""7"",""100870""
""blur"",""7"",""107295""
""blur"",""7"",""120166""
""blur"",""7"",""126312""
""blur"",""7"",""133759""
""blur"",""7"",""137512""
""blur"",""7"",""139870""
""blur"",""13"",""172903""
","""event"",""trial"",""time""
""focus"",""1"",""32182""
""focus"",""7"",""56807""
""focus"",""7"",""63773""
""focus"",""7"",""73390""
""focus"",""7"",""79270""
""focus"",""7"",""85896""
""focus"",""7"",""92156""
""focus"",""7"",""98359""
""focus"",""7"",""106784""
""focus"",""7"",""114002""
""focus"",""7"",""121863""
""focus"",""7"",""127559""
""focus"",""7"",""136897""
""focus"",""7"",""138913""
""focus"",""7"",""141392""
""focus"",""13"",""330201""
","""event"",""trial"",""time""
""fullscreenenter"",""1"",""34677""
","
","","","100.59999996423721","","","19","13395","5534","&#9784;","elianto","#FFFFF080"," "," ","1","&#10004","[277,444.80000001192093,595.8999999761581,951.1999999880791,1107.5,1470.6000000238419,1646.6000000238419,1816.3999999761581,1980.6000000238419,2134.5,2302.699999988079,2449.399999976158,2599.600000023842]","13","0","0","","","","","","","",""
"pit-instructions","13","339915","0.0-2.0-5.0","battery-v0.2","","""event"",""trial"",""time""
""blur"",""1"",""2150""
""focus"",""1"",""32182""
""fullscreenenter"",""1"",""34677""
""blur"",""7"",""53441""
""focus"",""7"",""56807""
""blur"",""7"",""58903""
""focus"",""7"",""63773""
""blur"",""7"",""67983""
""focus"",""7"",""73390""
""blur"",""7"",""73929""
""focus"",""7"",""79270""
""blur"",""7"",""80959""
""focus"",""7"",""85896""
""blur"",""7"",""88535""
""focus"",""7"",""92156""
""blur"",""7"",""92575""
""focus"",""7"",""98359""
""blur"",""7"",""100870""
""focus"",""7"",""106784""
""blur"",""7"",""107295""
""focus"",""7"",""114002""
""blur"",""7"",""120166""
""focus"",""7"",""121863""
""blur"",""7"",""126312""
""focus"",""7"",""127559""
""blur"",""7"",""133759""
""focus"",""7"",""136897""
""blur"",""7"",""137512""
""focus"",""7"",""138913""
""blur"",""7"",""139870""
""focus"",""7"",""141392""
""blur"",""13"",""172903""
""focus"",""13"",""330201""
","""event"",""trial"",""time""
""blur"",""1"",""2150""
""blur"",""7"",""53441""
""blur"",""7"",""58903""
""blur"",""7"",""67983""
""blur"",""7"",""73929""
""blur"",""7"",""80959""
""blur"",""7"",""88535""
""blur"",""7"",""92575""
""blur"",""7"",""100870""
""blur"",""7"",""107295""
""blur"",""7"",""120166""
""blur"",""7"",""126312""
""blur"",""7"",""133759""
""blur"",""7"",""137512""
""blur"",""7"",""139870""
""blur"",""13"",""172903""
","""event"",""trial"",""time""
""focus"",""1"",""32182""
""focus"",""7"",""56807""
""focus"",""7"",""63773""
""focus"",""7"",""73390""
""focus"",""7"",""79270""
""focus"",""7"",""85896""
""focus"",""7"",""92156""
""focus"",""7"",""98359""
""focus"",""7"",""106784""
""focus"",""7"",""114002""
""focus"",""7"",""121863""
""focus"",""7"",""127559""
""focus"",""7"",""136897""
""focus"",""7"",""138913""
""focus"",""7"",""141392""
""focus"",""13"",""330201""
","""event"",""trial"",""time""
""fullscreenenter"",""1"",""34677""
","
","","[{""page_index"":0,""viewing_time"":4015.600000023842},{""page_index"":1,""viewing_time"":159933.80000001192},{""page_index"":2,""viewing_time"":4184.799999952316},{""page_index"":3,""viewing_time"":5512}]","173646.40000003576","","","","","","","","","","","","","","","","","","","","","","","",""
"pit-trial","14","344784","0.0-2.0-6.0-0.0","battery-v0.2","","""event"",""trial"",""time""
""blur"",""1"",""2150""
""focus"",""1"",""32182""
""fullscreenenter"",""1"",""34677""
""blur"",""7"",""53441""
""focus"",""7"",""56807""
""blur"",""7"",""58903""
""focus"",""7"",""63773""
""blur"",""7"",""67983""
""focus"",""7"",""73390""
""blur"",""7"",""73929""
""focus"",""7"",""79270""
""blur"",""7"",""80959""
""focus"",""7"",""85896""
""blur"",""7"",""88535""
""focus"",""7"",""92156""
""blur"",""7"",""92575""
""focus"",""7"",""98359""
""blur"",""7"",""100870""
""focus"",""7"",""106784""
""blur"",""7"",""107295""
""focus"",""7"",""114002""
""blur"",""7"",""120166""
""focus"",""7"",""121863""
""blur"",""7"",""126312""
""focus"",""7"",""127559""
""blur"",""7"",""133759""
""focus"",""7"",""136897""
""blur"",""7"",""137512""
""focus"",""7"",""138913""
""blur"",""7"",""139870""
""focus"",""7"",""141392""
""blur"",""13"",""172903""
""focus"",""13"",""330201""
","""event"",""trial"",""time""
""blur"",""1"",""2150""
""blur"",""7"",""53441""
""blur"",""7"",""58903""
""blur"",""7"",""67983""
""blur"",""7"",""73929""
""blur"",""7"",""80959""
""blur"",""7"",""88535""
""blur"",""7"",""92575""
""blur"",""7"",""100870""
""blur"",""7"",""107295""
""blur"",""7"",""120166""
""blur"",""7"",""126312""
""blur"",""7"",""133759""
""blur"",""7"",""137512""
""blur"",""7"",""139870""
""blur"",""13"",""172903""
","""event"",""trial"",""time""
""focus"",""1"",""32182""
""focus"",""7"",""56807""
""focus"",""7"",""63773""
""focus"",""7"",""73390""
""focus"",""7"",""79270""
""focus"",""7"",""85896""
""focus"",""7"",""92156""
""focus"",""7"",""98359""
""focus"",""7"",""106784""
""focus"",""7"",""114002""
""focus"",""7"",""121863""
""focus"",""7"",""127559""
""focus"",""7"",""136897""
""focus"",""7"",""138913""
""focus"",""7"",""141392""
""focus"",""13"",""330201""
","""event"",""trial"",""time""
""fullscreenenter"",""1"",""34677""
","
","","","-1","","","19","13395","5534","&#9854;","elianto","#FFFFF080","-1","-1","1","&#10004","[]","0","0","1","","","","","","","",""
"pit-trial","15","349651","0.0-2.0-6.1-0.1","battery-v0.2","","""event"",""trial"",""time""
""blur"",""1"",""2150""
""focus"",""1"",""32182""
""fullscreenenter"",""1"",""34677""
""blur"",""7"",""53441""
""focus"",""7"",""56807""
""blur"",""7"",""58903""
""focus"",""7"",""63773""
""blur"",""7"",""67983""
""focus"",""7"",""73390""
""blur"",""7"",""73929""
""focus"",""7"",""79270""
""blur"",""7"",""80959""
""focus"",""7"",""85896""
""blur"",""7"",""88535""
""focus"",""7"",""92156""
""blur"",""7"",""92575""
""focus"",""7"",""98359""
""blur"",""7"",""100870""
""focus"",""7"",""106784""
""blur"",""7"",""107295""
""focus"",""7"",""114002""
""blur"",""7"",""120166""
""focus"",""7"",""121863""
""blur"",""7"",""126312""
""focus"",""7"",""127559""
""blur"",""7"",""133759""
""focus"",""7"",""136897""
""blur"",""7"",""137512""
""focus"",""7"",""138913""
""blur"",""7"",""139870""
""focus"",""7"",""141392""
""blur"",""13"",""172903""
""focus"",""13"",""330201""
","""event"",""trial"",""time""
""blur"",""1"",""2150""
""blur"",""7"",""53441""
""blur"",""7"",""58903""
""blur"",""7"",""67983""
""blur"",""7"",""73929""
""blur"",""7"",""80959""
""blur"",""7"",""88535""
""blur"",""7"",""92575""
""blur"",""7"",""100870""
""blur"",""7"",""107295""
""blur"",""7"",""120166""
""blur"",""7"",""126312""
""blur"",""7"",""133759""
""blur"",""7"",""137512""
""blur"",""7"",""139870""
""blur"",""13"",""172903""
","""event"",""trial"",""time""
""focus"",""1"",""32182""
""focus"",""7"",""56807""
""focus"",""7"",""63773""
""focus"",""7"",""73390""
""focus"",""7"",""79270""
""focus"",""7"",""85896""
""focus"",""7"",""92156""
""focus"",""7"",""98359""
""focus"",""7"",""106784""
""focus"",""7"",""114002""
""focus"",""7"",""121863""
""focus"",""7"",""127559""
""focus"",""7"",""136897""
""focus"",""7"",""138913""
""focus"",""7"",""141392""
""focus"",""13"",""330201""
","""event"",""trial"",""time""
""fullscreenenter"",""1"",""34677""
","
","","","-1","","","19","13395","5534","&#9854;","elianto","#FFFFF080","-1","-1","1","&#10004","[]","0","0","1","","","","","","","",""
"pit-trial","16","354517","0.0-2.0-6.2-0.2","battery-v0.2","","""event"",""trial"",""time""
""blur"",""1"",""2150""
""focus"",""1"",""32182""
""fullscreenenter"",""1"",""34677""
""blur"",""7"",""53441""
""focus"",""7"",""56807""
""blur"",""7"",""58903""
""focus"",""7"",""63773""
""blur"",""7"",""67983""
""focus"",""7"",""73390""
""blur"",""7"",""73929""
""focus"",""7"",""79270""
""blur"",""7"",""80959""
""focus"",""7"",""85896""
""blur"",""7"",""88535""
""focus"",""7"",""92156""
""blur"",""7"",""92575""
""focus"",""7"",""98359""
""blur"",""7"",""100870""
""focus"",""7"",""106784""
""blur"",""7"",""107295""
""focus"",""7"",""114002""
""blur"",""7"",""120166""
""focus"",""7"",""121863""
""blur"",""7"",""126312""
""focus"",""7"",""127559""
""blur"",""7"",""133759""
""focus"",""7"",""136897""
""blur"",""7"",""137512""
""focus"",""7"",""138913""
""blur"",""7"",""139870""
""focus"",""7"",""141392""
""blur"",""13"",""172903""
""focus"",""13"",""330201""
","""event"",""trial"",""time""
""blur"",""1"",""2150""
""blur"",""7"",""53441""
""blur"",""7"",""58903""
""blur"",""7"",""67983""
""blur"",""7"",""73929""
""blur"",""7"",""80959""
""blur"",""7"",""88535""
""blur"",""7"",""92575""
""blur"",""7"",""100870""
""blur"",""7"",""107295""
""blur"",""7"",""120166""
""blur"",""7"",""126312""
""blur"",""7"",""133759""
""blur"",""7"",""137512""
""blur"",""7"",""139870""
""blur"",""13"",""172903""
","""event"",""trial"",""time""
""focus"",""1"",""32182""
""focus"",""7"",""56807""
""focus"",""7"",""63773""
""focus"",""7"",""73390""
""focus"",""7"",""79270""
""focus"",""7"",""85896""
""focus"",""7"",""92156""
""focus"",""7"",""98359""
""focus"",""7"",""106784""
""focus"",""7"",""114002""
""focus"",""7"",""121863""
""focus"",""7"",""127559""
""focus"",""7"",""136897""
""focus"",""7"",""138913""
""focus"",""7"",""141392""
""focus"",""13"",""330201""
","""event"",""trial"",""time""
""fullscreenenter"",""1"",""34677""
","
","","","-1","","","19","13395","5534","&#9854;","elianto","#FFFFF080","-1","-1","1","&#10004","[]","0","0","1","","","","","","","",""
"pit-trial","17","358191","0.0-2.0-6.3-0.3","battery-v0.2","","""event"",""trial"",""time""
""blur"",""1"",""2150""
""focus"",""1"",""32182""
""fullscreenenter"",""1"",""34677""
""blur"",""7"",""53441""
""focus"",""7"",""56807""
""blur"",""7"",""58903""
""focus"",""7"",""63773""
""blur"",""7"",""67983""
""focus"",""7"",""73390""
""blur"",""7"",""73929""
""focus"",""7"",""79270""
""blur"",""7"",""80959""
""focus"",""7"",""85896""
""blur"",""7"",""88535""
""focus"",""7"",""92156""
""blur"",""7"",""92575""
""focus"",""7"",""98359""
""blur"",""7"",""100870""
""focus"",""7"",""106784""
""blur"",""7"",""107295""
""focus"",""7"",""114002""
""blur"",""7"",""120166""
""focus"",""7"",""121863""
""blur"",""7"",""126312""
""focus"",""7"",""127559""
""blur"",""7"",""133759""
""focus"",""7"",""136897""
""blur"",""7"",""137512""
""focus"",""7"",""138913""
""blur"",""7"",""139870""
""focus"",""7"",""141392""
""blur"",""13"",""172903""
""focus"",""13"",""330201""
","""event"",""trial"",""time""
""blur"",""1"",""2150""
""blur"",""7"",""53441""
""blur"",""7"",""58903""
""blur"",""7"",""67983""
""blur"",""7"",""73929""
""blur"",""7"",""80959""
""blur"",""7"",""88535""
""blur"",""7"",""92575""
""blur"",""7"",""100870""
""blur"",""7"",""107295""
""blur"",""7"",""120166""
""blur"",""7"",""126312""
""blur"",""7"",""133759""
""blur"",""7"",""137512""
""blur"",""7"",""139870""
""blur"",""13"",""172903""
","""event"",""trial"",""time""
""focus"",""1"",""32182""
""focus"",""7"",""56807""
""focus"",""7"",""63773""
""focus"",""7"",""73390""
""focus"",""7"",""79270""
""focus"",""7"",""85896""
""focus"",""7"",""92156""
""focus"",""7"",""98359""
""focus"",""7"",""106784""
""focus"",""7"",""114002""
""focus"",""7"",""121863""
""focus"",""7"",""127559""
""focus"",""7"",""136897""
""focus"",""7"",""138913""
""focus"",""7"",""141392""
""focus"",""13"",""330201""
","""event"",""trial"",""time""
""fullscreenenter"",""1"",""34677""
","
","","","808.8000000119209","","","19","13395","5534","&#9854;","elianto","#FFFFF080","-1"," ","0","&#10060","[1659.8999999761581]","1","0","1","","","","","","","",""
"pit-trial","18","363047","0.0-2.0-6.4-0.4","battery-v0.2","","""event"",""trial"",""time""
""blur"",""1"",""2150""
""focus"",""1"",""32182""
""fullscreenenter"",""1"",""34677""
""blur"",""7"",""53441""
""focus"",""7"",""56807""
""blur"",""7"",""58903""
""focus"",""7"",""63773""
""blur"",""7"",""67983""
""focus"",""7"",""73390""
""blur"",""7"",""73929""
""focus"",""7"",""79270""
""blur"",""7"",""80959""
""focus"",""7"",""85896""
""blur"",""7"",""88535""
""focus"",""7"",""92156""
""blur"",""7"",""92575""
""focus"",""7"",""98359""
""blur"",""7"",""100870""
""focus"",""7"",""106784""
""blur"",""7"",""107295""
""focus"",""7"",""114002""
""blur"",""7"",""120166""
""focus"",""7"",""121863""
""blur"",""7"",""126312""
""focus"",""7"",""127559""
""blur"",""7"",""133759""
""focus"",""7"",""136897""
""blur"",""7"",""137512""
""focus"",""7"",""138913""
""blur"",""7"",""139870""
""focus"",""7"",""141392""
""blur"",""13"",""172903""
""focus"",""13"",""330201""
","""event"",""trial"",""time""
""blur"",""1"",""2150""
""blur"",""7"",""53441""
""blur"",""7"",""58903""
""blur"",""7"",""67983""
""blur"",""7"",""73929""
""blur"",""7"",""80959""
""blur"",""7"",""88535""
""blur"",""7"",""92575""
""blur"",""7"",""100870""
""blur"",""7"",""107295""
""blur"",""7"",""120166""
""blur"",""7"",""126312""
""blur"",""7"",""133759""
""blur"",""7"",""137512""
""blur"",""7"",""139870""
""blur"",""13"",""172903""
","""event"",""trial"",""time""
""focus"",""1"",""32182""
""focus"",""7"",""56807""
""focus"",""7"",""63773""
""focus"",""7"",""73390""
""focus"",""7"",""79270""
""focus"",""7"",""85896""
""focus"",""7"",""92156""
""focus"",""7"",""98359""
""focus"",""7"",""106784""
""focus"",""7"",""114002""
""focus"",""7"",""121863""
""focus"",""7"",""127559""
""focus"",""7"",""136897""
""focus"",""7"",""138913""
""focus"",""7"",""141392""
""focus"",""13"",""330201""
","""event"",""trial"",""time""
""fullscreenenter"",""1"",""34677""
","
","","","-1","","","19","13395","5534","&#9854;","elianto","#FFFFF080","-1","-1","1","&#10004","[]","0","0","1","","","","","","","",""
"pit-trial","19","367923","0.0-2.0-6.5-0.5","battery-v0.2","","""event"",""trial"",""time""
""blur"",""1"",""2150""
""focus"",""1"",""32182""
""fullscreenenter"",""1"",""34677""
""blur"",""7"",""53441""
""focus"",""7"",""56807""
""blur"",""7"",""58903""
""focus"",""7"",""63773""
""blur"",""7"",""67983""
""focus"",""7"",""73390""
""blur"",""7"",""73929""
""focus"",""7"",""79270""
""blur"",""7"",""80959""
""focus"",""7"",""85896""
""blur"",""7"",""88535""
""focus"",""7"",""92156""
""blur"",""7"",""92575""
""focus"",""7"",""98359""
""blur"",""7"",""100870""
""focus"",""7"",""106784""
""blur"",""7"",""107295""
""focus"",""7"",""114002""
""blur"",""7"",""120166""
""focus"",""7"",""121863""
""blur"",""7"",""126312""
""focus"",""7"",""127559""
""blur"",""7"",""133759""
""focus"",""7"",""136897""
""blur"",""7"",""137512""
""focus"",""7"",""138913""
""blur"",""7"",""139870""
""focus"",""7"",""141392""
""blur"",""13"",""172903""
""focus"",""13"",""330201""
","""event"",""trial"",""time""
""blur"",""1"",""2150""
""blur"",""7"",""53441""
""blur"",""7"",""58903""
""blur"",""7"",""67983""
""blur"",""7"",""73929""
""blur"",""7"",""80959""
""blur"",""7"",""88535""
""blur"",""7"",""92575""
""blur"",""7"",""100870""
""blur"",""7"",""107295""
""blur"",""7"",""120166""
""blur"",""7"",""126312""
""blur"",""7"",""133759""
""blur"",""7"",""137512""
""blur"",""7"",""139870""
""blur"",""13"",""172903""
","""event"",""trial"",""time""
""focus"",""1"",""32182""
""focus"",""7"",""56807""
""focus"",""7"",""63773""
""focus"",""7"",""73390""
""focus"",""7"",""79270""
""focus"",""7"",""85896""
""focus"",""7"",""92156""
""focus"",""7"",""98359""
""focus"",""7"",""106784""
""focus"",""7"",""114002""
""focus"",""7"",""121863""
""focus"",""7"",""127559""
""focus"",""7"",""136897""
""focus"",""7"",""138913""
""focus"",""7"",""141392""
""focus"",""13"",""330201""
","""event"",""trial"",""time""
""fullscreenenter"",""1"",""34677""
","
","","","-1","","","19","13395","5534","&#9854;","elianto","#FFFFF080","-1","-1","1","&#10004","[]","0","0","1","","","","","","","",""
"pit-trial","20","372777","0.0-2.0-6.6-0.6","battery-v0.2","","""event"",""trial"",""time""
""blur"",""1"",""2150""
""focus"",""1"",""32182""
""fullscreenenter"",""1"",""34677""
""blur"",""7"",""53441""
""focus"",""7"",""56807""
""blur"",""7"",""58903""
""focus"",""7"",""63773""
""blur"",""7"",""67983""
""focus"",""7"",""73390""
""blur"",""7"",""73929""
""focus"",""7"",""79270""
""blur"",""7"",""80959""
""focus"",""7"",""85896""
""blur"",""7"",""88535""
""focus"",""7"",""92156""
""blur"",""7"",""92575""
""focus"",""7"",""98359""
""blur"",""7"",""100870""
""focus"",""7"",""106784""
""blur"",""7"",""107295""
""focus"",""7"",""114002""
""blur"",""7"",""120166""
""focus"",""7"",""121863""
""blur"",""7"",""126312""
""focus"",""7"",""127559""
""blur"",""7"",""133759""
""focus"",""7"",""136897""
""blur"",""7"",""137512""
""focus"",""7"",""138913""
""blur"",""7"",""139870""
""focus"",""7"",""141392""
""blur"",""13"",""172903""
""focus"",""13"",""330201""
","""event"",""trial"",""time""
""blur"",""1"",""2150""
""blur"",""7"",""53441""
""blur"",""7"",""58903""
""blur"",""7"",""67983""
""blur"",""7"",""73929""
""blur"",""7"",""80959""
""blur"",""7"",""88535""
""blur"",""7"",""92575""
""blur"",""7"",""100870""
""blur"",""7"",""107295""
""blur"",""7"",""120166""
""blur"",""7"",""126312""
""blur"",""7"",""133759""
""blur"",""7"",""137512""
""blur"",""7"",""139870""
""blur"",""13"",""172903""
","""event"",""trial"",""time""
""focus"",""1"",""32182""
""focus"",""7"",""56807""
""focus"",""7"",""63773""
""focus"",""7"",""73390""
""focus"",""7"",""79270""
""focus"",""7"",""85896""
""focus"",""7"",""92156""
""focus"",""7"",""98359""
""focus"",""7"",""106784""
""focus"",""7"",""114002""
""focus"",""7"",""121863""
""focus"",""7"",""127559""
""focus"",""7"",""136897""
""focus"",""7"",""138913""
""focus"",""7"",""141392""
""focus"",""13"",""330201""
","""event"",""trial"",""time""
""fullscreenenter"",""1"",""34677""
","
","","","-1","","","19","13395","5534","&#9854;","elianto","#FFFFF080","-1","-1","1","&#10004","[]","0","0","1","","","","","","","",""
"pit-instructions","21","386314","0.0-2.0-6.6-1.6-0.6","battery-v0.2","","""event"",""trial"",""time""
""blur"",""1"",""2150""
""focus"",""1"",""32182""
""fullscreenenter"",""1"",""34677""
""blur"",""7"",""53441""
""focus"",""7"",""56807""
""blur"",""7"",""58903""
""focus"",""7"",""63773""
""blur"",""7"",""67983""
""focus"",""7"",""73390""
""blur"",""7"",""73929""
""focus"",""7"",""79270""
""blur"",""7"",""80959""
""focus"",""7"",""85896""
""blur"",""7"",""88535""
""focus"",""7"",""92156""
""blur"",""7"",""92575""
""focus"",""7"",""98359""
""blur"",""7"",""100870""
""focus"",""7"",""106784""
""blur"",""7"",""107295""
""focus"",""7"",""114002""
""blur"",""7"",""120166""
""focus"",""7"",""121863""
""blur"",""7"",""126312""
""focus"",""7"",""127559""
""blur"",""7"",""133759""
""focus"",""7"",""136897""
""blur"",""7"",""137512""
""focus"",""7"",""138913""
""blur"",""7"",""139870""
""focus"",""7"",""141392""
""blur"",""13"",""172903""
""focus"",""13"",""330201""
""blur"",""22"",""437784""
""focus"",""22"",""447774""
""blur"",""22"",""463419""
""focus"",""22"",""633324""
""blur"",""22"",""647342""
""focus"",""22"",""650760""
","""event"",""trial"",""time""
""blur"",""1"",""2150""
""blur"",""7"",""53441""
""blur"",""7"",""58903""
""blur"",""7"",""67983""
""blur"",""7"",""73929""
""blur"",""7"",""80959""
""blur"",""7"",""88535""
""blur"",""7"",""92575""
""blur"",""7"",""100870""
""blur"",""7"",""107295""
""blur"",""7"",""120166""
""blur"",""7"",""126312""
""blur"",""7"",""133759""
""blur"",""7"",""137512""
""blur"",""7"",""139870""
""blur"",""13"",""172903""
""blur"",""22"",""437784""
""blur"",""22"",""463419""
""blur"",""22"",""647342""
","""event"",""trial"",""time""
""focus"",""1"",""32182""
""focus"",""7"",""56807""
""focus"",""7"",""63773""
""focus"",""7"",""73390""
""focus"",""7"",""79270""
""focus"",""7"",""85896""
""focus"",""7"",""92156""
""focus"",""7"",""98359""
""focus"",""7"",""106784""
""focus"",""7"",""114002""
""focus"",""7"",""121863""
""focus"",""7"",""127559""
""focus"",""7"",""136897""
""focus"",""7"",""138913""
""focus"",""7"",""141392""
""focus"",""13"",""330201""
""focus"",""22"",""447774""
""focus"",""22"",""633324""
""focus"",""22"",""650760""
","""event"",""trial"",""time""
""fullscreenenter"",""1"",""34677""
","
","","[{""page_index"":0,""viewing_time"":5370.399999976158},{""page_index"":1,""viewing_time"":8165.399999976158}]","13536","","","","","","","","","","","","","","","","","","","","","","","",""
"pit-instructions","22","683683","0.0-2.0-7.0","battery-v0.2","","""event"",""trial"",""time""
""blur"",""1"",""2150""
""focus"",""1"",""32182""
""fullscreenenter"",""1"",""34677""
""blur"",""7"",""53441""
""focus"",""7"",""56807""
""blur"",""7"",""58903""
""focus"",""7"",""63773""
""blur"",""7"",""67983""
""focus"",""7"",""73390""
""blur"",""7"",""73929""
""focus"",""7"",""79270""
""blur"",""7"",""80959""
""focus"",""7"",""85896""
""blur"",""7"",""88535""
""focus"",""7"",""92156""
""blur"",""7"",""92575""
""focus"",""7"",""98359""
""blur"",""7"",""100870""
""focus"",""7"",""106784""
""blur"",""7"",""107295""
""focus"",""7"",""114002""
""blur"",""7"",""120166""
""focus"",""7"",""121863""
""blur"",""7"",""126312""
""focus"",""7"",""127559""
""blur"",""7"",""133759""
""focus"",""7"",""136897""
""blur"",""7"",""137512""
""focus"",""7"",""138913""
""blur"",""7"",""139870""
""focus"",""7"",""141392""
""blur"",""13"",""172903""
""focus"",""13"",""330201""
""blur"",""22"",""437784""
""focus"",""22"",""447774""
""blur"",""22"",""463419""
""focus"",""22"",""633324""
""blur"",""22"",""647342""
""focus"",""22"",""650760""
","""event"",""trial"",""time""
""blur"",""1"",""2150""
""blur"",""7"",""53441""
""blur"",""7"",""58903""
""blur"",""7"",""67983""
""blur"",""7"",""73929""
""blur"",""7"",""80959""
""blur"",""7"",""88535""
""blur"",""7"",""92575""
""blur"",""7"",""100870""
""blur"",""7"",""107295""
""blur"",""7"",""120166""
""blur"",""7"",""126312""
""blur"",""7"",""133759""
""blur"",""7"",""137512""
""blur"",""7"",""139870""
""blur"",""13"",""172903""
""blur"",""22"",""437784""
""blur"",""22"",""463419""
""blur"",""22"",""647342""
","""event"",""trial"",""time""
""focus"",""1"",""32182""
""focus"",""7"",""56807""
""focus"",""7"",""63773""
""focus"",""7"",""73390""
""focus"",""7"",""79270""
""focus"",""7"",""85896""
""focus"",""7"",""92156""
""focus"",""7"",""98359""
""focus"",""7"",""106784""
""focus"",""7"",""114002""
""focus"",""7"",""121863""
""focus"",""7"",""127559""
""focus"",""7"",""136897""
""focus"",""7"",""138913""
""focus"",""7"",""141392""
""focus"",""13"",""330201""
""focus"",""22"",""447774""
""focus"",""22"",""633324""
""focus"",""22"",""650760""
","""event"",""trial"",""time""
""fullscreenenter"",""1"",""34677""
","
","","[{""page_index"":0,""viewing_time"":5059.5},{""page_index"":1,""viewing_time"":8399},{""page_index"":2,""viewing_time"":5802.800000011921},{""page_index"":3,""viewing_time"":5253.900000035763},{""page_index"":4,""viewing_time"":5702.899999976158},{""page_index"":5,""viewing_time"":5054.300000011921},{""page_index"":6,""viewing_time"":5040},{""page_index"":7,""viewing_time"":21630.80000001192},{""page_index"":8,""viewing_time"":6677.199999988079},{""page_index"":9,""viewing_time"":5309.899999976158},{""page_index"":10,""viewing_time"":174187.69999998808},{""page_index"":11,""viewing_time"":4216.800000011921},{""page_index"":12,""viewing_time"":7248.400000035763},{""page_index"":13,""viewing_time"":7713.099999964237},{""page_index"":14,""viewing_time"":6971.300000011921},{""page_index"":15,""viewing_time"":9506.5},{""page_index"":16,""viewing_time"":6585.5},{""page_index"":17,""viewing_time"":7007.300000011921}]","297367.2000000477","","","","","","","","","","","","","","","","","","","","","","","",""
"pit-trial","23","687066","0.0-2.0-8.0-0.0","battery-v0.2","","""event"",""trial"",""time""
""blur"",""1"",""2150""
""focus"",""1"",""32182""
""fullscreenenter"",""1"",""34677""
""blur"",""7"",""53441""
""focus"",""7"",""56807""
""blur"",""7"",""58903""
""focus"",""7"",""63773""
""blur"",""7"",""67983""
""focus"",""7"",""73390""
""blur"",""7"",""73929""
""focus"",""7"",""79270""
""blur"",""7"",""80959""
""focus"",""7"",""85896""
""blur"",""7"",""88535""
""focus"",""7"",""92156""
""blur"",""7"",""92575""
""focus"",""7"",""98359""
""blur"",""7"",""100870""
""focus"",""7"",""106784""
""blur"",""7"",""107295""
""focus"",""7"",""114002""
""blur"",""7"",""120166""
""focus"",""7"",""121863""
""blur"",""7"",""126312""
""focus"",""7"",""127559""
""blur"",""7"",""133759""
""focus"",""7"",""136897""
""blur"",""7"",""137512""
""focus"",""7"",""138913""
""blur"",""7"",""139870""
""focus"",""7"",""141392""
""blur"",""13"",""172903""
""focus"",""13"",""330201""
""blur"",""22"",""437784""
""focus"",""22"",""447774""
""blur"",""22"",""463419""
""focus"",""22"",""633324""
""blur"",""22"",""647342""
""focus"",""22"",""650760""
","""event"",""trial"",""time""
""blur"",""1"",""2150""
""blur"",""7"",""53441""
""blur"",""7"",""58903""
""blur"",""7"",""67983""
""blur"",""7"",""73929""
""blur"",""7"",""80959""
""blur"",""7"",""88535""
""blur"",""7"",""92575""
""blur"",""7"",""100870""
""blur"",""7"",""107295""
""blur"",""7"",""120166""
""blur"",""7"",""126312""
""blur"",""7"",""133759""
""blur"",""7"",""137512""
""blur"",""7"",""139870""
""blur"",""13"",""172903""
""blur"",""22"",""437784""
""blur"",""22"",""463419""
""blur"",""22"",""647342""
","""event"",""trial"",""time""
""focus"",""1"",""32182""
""focus"",""7"",""56807""
""focus"",""7"",""63773""
""focus"",""7"",""73390""
""focus"",""7"",""79270""
""focus"",""7"",""85896""
""focus"",""7"",""92156""
""focus"",""7"",""98359""
""focus"",""7"",""106784""
""focus"",""7"",""114002""
""focus"",""7"",""121863""
""focus"",""7"",""127559""
""focus"",""7"",""136897""
""focus"",""7"",""138913""
""focus"",""7"",""141392""
""focus"",""13"",""330201""
""focus"",""22"",""447774""
""focus"",""22"",""633324""
""focus"",""22"",""650760""
","""event"",""trial"",""time""
""fullscreenenter"",""1"",""34677""
","
","","","509.2999999523163","","","19","13395","5534","&#9776;","elianto","#3366ff99"," "," ","1","+10","[1369.699999988079]","1","0","1","","","","","","","",""
"pit-trial","24","690423","0.0-2.0-8.0-1.0","battery-v0.2","","""event"",""trial"",""time""
""blur"",""1"",""2150""
""focus"",""1"",""32182""
""fullscreenenter"",""1"",""34677""
""blur"",""7"",""53441""
""focus"",""7"",""56807""
""blur"",""7"",""58903""
""focus"",""7"",""63773""
""blur"",""7"",""67983""
""focus"",""7"",""73390""
""blur"",""7"",""73929""
""focus"",""7"",""79270""
""blur"",""7"",""80959""
""focus"",""7"",""85896""
""blur"",""7"",""88535""
""focus"",""7"",""92156""
""blur"",""7"",""92575""
""focus"",""7"",""98359""
""blur"",""7"",""100870""
""focus"",""7"",""106784""
""blur"",""7"",""107295""
""focus"",""7"",""114002""
""blur"",""7"",""120166""
""focus"",""7"",""121863""
""blur"",""7"",""126312""
""focus"",""7"",""127559""
""blur"",""7"",""133759""
""focus"",""7"",""136897""
""blur"",""7"",""137512""
""focus"",""7"",""138913""
""blur"",""7"",""139870""
""focus"",""7"",""141392""
""blur"",""13"",""172903""
""focus"",""13"",""330201""
""blur"",""22"",""437784""
""focus"",""22"",""447774""
""blur"",""22"",""463419""
""focus"",""22"",""633324""
""blur"",""22"",""647342""
""focus"",""22"",""650760""
","""event"",""trial"",""time""
""blur"",""1"",""2150""
""blur"",""7"",""53441""
""blur"",""7"",""58903""
""blur"",""7"",""67983""
""blur"",""7"",""73929""
""blur"",""7"",""80959""
""blur"",""7"",""88535""
""blur"",""7"",""92575""
""blur"",""7"",""100870""
""blur"",""7"",""107295""
""blur"",""7"",""120166""
""blur"",""7"",""126312""
""blur"",""7"",""133759""
""blur"",""7"",""137512""
""blur"",""7"",""139870""
""blur"",""13"",""172903""
""blur"",""22"",""437784""
""blur"",""22"",""463419""
""blur"",""22"",""647342""
","""event"",""trial"",""time""
""focus"",""1"",""32182""
""focus"",""7"",""56807""
""focus"",""7"",""63773""
""focus"",""7"",""73390""
""focus"",""7"",""79270""
""focus"",""7"",""85896""
""focus"",""7"",""92156""
""focus"",""7"",""98359""
""focus"",""7"",""106784""
""focus"",""7"",""114002""
""focus"",""7"",""121863""
""focus"",""7"",""127559""
""focus"",""7"",""136897""
""focus"",""7"",""138913""
""focus"",""7"",""141392""
""focus"",""13"",""330201""
""focus"",""22"",""447774""
""focus"",""22"",""633324""
""focus"",""22"",""650760""
","""event"",""trial"",""time""
""fullscreenenter"",""1"",""34677""
","
","","","490.10000002384186","","","19","13395","5534","&#9776;","elianto","#3366ff99"," "," ","1","+10","[225.4000000357628,1344.4000000357628,1931.4000000357628,2164.699999988079,2354.900000035763,2545.400000035763,2753.400000035763,2953.400000035763,3149.199999988079,3327.199999988079]","10","0","1","","","","","","","",""
"pit-trial","25","693326","0.0-2.0-8.0-2.0","battery-v0.2","","""event"",""trial"",""time""
""blur"",""1"",""2150""
""focus"",""1"",""32182""
""fullscreenenter"",""1"",""34677""
""blur"",""7"",""53441""
""focus"",""7"",""56807""
""blur"",""7"",""58903""
""focus"",""7"",""63773""
""blur"",""7"",""67983""
""focus"",""7"",""73390""
""blur"",""7"",""73929""
""focus"",""7"",""79270""
""blur"",""7"",""80959""
""focus"",""7"",""85896""
""blur"",""7"",""88535""
""focus"",""7"",""92156""
""blur"",""7"",""92575""
""focus"",""7"",""98359""
""blur"",""7"",""100870""
""focus"",""7"",""106784""
""blur"",""7"",""107295""
""focus"",""7"",""114002""
""blur"",""7"",""120166""
""focus"",""7"",""121863""
""blur"",""7"",""126312""
""focus"",""7"",""127559""
""blur"",""7"",""133759""
""focus"",""7"",""136897""
""blur"",""7"",""137512""
""focus"",""7"",""138913""
""blur"",""7"",""139870""
""focus"",""7"",""141392""
""blur"",""13"",""172903""
""focus"",""13"",""330201""
""blur"",""22"",""437784""
""focus"",""22"",""447774""
""blur"",""22"",""463419""
""focus"",""22"",""633324""
""blur"",""22"",""647342""
""focus"",""22"",""650760""
","""event"",""trial"",""time""
""blur"",""1"",""2150""
""blur"",""7"",""53441""
""blur"",""7"",""58903""
""blur"",""7"",""67983""
""blur"",""7"",""73929""
""blur"",""7"",""80959""
""blur"",""7"",""88535""
""blur"",""7"",""92575""
""blur"",""7"",""100870""
""blur"",""7"",""107295""
""blur"",""7"",""120166""
""blur"",""7"",""126312""
""blur"",""7"",""133759""
""blur"",""7"",""137512""
""blur"",""7"",""139870""
""blur"",""13"",""172903""
""blur"",""22"",""437784""
""blur"",""22"",""463419""
""blur"",""22"",""647342""
","""event"",""trial"",""time""
""focus"",""1"",""32182""
""focus"",""7"",""56807""
""focus"",""7"",""63773""
""focus"",""7"",""73390""
""focus"",""7"",""79270""
""focus"",""7"",""85896""
""focus"",""7"",""92156""
""focus"",""7"",""98359""
""focus"",""7"",""106784""
""focus"",""7"",""114002""
""focus"",""7"",""121863""
""focus"",""7"",""127559""
""focus"",""7"",""136897""
""focus"",""7"",""138913""
""focus"",""7"",""141392""
""focus"",""13"",""330201""
""focus"",""22"",""447774""
""focus"",""22"",""633324""
""focus"",""22"",""650760""
","""event"",""trial"",""time""
""fullscreenenter"",""1"",""34677""
","
","","","41","","","19","13395","5534","&#9776;","elianto","#3366ff99"," "," ","1","+10","[151.0999999642372,350.5,531.1999999880791,711,895,1262.699999988079,1726.0999999642372,1969,2224.099999964237,2377.199999988079,2583.300000011921,2764.399999976158]","12","0","1","","","","","","","",""
"pit-trial","26","696350","0.0-2.0-8.0-3.0","battery-v0.2","","""event"",""trial"",""time""
""blur"",""1"",""2150""
""focus"",""1"",""32182""
""fullscreenenter"",""1"",""34677""
""blur"",""7"",""53441""
""focus"",""7"",""56807""
""blur"",""7"",""58903""
""focus"",""7"",""63773""
""blur"",""7"",""67983""
""focus"",""7"",""73390""
""blur"",""7"",""73929""
""focus"",""7"",""79270""
""blur"",""7"",""80959""
""focus"",""7"",""85896""
""blur"",""7"",""88535""
""focus"",""7"",""92156""
""blur"",""7"",""92575""
""focus"",""7"",""98359""
""blur"",""7"",""100870""
""focus"",""7"",""106784""
""blur"",""7"",""107295""
""focus"",""7"",""114002""
""blur"",""7"",""120166""
""focus"",""7"",""121863""
""blur"",""7"",""126312""
""focus"",""7"",""127559""
""blur"",""7"",""133759""
""focus"",""7"",""136897""
""blur"",""7"",""137512""
""focus"",""7"",""138913""
""blur"",""7"",""139870""
""focus"",""7"",""141392""
""blur"",""13"",""172903""
""focus"",""13"",""330201""
""blur"",""22"",""437784""
""focus"",""22"",""447774""
""blur"",""22"",""463419""
""focus"",""22"",""633324""
""blur"",""22"",""647342""
""focus"",""22"",""650760""
","""event"",""trial"",""time""
""blur"",""1"",""2150""
""blur"",""7"",""53441""
""blur"",""7"",""58903""
""blur"",""7"",""67983""
""blur"",""7"",""73929""
""blur"",""7"",""80959""
""blur"",""7"",""88535""
""blur"",""7"",""92575""
""blur"",""7"",""100870""
""blur"",""7"",""107295""
""blur"",""7"",""120166""
""blur"",""7"",""126312""
""blur"",""7"",""133759""
""blur"",""7"",""137512""
""blur"",""7"",""139870""
""blur"",""13"",""172903""
""blur"",""22"",""437784""
""blur"",""22"",""463419""
""blur"",""22"",""647342""
","""event"",""trial"",""time""
""focus"",""1"",""32182""
""focus"",""7"",""56807""
""focus"",""7"",""63773""
""focus"",""7"",""73390""
""focus"",""7"",""79270""
""focus"",""7"",""85896""
""focus"",""7"",""92156""
""focus"",""7"",""98359""
""focus"",""7"",""106784""
""focus"",""7"",""114002""
""focus"",""7"",""121863""
""focus"",""7"",""127559""
""focus"",""7"",""136897""
""focus"",""7"",""138913""
""focus"",""7"",""141392""
""focus"",""13"",""330201""
""focus"",""22"",""447774""
""focus"",""22"",""633324""
""focus"",""22"",""650760""
","""event"",""trial"",""time""
""fullscreenenter"",""1"",""34677""
","
","","","165.4000000357628","","","19","13395","5534","&#9776;","elianto","#3366ff99"," "," ","1","0","[794.4000000357628,1016.5,1193.9000000357628,1380.1000000238419,1576.300000011921,1936.300000011921,2174.699999988079,2341.600000023842,2480.600000023842,2807.800000011921,3023.800000011921]","11","0","1","","","","","","","",""
"pit-trial","27","699321","0.0-2.0-8.0-4.0","battery-v0.2","","""event"",""trial"",""time""
""blur"",""1"",""2150""
""focus"",""1"",""32182""
""fullscreenenter"",""1"",""34677""
""blur"",""7"",""53441""
""focus"",""7"",""56807""
""blur"",""7"",""58903""
""focus"",""7"",""63773""
""blur"",""7"",""67983""
""focus"",""7"",""73390""
""blur"",""7"",""73929""
""focus"",""7"",""79270""
""blur"",""7"",""80959""
""focus"",""7"",""85896""
""blur"",""7"",""88535""
""focus"",""7"",""92156""
""blur"",""7"",""92575""
""focus"",""7"",""98359""
""blur"",""7"",""100870""
""focus"",""7"",""106784""
""blur"",""7"",""107295""
""focus"",""7"",""114002""
""blur"",""7"",""120166""
""focus"",""7"",""121863""
""blur"",""7"",""126312""
""focus"",""7"",""127559""
""blur"",""7"",""133759""
""focus"",""7"",""136897""
""blur"",""7"",""137512""
""focus"",""7"",""138913""
""blur"",""7"",""139870""
""focus"",""7"",""141392""
""blur"",""13"",""172903""
""focus"",""13"",""330201""
""blur"",""22"",""437784""
""focus"",""22"",""447774""
""blur"",""22"",""463419""
""focus"",""22"",""633324""
""blur"",""22"",""647342""
""focus"",""22"",""650760""
","""event"",""trial"",""time""
""blur"",""1"",""2150""
""blur"",""7"",""53441""
""blur"",""7"",""58903""
""blur"",""7"",""67983""
""blur"",""7"",""73929""
""blur"",""7"",""80959""
""blur"",""7"",""88535""
""blur"",""7"",""92575""
""blur"",""7"",""100870""
""blur"",""7"",""107295""
""blur"",""7"",""120166""
""blur"",""7"",""126312""
""blur"",""7"",""133759""
""blur"",""7"",""137512""
""blur"",""7"",""139870""
""blur"",""13"",""172903""
""blur"",""22"",""437784""
""blur"",""22"",""463419""
""blur"",""22"",""647342""
","""event"",""trial"",""time""
""focus"",""1"",""32182""
""focus"",""7"",""56807""
""focus"",""7"",""63773""
""focus"",""7"",""73390""
""focus"",""7"",""79270""
""focus"",""7"",""85896""
""focus"",""7"",""92156""
""focus"",""7"",""98359""
""focus"",""7"",""106784""
""focus"",""7"",""114002""
""focus"",""7"",""121863""
""focus"",""7"",""127559""
""focus"",""7"",""136897""
""focus"",""7"",""138913""
""focus"",""7"",""141392""
""focus"",""13"",""330201""
""focus"",""22"",""447774""
""focus"",""22"",""633324""
""focus"",""22"",""650760""
","""event"",""trial"",""time""
""fullscreenenter"",""1"",""34677""
","
","","","101.80000001192093","","","19","13395","5534","&#9776;","elianto","#3366ff99"," "," ","1","+10","[188.9000000357628,408.60000002384186,568.3000000119209,768.7000000476837,961.3000000119209,1139.5,1332.4000000357628,1690.5,1861.800000011921,2236.800000011921,2456,2823.800000011921]","12","0","1","","","","","","","",""
"pit-trial","28","702208","0.0-2.0-8.1-0.1","battery-v0.2","","""event"",""trial"",""time""
""blur"",""1"",""2150""
""focus"",""1"",""32182""
""fullscreenenter"",""1"",""34677""
""blur"",""7"",""53441""
""focus"",""7"",""56807""
""blur"",""7"",""58903""
""focus"",""7"",""63773""
""blur"",""7"",""67983""
""focus"",""7"",""73390""
""blur"",""7"",""73929""
""focus"",""7"",""79270""
""blur"",""7"",""80959""
""focus"",""7"",""85896""
""blur"",""7"",""88535""
""focus"",""7"",""92156""
""blur"",""7"",""92575""
""focus"",""7"",""98359""
""blur"",""7"",""100870""
""focus"",""7"",""106784""
""blur"",""7"",""107295""
""focus"",""7"",""114002""
""blur"",""7"",""120166""
""focus"",""7"",""121863""
""blur"",""7"",""126312""
""focus"",""7"",""127559""
""blur"",""7"",""133759""
""focus"",""7"",""136897""
""blur"",""7"",""137512""
""focus"",""7"",""138913""
""blur"",""7"",""139870""
""focus"",""7"",""141392""
""blur"",""13"",""172903""
""focus"",""13"",""330201""
""blur"",""22"",""437784""
""focus"",""22"",""447774""
""blur"",""22"",""463419""
""focus"",""22"",""633324""
""blur"",""22"",""647342""
""focus"",""22"",""650760""
","""event"",""trial"",""time""
""blur"",""1"",""2150""
""blur"",""7"",""53441""
""blur"",""7"",""58903""
""blur"",""7"",""67983""
""blur"",""7"",""73929""
""blur"",""7"",""80959""
""blur"",""7"",""88535""
""blur"",""7"",""92575""
""blur"",""7"",""100870""
""blur"",""7"",""107295""
""blur"",""7"",""120166""
""blur"",""7"",""126312""
""blur"",""7"",""133759""
""blur"",""7"",""137512""
""blur"",""7"",""139870""
""blur"",""13"",""172903""
""blur"",""22"",""437784""
""blur"",""22"",""463419""
""blur"",""22"",""647342""
","""event"",""trial"",""time""
""focus"",""1"",""32182""
""focus"",""7"",""56807""
""focus"",""7"",""63773""
""focus"",""7"",""73390""
""focus"",""7"",""79270""
""focus"",""7"",""85896""
""focus"",""7"",""92156""
""focus"",""7"",""98359""
""focus"",""7"",""106784""
""focus"",""7"",""114002""
""focus"",""7"",""121863""
""focus"",""7"",""127559""
""focus"",""7"",""136897""
""focus"",""7"",""138913""
""focus"",""7"",""141392""
""focus"",""13"",""330201""
""focus"",""22"",""447774""
""focus"",""22"",""633324""
""focus"",""22"",""650760""
","""event"",""trial"",""time""
""fullscreenenter"",""1"",""34677""
","
","","","17","","","19","13395","5534","&#9776;","elianto","#3366ff99"," "," ","1","+10","[91.89999997615814,312,507.2999999523163,681.3999999761581,873.0999999642372,1076,1241,1427,1646.5999999642372,1859.7999999523163,2028.7999999523163,2166.7999999523163,2345,2555.199999988079,2776.699999988079]","15","0","1","","","","","","","",""
"pit-trial","29","705070","0.0-2.0-8.1-1.1","battery-v0.2","","""event"",""trial"",""time""
""blur"",""1"",""2150""
""focus"",""1"",""32182""
""fullscreenenter"",""1"",""34677""
""blur"",""7"",""53441""
""focus"",""7"",""56807""
""blur"",""7"",""58903""
""focus"",""7"",""63773""
""blur"",""7"",""67983""
""focus"",""7"",""73390""
""blur"",""7"",""73929""
""focus"",""7"",""79270""
""blur"",""7"",""80959""
""focus"",""7"",""85896""
""blur"",""7"",""88535""
""focus"",""7"",""92156""
""blur"",""7"",""92575""
""focus"",""7"",""98359""
""blur"",""7"",""100870""
""focus"",""7"",""106784""
""blur"",""7"",""107295""
""focus"",""7"",""114002""
""blur"",""7"",""120166""
""focus"",""7"",""121863""
""blur"",""7"",""126312""
""focus"",""7"",""127559""
""blur"",""7"",""133759""
""focus"",""7"",""136897""
""blur"",""7"",""137512""
""focus"",""7"",""138913""
""blur"",""7"",""139870""
""focus"",""7"",""141392""
""blur"",""13"",""172903""
""focus"",""13"",""330201""
""blur"",""22"",""437784""
""focus"",""22"",""447774""
""blur"",""22"",""463419""
""focus"",""22"",""633324""
""blur"",""22"",""647342""
""focus"",""22"",""650760""
","""event"",""trial"",""time""
""blur"",""1"",""2150""
""blur"",""7"",""53441""
""blur"",""7"",""58903""
""blur"",""7"",""67983""
""blur"",""7"",""73929""
""blur"",""7"",""80959""
""blur"",""7"",""88535""
""blur"",""7"",""92575""
""blur"",""7"",""100870""
""blur"",""7"",""107295""
""blur"",""7"",""120166""
""blur"",""7"",""126312""
""blur"",""7"",""133759""
""blur"",""7"",""137512""
""blur"",""7"",""139870""
""blur"",""13"",""172903""
""blur"",""22"",""437784""
""blur"",""22"",""463419""
""blur"",""22"",""647342""
","""event"",""trial"",""time""
""focus"",""1"",""32182""
""focus"",""7"",""56807""
""focus"",""7"",""63773""
""focus"",""7"",""73390""
""focus"",""7"",""79270""
""focus"",""7"",""85896""
""focus"",""7"",""92156""
""focus"",""7"",""98359""
""focus"",""7"",""106784""
""focus"",""7"",""114002""
""focus"",""7"",""121863""
""focus"",""7"",""127559""
""focus"",""7"",""136897""
""focus"",""7"",""138913""
""focus"",""7"",""141392""
""focus"",""13"",""330201""
""focus"",""22"",""447774""
""focus"",""22"",""633324""
""focus"",""22"",""650760""
","""event"",""trial"",""time""
""fullscreenenter"",""1"",""34677""
","
","","","0.800000011920929","","","19","13395","5534","&#9776;","elianto","#3366ff99"," "," ","1","+10","[39.10000002384186,256.5,466.19999998807907,663.3000000119209,853.8000000119209,974.6999999880791,1215.199999988079,1413.1000000238419,1595.1000000238419,1775.199999988079,1923.3999999761581,2136.5,2359.5,2496.100000023842,2691.899999976158]","15","0","1","","","","","","","",""
"pit-trial","30","708038","0.0-2.0-8.1-2.1","battery-v0.2","","""event"",""trial"",""time""
""blur"",""1"",""2150""
""focus"",""1"",""32182""
""fullscreenenter"",""1"",""34677""
""blur"",""7"",""53441""
""focus"",""7"",""56807""
""blur"",""7"",""58903""
""focus"",""7"",""63773""
""blur"",""7"",""67983""
""focus"",""7"",""73390""
""blur"",""7"",""73929""
""focus"",""7"",""79270""
""blur"",""7"",""80959""
""focus"",""7"",""85896""
""blur"",""7"",""88535""
""focus"",""7"",""92156""
""blur"",""7"",""92575""
""focus"",""7"",""98359""
""blur"",""7"",""100870""
""focus"",""7"",""106784""
""blur"",""7"",""107295""
""focus"",""7"",""114002""
""blur"",""7"",""120166""
""focus"",""7"",""121863""
""blur"",""7"",""126312""
""focus"",""7"",""127559""
""blur"",""7"",""133759""
""focus"",""7"",""136897""
""blur"",""7"",""137512""
""focus"",""7"",""138913""
""blur"",""7"",""139870""
""focus"",""7"",""141392""
""blur"",""13"",""172903""
""focus"",""13"",""330201""
""blur"",""22"",""437784""
""focus"",""22"",""447774""
""blur"",""22"",""463419""
""focus"",""22"",""633324""
""blur"",""22"",""647342""
""focus"",""22"",""650760""
","""event"",""trial"",""time""
""blur"",""1"",""2150""
""blur"",""7"",""53441""
""blur"",""7"",""58903""
""blur"",""7"",""67983""
""blur"",""7"",""73929""
""blur"",""7"",""80959""
""blur"",""7"",""88535""
""blur"",""7"",""92575""
""blur"",""7"",""100870""
""blur"",""7"",""107295""
""blur"",""7"",""120166""
""blur"",""7"",""126312""
""blur"",""7"",""133759""
""blur"",""7"",""137512""
""blur"",""7"",""139870""
""blur"",""13"",""172903""
""blur"",""22"",""437784""
""blur"",""22"",""463419""
""blur"",""22"",""647342""
","""event"",""trial"",""time""
""focus"",""1"",""32182""
""focus"",""7"",""56807""
""focus"",""7"",""63773""
""focus"",""7"",""73390""
""focus"",""7"",""79270""
""focus"",""7"",""85896""
""focus"",""7"",""92156""
""focus"",""7"",""98359""
""focus"",""7"",""106784""
""focus"",""7"",""114002""
""focus"",""7"",""121863""
""focus"",""7"",""127559""
""focus"",""7"",""136897""
""focus"",""7"",""138913""
""focus"",""7"",""141392""
""focus"",""13"",""330201""
""focus"",""22"",""447774""
""focus"",""22"",""633324""
""focus"",""22"",""650760""
","""event"",""trial"",""time""
""fullscreenenter"",""1"",""34677""
","
","","","103.89999997615814","","","19","13395","5534","&#9776;","elianto","#3366ff99"," "," ","1","+10","[26.5,222.5,396.10000002384186,538,781,960.3999999761581,1124.199999988079,1304.3999999761581,1535.1000000238419,1744.300000011921,2294.100000023842,2670.600000023842,2807.899999976158]","13","0","1","","","","","","","",""
"pit-trial","31","711071","0.0-2.0-8.1-3.1","battery-v0.2","","""event"",""trial"",""time""
""blur"",""1"",""2150""
""focus"",""1"",""32182""
""fullscreenenter"",""1"",""34677""
""blur"",""7"",""53441""
""focus"",""7"",""56807""
""blur"",""7"",""58903""
""focus"",""7"",""63773""
""blur"",""7"",""67983""
""focus"",""7"",""73390""
""blur"",""7"",""73929""
""focus"",""7"",""79270""
""blur"",""7"",""80959""
""focus"",""7"",""85896""
""blur"",""7"",""88535""
""focus"",""7"",""92156""
""blur"",""7"",""92575""
""focus"",""7"",""98359""
""blur"",""7"",""100870""
""focus"",""7"",""106784""
""blur"",""7"",""107295""
""focus"",""7"",""114002""
""blur"",""7"",""120166""
""focus"",""7"",""121863""
""blur"",""7"",""126312""
""focus"",""7"",""127559""
""blur"",""7"",""133759""
""focus"",""7"",""136897""
""blur"",""7"",""137512""
""focus"",""7"",""138913""
""blur"",""7"",""139870""
""focus"",""7"",""141392""
""blur"",""13"",""172903""
""focus"",""13"",""330201""
""blur"",""22"",""437784""
""focus"",""22"",""447774""
""blur"",""22"",""463419""
""focus"",""22"",""633324""
""blur"",""22"",""647342""
""focus"",""22"",""650760""
","""event"",""trial"",""time""
""blur"",""1"",""2150""
""blur"",""7"",""53441""
""blur"",""7"",""58903""
""blur"",""7"",""67983""
""blur"",""7"",""73929""
""blur"",""7"",""80959""
""blur"",""7"",""88535""
""blur"",""7"",""92575""
""blur"",""7"",""100870""
""blur"",""7"",""107295""
""blur"",""7"",""120166""
""blur"",""7"",""126312""
""blur"",""7"",""133759""
""blur"",""7"",""137512""
""blur"",""7"",""139870""
""blur"",""13"",""172903""
""blur"",""22"",""437784""
""blur"",""22"",""463419""
""blur"",""22"",""647342""
","""event"",""trial"",""time""
""focus"",""1"",""32182""
""focus"",""7"",""56807""
""focus"",""7"",""63773""
""focus"",""7"",""73390""
""focus"",""7"",""79270""
""focus"",""7"",""85896""
""focus"",""7"",""92156""
""focus"",""7"",""98359""
""focus"",""7"",""106784""
""focus"",""7"",""114002""
""focus"",""7"",""121863""
""focus"",""7"",""127559""
""focus"",""7"",""136897""
""focus"",""7"",""138913""
""focus"",""7"",""141392""
""focus"",""13"",""330201""
""focus"",""22"",""447774""
""focus"",""22"",""633324""
""focus"",""22"",""650760""
","""event"",""trial"",""time""
""fullscreenenter"",""1"",""34677""
","
","","","171.20000004768372","","","19","13395","5534","&#9776;","elianto","#3366ff99"," "," ","1","0","[70.60000002384186,257.89999997615814,421.30000001192093,624.5,830.1000000238419,1025.6000000238419,1224.699999988079,1579.800000011921,2120,2885.699999988079]","10","0","1","","","","","","","",""
"pit-trial","32","714159","0.0-2.0-8.1-4.1","battery-v0.2","","""event"",""trial"",""time""
""blur"",""1"",""2150""
""focus"",""1"",""32182""
""fullscreenenter"",""1"",""34677""
""blur"",""7"",""53441""
""focus"",""7"",""56807""
""blur"",""7"",""58903""
""focus"",""7"",""63773""
""blur"",""7"",""67983""
""focus"",""7"",""73390""
""blur"",""7"",""73929""
""focus"",""7"",""79270""
""blur"",""7"",""80959""
""focus"",""7"",""85896""
""blur"",""7"",""88535""
""focus"",""7"",""92156""
""blur"",""7"",""92575""
""focus"",""7"",""98359""
""blur"",""7"",""100870""
""focus"",""7"",""106784""
""blur"",""7"",""107295""
""focus"",""7"",""114002""
""blur"",""7"",""120166""
""focus"",""7"",""121863""
""blur"",""7"",""126312""
""focus"",""7"",""127559""
""blur"",""7"",""133759""
""focus"",""7"",""136897""
""blur"",""7"",""137512""
""focus"",""7"",""138913""
""blur"",""7"",""139870""
""focus"",""7"",""141392""
""blur"",""13"",""172903""
""focus"",""13"",""330201""
""blur"",""22"",""437784""
""focus"",""22"",""447774""
""blur"",""22"",""463419""
""focus"",""22"",""633324""
""blur"",""22"",""647342""
""focus"",""22"",""650760""
","""event"",""trial"",""time""
""blur"",""1"",""2150""
""blur"",""7"",""53441""
""blur"",""7"",""58903""
""blur"",""7"",""67983""
""blur"",""7"",""73929""
""blur"",""7"",""80959""
""blur"",""7"",""88535""
""blur"",""7"",""92575""
""blur"",""7"",""100870""
""blur"",""7"",""107295""
""blur"",""7"",""120166""
""blur"",""7"",""126312""
""blur"",""7"",""133759""
""blur"",""7"",""137512""
""blur"",""7"",""139870""
""blur"",""13"",""172903""
""blur"",""22"",""437784""
""blur"",""22"",""463419""
""blur"",""22"",""647342""
","""event"",""trial"",""time""
""focus"",""1"",""32182""
""focus"",""7"",""56807""
""focus"",""7"",""63773""
""focus"",""7"",""73390""
""focus"",""7"",""79270""
""focus"",""7"",""85896""
""focus"",""7"",""92156""
""focus"",""7"",""98359""
""focus"",""7"",""106784""
""focus"",""7"",""114002""
""focus"",""7"",""121863""
""focus"",""7"",""127559""
""focus"",""7"",""136897""
""focus"",""7"",""138913""
""focus"",""7"",""141392""
""focus"",""13"",""330201""
""focus"",""22"",""447774""
""focus"",""22"",""633324""
""focus"",""22"",""650760""
","""event"",""trial"",""time""
""fullscreenenter"",""1"",""34677""
","
","","","228.69999998807907","","","19","13395","5534","&#9776;","elianto","#3366ff99"," "," ","1","+10","[61,299.39999997615814,598.0999999642372,834.1999999880791,1084.2999999523163,1245.7999999523163,1432.5,1776,1963.7999999523163,2369.599999964237,2574.099999964237]","11","0","1","","","","","","","",""
"pit-trial","33","717107","0.0-2.0-8.2-0.2","battery-v0.2","","""event"",""trial"",""time""
""blur"",""1"",""2150""
""focus"",""1"",""32182""
""fullscreenenter"",""1"",""34677""
""blur"",""7"",""53441""
""focus"",""7"",""56807""
""blur"",""7"",""58903""
""focus"",""7"",""63773""
""blur"",""7"",""67983""
""focus"",""7"",""73390""
""blur"",""7"",""73929""
""focus"",""7"",""79270""
""blur"",""7"",""80959""
""focus"",""7"",""85896""
""blur"",""7"",""88535""
""focus"",""7"",""92156""
""blur"",""7"",""92575""
""focus"",""7"",""98359""
""blur"",""7"",""100870""
""focus"",""7"",""106784""
""blur"",""7"",""107295""
""focus"",""7"",""114002""
""blur"",""7"",""120166""
""focus"",""7"",""121863""
""blur"",""7"",""126312""
""focus"",""7"",""127559""
""blur"",""7"",""133759""
""focus"",""7"",""136897""
""blur"",""7"",""137512""
""focus"",""7"",""138913""
""blur"",""7"",""139870""
""focus"",""7"",""141392""
""blur"",""13"",""172903""
""focus"",""13"",""330201""
""blur"",""22"",""437784""
""focus"",""22"",""447774""
""blur"",""22"",""463419""
""focus"",""22"",""633324""
""blur"",""22"",""647342""
""focus"",""22"",""650760""
","""event"",""trial"",""time""
""blur"",""1"",""2150""
""blur"",""7"",""53441""
""blur"",""7"",""58903""
""blur"",""7"",""67983""
""blur"",""7"",""73929""
""blur"",""7"",""80959""
""blur"",""7"",""88535""
""blur"",""7"",""92575""
""blur"",""7"",""100870""
""blur"",""7"",""107295""
""blur"",""7"",""120166""
""blur"",""7"",""126312""
""blur"",""7"",""133759""
""blur"",""7"",""137512""
""blur"",""7"",""139870""
""blur"",""13"",""172903""
""blur"",""22"",""437784""
""blur"",""22"",""463419""
""blur"",""22"",""647342""
","""event"",""trial"",""time""
""focus"",""1"",""32182""
""focus"",""7"",""56807""
""focus"",""7"",""63773""
""focus"",""7"",""73390""
""focus"",""7"",""79270""
""focus"",""7"",""85896""
""focus"",""7"",""92156""
""focus"",""7"",""98359""
""focus"",""7"",""106784""
""focus"",""7"",""114002""
""focus"",""7"",""121863""
""focus"",""7"",""127559""
""focus"",""7"",""136897""
""focus"",""7"",""138913""
""focus"",""7"",""141392""
""focus"",""13"",""330201""
""focus"",""22"",""447774""
""focus"",""22"",""633324""
""focus"",""22"",""650760""
","""event"",""trial"",""time""
""fullscreenenter"",""1"",""34677""
","
","","","96.19999998807907","","","19","13395","5534","&#9776;","elianto","#3366ff99"," "," ","1","+10","[177.89999997615814,405.69999998807907,628.1000000238419,946.8000000119209,1154.8999999761581,1524.6000000238419,1729.3999999761581,2094.600000023842,2230.899999976158,2772.5]","10","0","1","","","","","","","",""
"pit-trial","34","720063","0.0-2.0-8.2-1.2","battery-v0.2","","""event"",""trial"",""time""
""blur"",""1"",""2150""
""focus"",""1"",""32182""
""fullscreenenter"",""1"",""34677""
""blur"",""7"",""53441""
""focus"",""7"",""56807""
""blur"",""7"",""58903""
""focus"",""7"",""63773""
""blur"",""7"",""67983""
""focus"",""7"",""73390""
""blur"",""7"",""73929""
""focus"",""7"",""79270""
""blur"",""7"",""80959""
""focus"",""7"",""85896""
""blur"",""7"",""88535""
""focus"",""7"",""92156""
""blur"",""7"",""92575""
""focus"",""7"",""98359""
""blur"",""7"",""100870""
""focus"",""7"",""106784""
""blur"",""7"",""107295""
""focus"",""7"",""114002""
""blur"",""7"",""120166""
""focus"",""7"",""121863""
""blur"",""7"",""126312""
""focus"",""7"",""127559""
""blur"",""7"",""133759""
""focus"",""7"",""136897""
""blur"",""7"",""137512""
""focus"",""7"",""138913""
""blur"",""7"",""139870""
""focus"",""7"",""141392""
""blur"",""13"",""172903""
""focus"",""13"",""330201""
""blur"",""22"",""437784""
""focus"",""22"",""447774""
""blur"",""22"",""463419""
""focus"",""22"",""633324""
""blur"",""22"",""647342""
""focus"",""22"",""650760""
","""event"",""trial"",""time""
""blur"",""1"",""2150""
""blur"",""7"",""53441""
""blur"",""7"",""58903""
""blur"",""7"",""67983""
""blur"",""7"",""73929""
""blur"",""7"",""80959""
""blur"",""7"",""88535""
""blur"",""7"",""92575""
""blur"",""7"",""100870""
""blur"",""7"",""107295""
""blur"",""7"",""120166""
""blur"",""7"",""126312""
""blur"",""7"",""133759""
""blur"",""7"",""137512""
""blur"",""7"",""139870""
""blur"",""13"",""172903""
""blur"",""22"",""437784""
""blur"",""22"",""463419""
""blur"",""22"",""647342""
","""event"",""trial"",""time""
""focus"",""1"",""32182""
""focus"",""7"",""56807""
""focus"",""7"",""63773""
""focus"",""7"",""73390""
""focus"",""7"",""79270""
""focus"",""7"",""85896""
""focus"",""7"",""92156""
""focus"",""7"",""98359""
""focus"",""7"",""106784""
""focus"",""7"",""114002""
""focus"",""7"",""121863""
""focus"",""7"",""127559""
""focus"",""7"",""136897""
""focus"",""7"",""138913""
""focus"",""7"",""141392""
""focus"",""13"",""330201""
""focus"",""22"",""447774""
""focus"",""22"",""633324""
""focus"",""22"",""650760""
","""event"",""trial"",""time""
""fullscreenenter"",""1"",""34677""
","
","","","103","","","19","13395","5534","&#9776;","elianto","#3366ff99"," "," ","1","+10","[58.19999998807907,429,835.3000000119209,953.1999999880791,1200.5,1597.199999988079,2160,2365.300000011921,2579.199999988079,2770.300000011921]","10","0","1","","","","","","","",""
"pit-trial","35","723138","0.0-2.0-8.2-2.2","battery-v0.2","","""event"",""trial"",""time""
""blur"",""1"",""2150""
""focus"",""1"",""32182""
""fullscreenenter"",""1"",""34677""
""blur"",""7"",""53441""
""focus"",""7"",""56807""
""blur"",""7"",""58903""
""focus"",""7"",""63773""
""blur"",""7"",""67983""
""focus"",""7"",""73390""
""blur"",""7"",""73929""
""focus"",""7"",""79270""
""blur"",""7"",""80959""
""focus"",""7"",""85896""
""blur"",""7"",""88535""
""focus"",""7"",""92156""
""blur"",""7"",""92575""
""focus"",""7"",""98359""
""blur"",""7"",""100870""
""focus"",""7"",""106784""
""blur"",""7"",""107295""
""focus"",""7"",""114002""
""blur"",""7"",""120166""
""focus"",""7"",""121863""
""blur"",""7"",""126312""
""focus"",""7"",""127559""
""blur"",""7"",""133759""
""focus"",""7"",""136897""
""blur"",""7"",""137512""
""focus"",""7"",""138913""
""blur"",""7"",""139870""
""focus"",""7"",""141392""
""blur"",""13"",""172903""
""focus"",""13"",""330201""
""blur"",""22"",""437784""
""focus"",""22"",""447774""
""blur"",""22"",""463419""
""focus"",""22"",""633324""
""blur"",""22"",""647342""
""focus"",""22"",""650760""
","""event"",""trial"",""time""
""blur"",""1"",""2150""
""blur"",""7"",""53441""
""blur"",""7"",""58903""
""blur"",""7"",""67983""
""blur"",""7"",""73929""
""blur"",""7"",""80959""
""blur"",""7"",""88535""
""blur"",""7"",""92575""
""blur"",""7"",""100870""
""blur"",""7"",""107295""
""blur"",""7"",""120166""
""blur"",""7"",""126312""
""blur"",""7"",""133759""
""blur"",""7"",""137512""
""blur"",""7"",""139870""
""blur"",""13"",""172903""
""blur"",""22"",""437784""
""blur"",""22"",""463419""
""blur"",""22"",""647342""
","""event"",""trial"",""time""
""focus"",""1"",""32182""
""focus"",""7"",""56807""
""focus"",""7"",""63773""
""focus"",""7"",""73390""
""focus"",""7"",""79270""
""focus"",""7"",""85896""
""focus"",""7"",""92156""
""focus"",""7"",""98359""
""focus"",""7"",""106784""
""focus"",""7"",""114002""
""focus"",""7"",""121863""
""focus"",""7"",""127559""
""focus"",""7"",""136897""
""focus"",""7"",""138913""
""focus"",""7"",""141392""
""focus"",""13"",""330201""
""focus"",""22"",""447774""
""focus"",""22"",""633324""
""focus"",""22"",""650760""
","""event"",""trial"",""time""
""fullscreenenter"",""1"",""34677""
","
","","","224.30000001192093","","","19","13395","5534","&#9776;","elianto","#3366ff99"," "," ","1","+10","[3,819.3000000119209,1074.699999988079,1247.5999999642372,1428.300000011921,1605.5999999642372,1795.199999988079,1965.0999999642372,2178.800000011921,2401,2543.5,2703.199999988079,2877.399999976158]","13","0","1","","","","","","","",""
"pit-trial","36","726091","0.0-2.0-8.2-3.2","battery-v0.2","","""event"",""trial"",""time""
""blur"",""1"",""2150""
""focus"",""1"",""32182""
""fullscreenenter"",""1"",""34677""
""blur"",""7"",""53441""
""focus"",""7"",""56807""
""blur"",""7"",""58903""
""focus"",""7"",""63773""
""blur"",""7"",""67983""
""focus"",""7"",""73390""
""blur"",""7"",""73929""
""focus"",""7"",""79270""
""blur"",""7"",""80959""
""focus"",""7"",""85896""
""blur"",""7"",""88535""
""focus"",""7"",""92156""
""blur"",""7"",""92575""
""focus"",""7"",""98359""
""blur"",""7"",""100870""
""focus"",""7"",""106784""
""blur"",""7"",""107295""
""focus"",""7"",""114002""
""blur"",""7"",""120166""
""focus"",""7"",""121863""
""blur"",""7"",""126312""
""focus"",""7"",""127559""
""blur"",""7"",""133759""
""focus"",""7"",""136897""
""blur"",""7"",""137512""
""focus"",""7"",""138913""
""blur"",""7"",""139870""
""focus"",""7"",""141392""
""blur"",""13"",""172903""
""focus"",""13"",""330201""
""blur"",""22"",""437784""
""focus"",""22"",""447774""
""blur"",""22"",""463419""
""focus"",""22"",""633324""
""blur"",""22"",""647342""
""focus"",""22"",""650760""
","""event"",""trial"",""time""
""blur"",""1"",""2150""
""blur"",""7"",""53441""
""blur"",""7"",""58903""
""blur"",""7"",""67983""
""blur"",""7"",""73929""
""blur"",""7"",""80959""
""blur"",""7"",""88535""
""blur"",""7"",""92575""
""blur"",""7"",""100870""
""blur"",""7"",""107295""
""blur"",""7"",""120166""
""blur"",""7"",""126312""
""blur"",""7"",""133759""
""blur"",""7"",""137512""
""blur"",""7"",""139870""
""blur"",""13"",""172903""
""blur"",""22"",""437784""
""blur"",""22"",""463419""
""blur"",""22"",""647342""
","""event"",""trial"",""time""
""focus"",""1"",""32182""
""focus"",""7"",""56807""
""focus"",""7"",""63773""
""focus"",""7"",""73390""
""focus"",""7"",""79270""
""focus"",""7"",""85896""
""focus"",""7"",""92156""
""focus"",""7"",""98359""
""focus"",""7"",""106784""
""focus"",""7"",""114002""
""focus"",""7"",""121863""
""focus"",""7"",""127559""
""focus"",""7"",""136897""
""focus"",""7"",""138913""
""focus"",""7"",""141392""
""focus"",""13"",""330201""
""focus"",""22"",""447774""
""focus"",""22"",""633324""
""focus"",""22"",""650760""
","""event"",""trial"",""time""
""fullscreenenter"",""1"",""34677""
","
","","","100.19999998807907","","","19","13395","5534","&#9776;","elianto","#3366ff99"," "," ","1","0","[13.899999976158142,173.5,369.5999999642372,557.0999999642372,769,950.5999999642372,1133.2999999523163,1364.3999999761581,1550.7999999523163,1737.199999988079,1957.5,2135.2999999523163,2316,2521.5,2687.699999988079]","15","0","1","","","","","","","",""
"pit-trial","37","728996","0.0-2.0-8.2-4.2","battery-v0.2","","""event"",""trial"",""time""
""blur"",""1"",""2150""
""focus"",""1"",""32182""
""fullscreenenter"",""1"",""34677""
""blur"",""7"",""53441""
""focus"",""7"",""56807""
""blur"",""7"",""58903""
""focus"",""7"",""63773""
""blur"",""7"",""67983""
""focus"",""7"",""73390""
""blur"",""7"",""73929""
""focus"",""7"",""79270""
""blur"",""7"",""80959""
""focus"",""7"",""85896""
""blur"",""7"",""88535""
""focus"",""7"",""92156""
""blur"",""7"",""92575""
""focus"",""7"",""98359""
""blur"",""7"",""100870""
""focus"",""7"",""106784""
""blur"",""7"",""107295""
""focus"",""7"",""114002""
""blur"",""7"",""120166""
""focus"",""7"",""121863""
""blur"",""7"",""126312""
""focus"",""7"",""127559""
""blur"",""7"",""133759""
""focus"",""7"",""136897""
""blur"",""7"",""137512""
""focus"",""7"",""138913""
""blur"",""7"",""139870""
""focus"",""7"",""141392""
""blur"",""13"",""172903""
""focus"",""13"",""330201""
""blur"",""22"",""437784""
""focus"",""22"",""447774""
""blur"",""22"",""463419""
""focus"",""22"",""633324""
""blur"",""22"",""647342""
""focus"",""22"",""650760""
","""event"",""trial"",""time""
""blur"",""1"",""2150""
""blur"",""7"",""53441""
""blur"",""7"",""58903""
""blur"",""7"",""67983""
""blur"",""7"",""73929""
""blur"",""7"",""80959""
""blur"",""7"",""88535""
""blur"",""7"",""92575""
""blur"",""7"",""100870""
""blur"",""7"",""107295""
""blur"",""7"",""120166""
""blur"",""7"",""126312""
""blur"",""7"",""133759""
""blur"",""7"",""137512""
""blur"",""7"",""139870""
""blur"",""13"",""172903""
""blur"",""22"",""437784""
""blur"",""22"",""463419""
""blur"",""22"",""647342""
","""event"",""trial"",""time""
""focus"",""1"",""32182""
""focus"",""7"",""56807""
""focus"",""7"",""63773""
""focus"",""7"",""73390""
""focus"",""7"",""79270""
""focus"",""7"",""85896""
""focus"",""7"",""92156""
""focus"",""7"",""98359""
""focus"",""7"",""106784""
""focus"",""7"",""114002""
""focus"",""7"",""121863""
""focus"",""7"",""127559""
""focus"",""7"",""136897""
""focus"",""7"",""138913""
""focus"",""7"",""141392""
""focus"",""13"",""330201""
""focus"",""22"",""447774""
""focus"",""22"",""633324""
""focus"",""22"",""650760""
","""event"",""trial"",""time""
""fullscreenenter"",""1"",""34677""
","
","","","54.19999998807907","","","19","13395","5534","&#9776;","elianto","#3366ff99"," "," ","1","+10","[568.8999999761581,748.0999999642372,904.5999999642372,1098.5,1556.2999999523163,1784.5,2347.5,2523.5]","8","0","1","","","","","","","",""
"call-function","38","728997","0.0-2.0-9.0","battery-v0.2","","""event"",""trial"",""time""
""blur"",""1"",""2150""
""focus"",""1"",""32182""
""fullscreenenter"",""1"",""34677""
""blur"",""7"",""53441""
""focus"",""7"",""56807""
""blur"",""7"",""58903""
""focus"",""7"",""63773""
""blur"",""7"",""67983""
""focus"",""7"",""73390""
""blur"",""7"",""73929""
""focus"",""7"",""79270""
""blur"",""7"",""80959""
""focus"",""7"",""85896""
""blur"",""7"",""88535""
""focus"",""7"",""92156""
""blur"",""7"",""92575""
""focus"",""7"",""98359""
""blur"",""7"",""100870""
""focus"",""7"",""106784""
""blur"",""7"",""107295""
""focus"",""7"",""114002""
""blur"",""7"",""120166""
""focus"",""7"",""121863""
""blur"",""7"",""126312""
""focus"",""7"",""127559""
""blur"",""7"",""133759""
""focus"",""7"",""136897""
""blur"",""7"",""137512""
""focus"",""7"",""138913""
""blur"",""7"",""139870""
""focus"",""7"",""141392""
""blur"",""13"",""172903""
""focus"",""13"",""330201""
""blur"",""22"",""437784""
""focus"",""22"",""447774""
""blur"",""22"",""463419""
""focus"",""22"",""633324""
""blur"",""22"",""647342""
""focus"",""22"",""650760""
""blur"",""39"",""800822""
""focus"",""39"",""895645""
""blur"",""39"",""896716""
""focus"",""39"",""899794""
""blur"",""39"",""900347""
""focus"",""39"",""905751""
""blur"",""39"",""906302""
""focus"",""39"",""981524""
""blur"",""39"",""982628""
""focus"",""39"",""983233""
""blur"",""39"",""984286""
""focus"",""39"",""1637546""
","""event"",""trial"",""time""
""blur"",""1"",""2150""
""blur"",""7"",""53441""
""blur"",""7"",""58903""
""blur"",""7"",""67983""
""blur"",""7"",""73929""
""blur"",""7"",""80959""
""blur"",""7"",""88535""
""blur"",""7"",""92575""
""blur"",""7"",""100870""
""blur"",""7"",""107295""
""blur"",""7"",""120166""
""blur"",""7"",""126312""
""blur"",""7"",""133759""
""blur"",""7"",""137512""
""blur"",""7"",""139870""
""blur"",""13"",""172903""
""blur"",""22"",""437784""
""blur"",""22"",""463419""
""blur"",""22"",""647342""
""blur"",""39"",""800822""
""blur"",""39"",""896716""
""blur"",""39"",""900347""
""blur"",""39"",""906302""
""blur"",""39"",""982628""
""blur"",""39"",""984286""
","""event"",""trial"",""time""
""focus"",""1"",""32182""
""focus"",""7"",""56807""
""focus"",""7"",""63773""
""focus"",""7"",""73390""
""focus"",""7"",""79270""
""focus"",""7"",""85896""
""focus"",""7"",""92156""
""focus"",""7"",""98359""
""focus"",""7"",""106784""
""focus"",""7"",""114002""
""focus"",""7"",""121863""
""focus"",""7"",""127559""
""focus"",""7"",""136897""
""focus"",""7"",""138913""
""focus"",""7"",""141392""
""focus"",""13"",""330201""
""focus"",""22"",""447774""
""focus"",""22"",""633324""
""focus"",""22"",""650760""
""focus"",""39"",""895645""
""focus"",""39"",""899794""
""focus"",""39"",""905751""
""focus"",""39"",""981524""
""focus"",""39"",""983233""
""focus"",""39"",""1637546""
","""event"",""trial"",""time""
""fullscreenenter"",""1"",""34677""
","
","","","","","","","","","","","","","","","","","","","","","","","","","","",""
"pit-instructions","39","1653766","0.0-2.0-10.0","battery-v0.2","","""event"",""trial"",""time""
""blur"",""1"",""2150""
""focus"",""1"",""32182""
""fullscreenenter"",""1"",""34677""
""blur"",""7"",""53441""
""focus"",""7"",""56807""
""blur"",""7"",""58903""
""focus"",""7"",""63773""
""blur"",""7"",""67983""
""focus"",""7"",""73390""
""blur"",""7"",""73929""
""focus"",""7"",""79270""
""blur"",""7"",""80959""
""focus"",""7"",""85896""
""blur"",""7"",""88535""
""focus"",""7"",""92156""
""blur"",""7"",""92575""
""focus"",""7"",""98359""
""blur"",""7"",""100870""
""focus"",""7"",""106784""
""blur"",""7"",""107295""
""focus"",""7"",""114002""
""blur"",""7"",""120166""
""focus"",""7"",""121863""
""blur"",""7"",""126312""
""focus"",""7"",""127559""
""blur"",""7"",""133759""
""focus"",""7"",""136897""
""blur"",""7"",""137512""
""focus"",""7"",""138913""
""blur"",""7"",""139870""
""focus"",""7"",""141392""
""blur"",""13"",""172903""
""focus"",""13"",""330201""
""blur"",""22"",""437784""
""focus"",""22"",""447774""
""blur"",""22"",""463419""
""focus"",""22"",""633324""
""blur"",""22"",""647342""
""focus"",""22"",""650760""
""blur"",""39"",""800822""
""focus"",""39"",""895645""
""blur"",""39"",""896716""
""focus"",""39"",""899794""
""blur"",""39"",""900347""
""focus"",""39"",""905751""
""blur"",""39"",""906302""
""focus"",""39"",""981524""
""blur"",""39"",""982628""
""focus"",""39"",""983233""
""blur"",""39"",""984286""
""focus"",""39"",""1637546""
","""event"",""trial"",""time""
""blur"",""1"",""2150""
""blur"",""7"",""53441""
""blur"",""7"",""58903""
""blur"",""7"",""67983""
""blur"",""7"",""73929""
""blur"",""7"",""80959""
""blur"",""7"",""88535""
""blur"",""7"",""92575""
""blur"",""7"",""100870""
""blur"",""7"",""107295""
""blur"",""7"",""120166""
""blur"",""7"",""126312""
""blur"",""7"",""133759""
""blur"",""7"",""137512""
""blur"",""7"",""139870""
""blur"",""13"",""172903""
""blur"",""22"",""437784""
""blur"",""22"",""463419""
""blur"",""22"",""647342""
""blur"",""39"",""800822""
""blur"",""39"",""896716""
""blur"",""39"",""900347""
""blur"",""39"",""906302""
""blur"",""39"",""982628""
""blur"",""39"",""984286""
","""event"",""trial"",""time""
""focus"",""1"",""32182""
""focus"",""7"",""56807""
""focus"",""7"",""63773""
""focus"",""7"",""73390""
""focus"",""7"",""79270""
""focus"",""7"",""85896""
""focus"",""7"",""92156""
""focus"",""7"",""98359""
""focus"",""7"",""106784""
""focus"",""7"",""114002""
""focus"",""7"",""121863""
""focus"",""7"",""127559""
""focus"",""7"",""136897""
""focus"",""7"",""138913""
""focus"",""7"",""141392""
""focus"",""13"",""330201""
""focus"",""22"",""447774""
""focus"",""22"",""633324""
""focus"",""22"",""650760""
""focus"",""39"",""895645""
""focus"",""39"",""899794""
""focus"",""39"",""905751""
""focus"",""39"",""981524""
""focus"",""39"",""983233""
""focus"",""39"",""1637546""
","""event"",""trial"",""time""
""fullscreenenter"",""1"",""34677""
","
","","[{""page_index"":0,""viewing_time"":10575.900000035763},{""page_index"":1,""viewing_time"":55421.09999996424},{""page_index"":2,""viewing_time"":843403.4000000358},{""page_index"":3,""viewing_time"":8175.599999964237},{""page_index"":4,""viewing_time"":7191.600000023842}]","924767.9000000358","","","","","","","","","","","","","","","","","","","","","","","",""
"pit-trial","40","1658641","0.0-2.0-11.0-0.0","battery-v0.2","","""event"",""trial"",""time""
""blur"",""1"",""2150""
""focus"",""1"",""32182""
""fullscreenenter"",""1"",""34677""
""blur"",""7"",""53441""
""focus"",""7"",""56807""
""blur"",""7"",""58903""
""focus"",""7"",""63773""
""blur"",""7"",""67983""
""focus"",""7"",""73390""
""blur"",""7"",""73929""
""focus"",""7"",""79270""
""blur"",""7"",""80959""
""focus"",""7"",""85896""
""blur"",""7"",""88535""
""focus"",""7"",""92156""
""blur"",""7"",""92575""
""focus"",""7"",""98359""
""blur"",""7"",""100870""
""focus"",""7"",""106784""
""blur"",""7"",""107295""
""focus"",""7"",""114002""
""blur"",""7"",""120166""
""focus"",""7"",""121863""
""blur"",""7"",""126312""
""focus"",""7"",""127559""
""blur"",""7"",""133759""
""focus"",""7"",""136897""
""blur"",""7"",""137512""
""focus"",""7"",""138913""
""blur"",""7"",""139870""
""focus"",""7"",""141392""
""blur"",""13"",""172903""
""focus"",""13"",""330201""
""blur"",""22"",""437784""
""focus"",""22"",""447774""
""blur"",""22"",""463419""
""focus"",""22"",""633324""
""blur"",""22"",""647342""
""focus"",""22"",""650760""
""blur"",""39"",""800822""
""focus"",""39"",""895645""
""blur"",""39"",""896716""
""focus"",""39"",""899794""
""blur"",""39"",""900347""
""focus"",""39"",""905751""
""blur"",""39"",""906302""
""focus"",""39"",""981524""
""blur"",""39"",""982628""
""focus"",""39"",""983233""
""blur"",""39"",""984286""
""focus"",""39"",""1637546""
","""event"",""trial"",""time""
""blur"",""1"",""2150""
""blur"",""7"",""53441""
""blur"",""7"",""58903""
""blur"",""7"",""67983""
""blur"",""7"",""73929""
""blur"",""7"",""80959""
""blur"",""7"",""88535""
""blur"",""7"",""92575""
""blur"",""7"",""100870""
""blur"",""7"",""107295""
""blur"",""7"",""120166""
""blur"",""7"",""126312""
""blur"",""7"",""133759""
""blur"",""7"",""137512""
""blur"",""7"",""139870""
""blur"",""13"",""172903""
""blur"",""22"",""437784""
""blur"",""22"",""463419""
""blur"",""22"",""647342""
""blur"",""39"",""800822""
""blur"",""39"",""896716""
""blur"",""39"",""900347""
""blur"",""39"",""906302""
""blur"",""39"",""982628""
""blur"",""39"",""984286""
","""event"",""trial"",""time""
""focus"",""1"",""32182""
""focus"",""7"",""56807""
""focus"",""7"",""63773""
""focus"",""7"",""73390""
""focus"",""7"",""79270""
""focus"",""7"",""85896""
""focus"",""7"",""92156""
""focus"",""7"",""98359""
""focus"",""7"",""106784""
""focus"",""7"",""114002""
""focus"",""7"",""121863""
""focus"",""7"",""127559""
""focus"",""7"",""136897""
""focus"",""7"",""138913""
""focus"",""7"",""141392""
""focus"",""13"",""330201""
""focus"",""22"",""447774""
""focus"",""22"",""633324""
""focus"",""22"",""650760""
""focus"",""39"",""895645""
""focus"",""39"",""899794""
""focus"",""39"",""905751""
""focus"",""39"",""981524""
""focus"",""39"",""983233""
""focus"",""39"",""1637546""
","""event"",""trial"",""time""
""fullscreenenter"",""1"",""34677""
","
","","","-1","","","19","13395","5534","&#9761;","elianto","#3366ff99","-1","-1","1","+10","[]","0","0","2","","","","","","","",""
"pit-trial","41","1663503","0.0-2.0-11.0-1.0","battery-v0.2","","""event"",""trial"",""time""
""blur"",""1"",""2150""
""focus"",""1"",""32182""
""fullscreenenter"",""1"",""34677""
""blur"",""7"",""53441""
""focus"",""7"",""56807""
""blur"",""7"",""58903""
""focus"",""7"",""63773""
""blur"",""7"",""67983""
""focus"",""7"",""73390""
""blur"",""7"",""73929""
""focus"",""7"",""79270""
""blur"",""7"",""80959""
""focus"",""7"",""85896""
""blur"",""7"",""88535""
""focus"",""7"",""92156""
""blur"",""7"",""92575""
""focus"",""7"",""98359""
""blur"",""7"",""100870""
""focus"",""7"",""106784""
""blur"",""7"",""107295""
""focus"",""7"",""114002""
""blur"",""7"",""120166""
""focus"",""7"",""121863""
""blur"",""7"",""126312""
""focus"",""7"",""127559""
""blur"",""7"",""133759""
""focus"",""7"",""136897""
""blur"",""7"",""137512""
""focus"",""7"",""138913""
""blur"",""7"",""139870""
""focus"",""7"",""141392""
""blur"",""13"",""172903""
""focus"",""13"",""330201""
""blur"",""22"",""437784""
""focus"",""22"",""447774""
""blur"",""22"",""463419""
""focus"",""22"",""633324""
""blur"",""22"",""647342""
""focus"",""22"",""650760""
""blur"",""39"",""800822""
""focus"",""39"",""895645""
""blur"",""39"",""896716""
""focus"",""39"",""899794""
""blur"",""39"",""900347""
""focus"",""39"",""905751""
""blur"",""39"",""906302""
""focus"",""39"",""981524""
""blur"",""39"",""982628""
""focus"",""39"",""983233""
""blur"",""39"",""984286""
""focus"",""39"",""1637546""
","""event"",""trial"",""time""
""blur"",""1"",""2150""
""blur"",""7"",""53441""
""blur"",""7"",""58903""
""blur"",""7"",""67983""
""blur"",""7"",""73929""
""blur"",""7"",""80959""
""blur"",""7"",""88535""
""blur"",""7"",""92575""
""blur"",""7"",""100870""
""blur"",""7"",""107295""
""blur"",""7"",""120166""
""blur"",""7"",""126312""
""blur"",""7"",""133759""
""blur"",""7"",""137512""
""blur"",""7"",""139870""
""blur"",""13"",""172903""
""blur"",""22"",""437784""
""blur"",""22"",""463419""
""blur"",""22"",""647342""
""blur"",""39"",""800822""
""blur"",""39"",""896716""
""blur"",""39"",""900347""
""blur"",""39"",""906302""
""blur"",""39"",""982628""
""blur"",""39"",""984286""
","""event"",""trial"",""time""
""focus"",""1"",""32182""
""focus"",""7"",""56807""
""focus"",""7"",""63773""
""focus"",""7"",""73390""
""focus"",""7"",""79270""
""focus"",""7"",""85896""
""focus"",""7"",""92156""
""focus"",""7"",""98359""
""focus"",""7"",""106784""
""focus"",""7"",""114002""
""focus"",""7"",""121863""
""focus"",""7"",""127559""
""focus"",""7"",""136897""
""focus"",""7"",""138913""
""focus"",""7"",""141392""
""focus"",""13"",""330201""
""focus"",""22"",""447774""
""focus"",""22"",""633324""
""focus"",""22"",""650760""
""focus"",""39"",""895645""
""focus"",""39"",""899794""
""focus"",""39"",""905751""
""focus"",""39"",""981524""
""focus"",""39"",""983233""
""focus"",""39"",""1637546""
","""event"",""trial"",""time""
""fullscreenenter"",""1"",""34677""
","
","","","-1","","","19","13395","5534","&#9761;","elianto","#3366ff99","-1","-1","1","+10","[]","0","0","2","","","","","","","",""
"pit-trial","42","1668363","0.0-2.0-11.0-2.0","battery-v0.2","","""event"",""trial"",""time""
""blur"",""1"",""2150""
""focus"",""1"",""32182""
""fullscreenenter"",""1"",""34677""
""blur"",""7"",""53441""
""focus"",""7"",""56807""
""blur"",""7"",""58903""
""focus"",""7"",""63773""
""blur"",""7"",""67983""
""focus"",""7"",""73390""
""blur"",""7"",""73929""
""focus"",""7"",""79270""
""blur"",""7"",""80959""
""focus"",""7"",""85896""
""blur"",""7"",""88535""
""focus"",""7"",""92156""
""blur"",""7"",""92575""
""focus"",""7"",""98359""
""blur"",""7"",""100870""
""focus"",""7"",""106784""
""blur"",""7"",""107295""
""focus"",""7"",""114002""
""blur"",""7"",""120166""
""focus"",""7"",""121863""
""blur"",""7"",""126312""
""focus"",""7"",""127559""
""blur"",""7"",""133759""
""focus"",""7"",""136897""
""blur"",""7"",""137512""
""focus"",""7"",""138913""
""blur"",""7"",""139870""
""focus"",""7"",""141392""
""blur"",""13"",""172903""
""focus"",""13"",""330201""
""blur"",""22"",""437784""
""focus"",""22"",""447774""
""blur"",""22"",""463419""
""focus"",""22"",""633324""
""blur"",""22"",""647342""
""focus"",""22"",""650760""
""blur"",""39"",""800822""
""focus"",""39"",""895645""
""blur"",""39"",""896716""
""focus"",""39"",""899794""
""blur"",""39"",""900347""
""focus"",""39"",""905751""
""blur"",""39"",""906302""
""focus"",""39"",""981524""
""blur"",""39"",""982628""
""focus"",""39"",""983233""
""blur"",""39"",""984286""
""focus"",""39"",""1637546""
","""event"",""trial"",""time""
""blur"",""1"",""2150""
""blur"",""7"",""53441""
""blur"",""7"",""58903""
""blur"",""7"",""67983""
""blur"",""7"",""73929""
""blur"",""7"",""80959""
""blur"",""7"",""88535""
""blur"",""7"",""92575""
""blur"",""7"",""100870""
""blur"",""7"",""107295""
""blur"",""7"",""120166""
""blur"",""7"",""126312""
""blur"",""7"",""133759""
""blur"",""7"",""137512""
""blur"",""7"",""139870""
""blur"",""13"",""172903""
""blur"",""22"",""437784""
""blur"",""22"",""463419""
""blur"",""22"",""647342""
""blur"",""39"",""800822""
""blur"",""39"",""896716""
""blur"",""39"",""900347""
""blur"",""39"",""906302""
""blur"",""39"",""982628""
""blur"",""39"",""984286""
","""event"",""trial"",""time""
""focus"",""1"",""32182""
""focus"",""7"",""56807""
""focus"",""7"",""63773""
""focus"",""7"",""73390""
""focus"",""7"",""79270""
""focus"",""7"",""85896""
""focus"",""7"",""92156""
""focus"",""7"",""98359""
""focus"",""7"",""106784""
""focus"",""7"",""114002""
""focus"",""7"",""121863""
""focus"",""7"",""127559""
""focus"",""7"",""136897""
""focus"",""7"",""138913""
""focus"",""7"",""141392""
""focus"",""13"",""330201""
""focus"",""22"",""447774""
""focus"",""22"",""633324""
""focus"",""22"",""650760""
""focus"",""39"",""895645""
""focus"",""39"",""899794""
""focus"",""39"",""905751""
""focus"",""39"",""981524""
""focus"",""39"",""983233""
""focus"",""39"",""1637546""
","""event"",""trial"",""time""
""fullscreenenter"",""1"",""34677""
","
","","","-1","","","19","13395","5534","&#9761;","elianto","#3366ff99","-1","-1","1","+10","[]","0","0","2","","","","","","","",""
"pit-trial","43","1673224","0.0-2.0-11.0-3.0","battery-v0.2","","""event"",""trial"",""time""
""blur"",""1"",""2150""
""focus"",""1"",""32182""
""fullscreenenter"",""1"",""34677""
""blur"",""7"",""53441""
""focus"",""7"",""56807""
""blur"",""7"",""58903""
""focus"",""7"",""63773""
""blur"",""7"",""67983""
""focus"",""7"",""73390""
""blur"",""7"",""73929""
""focus"",""7"",""79270""
""blur"",""7"",""80959""
""focus"",""7"",""85896""
""blur"",""7"",""88535""
""focus"",""7"",""92156""
""blur"",""7"",""92575""
""focus"",""7"",""98359""
""blur"",""7"",""100870""
""focus"",""7"",""106784""
""blur"",""7"",""107295""
""focus"",""7"",""114002""
""blur"",""7"",""120166""
""focus"",""7"",""121863""
""blur"",""7"",""126312""
""focus"",""7"",""127559""
""blur"",""7"",""133759""
""focus"",""7"",""136897""
""blur"",""7"",""137512""
""focus"",""7"",""138913""
""blur"",""7"",""139870""
""focus"",""7"",""141392""
""blur"",""13"",""172903""
""focus"",""13"",""330201""
""blur"",""22"",""437784""
""focus"",""22"",""447774""
""blur"",""22"",""463419""
""focus"",""22"",""633324""
""blur"",""22"",""647342""
""focus"",""22"",""650760""
""blur"",""39"",""800822""
""focus"",""39"",""895645""
""blur"",""39"",""896716""
""focus"",""39"",""899794""
""blur"",""39"",""900347""
""focus"",""39"",""905751""
""blur"",""39"",""906302""
""focus"",""39"",""981524""
""blur"",""39"",""982628""
""focus"",""39"",""983233""
""blur"",""39"",""984286""
""focus"",""39"",""1637546""
","""event"",""trial"",""time""
""blur"",""1"",""2150""
""blur"",""7"",""53441""
""blur"",""7"",""58903""
""blur"",""7"",""67983""
""blur"",""7"",""73929""
""blur"",""7"",""80959""
""blur"",""7"",""88535""
""blur"",""7"",""92575""
""blur"",""7"",""100870""
""blur"",""7"",""107295""
""blur"",""7"",""120166""
""blur"",""7"",""126312""
""blur"",""7"",""133759""
""blur"",""7"",""137512""
""blur"",""7"",""139870""
""blur"",""13"",""172903""
""blur"",""22"",""437784""
""blur"",""22"",""463419""
""blur"",""22"",""647342""
""blur"",""39"",""800822""
""blur"",""39"",""896716""
""blur"",""39"",""900347""
""blur"",""39"",""906302""
