"trial_type","trial_index","time_elapsed","internal_node_id","task_version","subject_id","interactions","blur_events","focus_events","fullscreenenter_events","fullscreenexit_events","success","view_history","rt","responses","num_errors","age","subject","participantId","rune","rune_set","hex","correct","choice","accuracy","outcome","keys","total_keys","block","practice","value","sub","trial","stimulus","robot","valence","action","sham"
"pavlovia","0","5","0.0-0.0","battery-v0.2","","""event"",""trial"",""time""
""fullscreenenter"",""1"",""2935""
","
","
","""event"",""trial"",""time""
""fullscreenenter"",""1"",""2935""
","
","","","","","","","","","","","","","","","","","","","","","","","","","","",""
"fullscreen","1","3901","0.0-1.0","battery-v0.2","","""event"",""trial"",""time""
""fullscreenenter"",""1"",""2935""
","
","
","""event"",""trial"",""time""
""fullscreenenter"",""1"",""2935""
","
","true","","","","","","","","","","","","","","","","","","","","","","","","","",""
"pit-instructions","2","8615","0.0-2.0-0.0","battery-v0.2","","""event"",""trial"",""time""
""fullscreenenter"",""1"",""2935""
","
","
","""event"",""trial"",""time""
""fullscreenenter"",""1"",""2935""
","
","","[{""page_index"":0,""viewing_time"":4708}]","4709","","","","","","","","","","","","","","","","","","","","","","","",""
"pit-comprehension","3","11615","0.0-2.0-1.0-0.0","battery-v0.2","","""event"",""trial"",""time""
""fullscreenenter"",""1"",""2935""
","
","
","""event"",""trial"",""time""
""fullscreenenter"",""1"",""2935""
","
","","","2963","[""shark""]","0","13","15946","4509","","","","","","","","","","","","","","","","","","",""
"pit-instructions","4","13162","0.0-2.0-1.0-1.0","battery-v0.2","","""event"",""trial"",""time""
""fullscreenenter"",""1"",""2935""
","
","
","""event"",""trial"",""time""
""fullscreenenter"",""1"",""2935""
","
","","[{""page_index"":0,""viewing_time"":1540.9999999999982}]","1540.9999999999982","","","","","","","","","","","","","","","","","","","","","","","",""
"pit-comprehension","5","15945","0.0-2.0-2.0-0.0","battery-v0.2","","""event"",""trial"",""time""
""fullscreenenter"",""1"",""2935""
","
","
","""event"",""trial"",""time""
""fullscreenenter"",""1"",""2935""
","
","","","2780","[""tiger""]","0","13","15946","4509","","","","","","","","","","","","","","","","","","",""
"pit-instructions","6","24679","0.0-2.0-2.0-1.0","battery-v0.2","","""event"",""trial"",""time""
""fullscreenenter"",""1"",""2935""
","
","
","""event"",""trial"",""time""
""fullscreenenter"",""1"",""2935""
","
","","[{""page_index"":0,""viewing_time"":8732}]","8732","","","","","","","","","","","","","","","","","","","","","","","",""
"pit-instructions","7","139065","0.0-2.0-3.0","battery-v0.2","","""event"",""trial"",""time""
""fullscreenenter"",""1"",""2935""
","
","
","""event"",""trial"",""time""
""fullscreenenter"",""1"",""2935""
","
","","[{""page_index"":0,""viewing_time"":9096},{""page_index"":1,""viewing_time"":9684},{""page_index"":2,""viewing_time"":7119},{""page_index"":3,""viewing_time"":8048},{""page_index"":4,""viewing_time"":5767},{""page_index"":5,""viewing_time"":9081},{""page_index"":6,""viewing_time"":7770},{""page_index"":7,""viewing_time"":7148},{""page_index"":8,""viewing_time"":6937},{""page_index"":9,""viewing_time"":12249},{""page_index"":10,""viewing_time"":7314},{""page_index"":11,""viewing_time"":8184},{""page_index"":12,""viewing_time"":11087},{""page_index"":13,""viewing_time"":4900}]","114384","","","","","","","","","","","","","","","","","","","","","","","",""
"pit-trial","8","142536","0.0-2.0-4.0-0.0","battery-v0.2","","""event"",""trial"",""time""
""fullscreenenter"",""1"",""2935""
","
","
","""event"",""trial"",""time""
""fullscreenenter"",""1"",""2935""
","
","","","616","","","13","15946","4509","&#9784;","elianto","#FFFFF080"," "," ","1","&#10004","[1466]","1","0","0","","","","","","","",""
"pit-trial","9","146060","0.0-2.0-4.1-0.1","battery-v0.2","","""event"",""trial"",""time""
""fullscreenenter"",""1"",""2935""
","
","
","""event"",""trial"",""time""
""fullscreenenter"",""1"",""2935""
","
","","","667","","","13","15946","4509","&#9784;","elianto","#FFFFF080"," "," ","1","&#10004","[1517]","1","0","0","","","","","","","",""
"pit-trial","10","149724","0.0-2.0-4.2-0.2","battery-v0.2","","""event"",""trial"",""time""
""fullscreenenter"",""1"",""2935""
","
","
","""event"",""trial"",""time""
""fullscreenenter"",""1"",""2935""
","
","","","805","","","13","15946","4509","&#9784;","elianto","#FFFFF080"," "," ","1","&#10004","[1656]","1","0","0","","","","","","","",""
"pit-trial","11","153224","0.0-2.0-4.3-0.3","battery-v0.2","","""event"",""trial"",""time""
""fullscreenenter"",""1"",""2935""
","
","
","""event"",""trial"",""time""
""fullscreenenter"",""1"",""2935""
","
","","","644","","","13","15946","4509","&#9784;","elianto","#FFFFF080"," "," ","1","&#10004","[1494]","1","0","0","","","","","","","",""
"pit-trial","12","156737","0.0-2.0-4.4-0.4","battery-v0.2","","""event"",""trial"",""time""
""fullscreenenter"",""1"",""2935""
","
","
","""event"",""trial"",""time""
""fullscreenenter"",""1"",""2935""
","
","","","656","","","13","15946","4509","&#9784;","elianto","#FFFFF080"," "," ","1","&#10004","[1506]","1","0","0","","","","","","","",""
"pit-instructions","13","178266","0.0-2.0-5.0","battery-v0.2","","""event"",""trial"",""time""
""fullscreenenter"",""1"",""2935""
","
","
","""event"",""trial"",""time""
""fullscreenenter"",""1"",""2935""
","
","","[{""page_index"":0,""viewing_time"":5270.999999999971},{""page_index"":1,""viewing_time"":6046},{""page_index"":2,""viewing_time"":4968},{""page_index"":3,""viewing_time"":5237}]","21521.99999999997","","","","","","","","","","","","","","","","","","","","","","","",""
"pit-trial","14","183120","0.0-2.0-6.0-0.0","battery-v0.2","","""event"",""trial"",""time""
""fullscreenenter"",""1"",""2935""
","
","
","""event"",""trial"",""time""
""fullscreenenter"",""1"",""2935""
","
","","","-1","","","13","15946","4509","&#9854;","elianto","#FFFFF080","-1","-1","1","&#10004","[]","0","0","1","","","","","","","",""
"pit-trial","15","187978","0.0-2.0-6.1-0.1","battery-v0.2","","""event"",""trial"",""time""
""fullscreenenter"",""1"",""2935""
","
","
","""event"",""trial"",""time""
""fullscreenenter"",""1"",""2935""
","
","","","-1","","","13","15946","4509","&#9854;","elianto","#FFFFF080","-1","-1","1","&#10004","[]","0","0","1","","","","","","","",""
"pit-trial","16","192835","0.0-2.0-6.2-0.2","battery-v0.2","","""event"",""trial"",""time""
""fullscreenenter"",""1"",""2935""
","
","
","""event"",""trial"",""time""
""fullscreenenter"",""1"",""2935""
","
","","","-1","","","13","15946","4509","&#9854;","elianto","#FFFFF080","-1","-1","1","&#10004","[]","0","0","1","","","","","","","",""
"pit-trial","17","197693","0.0-2.0-6.3-0.3","battery-v0.2","","""event"",""trial"",""time""
""fullscreenenter"",""1"",""2935""
","
","
","""event"",""trial"",""time""
""fullscreenenter"",""1"",""2935""
","
","","","-1","","","13","15946","4509","&#9854;","elianto","#FFFFF080","-1","-1","1","&#10004","[]","0","0","1","","","","","","","",""
"pit-trial","18","202552","0.0-2.0-6.4-0.4","battery-v0.2","","""event"",""trial"",""time""
""fullscreenenter"",""1"",""2935""
","
","
","""event"",""trial"",""time""
""fullscreenenter"",""1"",""2935""
","
","","","-1","","","13","15946","4509","&#9854;","elianto","#FFFFF080","-1","-1","1","&#10004","[]","0","0","1","","","","","","","",""
"pit-instructions","19","329780","0.0-2.0-7.0","battery-v0.2","","""event"",""trial"",""time""
""fullscreenenter"",""1"",""2935""
","
","
","""event"",""trial"",""time""
""fullscreenenter"",""1"",""2935""
","
","","[{""page_index"":0,""viewing_time"":8222},{""page_index"":1,""viewing_time"":7766},{""page_index"":2,""viewing_time"":6151},{""page_index"":3,""viewing_time"":5783},{""page_index"":4,""viewing_time"":6448.000000000029},{""page_index"":5,""viewing_time"":6567.999999999971},{""page_index"":6,""viewing_time"":6585},{""page_index"":7,""viewing_time"":9296},{""page_index"":8,""viewing_time"":6467},{""page_index"":9,""viewing_time"":7069},{""page_index"":10,""viewing_time"":8352},{""page_index"":11,""viewing_time"":5713},{""page_index"":12,""viewing_time"":6452},{""page_index"":13,""viewing_time"":7100},{""page_index"":14,""viewing_time"":7534},{""page_index"":15,""viewing_time"":7416},{""page_index"":16,""viewing_time"":6783},{""page_index"":17,""viewing_time"":7517}]","127222","","","","","","","","","","","","","","","","","","","","","","","",""
"pit-trial","20","334635","0.0-2.0-8.0-0.0","battery-v0.2","","""event"",""trial"",""time""
""fullscreenenter"",""1"",""2935""
","
","
","""event"",""trial"",""time""
""fullscreenenter"",""1"",""2935""
","
","","","-1","","","13","15946","4509","&#9776;","elianto","#3366ff99"," ","-1","0","0","[3193]","1","0","1","","","","","","","",""
"pit-trial","21","338077","0.0-2.0-8.0-1.0","battery-v0.2","","""event"",""trial"",""time""
""fullscreenenter"",""1"",""2935""
","
","
","""event"",""trial"",""time""
""fullscreenenter"",""1"",""2935""
","
","","","583.9999999999418","","","13","15946","4509","&#9776;","elianto","#3366ff99"," "," ","1","+10","[1434]","1","0","1","","","","","","","",""
"pit-trial","22","341292","0.0-2.0-8.0-2.0","battery-v0.2","","""event"",""trial"",""time""
""fullscreenenter"",""1"",""2935""
","
","
","""event"",""trial"",""time""
""fullscreenenter"",""1"",""2935""
","
","","","358","","","13","15946","4509","&#9776;","elianto","#3366ff99"," "," ","1","+10","[1208]","1","0","1","","","","","","","",""
"pit-trial","23","344808","0.0-2.0-8.0-3.0","battery-v0.2","","""event"",""trial"",""time""
""fullscreenenter"",""1"",""2935""
","
","
","""event"",""trial"",""time""
""fullscreenenter"",""1"",""2935""
","
","","","659.0000000000582","","","13","15946","4509","&#9776;","elianto","#3366ff99"," "," ","1","0","[1510.0000000000582]","1","0","1","","","","","","","",""
"pit-trial","24","348200","0.0-2.0-8.0-4.0","battery-v0.2","","""event"",""trial"",""time""
""fullscreenenter"",""1"",""2935""
","
","
","""event"",""trial"",""time""
""fullscreenenter"",""1"",""2935""
","
","","","535","","","13","15946","4509","&#9776;","elianto","#3366ff99"," "," ","1","+10","[1386]","1","0","1","","","","","","","",""
"pit-trial","25","352118","0.0-2.0-8.1-0.1","battery-v0.2","","""event"",""trial"",""time""
""fullscreenenter"",""1"",""2935""
","
","
","""event"",""trial"",""time""
""fullscreenenter"",""1"",""2935""
","
","","","1060.9999999999418","","","13","15946","4509","&#9776;","elianto","#3366ff99"," "," ","1","+10","[1911.9999999999418]","1","0","1","","","","","","","",""
"pit-trial","26","355631","0.0-2.0-8.1-1.1","battery-v0.2","","""event"",""trial"",""time""
""fullscreenenter"",""1"",""2935""
","
","
","""event"",""trial"",""time""
""fullscreenenter"",""1"",""2935""
","
","","","656","","","13","15946","4509","&#9776;","elianto","#3366ff99"," "," ","1","+10","[1507]","1","0","1","","","","","","","",""
"pit-trial","27","358951","0.0-2.0-8.1-2.1","battery-v0.2","","""event"",""trial"",""time""
""fullscreenenter"",""1"",""2935""
","
","
","""event"",""trial"",""time""
""fullscreenenter"",""1"",""2935""
","
","","","462","","","13","15946","4509","&#9776;","elianto","#3366ff99"," "," ","1","+10","[1313]","1","0","1","","","","","","","",""
"pit-trial","28","362393","0.0-2.0-8.1-3.1","battery-v0.2","","""event"",""trial"",""time""
""fullscreenenter"",""1"",""2935""
","
","
","""event"",""trial"",""time""
""fullscreenenter"",""1"",""2935""
","
","","","585.9999999999418","","","13","15946","4509","&#9776;","elianto","#3366ff99"," "," ","1","0","[1435]","1","0","1","","","","","","","",""
"pit-trial","29","367110","0.0-2.0-8.1-4.1","battery-v0.2","","""event"",""trial"",""time""
""fullscreenenter"",""1"",""2935""
","
","
","""event"",""trial"",""time""
""fullscreenenter"",""1"",""2935""
","
","","","1860","","","13","15946","4509","&#9776;","elianto","#3366ff99"," "," ","1","+10","[2710]","1","0","1","","","","","","","",""
"pit-trial","30","370534","0.0-2.0-8.2-0.2","battery-v0.2","","""event"",""trial"",""time""
""fullscreenenter"",""1"",""2935""
","
","
","""event"",""trial"",""time""
""fullscreenenter"",""1"",""2935""
","
","","","566.0000000000582","","","13","15946","4509","&#9776;","elianto","#3366ff99"," "," ","1","+10","[1417.0000000000582]","1","0","1","","","","","","","",""
"pit-trial","31","373909","0.0-2.0-8.2-1.2","battery-v0.2","","""event"",""trial"",""time""
""fullscreenenter"",""1"",""2935""
","
","
","""event"",""trial"",""time""
""fullscreenenter"",""1"",""2935""
","
","","","518.0000000000582","","","13","15946","4509","&#9776;","elianto","#3366ff99"," "," ","1","+10","[1369.0000000000582]","1","0","1","","","","","","","",""
"pit-trial","32","377595","0.0-2.0-8.2-2.2","battery-v0.2","","""event"",""trial"",""time""
""fullscreenenter"",""1"",""2935""
","
","
","""event"",""trial"",""time""
""fullscreenenter"",""1"",""2935""
","
","","","828.9999999999418","","","13","15946","4509","&#9776;","elianto","#3366ff99"," "," ","1","+10","[1679]","1","0","1","","","","","","","",""
"pit-trial","33","380844","0.0-2.0-8.2-3.2","battery-v0.2","","""event"",""trial"",""time""
""fullscreenenter"",""1"",""2935""
","
","
","""event"",""trial"",""time""
""fullscreenenter"",""1"",""2935""
","
","","","391.0000000000582","","","13","15946","4509","&#9776;","elianto","#3366ff99"," "," ","1","0","[1242.0000000000582]","1","0","1","","","","","","","",""
"pit-trial","34","383733","0.0-2.0-8.2-4.2","battery-v0.2","","""event"",""trial"",""time""
""fullscreenenter"",""1"",""2935""
","
","
","""event"",""trial"",""time""
""fullscreenenter"",""1"",""2935""
","
","","","32","","","13","15946","4509","&#9776;","elianto","#3366ff99"," "," ","1","+10","[882]","1","0","1","","","","","","","",""
"call-function","35","383737","0.0-2.0-9.0","battery-v0.2","","""event"",""trial"",""time""
""fullscreenenter"",""1"",""2935""
","
","
","""event"",""trial"",""time""
""fullscreenenter"",""1"",""2935""
","
","","","","","","","","","","","","","","","","","","","","","","","","","","",""
"pit-instructions","36","424895","0.0-2.0-10.0","battery-v0.2","","""event"",""trial"",""time""
""fullscreenenter"",""1"",""2935""
","
","
","""event"",""trial"",""time""
""fullscreenenter"",""1"",""2935""
","
","","[{""page_index"":0,""viewing_time"":6459},{""page_index"":1,""viewing_time"":7534},{""page_index"":2,""viewing_time"":9648},{""page_index"":3,""viewing_time"":10235},{""page_index"":4,""viewing_time"":7281}]","41157","","","","","","","","","","","","","","","","","","","","","","","",""
"pit-trial","37","428512","0.0-2.0-11.0-0.0","battery-v0.2","","""event"",""trial"",""time""
""fullscreenenter"",""1"",""2935""
","
","
","""event"",""trial"",""time""
""fullscreenenter"",""1"",""2935""
","
","","","762","","","13","15946","4509","&#9761;","elianto","#3366ff99","-1"," ","0","0","[1613]","1","0","2","","","","","","","",""
"pit-trial","38","431937","0.0-2.0-11.0-1.0","battery-v0.2","","""event"",""trial"",""time""
""fullscreenenter"",""1"",""2935""
","
","
","""event"",""trial"",""time""
""fullscreenenter"",""1"",""2935""
","
","","","566","","","13","15946","4509","&#9761;","elianto","#3366ff99","-1"," ","0","0","[163.0000000000582,1417]","2","0","2","","","","","","","",""
"pit-trial","39","435186","0.0-2.0-11.0-2.0","battery-v0.2","","""event"",""trial"",""time""
""fullscreenenter"",""1"",""2935""
","
","
","""event"",""trial"",""time""
""fullscreenenter"",""1"",""2935""
","
","","","392","","","13","15946","4509","&#9761;","elianto","#3366ff99","-1"," ","0","0","[1242]","1","0","2","","","","","","","",""
"pit-trial","40","440044","0.0-2.0-11.0-3.0","battery-v0.2","","""event"",""trial"",""time""
""fullscreenenter"",""1"",""2935""
","
","
","""event"",""trial"",""time""
""fullscreenenter"",""1"",""2935""
","
","","","-1","","","13","15946","4509","&#9761;","elianto","#3366ff99","-1","-1","1","0","[]","0","0","2","","","","","","","",""
"pit-trial","41","444901","0.0-2.0-11.0-4.0","battery-v0.2","","""event"",""trial"",""time""
""fullscreenenter"",""1"",""2935""
","
","
","""event"",""trial"",""time""
""fullscreenenter"",""1"",""2935""
","
","","","-1","","","13","15946","4509","&#9761;","elianto","#3366ff99","-1","-1","1","+10","[]","0","0","2","","","","","","","",""
"pit-trial","42","449760","0.0-2.0-11.1-0.1","battery-v0.2","","""event"",""trial"",""time""
""fullscreenenter"",""1"",""2935""
","
","
","""event"",""trial"",""time""
""fullscreenenter"",""1"",""2935""
","
","","","-1","","","13","15946","4509","&#9761;","elianto","#3366ff99","-1","-1","1","+10","[]","0","0","2","","","","","","","",""
"pit-trial","43","454618","0.0-2.0-11.1-1.1","battery-v0.2","","""event"",""trial"",""time""
""fullscreenenter"",""1"",""2935""
","
","
","""event"",""trial"",""time""
""fullscreenenter"",""1"",""2935""
","
","","","-1","","","13","15946","4509","&#9761;","elianto","#3366ff99","-1","-1","1","+10","[]","0","0","2","","","","","","","",""
"pit-trial","44","459477","0.0-2.0-11.1-2.1","battery-v0.2","","""event"",""trial"",""time""
""fullscreenenter"",""1"",""2935""
","
","
","""event"",""trial"",""time""
""fullscreenenter"",""1"",""2935""
","
","","","-1","","","13","15946","4509","&#9761;","elianto","#3366ff99","-1","-1","1","+10","[]","0","0","2","","","","","","","",""
"pit-trial","45","464334","0.0-2.0-11.1-3.1","battery-v0.2","","""event"",""trial"",""time""
""fullscreenenter"",""1"",""2935""
","
","
","""event"",""trial"",""time""
""fullscreenenter"",""1"",""2935""
","
","","","-1","","","13","15946","4509","&#9761;","elianto","#3366ff99","-1","-1","1","0","[]","0","0","2","","","","","","","",""
"pit-trial","46","469190","0.0-2.0-11.1-4.1","battery-v0.2","","""event"",""trial"",""time""
""fullscreenenter"",""1"",""2935""
","
","
","""event"",""trial"",""time""
""fullscreenenter"",""1"",""2935""
","
","","","-1","","","13","15946","4509","&#9761;","elianto","#3366ff99","-1","-1","1","+10","[]","0","0","2","","","","","","","",""
"pit-trial","47","474047","0.0-2.0-11.2-0.2","battery-v0.2","","""event"",""trial"",""time""
""fullscreenenter"",""1"",""2935""
","
","
","""event"",""trial"",""time""
""fullscreenenter"",""1"",""2935""
","
","","","-1","","","13","15946","4509","&#9761;","elianto","#3366ff99","-1","-1","1","+10","[]","0","0","2","","","","","","","",""
"pit-trial","48","478906","0.0-2.0-11.2-1.2","battery-v0.2","","""event"",""trial"",""time""
""fullscreenenter"",""1"",""2935""
","
","
","""event"",""trial"",""time""
""fullscreenenter"",""1"",""2935""
","
","","","-1","","","13","15946","4509","&#9761;","elianto","#3366ff99","-1","-1","1","+10","[]","0","0","2","","","","","","","",""
"pit-trial","49","483765","0.0-2.0-11.2-2.2","battery-v0.2","","""event"",""trial"",""time""
""fullscreenenter"",""1"",""2935""
","
","
","""event"",""trial"",""time""
""fullscreenenter"",""1"",""2935""
","
","","","-1","","","13","15946","4509","&#9761;","elianto","#3366ff99","-1","-1","1","+10","[]","0","0","2","","","","","","","",""
"pit-trial","50","488622","0.0-2.0-11.2-3.2","battery-v0.2","","""event"",""trial"",""time""
""fullscreenenter"",""1"",""2935""
","
","
","""event"",""trial"",""time""
""fullscreenenter"",""1"",""2935""
","
","","","-1","","","13","15946","4509","&#9761;","elianto","#3366ff99","-1","-1","1","0","[]","0","0","2","","","","","","","",""
"pit-trial","51","493479","0.0-2.0-11.2-4.2","battery-v0.2","","""event"",""trial"",""time""
""fullscreenenter"",""1"",""2935""
","
","
","""event"",""trial"",""time""
""fullscreenenter"",""1"",""2935""
","
","","","-1","","","13","15946","4509","&#9761;","elianto","#3366ff99","-1","-1","1","+10","[]","0","0","2","","","","","","","",""
"pit-trial","52","498337","0.0-2.0-11.3-0.3","battery-v0.2","","""event"",""trial"",""time""
""fullscreenenter"",""1"",""2935""
","
","
","""event"",""trial"",""time""
""fullscreenenter"",""1"",""2935""
","
","","","-1","","","13","15946","4509","&#9761;","elianto","#3366ff99","-1","-1","1","+10","[]","0","0","2","","","","","","","",""
"pit-trial","53","503194","0.0-2.0-11.3-1.3","battery-v0.2","","""event"",""trial"",""time""
""fullscreenenter"",""1"",""2935""
","
","
","""event"",""trial"",""time""
""fullscreenenter"",""1"",""2935""
","
","","","-1","","","13","15946","4509","&#9761;","elianto","#3366ff99","-1","-1","1","+10","[]","0","0","2","","","","","","","",""
"pit-trial","54","508052","0.0-2.0-11.3-2.3","battery-v0.2","","""event"",""trial"",""time""
""fullscreenenter"",""1"",""2935""
","
","
","""event"",""trial"",""time""
""fullscreenenter"",""1"",""2935""
","
","","","-1","","","13","15946","4509","&#9761;","elianto","#3366ff99","-1","-1","1","+10","[]","0","0","2","","","","","","","",""
"pit-trial","55","512909","0.0-2.0-11.3-3.3","battery-v0.2","","""event"",""trial"",""time""
""fullscreenenter"",""1"",""2935""
","
","
","""event"",""trial"",""time""
""fullscreenenter"",""1"",""2935""
","
","","","-1","","","13","15946","4509","&#9761;","elianto","#3366ff99","-1","-1","1","0","[]","0","0","2","","","","","","","",""
"pit-trial","56","517768","0.0-2.0-11.3-4.3","battery-v0.2","","""event"",""trial"",""time""
""fullscreenenter"",""1"",""2935""
","
","
","""event"",""trial"",""time""
""fullscreenenter"",""1"",""2935""
","
","","","-1","","","13","15946","4509","&#9761;","elianto","#3366ff99","-1","-1","1","+10","[]","0","0","2","","","","","","","",""
"call-function","57","517772","0.0-2.0-12.0","battery-v0.2","","""event"",""trial"",""time""
""fullscreenenter"",""1"",""2935""
","
","
","""event"",""trial"",""time""
""fullscreenenter"",""1"",""2935""
","
","","","","","","","","","","","","","","","","","","","","","","","","","","",""
"pit-instructions","58","549681","0.0-2.0-13.0","battery-v0.2","","""event"",""trial"",""time""
""fullscreenenter"",""1"",""2935""
","
","
","""event"",""trial"",""time""
""fullscreenenter"",""1"",""2935""
","
","","[{""page_index"":0,""viewing_time"":5356.999999999942},{""page_index"":1,""viewing_time"":7485},{""page_index"":2,""viewing_time"":3367},{""page_index"":3,""viewing_time"":10949.000000000116},{""page_index"":4,""viewing_time"":4750.999999999884}]","31908.99999999994","","","","","","","","","","","","","","","","","","","","","","","",""
"pit-trial","59","554537","0.0-2.0-14.0-0.0","battery-v0.2","","""event"",""trial"",""time""
""fullscreenenter"",""1"",""2935""
","
","
","""event"",""trial"",""time""
""fullscreenenter"",""1"",""2935""
","
","","","-1","","","13","15946","4509","&#9826;","elianto","#f73b6a7A","-1","-1","1","0","[]","0","0","3","","","","","","","",""
"pit-trial","60","559395","0.0-2.0-14.0-1.0","battery-v0.2","","""event"",""trial"",""time""
""fullscreenenter"",""1"",""2935""
","
","
","""event"",""trial"",""time""
""fullscreenenter"",""1"",""2935""
","
","","","-1","","","13","15946","4509","&#9826;","elianto","#f73b6a7A","-1","-1","1","0","[]","0","0","3","","","","","","","",""
"pit-trial","61","564252","0.0-2.0-14.0-2.0","battery-v0.2","","""event"",""trial"",""time""
""fullscreenenter"",""1"",""2935""
","
","
","""event"",""trial"",""time""
""fullscreenenter"",""1"",""2935""
","
","","","-1","","","13","15946","4509","&#9826;","elianto","#f73b6a7A","-1","-1","1","0","[]","0","0","3","","","","","","","",""
"pit-trial","62","569110","0.0-2.0-14.0-3.0","battery-v0.2","","""event"",""trial"",""time""
""fullscreenenter"",""1"",""2935""
","
","
","""event"",""trial"",""time""
""fullscreenenter"",""1"",""2935""
","
","","","-1","","","13","15946","4509","&#9826;","elianto","#f73b6a7A","-1","-1","1","-10","[]","0","0","3","","","","","","","",""
"pit-trial","63","573970","0.0-2.0-14.0-4.0","battery-v0.2","","""event"",""trial"",""time""
""fullscreenenter"",""1"",""2935""
","
","
","""event"",""trial"",""time""
""fullscreenenter"",""1"",""2935""
","
","","","-1","","","13","15946","4509","&#9826;","elianto","#f73b6a7A","-1","-1","1","0","[]","0","0","3","","","","","","","",""
"pit-trial","64","578828","0.0-2.0-14.1-0.1","battery-v0.2","","""event"",""trial"",""time""
""fullscreenenter"",""1"",""2935""
","
","
","""event"",""trial"",""time""
""fullscreenenter"",""1"",""2935""
","
","","","-1","","","13","15946","4509","&#9826;","elianto","#f73b6a7A","-1","-1","1","0","[]","0","0","3","","","","","","","",""
"pit-trial","65","583686","0.0-2.0-14.1-1.1","battery-v0.2","","""event"",""trial"",""time""
""fullscreenenter"",""1"",""2935""
","
","
","""event"",""trial"",""time""
""fullscreenenter"",""1"",""2935""
","
","","","-1","","","13","15946","4509","&#9826;","elianto","#f73b6a7A","-1","-1","1","0","[]","0","0","3","","","","","","","",""
"pit-trial","66","586805","0.0-2.0-14.1-2.1","battery-v0.2","","""event"",""trial"",""time""
""fullscreenenter"",""1"",""2935""
","
","
","""event"",""trial"",""time""
""fullscreenenter"",""1"",""2935""
","
","","","261","","","13","15946","4509","&#9826;","elianto","#f73b6a7A","-1"," ","0","-10","[1112,1974,2235]","3","0","3","","","","","","","",""
"pit-trial","67","591664","0.0-2.0-14.1-3.1","battery-v0.2","","""event"",""trial"",""time""
""fullscreenenter"",""1"",""2935""
","
","
","""event"",""trial"",""time""
""fullscreenenter"",""1"",""2935""
","
","","","-1","","","13","15946","4509","&#9826;","elianto","#f73b6a7A","-1","-1","1","-10","[]","0","0","3","","","","","","","",""
"pit-trial","68","596521","0.0-2.0-14.1-4.1","battery-v0.2","","""event"",""trial"",""time""
""fullscreenenter"",""1"",""2935""
","
","
","""event"",""trial"",""time""
""fullscreenenter"",""1"",""2935""
","
","","","-1","","","13","15946","4509","&#9826;","elianto","#f73b6a7A","-1","-1","1","0","[]","0","0","3","","","","","","","",""
"pit-trial","69","601379","0.0-2.0-14.2-0.2","battery-v0.2","","""event"",""trial"",""time""
""fullscreenenter"",""1"",""2935""
","
","
","""event"",""trial"",""time""
""fullscreenenter"",""1"",""2935""
","
","","","-1","","","13","15946","4509","&#9826;","elianto","#f73b6a7A","-1","-1","1","0","[]","0","0","3","","","","","","","",""
"pit-trial","70","606237","0.0-2.0-14.2-1.2","battery-v0.2","","""event"",""trial"",""time""
""fullscreenenter"",""1"",""2935""
","
","
","""event"",""trial"",""time""
""fullscreenenter"",""1"",""2935""
","
","","","-1","","","13","15946","4509","&#9826;","elianto","#f73b6a7A","-1","-1","1","0","[]","0","0","3","","","","","","","",""
"pit-trial","71","611095","0.0-2.0-14.2-2.2","battery-v0.2","","""event"",""trial"",""time""
""fullscreenenter"",""1"",""2935""
","
","
","""event"",""trial"",""time""
""fullscreenenter"",""1"",""2935""
","
","","","-1","","","13","15946","4509","&#9826;","elianto","#f73b6a7A","-1","-1","1","0","[]","0","0","3","","","","","","","",""
"pit-trial","72","615952","0.0-2.0-14.2-3.2","battery-v0.2","","""event"",""trial"",""time""
""fullscreenenter"",""1"",""2935""
","
","
","""event"",""trial"",""time""
""fullscreenenter"",""1"",""2935""
","
","","","-1","","","13","15946","4509","&#9826;","elianto","#f73b6a7A","-1","-1","1","-10","[]","0","0","3","","","","","","","",""
"pit-trial","73","620810","0.0-2.0-14.2-4.2","battery-v0.2","","""event"",""trial"",""time""
""fullscreenenter"",""1"",""2935""
","
","
","""event"",""trial"",""time""
""fullscreenenter"",""1"",""2935""
","
","","","-1","","","13","15946","4509","&#9826;","elianto","#f73b6a7A","-1","-1","1","0","[]","0","0","3","","","","","","","",""
"pit-trial","74","625668","0.0-2.0-14.3-0.3","battery-v0.2","","""event"",""trial"",""time""
""fullscreenenter"",""1"",""2935""
","
","
","""event"",""trial"",""time""
""fullscreenenter"",""1"",""2935""
","
","","","-1","","","13","15946","4509","&#9826;","elianto","#f73b6a7A","-1","-1","1","0","[]","0","0","3","","","","","","","",""
"pit-trial","75","630525","0.0-2.0-14.3-1.3","battery-v0.2","","""event"",""trial"",""time""
""fullscreenenter"",""1"",""2935""
","
","
","""event"",""trial"",""time""
""fullscreenenter"",""1"",""2935""
","
","","","-1","","","13","15946","4509","&#9826;","elianto","#f73b6a7A","-1","-1","1","0","[]","0","0","3","","","","","","","",""
"pit-trial","76","635382","0.0-2.0-14.3-2.3","battery-v0.2","","""event"",""trial"",""time""
""fullscreenenter"",""1"",""2935""
","
","
","""event"",""trial"",""time""
""fullscreenenter"",""1"",""2935""
","
","","","-1","","","13","15946","4509","&#9826;","elianto","#f73b6a7A","-1","-1","1","0","[]","0","0","3","","","","","","","",""
"pit-trial","77","640239","0.0-2.0-14.3-3.3","battery-v0.2","","""event"",""trial"",""time""
""fullscreenenter"",""1"",""2935""
","
","
","""event"",""trial"",""time""
""fullscreenenter"",""1"",""2935""
","
","","","-1","","","13","15946","4509","&#9826;","elianto","#f73b6a7A","-1","-1","1","-10","[]","0","0","3","","","","","","","",""
"pit-trial","78","645097","0.0-2.0-14.3-4.3","battery-v0.2","","""event"",""trial"",""time""
""fullscreenenter"",""1"",""2935""
","
","
","""event"",""trial"",""time""
""fullscreenenter"",""1"",""2935""
","
","","","-1","","","13","15946","4509","&#9826;","elianto","#f73b6a7A","-1","-1","1","0","[]","0","0","3","","","","","","","",""
"call-function","79","645101","0.0-2.0-15.0","battery-v0.2","","""event"",""trial"",""time""
""fullscreenenter"",""1"",""2935""
","
","
","""event"",""trial"",""time""
""fullscreenenter"",""1"",""2935""
","
","","","","","","","","","","","","","","","","","","","","","","","","","","",""
"pit-instructions","80","672830","0.0-2.0-16.0","battery-v0.2","","""event"",""trial"",""time""
""fullscreenenter"",""1"",""2935""
","
","
","""event"",""trial"",""time""
""fullscreenenter"",""1"",""2935""
","
","","[{""page_index"":0,""viewing_time"":8078.999999999884},{""page_index"":1,""viewing_time"":9650},{""page_index"":2,""viewing_time"":4580},{""page_index"":3,""viewing_time"":5419}]","27727.999999999884","","","","","","","","","","","","","","","","","","","","","","","",""
"pit-trial","81","676158","0.0-2.0-17.0-0.0","battery-v0.2","","""event"",""trial"",""time""
""fullscreenenter"",""1"",""2935""
","
","
","""event"",""trial"",""time""
""fullscreenenter"",""1"",""2935""
","
","","","471.9999999998836","","","13","15946","4509","&#9789;","elianto","#f73b6a7A"," "," ","1","0","[1324.0000000001164]","1","0","4","","","","","","","",""
"pit-trial","82","679589","0.0-2.0-17.0-1.0","battery-v0.2","","""event"",""trial"",""time""
""fullscreenenter"",""1"",""2935""
","
","
","""event"",""trial"",""time""
""fullscreenenter"",""1"",""2935""
","
","","","573","","","13","15946","4509","&#9789;","elianto","#f73b6a7A"," "," ","1","0","[539,1423,1874,2122.0000000001164,2402,2621,2811,3234]","8","0","4","","","","","","","",""
"pit-trial","83","682497","0.0-2.0-17.0-2.0","battery-v0.2","","""event"",""trial"",""time""
""fullscreenenter"",""1"",""2935""
","
","
","""event"",""trial"",""time""
""fullscreenenter"",""1"",""2935""
","
","","","51","","","13","15946","4509","&#9789;","elianto","#f73b6a7A"," "," ","1","0","[52,270,469,677,901,1116,1327,1541,1754,1948,2142,2318,2490.0000000001164,2679,2855.0000000001164]","15","0","4","","","","","","","",""
"pit-trial","84","685653","0.0-2.0-17.0-3.0","battery-v0.2","","""event"",""trial"",""time""
""fullscreenenter"",""1"",""2935""
","
","
","""event"",""trial"",""time""
""fullscreenenter"",""1"",""2935""
","
","","","298","","","13","15946","4509","&#9789;","elianto","#f73b6a7A"," "," ","1","-10","[102.99999999988358,1149]","2","0","4","","","","","","","",""
"pit-trial","85","688578","0.0-2.0-17.0-4.0","battery-v0.2","","""event"",""trial"",""time""
""fullscreenenter"",""1"",""2935""
","
","
","""event"",""trial"",""time""
""fullscreenenter"",""1"",""2935""
","
","","","68","","","13","15946","4509","&#9789;","elianto","#f73b6a7A"," "," ","1","0","[918]","1","0","4","","","","","","","",""
"pit-trial","86","691447","0.0-2.0-17.1-0.1","battery-v0.2","","""event"",""trial"",""time""
""fullscreenenter"",""1"",""2935""
","
","
","""event"",""trial"",""time""
""fullscreenenter"",""1"",""2935""
","
","","","10.999999999883585","","","13","15946","4509","&#9789;","elianto","#f73b6a7A"," "," ","1","0","[861.9999999998836]","1","0","4","","","","","","","",""
"pit-trial","87","694558","0.0-2.0-17.1-1.1","battery-v0.2","","""event"",""trial"",""time""
""fullscreenenter"",""1"",""2935""
","
","
","""event"",""trial"",""time""
""fullscreenenter"",""1"",""2935""
","
","","","254","","","13","15946","4509","&#9789;","elianto","#f73b6a7A"," "," ","1","0","[1105]","1","0","4","","","","","","","",""
"pit-trial","88","698027","0.0-2.0-17.1-2.1","battery-v0.2","","""event"",""trial"",""time""
""fullscreenenter"",""1"",""2935""
","
","
","""event"",""trial"",""time""
""fullscreenenter"",""1"",""2935""
","
","","","610","","","13","15946","4509","&#9789;","elianto","#f73b6a7A"," "," ","1","0","[743,1461]","2","0","4","","","","","","","",""
"pit-trial","89","700956","0.0-2.0-17.1-3.1","battery-v0.2","","""event"",""trial"",""time""
""fullscreenenter"",""1"",""2935""
","
","
","""event"",""trial"",""time""
""fullscreenenter"",""1"",""2935""
","
","","","71.00000000011642","","","13","15946","4509","&#9789;","elianto","#f73b6a7A"," "," ","1","-10","[922.0000000001164]","1","0","4","","","","","","","",""
"pit-trial","90","703947","0.0-2.0-17.1-4.1","battery-v0.2","","""event"",""trial"",""time""
""fullscreenenter"",""1"",""2935""
","
","
","""event"",""trial"",""time""
""fullscreenenter"",""1"",""2935""
","
","","","134","","","13","15946","4509","&#9789;","elianto","#f73b6a7A"," "," ","1","0","[985,1076.0000000001164]","2","0","4","","","","","","","",""
"pit-trial","91","707141","0.0-2.0-17.2-0.2","battery-v0.2","","""event"",""trial"",""time""
""fullscreenenter"",""1"",""2935""
","
","
","""event"",""trial"",""time""
""fullscreenenter"",""1"",""2935""
","
","","","336","","","13","15946","4509","&#9789;","elianto","#f73b6a7A"," "," ","1","0","[646,1187,1376,1551,1713,1869]","6","0","4","","","","","","","",""
"pit-trial","92","710557","0.0-2.0-17.2-1.2","battery-v0.2","","""event"",""trial"",""time""
""fullscreenenter"",""1"",""2935""
","
","
","""event"",""trial"",""time""
""fullscreenenter"",""1"",""2935""
","
","","","559","","","13","15946","4509","&#9789;","elianto","#f73b6a7A"," "," ","1","0","[1410,3069]","2","0","4","","","","","","","",""
"pit-trial","93","713748","0.0-2.0-17.2-2.2","battery-v0.2","","""event"",""trial"",""time""
""fullscreenenter"",""1"",""2935""
","
","
","""event"",""trial"",""time""
""fullscreenenter"",""1"",""2935""
","
","","","334","","","13","15946","4509","&#9789;","elianto","#f73b6a7A"," "," ","1","0","[1184]","1","0","4","","","","","","","",""
"pit-trial","94","716703","0.0-2.0-17.2-3.2","battery-v0.2","","""event"",""trial"",""time""
""fullscreenenter"",""1"",""2935""
","
","
","""event"",""trial"",""time""
""fullscreenenter"",""1"",""2935""
","
","","","97.99999999988358","","","13","15946","4509","&#9789;","elianto","#f73b6a7A"," "," ","1","-10","[211.99999999988358,689.9999999998836,948.9999999998836,1226.9999999998836,1443.9999999998836,2094.9999999998836,2502.9999999998836]","7","0","4","","","","","","","",""
"pit-trial","95","720402","0.0-2.0-17.2-4.2","battery-v0.2","","""event"",""trial"",""time""
""fullscreenenter"",""1"",""2935""
","
","
","""event"",""trial"",""time""
""fullscreenenter"",""1"",""2935""
","
","","","842.0000000001164","","","13","15946","4509","&#9789;","elianto","#f73b6a7A"," "," ","1","0","[373,614,1693.0000000001164,1909,2142]","5","0","4","","","","","","","",""
"pit-trial","96","723888","0.0-2.0-17.3-0.3","battery-v0.2","","""event"",""trial"",""time""
""fullscreenenter"",""1"",""2935""
","
","
","""event"",""trial"",""time""
""fullscreenenter"",""1"",""2935""
","
","","","628.0000000001164","","","13","15946","4509","&#9789;","elianto","#f73b6a7A"," "," ","1","0","[1480.0000000001164,2009,2230.0000000001164,3319]","4","0","4","","","","","","","",""
"pit-trial","97","727129","0.0-2.0-17.3-1.3","battery-v0.2","","""event"",""trial"",""time""
""fullscreenenter"",""1"",""2935""
","
","
","""event"",""trial"",""time""
""fullscreenenter"",""1"",""2935""
","
","","","383.0000000001164","","","13","15946","4509","&#9789;","elianto","#f73b6a7A"," "," ","1","0","[95,358.0000000001164,1233.0000000001164]","3","0","4","","","","","","","",""
"pit-trial","98","730453","0.0-2.0-17.3-2.3","battery-v0.2","","""event"",""trial"",""time""
""fullscreenenter"",""1"",""2935""
","
","
","""event"",""trial"",""time""
""fullscreenenter"",""1"",""2935""
","
","","","467","","","13","15946","4509","&#9789;","elianto","#f73b6a7A"," "," ","1","0","[1317]","1","0","4","","","","","","","",""
"pit-trial","99","733536","0.0-2.0-17.3-3.3","battery-v0.2","","""event"",""trial"",""time""
""fullscreenenter"",""1"",""2935""
","
","
","""event"",""trial"",""time""
""fullscreenenter"",""1"",""2935""
","
","","","226","","","13","15946","4509","&#9789;","elianto","#f73b6a7A"," "," ","1","-10","[814,1077,1295,1583,1816,3012]","6","0","4","","","","","","","",""
"pit-trial","100","736612","0.0-2.0-17.3-4.3","battery-v0.2","","""event"",""trial"",""time""
""fullscreenenter"",""1"",""2935""
","
","
","""event"",""trial"",""time""
""fullscreenenter"",""1"",""2935""
","
","","","219","","","13","15946","4509","&#9789;","elianto","#f73b6a7A"," "," ","1","0","[1070]","1","0","4","","","","","","","",""
"call-function","101","736617","0.0-2.0-18.0","battery-v0.2","","""event"",""trial"",""time""
""fullscreenenter"",""1"",""2935""
","
","
","""event"",""trial"",""time""
""fullscreenenter"",""1"",""2935""
","
","","","","","","","","","","","","","","","","","","","","","","","","","","",""
"pit-instructions","102","809982","0.0-2.0-19.0","battery-v0.2","","""event"",""trial"",""time""
""fullscreenenter"",""1"",""2935""
","
","
","""event"",""trial"",""time""
""fullscreenenter"",""1"",""2935""
","
","","[{""page_index"":0,""viewing_time"":6547},{""page_index"":1,""viewing_time"":5768},{""page_index"":2,""viewing_time"":14451},{""page_index"":3,""viewing_time"":10748.000000000116},{""page_index"":4,""viewing_time"":8331.999999999884},{""page_index"":5,""viewing_time"":8934},{""page_index"":6,""viewing_time"":8782.000000000116},{""page_index"":7,""viewing_time"":6284.999999999884},{""page_index"":8,""viewing_time"":3518.0000000001164}]","73365.00000000012","","","","","","","","","","","","","","","","","","","","","","","",""
"pit-comprehension","103","814734","0.0-2.0-20.0-0.0","battery-v0.2","","""event"",""trial"",""time""
""fullscreenenter"",""1"",""2935""
","
","
","""event"",""trial"",""time""
""fullscreenenter"",""1"",""2935""
","
","","","4750","[""SPACE""]","0","13","15946","4509","","","","","","","","","","","","","","","","","","",""
"pit-instructions","104","819598","0.0-2.0-20.0-1.0","battery-v0.2","","""event"",""trial"",""time""
""fullscreenenter"",""1"",""2935""
","
","
","""event"",""trial"",""time""
""fullscreenenter"",""1"",""2935""
","
","","[{""page_index"":0,""viewing_time"":4840}]","4841","","","","","","","","","","","","","","","","","","","","","","","",""
"pit-comprehension","105","825931","0.0-2.0-21.0-0.0","battery-v0.2","","""event"",""trial"",""time""
""fullscreenenter"",""1"",""2935""
","
","
","""event"",""trial"",""time""
""fullscreenenter"",""1"",""2935""
","
","","","6331","[""10""]","0","13","15946","4509","","","","","","","","","","","","","","","","","","",""
"pit-instructions","106","832029","0.0-2.0-21.0-1.0","battery-v0.2","","""event"",""trial"",""time""
""fullscreenenter"",""1"",""2935""
","
","
","""event"",""trial"",""time""
""fullscreenenter"",""1"",""2935""
","
","","[{""page_index"":0,""viewing_time"":6074.000000000116}]","6074.000000000116","","","","","","","","","","","","","","","","","","","","","","","",""
"pit-comprehension","107","838947","0.0-2.0-22.0-0.0","battery-v0.2","","""event"",""trial"",""time""
""fullscreenenter"",""1"",""2935""
","
","
","""event"",""trial"",""time""
""fullscreenenter"",""1"",""2935""
","
","","","6916.000000000116","[""0""]","0","13","15946","4509","","","","","","","","","","","","","","","","","","",""
"pit-instructions","108","842265","0.0-2.0-22.0-1.0","battery-v0.2","","""event"",""trial"",""time""
""fullscreenenter"",""1"",""2935""
","
","
","""event"",""trial"",""time""
""fullscreenenter"",""1"",""2935""
","
","","[{""page_index"":0,""viewing_time"":3292}]","3292","","","","","","","","","","","","","","","","","","","","","","","",""
"pit-comprehension","109","850683","0.0-2.0-23.0-0.0","battery-v0.2","","""event"",""trial"",""time""
""fullscreenenter"",""1"",""2935""
","
","
","""event"",""trial"",""time""
""fullscreenenter"",""1"",""2935""
","
","","","8416","[""True""]","0","13","15946","4509","","","","","","","","","","","","","","","","","","",""
"pit-instructions","110","852061","0.0-2.0-23.0-1.0","battery-v0.2","","""event"",""trial"",""time""
""fullscreenenter"",""1"",""2935""
","
","
","""event"",""trial"",""time""
""fullscreenenter"",""1"",""2935""
","
","","[{""page_index"":0,""viewing_time"":1353}]","1353","","","","","","","","","","","","","","","","","","","","","","","",""
"pit-comprehension","111","859529","0.0-2.0-24.0-0.0","battery-v0.2","","""event"",""trial"",""time""
""fullscreenenter"",""1"",""2935""
","
","
","""event"",""trial"",""time""
""fullscreenenter"",""1"",""2935""
","
","","","7464","[""True""]","0","13","15946","4509","","","","","","","","","","","","","","","","","","",""
"pit-instructions","112","863663","0.0-2.0-24.0-1.0","battery-v0.2","","""event"",""trial"",""time""
""fullscreenenter"",""1"",""2935""
","
","
","""event"",""trial"",""time""
""fullscreenenter"",""1"",""2935""
","
","","[{""page_index"":0,""viewing_time"":4107}]","4107","","","","","","","","","","","","","","","","","","","","","","","",""
"pit-comprehension","113","870514","0.0-2.0-25.0-0.0","battery-v0.2","","""event"",""trial"",""time""
""fullscreenenter"",""1"",""2935""
","
","
","""event"",""trial"",""time""
""fullscreenenter"",""1"",""2935""
","
","","","6848","[""True""]","0","13","15946","4509","","","","","","","","","","","","","","","","","","",""
"pit-instructions","114","873962","0.0-2.0-25.0-1.0","battery-v0.2","","""event"",""trial"",""time""
""fullscreenenter"",""1"",""2935""
","
","
","""event"",""trial"",""time""
""fullscreenenter"",""1"",""2935""
","
","","[{""page_index"":0,""viewing_time"":3422}]","3422","","","","","","","","","","","","","","","","","","","","","","","",""
"pit-comprehension","115","879998","0.0-2.0-26.0-0.0","battery-v0.2","","""event"",""trial"",""time""
""fullscreenenter"",""1"",""2935""
","
","
","""event"",""trial"",""time""
""fullscreenenter"",""1"",""2935""
","
","","","6033","[""False""]","0","13","15946","4509","","","","","","","","","","","","","","","","","","",""
"pit-instructions","116","883912","0.0-2.0-26.0-1.0","battery-v0.2","","""event"",""trial"",""time""
""fullscreenenter"",""1"",""2935""
","
","
","""event"",""trial"",""time""
""fullscreenenter"",""1"",""2935""
","
","","[{""page_index"":0,""viewing_time"":3887}]","3887","","","","","","","","","","","","","","","","","","","","","","","",""
"pit-instructions","117","901848","0.0-3.0","battery-v0.2","","""event"",""trial"",""time""
""fullscreenenter"",""1"",""2935""
","
","
","""event"",""trial"",""time""
""fullscreenenter"",""1"",""2935""
","
","","[{""page_index"":0,""viewing_time"":3683},{""page_index"":1,""viewing_time"":5079},{""page_index"":2,""viewing_time"":9170}]","17933","","","","","","","","","","","","","","","","","","","","","","","",""
"pit-trial","118","905770","0.0-4.0","battery-v0.2","","""event"",""trial"",""time""
""fullscreenenter"",""1"",""2935""
","
","
","""event"",""trial"",""time""
""fullscreenenter"",""1"",""2935""
","
","","","1064","","","13","15946","4509","&#9730;","elianto","#3366ff99"," "," ","1","+10","[1915]","1","1","","","15946","1","1","1","win","go","0"
"pit-trial","119","910630","0.0-5.0","battery-v0.2","","""event"",""trial"",""time""
""fullscreenenter"",""1"",""2935""
","
","
","""event"",""trial"",""time""
""fullscreenenter"",""1"",""2935""
","
","","","-1","","","13","15946","4509","&#9752;","elianto","#f73b6a7A"," ","-1","0","-10","[]","0","1","","","15946","2","3","3","lose","go","0"
"pit-trial","120","914421","0.0-6.0","battery-v0.2","","""event"",""trial"",""time""
""fullscreenenter"",""1"",""2935""
","
","
","""event"",""trial"",""time""
""fullscreenenter"",""1"",""2935""
","
","","","931","","","13","15946","4509","&#9733;","elianto","#3366ff99","-1"," ","0","0","[1781.0000000001164]","1","1","","","15946","3","2","2","win","no-go","0"
"pit-trial","121","919281","0.0-7.0","battery-v0.2","","""event"",""trial"",""time""
""fullscreenenter"",""1"",""2935""
","
","
","""event"",""trial"",""time""
""fullscreenenter"",""1"",""2935""
","
","","","-1","","","13","15946","4509","&#9728;","elianto","#f73b6a7A","-1","-1","1","0","[]","0","1","","","15946","4","0","4","lose","no-go","0"
"pit-trial","122","924141","0.0-8.0","battery-v0.2","","""event"",""trial"",""time""
""fullscreenenter"",""1"",""2935""
","
","
","""event"",""trial"",""time""
""fullscreenenter"",""1"",""2935""
","
","","","-1","","","13","15946","4509","&#9733;","elianto","#3366ff99","-1","-1","1","+10","[]","0","1","","","15946","5","2","2","win","no-go","0"
"pit-trial","123","929003","0.0-9.0","battery-v0.2","","""event"",""trial"",""time""
""fullscreenenter"",""1"",""2935""
","
","
","""event"",""trial"",""time""
""fullscreenenter"",""1"",""2935""
","
","","","-1","","","13","15946","4509","&#9728;","elianto","#f73b6a7A","-1","-1","1","0","[]","0","1","","","15946","6","0","4","lose","no-go","0"
"pit-trial","124","932817","0.0-10.0","battery-v0.2","","""event"",""trial"",""time""
""fullscreenenter"",""1"",""2935""
","
","
","""event"",""trial"",""time""
""fullscreenenter"",""1"",""2935""
","
","","","955","","","13","15946","4509","&#9730;","elianto","#3366ff99"," "," ","1","+10","[1804.9999999998836]","1","1","","","15946","7","1","1","win","go","0"
"pit-trial","125","936793","0.0-11.0","battery-v0.2","","""event"",""trial"",""time""
""fullscreenenter"",""1"",""2935""
","
","
","""event"",""trial"",""time""
""fullscreenenter"",""1"",""2935""
","
","","","1116","","","13","15946","4509","&#9752;","elianto","#f73b6a7A"," "," ","1","0","[1967]","1","1","","","15946","8","3","3","lose","go","0"
"pit-trial","126","941653","0.0-12.0","battery-v0.2","","""event"",""trial"",""time""
""fullscreenenter"",""1"",""2935""
","
","
","""event"",""trial"",""time""
""fullscreenenter"",""1"",""2935""
","
","","","-1","","","13","15946","4509","&#9728;","elianto","#f73b6a7A","-1","-1","1","0","[]","0","1","","","15946","9","0","4","lose","no-go","0"
"pit-trial","127","945253","0.0-13.0","battery-v0.2","","""event"",""trial"",""time""
""fullscreenenter"",""1"",""2935""
","
","
","""event"",""trial"",""time""
""fullscreenenter"",""1"",""2935""
","
","","","740.9999999998836","","","13","15946","4509","&#9730;","elianto","#3366ff99"," "," ","1","+10","[1591]","1","1","","","15946","10","1","1","win","go","0"
"pit-trial","128","950113","0.0-14.0","battery-v0.2","","""event"",""trial"",""time""
""fullscreenenter"",""1"",""2935""
","
","
","""event"",""trial"",""time""
""fullscreenenter"",""1"",""2935""
","
","","","-1","","","13","15946","4509","&#9733;","elianto","#3366ff99","-1","-1","1","+10","[]","0","1","","","15946","11","2","2","win","no-go","0"
"pit-trial","129","954364","0.0-15.0","battery-v0.2","","""event"",""trial"",""time""
""fullscreenenter"",""1"",""2935""
","
","
","""event"",""trial"",""time""
""fullscreenenter"",""1"",""2935""
","
","","","1392","","","13","15946","4509","&#9752;","elianto","#f73b6a7A"," "," ","1","0","[2241.9999999998836]","1","1","","","15946","12","3","3","lose","go","0"
"pit-trial","130","959223","0.0-16.0","battery-v0.2","","""event"",""trial"",""time""
""fullscreenenter"",""1"",""2935""
","
","
","""event"",""trial"",""time""
""fullscreenenter"",""1"",""2935""
","
","","","-1","","","13","15946","4509","&#9733;","elianto","#3366ff99","-1","-1","1","+10","[]","0","1","","","15946","13","2","2","win","no-go","0"
"pit-trial","131","962718","0.0-17.0","battery-v0.2","","""event"",""trial"",""time""
""fullscreenenter"",""1"",""2935""
","
","
","""event"",""trial"",""time""
""fullscreenenter"",""1"",""2935""
","
","","","635.0000000001164","","","13","15946","4509","&#9730;","elianto","#3366ff99"," "," ","1","+10","[1486.0000000001164]","1","1","","","15946","14","1","1","win","go","0"
"pit-trial","132","966707","0.0-18.0","battery-v0.2","","""event"",""trial"",""time""
""fullscreenenter"",""1"",""2935""
","
","
","""event"",""trial"",""time""
""fullscreenenter"",""1"",""2935""
","
","","","1131","","","13","15946","4509","&#9752;","elianto","#f73b6a7A"," "," ","1","0","[1981]","1","1","","","15946","15","3","3","lose","go","0"
"pit-trial","133","971565","0.0-19.0","battery-v0.2","","""event"",""trial"",""time""
""fullscreenenter"",""1"",""2935""
","
","
","""event"",""trial"",""time""
""fullscreenenter"",""1"",""2935""
","
","","","-1","","","13","15946","4509","&#9728;","elianto","#f73b6a7A","-1","-1","1","0","[]","0","1","","","15946","16","0","4","lose","no-go","0"
"pit-trial","134","976425","0.0-20.0","battery-v0.2","","""event"",""trial"",""time""
""fullscreenenter"",""1"",""2935""
","
","
","""event"",""trial"",""time""
""fullscreenenter"",""1"",""2935""
","
","","","-1","","","13","15946","4509","&#9728;","elianto","#f73b6a7A","-1","-1","1","0","[]","0","1","","","15946","17","0","4","lose","no-go","0"
"pit-trial","135","979845","0.0-21.0","battery-v0.2","","""event"",""trial"",""time""
""fullscreenenter"",""1"",""2935""
","
","
","""event"",""trial"",""time""
""fullscreenenter"",""1"",""2935""
","
","","","558.9999999998836","","","13","15946","4509","&#9730;","elianto","#3366ff99"," "," ","1","+10","[1409.9999999998836]","1","1","","","15946","18","1","1","win","go","0"
"pit-trial","136","984705","0.0-22.0","battery-v0.2","","""event"",""trial"",""time""
""fullscreenenter"",""1"",""2935""
","
","
","""event"",""trial"",""time""
""fullscreenenter"",""1"",""2935""
","
","","","-1","","","13","15946","4509","&#9752;","elianto","#f73b6a7A"," ","-1","0","-10","[]","0","1","","","15946","19","3","3","lose","go","0"
"pit-trial","137","989564","0.0-23.0","battery-v0.2","","""event"",""trial"",""time""
""fullscreenenter"",""1"",""2935""
","
","
","""event"",""trial"",""time""
""fullscreenenter"",""1"",""2935""
","
","","","-1","","","13","15946","4509","&#9733;","elianto","#3366ff99","-1","-1","1","+10","[]","0","1","","","15946","20","2","2","win","no-go","0"
"pit-instructions","138","1002014","0.0-24.0","battery-v0.2","","""event"",""trial"",""time""
""fullscreenenter"",""1"",""2935""
","
","
","""event"",""trial"",""time""
""fullscreenenter"",""1"",""2935""
","
","","[{""page_index"":0,""viewing_time"":5776.999999999884},{""page_index"":1,""viewing_time"":6666}]","12442.999999999884","","","","","","","","","","","","","","","","","","","","","","","",""
"pit-trial","139","1006633","0.0-25.0","battery-v0.2","","""event"",""trial"",""time""
""fullscreenenter"",""1"",""2935""
","
","
","""event"",""trial"",""time""
""fullscreenenter"",""1"",""2935""
","
","","","1761.9999999998836","","","13","15946","4509","m","elianto","#f73b6a7A","-1"," ","0","-10","[2612.9999999998836]","1","2","","","15946","21","0","4","lose","no-go","0"
"pit-trial","140","1010740","0.0-26.0","battery-v0.2","","""event"",""trial"",""time""
""fullscreenenter"",""1"",""2935""
","
","
","""event"",""trial"",""time""
""fullscreenenter"",""1"",""2935""
","
","","","1249","","","13","15946","4509","r","elianto","#3366ff99"," "," ","1","+10","[2100]","1","2","","","15946","22","1","1","win","go","0"
"pit-trial","141","1015599","0.0-27.0","battery-v0.2","","""event"",""trial"",""time""
""fullscreenenter"",""1"",""2935""
","
","
","""event"",""trial"",""time""
""fullscreenenter"",""1"",""2935""
","
","","","-1","","","13","15946","4509","y","elianto","#f73b6a7A","-1","-1","1","0","[]","0","2","","","15946","23","2","4","lose","no-go","0"
"pit-trial","142","1020459","0.0-28.0","battery-v0.2","","""event"",""trial"",""time""
""fullscreenenter"",""1"",""2935""
","
","
","""event"",""trial"",""time""
""fullscreenenter"",""1"",""2935""
","
","","","-1","","","13","15946","4509","h","elianto","#f73b6a7A"," ","-1","0","-10","[]","0","2","","","15946","24","3","3","lose","go","0"
"pit-trial","143","1025320","0.0-29.0","battery-v0.2","","""event"",""trial"",""time""
""fullscreenenter"",""1"",""2935""
","
","
","""event"",""trial"",""time""
""fullscreenenter"",""1"",""2935""
","
","","","-1","","","13","15946","4509","y","elianto","#f73b6a7A","-1","-1","1","0","[]","0","2","","","15946","25","2","4","lose","no-go","0"
"pit-trial","144","1030179","0.0-30.0","battery-v0.2","","""event"",""trial"",""time""
""fullscreenenter"",""1"",""2935""
","
","
","""event"",""trial"",""time""
""fullscreenenter"",""1"",""2935""
","
","","","-1","","","13","15946","4509","h","elianto","#f73b6a7A"," ","-1","0","-10","[]","0","2","","","15946","26","3","3","lose","go","0"
"pit-trial","145","1035039","0.0-31.0","battery-v0.2","","""event"",""trial"",""time""
""fullscreenenter"",""1"",""2935""
","
","
","""event"",""trial"",""time""
""fullscreenenter"",""1"",""2935""
","
","","","-1","","","13","15946","4509","m","elianto","#f73b6a7A","-1","-1","1","0","[]","0","2","","","15946","27","0","4","lose","no-go","0"
"pit-trial","146","1038739","0.0-32.0","battery-v0.2","","""event"",""trial"",""time""
""fullscreenenter"",""1"",""2935""
","
","
","""event"",""trial"",""time""
""fullscreenenter"",""1"",""2935""
","
","","","839.9999999998836","","","13","15946","4509","r","elianto","#3366ff99"," "," ","1","+10","[1691]","1","2","","","15946","28","1","1","win","go","0"
"pit-trial","147","1043599","0.0-33.0","battery-v0.2","","""event"",""trial"",""time""
""fullscreenenter"",""1"",""2935""
","
","
","""event"",""trial"",""time""
""fullscreenenter"",""1"",""2935""
","
","","","-1","","","13","15946","4509","m","elianto","#f73b6a7A","-1","-1","1","0","[]","0","2","","","15946","29","0","4","lose","no-go","0"
"pit-trial","148","1047498","0.0-34.0","battery-v0.2","","""event"",""trial"",""time""
""fullscreenenter"",""1"",""2935""
","
","
","""event"",""trial"",""time""
""fullscreenenter"",""1"",""2935""
","
","","","1039.9999999998836","","","13","15946","4509","y","elianto","#f73b6a7A","-1"," ","0","-10","[1890]","1","2","","","15946","30","2","4","lose","no-go","0"
"pit-trial","149","1051177","0.0-35.0","battery-v0.2","","""event"",""trial"",""time""
""fullscreenenter"",""1"",""2935""
","
","
","""event"",""trial"",""time""
""fullscreenenter"",""1"",""2935""
","
","","","820","","","13","15946","4509","r","elianto","#3366ff99"," "," ","1","+10","[1670]","1","2","","","15946","31","1","1","win","go","0"
"pit-trial","150","1056036","0.0-36.0","battery-v0.2","","""event"",""trial"",""time""
""fullscreenenter"",""1"",""2935""
","
","
","""event"",""trial"",""time""
""fullscreenenter"",""1"",""2935""
","
","","","-1","","","13","15946","4509","h","elianto","#f73b6a7A"," ","-1","0","-10","[]","0","2","","","15946","32","3","3","lose","go","0"
"pit-trial","151","1059407","0.0-37.0","battery-v0.2","","""event"",""trial"",""time""
""fullscreenenter"",""1"",""2935""
","
","
","""event"",""trial"",""time""
""fullscreenenter"",""1"",""2935""
","
","","","512","","","13","15946","4509","r","elianto","#3366ff99"," "," ","1","0","[1362]","1","2","","","15946","33","1","1","win","go","1"
"pit-trial","152","1064266","0.0-38.0","battery-v0.2","","""event"",""trial"",""time""
""fullscreenenter"",""1"",""2935""
","
","
","""event"",""trial"",""time""
""fullscreenenter"",""1"",""2935""
","
","","","-1","","","13","15946","4509","y","elianto","#f73b6a7A","-1","-1","1","-10","[]","0","2","","","15946","34","2","4","lose","no-go","1"
"pit-trial","153","1069125","0.0-39.0","battery-v0.2","","""event"",""trial"",""time""
""fullscreenenter"",""1"",""2935""
","
","
","""event"",""trial"",""time""
""fullscreenenter"",""1"",""2935""
","
","","","-1","","","13","15946","4509","m","elianto","#f73b6a7A","-1","-1","1","0","[]","0","2","","","15946","35","0","4","lose","no-go","0"
"pit-trial","154","1073986","0.0-40.0","battery-v0.2","","""event"",""trial"",""time""
""fullscreenenter"",""1"",""2935""
","
","
","""event"",""trial"",""time""
""fullscreenenter"",""1"",""2935""
","
","","","-1","","","13","15946","4509","h","elianto","#f73b6a7A"," ","-1","0","-10","[]","0","2","","","15946","36","3","3","lose","go","0"
"pit-trial","155","1077597","0.0-41.0","battery-v0.2","","""event"",""trial"",""time""
""fullscreenenter"",""1"",""2935""
","
","
","""event"",""trial"",""time""
""fullscreenenter"",""1"",""2935""
","
","","","753","","","13","15946","4509","y","elianto","#f73b6a7A","-1"," ","0","-10","[1603.9999999997672]","1","2","","","15946","37","2","4","lose","no-go","0"
"pit-trial","156","1080897","0.0-42.0","battery-v0.2","","""event"",""trial"",""time""
""fullscreenenter"",""1"",""2935""
","
","
","""event"",""trial"",""time""
""fullscreenenter"",""1"",""2935""
","
","","","441","","","13","15946","4509","h","elianto","#f73b6a7A"," "," ","1","0","[1291]","1","2","","","15946","38","3","3","lose","go","0"
"pit-trial","157","1084309","0.0-43.0","battery-v0.2","","""event"",""trial"",""time""
""fullscreenenter"",""1"",""2935""
","
","
","""event"",""trial"",""time""
""fullscreenenter"",""1"",""2935""
","
","","","553","","","13","15946","4509","r","elianto","#3366ff99"," "," ","1","+10","[1404]","1","2","","","15946","39","1","1","win","go","0"
"pit-trial","158","1089168","0.0-44.0","battery-v0.2","","""event"",""trial"",""time""
""fullscreenenter"",""1"",""2935""
","
","
","""event"",""trial"",""time""
""fullscreenenter"",""1"",""2935""
","
","","","-1","","","13","15946","4509","m","elianto","#f73b6a7A","-1","-1","1","0","[]","0","2","","","15946","40","0","4","lose","no-go","0"
"pit-trial","159","1094027","0.0-45.0","battery-v0.2","","""event"",""trial"",""time""
""fullscreenenter"",""1"",""2935""
","
","
","""event"",""trial"",""time""
""fullscreenenter"",""1"",""2935""
","
","","","-1","","","13","15946","4509","m","elianto","#f73b6a7A","-1","-1","1","0","[]","0","2","","","15946","41","0","4","lose","no-go","0"
"pit-trial","160","1098886","0.0-46.0","battery-v0.2","","""event"",""trial"",""time""
""fullscreenenter"",""1"",""2935""
","
","
","""event"",""trial"",""time""
""fullscreenenter"",""1"",""2935""
","
","","","-1","","","13","15946","4509","y","elianto","#f73b6a7A","-1","-1","1","0","[]","0","2","","","15946","42","2","4","lose","no-go","0"
"pit-trial","161","1102371","0.0-47.0","battery-v0.2","","""event"",""trial"",""time""
""fullscreenenter"",""1"",""2935""
","
","
","""event"",""trial"",""time""
""fullscreenenter"",""1"",""2935""
","
","","","627","","","13","15946","4509","h","elianto","#f73b6a7A"," "," ","1","0","[1477]","1","2","","","15946","43","3","3","lose","go","0"
"pit-trial","162","1105753","0.0-48.0","battery-v0.2","","""event"",""trial"",""time""
""fullscreenenter"",""1"",""2935""
","
","
","""event"",""trial"",""time""
""fullscreenenter"",""1"",""2935""
","
","","","523.0000000002328","","","13","15946","4509","r","elianto","#3366ff99"," "," ","1","+10","[1373.0000000002328]","1","2","","","15946","44","1","1","win","go","0"
"pit-trial","163","1109378","0.0-49.0","battery-v0.2","","""event"",""trial"",""time""
""fullscreenenter"",""1"",""2935""
","
","
","""event"",""trial"",""time""
""fullscreenenter"",""1"",""2935""
","
","","","766.0000000002328","","","13","15946","4509","z","elianto","#3366ff99","-1"," ","0","0","[1616.0000000002328]","1","2","","","15946","45","4","2","win","no-go","0"
"pit-trial","164","1114237","0.0-50.0","battery-v0.2","","""event"",""trial"",""time""
""fullscreenenter"",""1"",""2935""
","
","
","""event"",""trial"",""time""
""fullscreenenter"",""1"",""2935""
","
","","","-1","","","13","15946","4509","h","elianto","#f73b6a7A"," ","-1","0","-10","[]","0","2","","","15946","46","3","3","lose","go","0"
"pit-trial","165","1119096","0.0-51.0","battery-v0.2","","""event"",""trial"",""time""
""fullscreenenter"",""1"",""2935""
","
","
","""event"",""trial"",""time""
""fullscreenenter"",""1"",""2935""
","
","","","-1","","","13","15946","4509","m","elianto","#f73b6a7A","-1","-1","1","0","[]","0","2","","","15946","47","0","4","lose","no-go","0"
"pit-trial","166","1123954","0.0-52.0","battery-v0.2","","""event"",""trial"",""time""
""fullscreenenter"",""1"",""2935""
","
","
","""event"",""trial"",""time""
""fullscreenenter"",""1"",""2935""
","
","","","-1","","","13","15946","4509","y","elianto","#f73b6a7A","-1","-1","1","0","[]","0","2","","","15946","48","2","4","lose","no-go","0"
"pit-trial","167","1127390","0.0-53.0","battery-v0.2","","""event"",""trial"",""time""
""fullscreenenter"",""1"",""2935""
","
","
","""event"",""trial"",""time""
""fullscreenenter"",""1"",""2935""
","
","","","578","","","13","15946","4509","z","elianto","#3366ff99","-1"," ","0","0","[1429]","1","2","","","15946","49","4","2","win","no-go","0"
"pit-trial","168","1132249","0.0-54.0","battery-v0.2","","""event"",""trial"",""time""
""fullscreenenter"",""1"",""2935""
","
","
","""event"",""trial"",""time""
""fullscreenenter"",""1"",""2935""
","
","","","-1","","","13","15946","4509","h","elianto","#f73b6a7A"," ","-1","0","-10","[]","0","2","","","15946","50","3","3","lose","go","0"
"pit-trial","169","1137109","0.0-55.0","battery-v0.2","","""event"",""trial"",""time""
""fullscreenenter"",""1"",""2935""
","
","
","""event"",""trial"",""time""
""fullscreenenter"",""1"",""2935""
","
","","","-1","","","13","15946","4509","m","elianto","#f73b6a7A","-1","-1","1","0","[]","0","2","","","15946","51","0","4","lose","no-go","0"
"pit-trial","170","1140640","0.0-56.0","battery-v0.2","","""event"",""trial"",""time""
""fullscreenenter"",""1"",""2935""
","
","
","""event"",""trial"",""time""
""fullscreenenter"",""1"",""2935""
","
","","","671","","","13","15946","4509","r","elianto","#3366ff99"," "," ","1","+10","[1522]","1","2","","","15946","52","1","1","win","go","0"
"pit-trial","171","1144203","0.0-57.0","battery-v0.2","","""event"",""trial"",""time""
""fullscreenenter"",""1"",""2935""
""blur"",""172"",""1144741""
","""event"",""trial"",""time""
""blur"",""172"",""1144741""
","
","""event"",""trial"",""time""
""fullscreenenter"",""1"",""2935""
","
","","","704","","","13","15946","4509","r","elianto","#3366ff99"," "," ","1","+10","[1554]","1","2","","","15946","53","1","1","win","go","0"
"pit-trial","172","1149338","0.0-58.0","battery-v0.2","","""event"",""trial"",""time""
""fullscreenenter"",""1"",""2935""
""blur"",""172"",""1144741""
","""event"",""trial"",""time""
""blur"",""172"",""1144741""
","
","""event"",""trial"",""time""
""fullscreenenter"",""1"",""2935""
","
","","","-1","","","13","15946","4509","y","elianto","#f73b6a7A","-1","-1","1","0","[]","0","2","","","15946","54","2","4","lose","no-go","0"
"pit-trial","173","1154345","0.0-59.0","battery-v0.2","","""event"",""trial"",""time""
""fullscreenenter"",""1"",""2935""
""blur"",""172"",""1144741""
""fullscreenexit"",""174"",""1158703""
""focus"",""174"",""1158821""
","""event"",""trial"",""time""
""blur"",""172"",""1144741""
","""event"",""trial"",""time""
""focus"",""174"",""1158821""
","""event"",""trial"",""time""
""fullscreenenter"",""1"",""2935""
","""event"",""trial"",""time""
""fullscreenexit"",""174"",""1158703""
","","","-1","","","13","15946","4509","z","elianto","#3366ff99","-1","-1","1","+10","[]","0","2","","","15946","55","4","2","win","no-go","0"
"pit-trial","174","1159295","0.0-60.0","battery-v0.2","","""event"",""trial"",""time""
""fullscreenenter"",""1"",""2935""
""blur"",""172"",""1144741""
""fullscreenexit"",""174"",""1158703""
""focus"",""174"",""1158821""
","""event"",""trial"",""time""
""blur"",""172"",""1144741""
","""event"",""trial"",""time""
""focus"",""174"",""1158821""
","""event"",""trial"",""time""
""fullscreenenter"",""1"",""2935""
","""event"",""trial"",""time""
""fullscreenexit"",""174"",""1158703""
","","","-1","","","13","15946","4509","m","elianto","#f73b6a7A","-1","-1","1","0","[]","0","2","","","15946","56","0","4","lose","no-go","0"
"pit-trial","175","1164151","0.0-61.0","battery-v0.2","","""event"",""trial"",""time""
""fullscreenenter"",""1"",""2935""
""blur"",""172"",""1144741""
""fullscreenexit"",""174"",""1158703""
""focus"",""174"",""1158821""
","""event"",""trial"",""time""
""blur"",""172"",""1144741""
","""event"",""trial"",""time""
""focus"",""174"",""1158821""
","""event"",""trial"",""time""
""fullscreenenter"",""1"",""2935""
","""event"",""trial"",""time""
""fullscreenexit"",""174"",""1158703""
","","","-1","","","13","15946","4509","h","elianto","#f73b6a7A"," ","-1","0","-10","[]","0","2","","","15946","57","3","3","lose","go","0"
"pit-trial","176","1167649","0.0-62.0","battery-v0.2","","""event"",""trial"",""time""
""fullscreenenter"",""1"",""2935""
""blur"",""172"",""1144741""
""fullscreenexit"",""174"",""1158703""
""focus"",""174"",""1158821""
","""event"",""trial"",""time""
""blur"",""172"",""1144741""
","""event"",""trial"",""time""
""focus"",""174"",""1158821""
","""event"",""trial"",""time""
""fullscreenenter"",""1"",""2935""
","""event"",""trial"",""time""
""fullscreenexit"",""174"",""1158703""
","","","639","","","13","15946","4509","z","elianto","#3366ff99","-1"," ","0","0","[1490]","1","2","","","15946","58","4","2","win","no-go","0"
"pit-trial","177","1172507","0.0-63.0","battery-v0.2","","""event"",""trial"",""time""
""fullscreenenter"",""1"",""2935""
""blur"",""172"",""1144741""
""fullscreenexit"",""174"",""1158703""
""focus"",""174"",""1158821""
","""event"",""trial"",""time""
""blur"",""172"",""1144741""
","""event"",""trial"",""time""
""focus"",""174"",""1158821""
","""event"",""trial"",""time""
""fullscreenenter"",""1"",""2935""
","""event"",""trial"",""time""
""fullscreenexit"",""174"",""1158703""
","","","-1","","","13","15946","4509","m","elianto","#f73b6a7A","-1","-1","1","0","[]","0","2","","","15946","59","0","4","lose","no-go","0"
"pit-trial","178","1175574","0.0-64.0","battery-v0.2","","""event"",""trial"",""time""
""fullscreenenter"",""1"",""2935""
""blur"",""172"",""1144741""
""fullscreenexit"",""174"",""1158703""
""focus"",""174"",""1158821""
","""event"",""trial"",""time""
""blur"",""172"",""1144741""
","""event"",""trial"",""time""
""focus"",""174"",""1158821""
","""event"",""trial"",""time""
""fullscreenenter"",""1"",""2935""
","""event"",""trial"",""time""
""fullscreenexit"",""174"",""1158703""
","","","209","","","13","15946","4509","r","elianto","#3366ff99"," "," ","1","+10","[1060]","1","2","","","15946","60","1","1","win","go","0"
"pit-trial","179","1179026","0.0-65.0","battery-v0.2","","""event"",""trial"",""time""
""fullscreenenter"",""1"",""2935""
""blur"",""172"",""1144741""
""fullscreenexit"",""174"",""1158703""
""focus"",""174"",""1158821""
","""event"",""trial"",""time""
""blur"",""172"",""1144741""
","""event"",""trial"",""time""
""focus"",""174"",""1158821""
","""event"",""trial"",""time""
""fullscreenenter"",""1"",""2935""
","""event"",""trial"",""time""
""fullscreenexit"",""174"",""1158703""
","","","594","","","13","15946","4509","z","elianto","#3366ff99","-1"," ","0","0","[1444]","1","2","","","15946","61","4","2","win","no-go","0"
"pit-trial","180","1183052","0.0-66.0","battery-v0.2","","""event"",""trial"",""time""
""fullscreenenter"",""1"",""2935""
""blur"",""172"",""1144741""
""fullscreenexit"",""174"",""1158703""
""focus"",""174"",""1158821""
","""event"",""trial"",""time""
""blur"",""172"",""1144741""
","""event"",""trial"",""time""
""focus"",""174"",""1158821""
","""event"",""trial"",""time""
""fullscreenenter"",""1"",""2935""
","""event"",""trial"",""time""
""fullscreenexit"",""174"",""1158703""
","","","1167","","","13","15946","4509","y","elianto","#f73b6a7A","-1"," ","0","-10","[2018]","1","2","","","15946","62","2","4","lose","no-go","0"
"pit-trial","181","1186587","0.0-67.0","battery-v0.2","","""event"",""trial"",""time""
""fullscreenenter"",""1"",""2935""
""blur"",""172"",""1144741""
""fullscreenexit"",""174"",""1158703""
""focus"",""174"",""1158821""
","""event"",""trial"",""time""
""blur"",""172"",""1144741""
","""event"",""trial"",""time""
""focus"",""174"",""1158821""
","""event"",""trial"",""time""
""fullscreenenter"",""1"",""2935""
","""event"",""trial"",""time""
""fullscreenexit"",""174"",""1158703""
","","","679","","","13","15946","4509","r","elianto","#3366ff99"," "," ","1","+10","[1530]","1","2","","","15946","63","1","1","win","go","0"
"pit-trial","182","1191003","0.0-68.0","battery-v0.2","","""event"",""trial"",""time""
""fullscreenenter"",""1"",""2935""
""blur"",""172"",""1144741""
""fullscreenexit"",""174"",""1158703""
""focus"",""174"",""1158821""
","""event"",""trial"",""time""
""blur"",""172"",""1144741""
","""event"",""trial"",""time""
""focus"",""174"",""1158821""
","""event"",""trial"",""time""
""fullscreenenter"",""1"",""2935""
","""event"",""trial"",""time""
""fullscreenexit"",""174"",""1158703""
","","","1557.9999999997672","","","13","15946","4509","h","elianto","#f73b6a7A"," "," ","1","-10","[2408]","1","2","","","15946","64","3","3","lose","go","1"
"pit-trial","183","1195861","0.0-69.0","battery-v0.2","","""event"",""trial"",""time""
""fullscreenenter"",""1"",""2935""
""blur"",""172"",""1144741""
""fullscreenexit"",""174"",""1158703""
""focus"",""174"",""1158821""
","""event"",""trial"",""time""
""blur"",""172"",""1144741""
","""event"",""trial"",""time""
""focus"",""174"",""1158821""
","""event"",""trial"",""time""
""fullscreenenter"",""1"",""2935""
","""event"",""trial"",""time""
""fullscreenexit"",""174"",""1158703""
","","","-1","","","13","15946","4509","z","elianto","#3366ff99","-1","-1","1","+10","[]","0","2","","","15946","65","4","2","win","no-go","0"
"pit-trial","184","1199567","0.0-70.0","battery-v0.2","","""event"",""trial"",""time""
""fullscreenenter"",""1"",""2935""
""blur"",""172"",""1144741""
""fullscreenexit"",""174"",""1158703""
""focus"",""174"",""1158821""
","""event"",""trial"",""time""
""blur"",""172"",""1144741""
","""event"",""trial"",""time""
""focus"",""174"",""1158821""
","""event"",""trial"",""time""
""fullscreenenter"",""1"",""2935""
","""event"",""trial"",""time""
""fullscreenexit"",""174"",""1158703""
","","","849","","","13","15946","4509","y","elianto","#f73b6a7A","-1"," ","0","-10","[1698.9999999997672]","1","2","","","15946","66","2","4","lose","no-go","0"
"pit-trial","185","1203208","0.0-71.0","battery-v0.2","","""event"",""trial"",""time""
""fullscreenenter"",""1"",""2935""
""blur"",""172"",""1144741""
""fullscreenexit"",""174"",""1158703""
""focus"",""174"",""1158821""
","""event"",""trial"",""time""
""blur"",""172"",""1144741""
","""event"",""trial"",""time""
""focus"",""174"",""1158821""
","""event"",""trial"",""time""
""fullscreenenter"",""1"",""2935""
","""event"",""trial"",""time""
""fullscreenexit"",""174"",""1158703""
","","","781","","","13","15946","4509","r","elianto","#3366ff99"," "," ","1","+10","[1632]","1","2","","","15946","67","1","1","win","go","0"
"pit-trial","186","1208067","0.0-72.0","battery-v0.2","","""event"",""trial"",""time""
""fullscreenenter"",""1"",""2935""
""blur"",""172"",""1144741""
""fullscreenexit"",""174"",""1158703""
""focus"",""174"",""1158821""
","""event"",""trial"",""time""
""blur"",""172"",""1144741""
","""event"",""trial"",""time""
""focus"",""174"",""1158821""
","""event"",""trial"",""time""
""fullscreenenter"",""1"",""2935""
","""event"",""trial"",""time""
""fullscreenexit"",""174"",""1158703""
","","","-1","","","13","15946","4509","h","elianto","#f73b6a7A"," ","-1","0","-10","[3229.000000000233]","1","2","","","15946","68","3","3","lose","go","0"
"pit-trial","187","1212229","0.0-73.0","battery-v0.2","","""event"",""trial"",""time""
""fullscreenenter"",""1"",""2935""
""blur"",""172"",""1144741""
""fullscreenexit"",""174"",""1158703""
""focus"",""174"",""1158821""
","""event"",""trial"",""time""
""blur"",""172"",""1144741""
","""event"",""trial"",""time""
""focus"",""174"",""1158821""
","""event"",""trial"",""time""
""fullscreenenter"",""1"",""2935""
","""event"",""trial"",""time""
""fullscreenexit"",""174"",""1158703""
","","","1303","","","13","15946","4509","c","elianto","#3366ff99"," "," ","1","+10","[2155]","1","2","","","15946","69","5","1","win","go","0"
"pit-trial","188","1216266","0.0-74.0","battery-v0.2","","""event"",""trial"",""time""
""fullscreenenter"",""1"",""2935""
""blur"",""172"",""1144741""
""fullscreenexit"",""174"",""1158703""
""focus"",""174"",""1158821""
","""event"",""trial"",""time""
""blur"",""172"",""1144741""
","""event"",""trial"",""time""
""focus"",""174"",""1158821""
","""event"",""trial"",""time""
""fullscreenenter"",""1"",""2935""
","""event"",""trial"",""time""
""fullscreenexit"",""174"",""1158703""
","","","1178","","","13","15946","4509","h","elianto","#f73b6a7A"," "," ","1","0","[2029]","1","2","","","15946","70","3","3","lose","go","0"
"pit-trial","189","1219815","0.0-75.0","battery-v0.2","","""event"",""trial"",""time""
""fullscreenenter"",""1"",""2935""
""blur"",""172"",""1144741""
""fullscreenexit"",""174"",""1158703""
""focus"",""174"",""1158821""
","""event"",""trial"",""time""
""blur"",""172"",""1144741""
","""event"",""trial"",""time""
""focus"",""174"",""1158821""
","""event"",""trial"",""time""
""fullscreenenter"",""1"",""2935""
","""event"",""trial"",""time""
""fullscreenexit"",""174"",""1158703""
","","","691","","","13","15946","4509","z","elianto","#3366ff99","-1"," ","0","0","[1541]","1","2","","","15946","71","4","2","win","no-go","0"
"pit-trial","190","1223514","0.0-76.0","battery-v0.2","","""event"",""trial"",""time""
""fullscreenenter"",""1"",""2935""
""blur"",""172"",""1144741""
""fullscreenexit"",""174"",""1158703""
""focus"",""174"",""1158821""
","""event"",""trial"",""time""
""blur"",""172"",""1144741""
","""event"",""trial"",""time""
""focus"",""174"",""1158821""
","""event"",""trial"",""time""
""fullscreenenter"",""1"",""2935""
","""event"",""trial"",""time""
""fullscreenexit"",""174"",""1158703""
","","","841","","","13","15946","4509","r","elianto","#3366ff99"," "," ","1","+10","[1693]","1","2","","","15946","72","1","1","win","go","0"
"pit-trial","191","1227807","0.0-77.0","battery-v0.2","","""event"",""trial"",""time""
""fullscreenenter"",""1"",""2935""
""blur"",""172"",""1144741""
""fullscreenexit"",""174"",""1158703""
""focus"",""174"",""1158821""
","""event"",""trial"",""time""
""blur"",""172"",""1144741""
","""event"",""trial"",""time""
""focus"",""174"",""1158821""
","""event"",""trial"",""time""
""fullscreenenter"",""1"",""2935""
","""event"",""trial"",""time""
""fullscreenexit"",""174"",""1158703""
","","","1435","","","13","15946","4509","c","elianto","#3366ff99"," "," ","1","+10","[2286]","1","2","","","15946","73","5","1","win","go","0"
"pit-trial","192","1231983","0.0-78.0","battery-v0.2","","""event"",""trial"",""time""
""fullscreenenter"",""1"",""2935""
""blur"",""172"",""1144741""
""fullscreenexit"",""174"",""1158703""
""focus"",""174"",""1158821""
","""event"",""trial"",""time""
""blur"",""172"",""1144741""
","""event"",""trial"",""time""
""focus"",""174"",""1158821""
","""event"",""trial"",""time""
""fullscreenenter"",""1"",""2935""
","""event"",""trial"",""time""
""fullscreenexit"",""174"",""1158703""
","","","1317","","","13","15946","4509","h","elianto","#f73b6a7A"," "," ","1","0","[2168.000000000233]","1","2","","","15946","74","3","3","lose","go","0"
"pit-trial","193","1236840","0.0-79.0","battery-v0.2","","""event"",""trial"",""time""
""fullscreenenter"",""1"",""2935""
""blur"",""172"",""1144741""
""fullscreenexit"",""174"",""1158703""
""focus"",""174"",""1158821""
","""event"",""trial"",""time""
""blur"",""172"",""1144741""
","""event"",""trial"",""time""
""focus"",""174"",""1158821""
","""event"",""trial"",""time""
""fullscreenenter"",""1"",""2935""
","""event"",""trial"",""time""
""fullscreenexit"",""174"",""1158703""
","","","-1","","","13","15946","4509","z","elianto","#3366ff99","-1","-1","1","0","[]","0","2","","","15946","75","4","2","win","no-go","1"
"pit-trial","194","1240532","0.0-80.0","battery-v0.2","","""event"",""trial"",""time""
""fullscreenenter"",""1"",""2935""
""blur"",""172"",""1144741""
""fullscreenexit"",""174"",""1158703""
""focus"",""174"",""1158821""
","""event"",""trial"",""time""
""blur"",""172"",""1144741""
","""event"",""trial"",""time""
""focus"",""174"",""1158821""
","""event"",""trial"",""time""
""fullscreenenter"",""1"",""2935""
","""event"",""trial"",""time""
""fullscreenexit"",""174"",""1158703""
","","","833","","","13","15946","4509","r","elianto","#3366ff99"," "," ","1","+10","[1683.9999999997672]","1","2","","","15946","76","1","1","win","go","0"
"pit-trial","195","1245392","0.0-81.0","battery-v0.2","","""event"",""trial"",""time""
""fullscreenenter"",""1"",""2935""
""blur"",""172"",""1144741""
""fullscreenexit"",""174"",""1158703""
""focus"",""174"",""1158821""
","""event"",""trial"",""time""
""blur"",""172"",""1144741""
","""event"",""trial"",""time""
""focus"",""174"",""1158821""
","""event"",""trial"",""time""
""fullscreenenter"",""1"",""2935""
","""event"",""trial"",""time""
""fullscreenexit"",""174"",""1158703""
","","","-1","","","13","15946","4509","h","elianto","#f73b6a7A"," ","-1","0","-10","[]","0","2","","","15946","77","3","3","lose","go","0"
"pit-trial","196","1249486","0.0-82.0","battery-v0.2","","""event"",""trial"",""time""
""fullscreenenter"",""1"",""2935""
""blur"",""172"",""1144741""
""fullscreenexit"",""174"",""1158703""
""focus"",""174"",""1158821""
","""event"",""trial"",""time""
""blur"",""172"",""1144741""
","""event"",""trial"",""time""
""focus"",""174"",""1158821""
","""event"",""trial"",""time""
""fullscreenenter"",""1"",""2935""
","""event"",""trial"",""time""
""fullscreenexit"",""174"",""1158703""
","","","1237","","","13","15946","4509","c","elianto","#3366ff99"," "," ","1","+10","[2086]","1","2","","","15946","78","5","1","win","go","0"
"pit-trial","197","1254343","0.0-83.0","battery-v0.2","","""event"",""trial"",""time""
""fullscreenenter"",""1"",""2935""
""blur"",""172"",""1144741""
""fullscreenexit"",""174"",""1158703""
""focus"",""174"",""1158821""
","""event"",""trial"",""time""
""blur"",""172"",""1144741""
","""event"",""trial"",""time""
""focus"",""174"",""1158821""
","""event"",""trial"",""time""
""fullscreenenter"",""1"",""2935""
","""event"",""trial"",""time""
""fullscreenexit"",""174"",""1158703""
","","","-1","","","13","15946","4509","z","elianto","#3366ff99","-1","-1","1","+10","[]","0","2","","","15946","79","4","2","win","no-go","0"
"pit-trial","198","1259065","0.0-84.0","battery-v0.2","","""event"",""trial"",""time""
""fullscreenenter"",""1"",""2935""
""blur"",""172"",""1144741""
""fullscreenexit"",""174"",""1158703""
""focus"",""174"",""1158821""
","""event"",""trial"",""time""
""blur"",""172"",""1144741""
","""event"",""trial"",""time""
""focus"",""174"",""1158821""
","""event"",""trial"",""time""
""fullscreenenter"",""1"",""2935""
","""event"",""trial"",""time""
""fullscreenexit"",""174"",""1158703""
","","","1865","","","13","15946","4509","b","elianto","#f73b6a7A","-1"," ","0","-10","[2716]","1","2","","","15946","80","6","4","lose","no-go","0"
"pit-trial","199","1263925","0.0-85.0","battery-v0.2","","""event"",""trial"",""time""
""fullscreenenter"",""1"",""2935""
""blur"",""172"",""1144741""
""fullscreenexit"",""174"",""1158703""
""focus"",""174"",""1158821""
","""event"",""trial"",""time""
""blur"",""172"",""1144741""
","""event"",""trial"",""time""
""focus"",""174"",""1158821""
","""event"",""trial"",""time""
""fullscreenenter"",""1"",""2935""
","""event"",""trial"",""time""
""fullscreenexit"",""174"",""1158703""
","","","-1","","","13","15946","4509","b","elianto","#f73b6a7A","-1","-1","1","-10","[]","0","2","","","15946","81","6","4","lose","no-go","1"
"pit-trial","200","1268058","0.0-86.0","battery-v0.2","","""event"",""trial"",""time""
""fullscreenenter"",""1"",""2935""
""blur"",""172"",""1144741""
""fullscreenexit"",""174"",""1158703""
""focus"",""174"",""1158821""
","""event"",""trial"",""time""
""blur"",""172"",""1144741""
","""event"",""trial"",""time""
""focus"",""174"",""1158821""
","""event"",""trial"",""time""
""fullscreenenter"",""1"",""2935""
","""event"",""trial"",""time""
""fullscreenexit"",""174"",""1158703""
","","","1276","","","13","15946","4509","c","elianto","#3366ff99"," "," ","1","+10","[2127]","1","2","","","15946","82","5","1","win","go","0"
"pit-trial","201","1272918","0.0-87.0","battery-v0.2","","""event"",""trial"",""time""
""fullscreenenter"",""1"",""2935""
""blur"",""172"",""1144741""
""fullscreenexit"",""174"",""1158703""
""focus"",""174"",""1158821""
","""event"",""trial"",""time""
""blur"",""172"",""1144741""
","""event"",""trial"",""time""
""focus"",""174"",""1158821""
","""event"",""trial"",""time""
""fullscreenenter"",""1"",""2935""
","""event"",""trial"",""time""
""fullscreenexit"",""174"",""1158703""
","","","-1","","","13","15946","4509","t","elianto","#f73b6a7A"," ","-1","0","-10","[2948]","1","2","","","15946","83","7","3","lose","go","0"
"pit-trial","202","1276489","0.0-88.0","battery-v0.2","","""event"",""trial"",""time""
""fullscreenenter"",""1"",""2935""
""blur"",""172"",""1144741""
""fullscreenexit"",""174"",""1158703""
""focus"",""174"",""1158821""
","""event"",""trial"",""time""
""blur"",""172"",""1144741""
","""event"",""trial"",""time""
""focus"",""174"",""1158821""
","""event"",""trial"",""time""
""fullscreenenter"",""1"",""2935""
","""event"",""trial"",""time""
""fullscreenexit"",""174"",""1158703""
","","","713","","","13","15946","4509","z","elianto","#3366ff99","-1"," ","0","0","[1564]","1","2","","","15946","84","4","2","win","no-go","0"
"pit-trial","203","1280333","0.0-89.0","battery-v0.2","","""event"",""trial"",""time""
""fullscreenenter"",""1"",""2935""
""blur"",""172"",""1144741""
""fullscreenexit"",""174"",""1158703""
""focus"",""174"",""1158821""
","""event"",""trial"",""time""
""blur"",""172"",""1144741""
","""event"",""trial"",""time""
""focus"",""174"",""1158821""
","""event"",""trial"",""time""
""fullscreenenter"",""1"",""2935""
","""event"",""trial"",""time""
""fullscreenexit"",""174"",""1158703""
","","","984.9999999997672","","","13","15946","4509","t","elianto","#f73b6a7A"," "," ","1","-10","[1836]","1","2","","","15946","85","7","3","lose","go","1"
"pit-trial","204","1284761","0.0-90.0","battery-v0.2","","""event"",""trial"",""time""
""fullscreenenter"",""1"",""2935""
""blur"",""172"",""1144741""
""fullscreenexit"",""174"",""1158703""
""focus"",""174"",""1158821""
","""event"",""trial"",""time""
""blur"",""172"",""1144741""
","""event"",""trial"",""time""
""focus"",""174"",""1158821""
","""event"",""trial"",""time""
""fullscreenenter"",""1"",""2935""
","""event"",""trial"",""time""
""fullscreenexit"",""174"",""1158703""
","","","1568.0000000002328","","","13","15946","4509","b","elianto","#f73b6a7A","-1"," ","0","-10","[2418]","1","2","","","15946","86","6","4","lose","no-go","0"
"pit-trial","205","1288907","0.0-91.0","battery-v0.2","","""event"",""trial"",""time""
""fullscreenenter"",""1"",""2935""
""blur"",""172"",""1144741""
""fullscreenexit"",""174"",""1158703""
""focus"",""174"",""1158821""
","""event"",""trial"",""time""
""blur"",""172"",""1144741""
","""event"",""trial"",""time""
""focus"",""174"",""1158821""
","""event"",""trial"",""time""
""fullscreenenter"",""1"",""2935""
","""event"",""trial"",""time""
""fullscreenexit"",""174"",""1158703""
","","","1287","","","13","15946","4509","c","elianto","#3366ff99"," "," ","1","+10","[2138]","1","2","","","15946","87","5","1","win","go","0"
"pit-trial","206","1293765","0.0-92.0","battery-v0.2","","""event"",""trial"",""time""
""fullscreenenter"",""1"",""2935""
""blur"",""172"",""1144741""
""fullscreenexit"",""174"",""1158703""
""focus"",""174"",""1158821""
","""event"",""trial"",""time""
""blur"",""172"",""1144741""
","""event"",""trial"",""time""
""focus"",""174"",""1158821""
","""event"",""trial"",""time""
""fullscreenenter"",""1"",""2935""
","""event"",""trial"",""time""
""fullscreenexit"",""174"",""1158703""
","","","-1","","","13","15946","4509","z","elianto","#3366ff99","-1","-1","1","+10","[]","0","2","","","15946","88","4","2","win","no-go","0"
"pit-trial","207","1298625","0.0-93.0","battery-v0.2","","""event"",""trial"",""time""
""fullscreenenter"",""1"",""2935""
""blur"",""172"",""1144741""
""fullscreenexit"",""174"",""1158703""
""focus"",""174"",""1158821""
","""event"",""trial"",""time""
""blur"",""172"",""1144741""
","""event"",""trial"",""time""
""focus"",""174"",""1158821""
","""event"",""trial"",""time""
""fullscreenenter"",""1"",""2935""
","""event"",""trial"",""time""
""fullscreenexit"",""174"",""1158703""
","","","-1","","","13","15946","4509","b","elianto","#f73b6a7A","-1","-1","1","-10","[4120,4338]","2","2","","","15946","89","6","4","lose","no-go","1"
"pit-trial","208","1302671","0.0-94.0","battery-v0.2","","""event"",""trial"",""time""
""fullscreenenter"",""1"",""2935""
""blur"",""172"",""1144741""
""fullscreenexit"",""174"",""1158703""
""focus"",""174"",""1158821""
","""event"",""trial"",""time""
""blur"",""172"",""1144741""
","""event"",""trial"",""time""
""focus"",""174"",""1158821""
","""event"",""trial"",""time""
""fullscreenenter"",""1"",""2935""
","""event"",""trial"",""time""
""fullscreenexit"",""174"",""1158703""
","","","1188","","","13","15946","4509","t","elianto","#f73b6a7A"," "," ","1","0","[2038]","1","2","","","15946","90","7","3","lose","go","0"
"pit-trial","209","1307530","0.0-95.0","battery-v0.2","","""event"",""trial"",""time""
""fullscreenenter"",""1"",""2935""
""blur"",""172"",""1144741""
""fullscreenexit"",""174"",""1158703""
""focus"",""174"",""1158821""
","""event"",""trial"",""time""
""blur"",""172"",""1144741""
","""event"",""trial"",""time""
""focus"",""174"",""1158821""
","""event"",""trial"",""time""
""fullscreenenter"",""1"",""2935""
","""event"",""trial"",""time""
""fullscreenexit"",""174"",""1158703""
","","","-1","","","13","15946","4509","z","elianto","#3366ff99","-1","-1","1","+10","[]","0","2","","","15946","91","4","2","win","no-go","0"
"pit-trial","210","1311788","0.0-96.0","battery-v0.2","","""event"",""trial"",""time""
""fullscreenenter"",""1"",""2935""
""blur"",""172"",""1144741""
""fullscreenexit"",""174"",""1158703""
""focus"",""174"",""1158821""
","""event"",""trial"",""time""
""blur"",""172"",""1144741""
","""event"",""trial"",""time""
""focus"",""174"",""1158821""
","""event"",""trial"",""time""
""fullscreenenter"",""1"",""2935""
","""event"",""trial"",""time""
""fullscreenexit"",""174"",""1158703""
","","","1401","","","13","15946","4509","c","elianto","#3366ff99"," "," ","1","+10","[2252]","1","2","","","15946","92","5","1","win","go","0"
"pit-trial","211","1315775","0.0-97.0","battery-v0.2","","""event"",""trial"",""time""
""fullscreenenter"",""1"",""2935""
""blur"",""172"",""1144741""
""fullscreenexit"",""174"",""1158703""
""focus"",""174"",""1158821""
","""event"",""trial"",""time""
""blur"",""172"",""1144741""
","""event"",""trial"",""time""
""focus"",""174"",""1158821""
","""event"",""trial"",""time""
""fullscreenenter"",""1"",""2935""
","""event"",""trial"",""time""
""fullscreenexit"",""174"",""1158703""
","","","1129.9999999997672","","","13","15946","4509","c","elianto","#3366ff99"," "," ","1","+10","[1980]","1","2","","","15946","93","5","1","win","go","0"
"pit-trial","212","1319586","0.0-98.0","battery-v0.2","","""event"",""trial"",""time""
""fullscreenenter"",""1"",""2935""
""blur"",""172"",""1144741""
""fullscreenexit"",""174"",""1158703""
""focus"",""174"",""1158821""
","""event"",""trial"",""time""
""blur"",""172"",""1144741""
","""event"",""trial"",""time""
""focus"",""174"",""1158821""
","""event"",""trial"",""time""
""fullscreenenter"",""1"",""2935""
","""event"",""trial"",""time""
""fullscreenexit"",""174"",""1158703""
","","","951","","","13","15946","4509","f","elianto","#3366ff99","-1"," ","0","0","[1802]","1","2","","","15946","94","8","2","win","no-go","0"
"pit-trial","213","1324062","0.0-99.0","battery-v0.2","","""event"",""trial"",""time""
""fullscreenenter"",""1"",""2935""
""blur"",""172"",""1144741""
""fullscreenexit"",""174"",""1158703""
""focus"",""174"",""1158821""
","""event"",""trial"",""time""
""blur"",""172"",""1144741""
","""event"",""trial"",""time""
""focus"",""174"",""1158821""
","""event"",""trial"",""time""
""fullscreenenter"",""1"",""2935""
","""event"",""trial"",""time""
""fullscreenexit"",""174"",""1158703""
","","","1617","","","13","15946","4509","b","elianto","#f73b6a7A","-1"," ","0","-10","[2467,3529,3708,3902,4049]","5","2","","","15946","95","6","4","lose","no-go","0"
"pit-trial","214","1327573","0.0-100.0","battery-v0.2","","""event"",""trial"",""time""
""fullscreenenter"",""1"",""2935""
""blur"",""172"",""1144741""
""fullscreenexit"",""174"",""1158703""
""focus"",""174"",""1158821""
","""event"",""trial"",""time""
""blur"",""172"",""1144741""
","""event"",""trial"",""time""
""focus"",""174"",""1158821""
","""event"",""trial"",""time""
""fullscreenenter"",""1"",""2935""
","""event"",""trial"",""time""
""fullscreenexit"",""174"",""1158703""
","","","653","","","13","15946","4509","t","elianto","#f73b6a7A"," "," ","1","-10","[1503.9999999997672]","1","2","","","15946","96","7","3","lose","go","1"
"pit-trial","215","1331452","0.0-101.0","battery-v0.2","","""event"",""trial"",""time""
""fullscreenenter"",""1"",""2935""
""blur"",""172"",""1144741""
""fullscreenexit"",""174"",""1158703""
""focus"",""174"",""1158821""
","""event"",""trial"",""time""
""blur"",""172"",""1144741""
","""event"",""trial"",""time""
""focus"",""174"",""1158821""
","""event"",""trial"",""time""
""fullscreenenter"",""1"",""2935""
","""event"",""trial"",""time""
""fullscreenexit"",""174"",""1158703""
","","","1021","","","13","15946","4509","t","elianto","#f73b6a7A"," "," ","1","0","[1871]","1","2","","","15946","97","7","3","lose","go","0"
"pit-trial","216","1335182","0.0-102.0","battery-v0.2","","""event"",""trial"",""time""
""fullscreenenter"",""1"",""2935""
""blur"",""172"",""1144741""
""fullscreenexit"",""174"",""1158703""
""focus"",""174"",""1158821""
","""event"",""trial"",""time""
""blur"",""172"",""1144741""
","""event"",""trial"",""time""
""focus"",""174"",""1158821""
","""event"",""trial"",""time""
""fullscreenenter"",""1"",""2935""
","""event"",""trial"",""time""
""fullscreenexit"",""174"",""1158703""
","","","870","","","13","15946","4509","b","elianto","#f73b6a7A","-1"," ","0","-10","[1721,2749]","2","2","","","15946","98","6","4","lose","no-go","0"
"pit-trial","217","1339286","0.0-103.0","battery-v0.2","","""event"",""trial"",""time""
""fullscreenenter"",""1"",""2935""
""blur"",""172"",""1144741""
""fullscreenexit"",""174"",""1158703""
""focus"",""174"",""1158821""
","""event"",""trial"",""time""
""blur"",""172"",""1144741""
","""event"",""trial"",""time""
""focus"",""174"",""1158821""
","""event"",""trial"",""time""
""fullscreenenter"",""1"",""2935""
","""event"",""trial"",""time""
""fullscreenexit"",""174"",""1158703""
","","","1245.9999999997672","","","13","15946","4509","f","elianto","#3366ff99","-1"," ","0","0","[2097]","1","2","","","15946","99","8","2","win","no-go","0"
"pit-trial","218","1344143","0.0-104.0","battery-v0.2","","""event"",""trial"",""time""
""fullscreenenter"",""1"",""2935""
""blur"",""172"",""1144741""
""fullscreenexit"",""174"",""1158703""
""focus"",""174"",""1158821""
","""event"",""trial"",""time""
""blur"",""172"",""1144741""
","""event"",""trial"",""time""
""focus"",""174"",""1158821""
","""event"",""trial"",""time""
""fullscreenenter"",""1"",""2935""
","""event"",""trial"",""time""
""fullscreenexit"",""174"",""1158703""
","","","-1","","","13","15946","4509","c","elianto","#3366ff99"," ","-1","0","0","[]","0","2","","","15946","100","5","1","win","go","0"
"pit-trial","219","1347673","0.0-105.0","battery-v0.2","","""event"",""trial"",""time""
""fullscreenenter"",""1"",""2935""
""blur"",""172"",""1144741""
""fullscreenexit"",""174"",""1158703""
""focus"",""174"",""1158821""
","""event"",""trial"",""time""
""blur"",""172"",""1144741""
","""event"",""trial"",""time""
""focus"",""174"",""1158821""
","""event"",""trial"",""time""
""fullscreenenter"",""1"",""2935""
","""event"",""trial"",""time""
""fullscreenexit"",""174"",""1158703""
","","","671","","","13","15946","4509","f","elianto","#3366ff99","-1"," ","0","0","[1522]","1","2","","","15946","101","8","2","win","no-go","0"
"pit-trial","220","1351606","0.0-106.0","battery-v0.2","","""event"",""trial"",""time""
""fullscreenenter"",""1"",""2935""
""blur"",""172"",""1144741""
""fullscreenexit"",""174"",""1158703""
""focus"",""174"",""1158821""
","""event"",""trial"",""time""
""blur"",""172"",""1144741""
","""event"",""trial"",""time""
""focus"",""174"",""1158821""
","""event"",""trial"",""time""
""fullscreenenter"",""1"",""2935""
","""event"",""trial"",""time""
""fullscreenexit"",""174"",""1158703""
","","","1073","","","13","15946","4509","c","elianto","#3366ff99"," "," ","1","+10","[1924]","1","2","","","15946","102","5","1","win","go","0"
"pit-trial","221","1356262","0.0-107.0","battery-v0.2","","""event"",""trial"",""time""
""fullscreenenter"",""1"",""2935""
""blur"",""172"",""1144741""
""fullscreenexit"",""174"",""1158703""
""focus"",""174"",""1158821""
","""event"",""trial"",""time""
""blur"",""172"",""1144741""
","""event"",""trial"",""time""
""focus"",""174"",""1158821""
","""event"",""trial"",""time""
""fullscreenenter"",""1"",""2935""
","""event"",""trial"",""time""
""fullscreenexit"",""174"",""1158703""
","","","1799","","","13","15946","4509","b","elianto","#f73b6a7A","-1"," ","0","-10","[2649]","1","2","","","15946","103","6","4","lose","no-go","0"
"pit-trial","222","1359936","0.0-108.0","battery-v0.2","","""event"",""trial"",""time""
""fullscreenenter"",""1"",""2935""
""blur"",""172"",""1144741""
""fullscreenexit"",""174"",""1158703""
""focus"",""174"",""1158821""
","""event"",""trial"",""time""
""blur"",""172"",""1144741""
","""event"",""trial"",""time""
""focus"",""174"",""1158821""
","""event"",""trial"",""time""
""fullscreenenter"",""1"",""2935""
","""event"",""trial"",""time""
""fullscreenexit"",""174"",""1158703""
","","","814","","","13","15946","4509","n","elianto","#3366ff99","-1"," ","0","0","[1665]","1","2","","","15946","104","9","2","win","no-go","0"
"pit-trial","223","1364793","0.0-109.0","battery-v0.2","","""event"",""trial"",""time""
""fullscreenenter"",""1"",""2935""
""blur"",""172"",""1144741""
""fullscreenexit"",""174"",""1158703""
""focus"",""174"",""1158821""
","""event"",""trial"",""time""
""blur"",""172"",""1144741""
","""event"",""trial"",""time""
""focus"",""174"",""1158821""
","""event"",""trial"",""time""
""fullscreenenter"",""1"",""2935""
","""event"",""trial"",""time""
""fullscreenexit"",""174"",""1158703""
","","","-1","","","13","15946","4509","b","elianto","#f73b6a7A","-1","-1","1","0","[]","0","2","","","15946","105","6","4","lose","no-go","0"
"pit-trial","224","1368436","0.0-110.0","battery-v0.2","","""event"",""trial"",""time""
""fullscreenenter"",""1"",""2935""
""blur"",""172"",""1144741""
""fullscreenexit"",""174"",""1158703""
""focus"",""174"",""1158821""
","""event"",""trial"",""time""
""blur"",""172"",""1144741""
","""event"",""trial"",""time""
""focus"",""174"",""1158821""
","""event"",""trial"",""time""
""fullscreenenter"",""1"",""2935""
","""event"",""trial"",""time""
""fullscreenexit"",""174"",""1158703""
","","","785","","","13","15946","4509","c","elianto","#3366ff99"," "," ","1","0","[1636]","1","2","","","15946","106","5","1","win","go","1"
"pit-trial","225","1373294","0.0-111.0","battery-v0.2","","""event"",""trial"",""time""
""fullscreenenter"",""1"",""2935""
""blur"",""172"",""1144741""
""fullscreenexit"",""174"",""1158703""
""focus"",""174"",""1158821""
","""event"",""trial"",""time""
""blur"",""172"",""1144741""
","""event"",""trial"",""time""
""focus"",""174"",""1158821""
","""event"",""trial"",""time""
""fullscreenenter"",""1"",""2935""
","""event"",""trial"",""time""
""fullscreenexit"",""174"",""1158703""
","","","-1","","","13","15946","4509","f","elianto","#3366ff99","-1","-1","1","+10","[]","0","2","","","15946","107","8","2","win","no-go","0"
"pit-trial","226","1377235","0.0-112.0","battery-v0.2","","""event"",""trial"",""time""
""fullscreenenter"",""1"",""2935""
""blur"",""172"",""1144741""
""fullscreenexit"",""174"",""1158703""
""focus"",""174"",""1158821""
","""event"",""trial"",""time""
""blur"",""172"",""1144741""
","""event"",""trial"",""time""
""focus"",""174"",""1158821""
","""event"",""trial"",""time""
""fullscreenenter"",""1"",""2935""
","""event"",""trial"",""time""
""fullscreenexit"",""174"",""1158703""
","","","1083","","","13","15946","4509","n","elianto","#3366ff99","-1"," ","0","0","[1932]","1","2","","","15946","108","9","2","win","no-go","0"
"pit-trial","227","1381194","0.0-113.0","battery-v0.2","","""event"",""trial"",""time""
""fullscreenenter"",""1"",""2935""
""blur"",""172"",""1144741""
""fullscreenexit"",""174"",""1158703""
""focus"",""174"",""1158821""
","""event"",""trial"",""time""
""blur"",""172"",""1144741""
","""event"",""trial"",""time""
""focus"",""174"",""1158821""
","""event"",""trial"",""time""
""fullscreenenter"",""1"",""2935""
","""event"",""trial"",""time""
""fullscreenexit"",""174"",""1158703""
","","","1100.0000000002328","","","13","15946","4509","n","elianto","#3366ff99","-1"," ","0","0","[1951.0000000002328]","1","2","","","15946","109","9","2","win","no-go","0"
"pit-trial","228","1385211","0.0-114.0","battery-v0.2","","""event"",""trial"",""time""
""fullscreenenter"",""1"",""2935""
""blur"",""172"",""1144741""
""fullscreenexit"",""174"",""1158703""
""focus"",""174"",""1158821""
","""event"",""trial"",""time""
""blur"",""172"",""1144741""
","""event"",""trial"",""time""
""focus"",""174"",""1158821""
