"trial_type","trial_index","time_elapsed","internal_node_id","task_version","subject_id","interactions","blur_events","focus_events","fullscreenenter_events","fullscreenexit_events","success","view_history","rt","responses","num_errors","age","subject","participantId","rune","rune_set","hex","correct","choice","accuracy","outcome","keys","total_keys","block","practice","value","sub","trial","stimulus","robot","valence","action","sham"
"pavlovia","0","7","0.0-0.0","battery-v0.2","","""event"",""trial"",""time""
""fullscreenenter"",""1"",""1966""
","
","
","""event"",""trial"",""time""
""fullscreenenter"",""1"",""1966""
","
","","","","","","","","","","","","","","","","","","","","","","","","","","",""
"fullscreen","1","2950","0.0-1.0","battery-v0.2","","""event"",""trial"",""time""
""fullscreenenter"",""1"",""1966""
","
","
","""event"",""trial"",""time""
""fullscreenenter"",""1"",""1966""
","
","true","","","","","","","","","","","","","","","","","","","","","","","","","",""
"pit-instructions","2","8751","0.0-2.0-0.0","battery-v0.2","","""event"",""trial"",""time""
""fullscreenenter"",""1"",""1966""
","
","
","""event"",""trial"",""time""
""fullscreenenter"",""1"",""1966""
","
","","[{""page_index"":0,""viewing_time"":5796}]","5796.19999999553","","","","","","","","","","","","","","","","","","","","","","","",""
"pit-comprehension","3","12374","0.0-2.0-1.0-0.0","battery-v0.2","","""event"",""trial"",""time""
""fullscreenenter"",""1"",""1966""
","
","
","""event"",""trial"",""time""
""fullscreenenter"",""1"",""1966""
","
","","","3620.2000000029802","[""shark""]","0","20","7582","2148","","","","","","","","","","","","","","","","","","",""
"pit-instructions","4","18937","0.0-2.0-1.0-1.0","battery-v0.2","","""event"",""trial"",""time""
""fullscreenenter"",""1"",""1966""
","
","
","""event"",""trial"",""time""
""fullscreenenter"",""1"",""1966""
","
","","[{""page_index"":0,""viewing_time"":6553.60000000149}]","6554","","","","","","","","","","","","","","","","","","","","","","","",""
"pit-comprehension","5","21225","0.0-2.0-2.0-0.0","battery-v0.2","","""event"",""trial"",""time""
""fullscreenenter"",""1"",""1966""
","
","
","""event"",""trial"",""time""
""fullscreenenter"",""1"",""1966""
","
","","","2284.60000000149","[""tiger""]","0","20","7582","2148","","","","","","","","","","","","","","","","","","",""
"pit-instructions","6","22217","0.0-2.0-2.0-1.0","battery-v0.2","","""event"",""trial"",""time""
""fullscreenenter"",""1"",""1966""
","
","
","""event"",""trial"",""time""
""fullscreenenter"",""1"",""1966""
","
","","[{""page_index"":0,""viewing_time"":987.6999999955297}]","988.1999999955297","","","","","","","","","","","","","","","","","","","","","","","",""
"pit-instructions","7","157770","0.0-2.0-3.0","battery-v0.2","","""event"",""trial"",""time""
""fullscreenenter"",""1"",""1966""
","
","
","""event"",""trial"",""time""
""fullscreenenter"",""1"",""1966""
","
","","[{""page_index"":0,""viewing_time"":8135},{""page_index"":1,""viewing_time"":5408.9000000059605},{""page_index"":2,""viewing_time"":6487.0999999940395},{""page_index"":3,""viewing_time"":5077},{""page_index"":4,""viewing_time"":5836.9000000059605},{""page_index"":5,""viewing_time"":5886.0999999940395},{""page_index"":6,""viewing_time"":6207.20000000298},{""page_index"":7,""viewing_time"":6638.79999999702},{""page_index"":8,""viewing_time"":6676},{""page_index"":9,""viewing_time"":5242.20000000298},{""page_index"":10,""viewing_time"":2291.39999999851},{""page_index"":9,""viewing_time"":5506.80000000447},{""page_index"":8,""viewing_time"":3399.39999999851},{""page_index"":9,""viewing_time"":8015.89999999851},{""page_index"":10,""viewing_time"":7967.60000000149},{""page_index"":11,""viewing_time"":23690.19999999553},{""page_index"":12,""viewing_time"":9043.70000000298},{""page_index"":13,""viewing_time"":14037.89999999851}]","135548.80000000447","","","","","","","","","","","","","","","","","","","","","","","",""
"pit-trial","8","161294","0.0-2.0-4.0-0.0","battery-v0.2","","""event"",""trial"",""time""
""fullscreenenter"",""1"",""1966""
","
","
","""event"",""trial"",""time""
""fullscreenenter"",""1"",""1966""
","
","","","653.5","","","20","7582","2148","&#9784;","elianto","#FFFFF080"," "," ","1","&#10004","[1509.5,3481.8000000044703]","2","0","0","","","","","","","",""
"pit-trial","9","164591","0.0-2.0-4.1-0.1","battery-v0.2","","""event"",""trial"",""time""
""fullscreenenter"",""1"",""1966""
","
","
","""event"",""trial"",""time""
""fullscreenenter"",""1"",""1966""
","
","","","433.6000000014901","","","20","7582","2148","&#9784;","elianto","#FFFFF080"," "," ","1","&#10004","[1284.2000000029802]","1","0","0","","","","","","","",""
"pit-trial","10","167791","0.0-2.0-4.2-0.2","battery-v0.2","","""event"",""trial"",""time""
""fullscreenenter"",""1"",""1966""
","
","
","""event"",""trial"",""time""
""fullscreenenter"",""1"",""1966""
","
","","","331","","","20","7582","2148","&#9784;","elianto","#FFFFF080"," "," ","1","&#10004","[1185.8999999985099]","1","0","0","","","","","","","",""
"pit-trial","11","170753","0.0-2.0-4.3-0.3","battery-v0.2","","""event"",""trial"",""time""
""fullscreenenter"",""1"",""1966""
","
","
","""event"",""trial"",""time""
""fullscreenenter"",""1"",""1966""
","
","","","94.60000000149012","","","20","7582","2148","&#9784;","elianto","#FFFFF080"," "," ","1","&#10004","[949.7999999970198]","1","0","0","","","","","","","",""
"pit-trial","12","174314","0.0-2.0-4.4-0.4","battery-v0.2","","""event"",""trial"",""time""
""fullscreenenter"",""1"",""1966""
","
","
","""event"",""trial"",""time""
""fullscreenenter"",""1"",""1966""
","
","","","688.1000000014901","","","20","7582","2148","&#9784;","elianto","#FFFFF080"," "," ","1","&#10004","[817,1548.1000000014901]","2","0","0","","","","","","","",""
"pit-instructions","13","197654","0.0-2.0-5.0","battery-v0.2","","""event"",""trial"",""time""
""fullscreenenter"",""1"",""1966""
","
","
","""event"",""trial"",""time""
""fullscreenenter"",""1"",""1966""
","
","","[{""page_index"":0,""viewing_time"":4486.80000000447},{""page_index"":1,""viewing_time"":6794.0999999940395},{""page_index"":2,""viewing_time"":6013.20000000298},{""page_index"":3,""viewing_time"":6041.79999999702}]","23336.30000000447","","","","","","","","","","","","","","","","","","","","","","","",""
"pit-trial","14","202522","0.0-2.0-6.0-0.0","battery-v0.2","","""event"",""trial"",""time""
""fullscreenenter"",""1"",""1966""
","
","
","""event"",""trial"",""time""
""fullscreenenter"",""1"",""1966""
","
","","","-1","","","20","7582","2148","&#9854;","elianto","#FFFFF080","-1","-1","1","&#10004","[]","0","0","1","","","","","","","",""
"pit-trial","15","207394","0.0-2.0-6.1-0.1","battery-v0.2","","""event"",""trial"",""time""
""fullscreenenter"",""1"",""1966""
","
","
","""event"",""trial"",""time""
""fullscreenenter"",""1"",""1966""
","
","","","-1","","","20","7582","2148","&#9854;","elianto","#FFFFF080","-1","-1","1","&#10004","[]","0","0","1","","","","","","","",""
"pit-trial","16","212264","0.0-2.0-6.2-0.2","battery-v0.2","","""event"",""trial"",""time""
""fullscreenenter"",""1"",""1966""
","
","
","""event"",""trial"",""time""
""fullscreenenter"",""1"",""1966""
","
","","","-1","","","20","7582","2148","&#9854;","elianto","#FFFFF080","-1","-1","1","&#10004","[]","0","0","1","","","","","","","",""
"pit-trial","17","217133","0.0-2.0-6.3-0.3","battery-v0.2","","""event"",""trial"",""time""
""fullscreenenter"",""1"",""1966""
","
","
","""event"",""trial"",""time""
""fullscreenenter"",""1"",""1966""
","
","","","-1","","","20","7582","2148","&#9854;","elianto","#FFFFF080","-1","-1","1","&#10004","[]","0","0","1","","","","","","","",""
"pit-trial","18","221998","0.0-2.0-6.4-0.4","battery-v0.2","","""event"",""trial"",""time""
""fullscreenenter"",""1"",""1966""
","
","
","""event"",""trial"",""time""
""fullscreenenter"",""1"",""1966""
","
","","","-1","","","20","7582","2148","&#9854;","elianto","#FFFFF080","-1","-1","1","&#10004","[]","0","0","1","","","","","","","",""
"pit-instructions","19","343316","0.0-2.0-7.0","battery-v0.2","","""event"",""trial"",""time""
""fullscreenenter"",""1"",""1966""
","
","
","""event"",""trial"",""time""
""fullscreenenter"",""1"",""1966""
","
","","[{""page_index"":0,""viewing_time"":7570.9000000059605},{""page_index"":1,""viewing_time"":10886.59999999404},{""page_index"":2,""viewing_time"":5969},{""page_index"":3,""viewing_time"":5866.70000000298},{""page_index"":4,""viewing_time"":5806.79999999702},{""page_index"":5,""viewing_time"":5515.5},{""page_index"":6,""viewing_time"":4876.30000000447},{""page_index"":7,""viewing_time"":7578.69999999553},{""page_index"":8,""viewing_time"":6159.9000000059605},{""page_index"":9,""viewing_time"":5768.19999999553},{""page_index"":10,""viewing_time"":8454.70000000298},{""page_index"":11,""viewing_time"":5644.69999999553},{""page_index"":12,""viewing_time"":7942.70000000298},{""page_index"":13,""viewing_time"":7386.39999999851},{""page_index"":14,""viewing_time"":6927.60000000149},{""page_index"":15,""viewing_time"":6358.29999999702},{""page_index"":16,""viewing_time"":6299.20000000298},{""page_index"":17,""viewing_time"":6300.29999999702}]","121313.10000000149","","","","","","","","","","","","","","","","","","","","","","","",""
"pit-trial","20","346578","0.0-2.0-8.0-0.0","battery-v0.2","","""event"",""trial"",""time""
""fullscreenenter"",""1"",""1966""
","
","
","""event"",""trial"",""time""
""fullscreenenter"",""1"",""1966""
","
","","","398.1000000014901","","","20","7582","2148","&#9776;","elianto","#3366ff99"," "," ","1","+10","[1248.2000000029802]","1","0","1","","","","","","","",""
"pit-trial","21","349650","0.0-2.0-8.0-1.0","battery-v0.2","","""event"",""trial"",""time""
""fullscreenenter"",""1"",""1966""
","
","
","""event"",""trial"",""time""
""fullscreenenter"",""1"",""1966""
","
","","","206.10000000149012","","","20","7582","2148","&#9776;","elianto","#3366ff99"," "," ","1","+10","[1059.3999999985099]","1","0","1","","","","","","","",""
"pit-trial","22","352662","0.0-2.0-8.0-2.0","battery-v0.2","","""event"",""trial"",""time""
""fullscreenenter"",""1"",""1966""
","
","
","""event"",""trial"",""time""
""fullscreenenter"",""1"",""1966""
","
","","","156.19999999552965","","","20","7582","2148","&#9776;","elianto","#3366ff99"," "," ","1","+10","[1006.3999999985099]","1","0","1","","","","","","","",""
"pit-trial","23","355591","0.0-2.0-8.0-3.0","battery-v0.2","","""event"",""trial"",""time""
""fullscreenenter"",""1"",""1966""
","
","
","""event"",""trial"",""time""
""fullscreenenter"",""1"",""1966""
","
","","","72.10000000149012","","","20","7582","2148","&#9776;","elianto","#3366ff99"," "," ","1","0","[923.3000000044703]","1","0","1","","","","","","","",""
"pit-trial","24","358602","0.0-2.0-8.0-4.0","battery-v0.2","","""event"",""trial"",""time""
""fullscreenenter"",""1"",""1966""
","
","
","""event"",""trial"",""time""
""fullscreenenter"",""1"",""1966""
","
","","","148","","","20","7582","2148","&#9776;","elianto","#3366ff99"," "," ","1","+10","[1001.6000000014901]","1","0","1","","","","","","","",""
"pit-trial","25","361560","0.0-2.0-8.1-0.1","battery-v0.2","","""event"",""trial"",""time""
""fullscreenenter"",""1"",""1966""
","
","
","""event"",""trial"",""time""
""fullscreenenter"",""1"",""1966""
","
","","","92","","","20","7582","2148","&#9776;","elianto","#3366ff99"," "," ","1","+10","[949.6000000014901]","1","0","1","","","","","","","",""
"pit-trial","26","364456","0.0-2.0-8.1-1.1","battery-v0.2","","""event"",""trial"",""time""
""fullscreenenter"",""1"",""1966""
","
","
","""event"",""trial"",""time""
""fullscreenenter"",""1"",""1966""
","
","","","32.20000000298023","","","20","7582","2148","&#9776;","elianto","#3366ff99"," "," ","1","+10","[885.5]","1","0","1","","","","","","","",""
"pit-trial","27","369330","0.0-2.0-8.1-2.1","battery-v0.2","","""event"",""trial"",""time""
""fullscreenenter"",""1"",""1966""
","
","
","""event"",""trial"",""time""
""fullscreenenter"",""1"",""1966""
","
","","","-1","","","20","7582","2148","&#9776;","elianto","#3366ff99"," ","-1","0","0","[746]","1","0","1","","","","","","","",""
"pit-trial","28","372481","0.0-2.0-8.1-3.1","battery-v0.2","","""event"",""trial"",""time""
""fullscreenenter"",""1"",""1966""
","
","
","""event"",""trial"",""time""
""fullscreenenter"",""1"",""1966""
","
","","","286.5","","","20","7582","2148","&#9776;","elianto","#3366ff99"," "," ","1","0","[1137.5]","1","0","1","","","","","","","",""
"pit-trial","29","375645","0.0-2.0-8.1-4.1","battery-v0.2","","""event"",""trial"",""time""
""fullscreenenter"",""1"",""1966""
","
","
","""event"",""trial"",""time""
""fullscreenenter"",""1"",""1966""
","
","","","303.20000000298023","","","20","7582","2148","&#9776;","elianto","#3366ff99"," "," ","1","+10","[1154]","1","0","1","","","","","","","",""
"pit-trial","30","378542","0.0-2.0-8.2-0.2","battery-v0.2","","""event"",""trial"",""time""
""fullscreenenter"",""1"",""1966""
","
","
","""event"",""trial"",""time""
""fullscreenenter"",""1"",""1966""
","
","","","36.70000000298023","","","20","7582","2148","&#9776;","elianto","#3366ff99"," "," ","1","+10","[889.1000000014901]","1","0","1","","","","","","","",""
"pit-trial","31","381614","0.0-2.0-8.2-1.2","battery-v0.2","","""event"",""trial"",""time""
""fullscreenenter"",""1"",""1966""
","
","
","""event"",""trial"",""time""
""fullscreenenter"",""1"",""1966""
","
","","","213.39999999850988","","","20","7582","2148","&#9776;","elianto","#3366ff99"," "," ","1","+10","[1068.0999999940395]","1","0","1","","","","","","","",""
"pit-trial","32","384686","0.0-2.0-8.2-2.2","battery-v0.2","","""event"",""trial"",""time""
""fullscreenenter"",""1"",""1966""
","
","
","""event"",""trial"",""time""
""fullscreenenter"",""1"",""1966""
","
","","","216.69999999552965","","","20","7582","2148","&#9776;","elianto","#3366ff99"," "," ","1","+10","[1067.2000000029802]","1","0","1","","","","","","","",""
"pit-trial","33","389550","0.0-2.0-8.2-3.2","battery-v0.2","","""event"",""trial"",""time""
""fullscreenenter"",""1"",""1966""
","
","
","""event"",""trial"",""time""
""fullscreenenter"",""1"",""1966""
","
","","","-1","","","20","7582","2148","&#9776;","elianto","#3366ff99"," ","-1","0","+10","[717,4772.70000000298]","2","0","1","","","","","","","",""
"pit-trial","34","392936","0.0-2.0-8.2-4.2","battery-v0.2","","""event"",""trial"",""time""
""fullscreenenter"",""1"",""1966""
","
","
","""event"",""trial"",""time""
""fullscreenenter"",""1"",""1966""
","
","","","522.6000000014901","","","20","7582","2148","&#9776;","elianto","#3366ff99"," "," ","1","+10","[1378.2999999970198]","1","0","1","","","","","","","",""
"call-function","35","392939","0.0-2.0-9.0","battery-v0.2","","""event"",""trial"",""time""
""fullscreenenter"",""1"",""1966""
","
","
","""event"",""trial"",""time""
""fullscreenenter"",""1"",""1966""
","
","","","","","","","","","","","","","","","","","","","","","","","","","","",""
"pit-instructions","36","433878","0.0-2.0-10.0","battery-v0.2","","""event"",""trial"",""time""
""fullscreenenter"",""1"",""1966""
","
","
","""event"",""trial"",""time""
""fullscreenenter"",""1"",""1966""
","
","","[{""page_index"":0,""viewing_time"":5861.20000000298},{""page_index"":1,""viewing_time"":6667.0999999940395},{""page_index"":2,""viewing_time"":9635.20000000298},{""page_index"":3,""viewing_time"":10066.39999999851},{""page_index"":4,""viewing_time"":8707.5}]","40938","","","","","","","","","","","","","","","","","","","","","","","",""
"pit-trial","37","437090","0.0-2.0-11.0-0.0","battery-v0.2","","""event"",""trial"",""time""
""fullscreenenter"",""1"",""1966""
","
","
","""event"",""trial"",""time""
""fullscreenenter"",""1"",""1966""
","
","","","350.6000000014901","","","20","7582","2148","&#9761;","elianto","#3366ff99","-1"," ","0","0","[1200.8000000044703]","1","0","2","","","","","","","",""
"pit-trial","38","440234","0.0-2.0-11.0-1.0","battery-v0.2","","""event"",""trial"",""time""
""fullscreenenter"",""1"",""1966""
","
","
","""event"",""trial"",""time""
""fullscreenenter"",""1"",""1966""
","
","","","273.70000000298023","","","20","7582","2148","&#9761;","elianto","#3366ff99","-1"," ","0","0","[1130.5,2671.7000000029802]","2","0","2","","","","","","","",""
"pit-trial","39","443298","0.0-2.0-11.0-2.0","battery-v0.2","","""event"",""trial"",""time""
""fullscreenenter"",""1"",""1966""
","
","
","""event"",""trial"",""time""
""fullscreenenter"",""1"",""1966""
","
","","","189.09999999403954","","","20","7582","2148","&#9761;","elianto","#3366ff99","-1"," ","0","0","[1049.7999999970198]","1","0","2","","","","","","","",""
"pit-trial","40","446933","0.0-2.0-11.0-3.0","battery-v0.2","","""event"",""trial"",""time""
""fullscreenenter"",""1"",""1966""
","
","
","""event"",""trial"",""time""
""fullscreenenter"",""1"",""1966""
","
","","","778.7000000029802","","","20","7582","2148","&#9761;","elianto","#3366ff99","-1"," ","0","+10","[1629.7000000029802]","1","0","2","","","","","","","",""
"pit-trial","41","450118","0.0-2.0-11.0-4.0","battery-v0.2","","""event"",""trial"",""time""
""fullscreenenter"",""1"",""1966""
","
","
","""event"",""trial"",""time""
""fullscreenenter"",""1"",""1966""
","
","","","318.8999999985099","","","20","7582","2148","&#9761;","elianto","#3366ff99","-1"," ","0","0","[1176.2000000029802,1872.8000000044703]","2","0","2","","","","","","","",""
"pit-trial","42","453422","0.0-2.0-11.1-0.1","battery-v0.2","","""event"",""trial"",""time""
""fullscreenenter"",""1"",""1966""
","
","
","""event"",""trial"",""time""
""fullscreenenter"",""1"",""1966""
","
","","","442.8999999985099","","","20","7582","2148","&#9761;","elianto","#3366ff99","-1"," ","0","0","[1294.7000000029802]","1","0","2","","","","","","","",""
"pit-trial","43","456610","0.0-2.0-11.1-1.1","battery-v0.2","","""event"",""trial"",""time""
""fullscreenenter"",""1"",""1966""
","
","
","""event"",""trial"",""time""
""fullscreenenter"",""1"",""1966""
","
","","","319","","","20","7582","2148","&#9761;","elianto","#3366ff99","-1"," ","0","0","[1174.8000000044703]","1","0","2","","","","","","","",""
"pit-trial","44","459789","0.0-2.0-11.1-2.1","battery-v0.2","","""event"",""trial"",""time""
""fullscreenenter"",""1"",""1966""
","
","
","""event"",""trial"",""time""
""fullscreenenter"",""1"",""1966""
","
","","","315.80000000447035","","","20","7582","2148","&#9761;","elianto","#3366ff99","-1"," ","0","0","[1169.7000000029802]","1","0","2","","","","","","","",""
"pit-trial","45","462864","0.0-2.0-11.1-3.1","battery-v0.2","","""event"",""trial"",""time""
""fullscreenenter"",""1"",""1966""
","
","
","""event"",""trial"",""time""
""fullscreenenter"",""1"",""1966""
","
","","","210.29999999701977","","","20","7582","2148","&#9761;","elianto","#3366ff99","-1"," ","0","+10","[1065.1000000014901]","1","0","2","","","","","","","",""
"pit-trial","46","466085","0.0-2.0-11.1-4.1","battery-v0.2","","""event"",""trial"",""time""
""fullscreenenter"",""1"",""1966""
","
","
","""event"",""trial"",""time""
""fullscreenenter"",""1"",""1966""
","
","","","365.5","","","20","7582","2148","&#9761;","elianto","#3366ff99","-1"," ","0","0","[1217]","1","0","2","","","","","","","",""
"pit-trial","47","469189","0.0-2.0-11.2-0.2","battery-v0.2","","""event"",""trial"",""time""
""fullscreenenter"",""1"",""1966""
","
","
","""event"",""trial"",""time""
""fullscreenenter"",""1"",""1966""
","
","","","239.89999999850988","","","20","7582","2148","&#9761;","elianto","#3366ff99","-1"," ","0","0","[1094.8999999985099]","1","0","2","","","","","","","",""
"pit-trial","48","472357","0.0-2.0-11.2-1.2","battery-v0.2","","""event"",""trial"",""time""
""fullscreenenter"",""1"",""1966""
","
","
","""event"",""trial"",""time""
""fullscreenenter"",""1"",""1966""
","
","","","302.5","","","20","7582","2148","&#9761;","elianto","#3366ff99","-1"," ","0","0","[1157.2000000029802]","1","0","2","","","","","","","",""
"pit-trial","49","475584","0.0-2.0-11.2-2.2","battery-v0.2","","""event"",""trial"",""time""
""fullscreenenter"",""1"",""1966""
","
","
","""event"",""trial"",""time""
""fullscreenenter"",""1"",""1966""
","
","","","363.29999999701977","","","20","7582","2148","&#9761;","elianto","#3366ff99","-1"," ","0","0","[1218.8999999985099]","1","0","2","","","","","","","",""
"pit-trial","50","478944","0.0-2.0-11.2-3.2","battery-v0.2","","""event"",""trial"",""time""
""fullscreenenter"",""1"",""1966""
","
","
","""event"",""trial"",""time""
""fullscreenenter"",""1"",""1966""
","
","","","492.1000000014901","","","20","7582","2148","&#9761;","elianto","#3366ff99","-1"," ","0","+10","[1352.1999999955297]","1","0","2","","","","","","","",""
"pit-trial","51","482272","0.0-2.0-11.2-4.2","battery-v0.2","","""event"",""trial"",""time""
""fullscreenenter"",""1"",""1966""
","
","
","""event"",""trial"",""time""
""fullscreenenter"",""1"",""1966""
","
","","","469.3999999985099","","","20","7582","2148","&#9761;","elianto","#3366ff99","-1"," ","0","0","[1319.8999999985099]","1","0","2","","","","","","","",""
"pit-trial","52","485477","0.0-2.0-11.3-0.3","battery-v0.2","","""event"",""trial"",""time""
""fullscreenenter"",""1"",""1966""
","
","
","""event"",""trial"",""time""
""fullscreenenter"",""1"",""1966""
","
","","","339","","","20","7582","2148","&#9761;","elianto","#3366ff99","-1"," ","0","0","[1195.6000000014901]","1","0","2","","","","","","","",""
"pit-trial","53","488693","0.0-2.0-11.3-1.3","battery-v0.2","","""event"",""trial"",""time""
""fullscreenenter"",""1"",""1966""
","
","
","""event"",""trial"",""time""
""fullscreenenter"",""1"",""1966""
","
","","","358.8999999985099","","","20","7582","2148","&#9761;","elianto","#3366ff99","-1"," ","0","0","[1211.8999999985099]","1","0","2","","","","","","","",""
"pit-trial","54","492032","0.0-2.0-11.3-2.3","battery-v0.2","","""event"",""trial"",""time""
""fullscreenenter"",""1"",""1966""
","
","
","""event"",""trial"",""time""
""fullscreenenter"",""1"",""1966""
","
","","","476.3999999985099","","","20","7582","2148","&#9761;","elianto","#3366ff99","-1"," ","0","0","[1329.1999999955297]","1","0","2","","","","","","","",""
"pit-trial","55","495216","0.0-2.0-11.3-3.3","battery-v0.2","","""event"",""trial"",""time""
""fullscreenenter"",""1"",""1966""
","
","
","""event"",""trial"",""time""
""fullscreenenter"",""1"",""1966""
","
","","","312.5","","","20","7582","2148","&#9761;","elianto","#3366ff99","-1"," ","0","+10","[1172.8999999985099]","1","0","2","","","","","","","",""
"pit-trial","56","498565","0.0-2.0-11.3-4.3","battery-v0.2","","""event"",""trial"",""time""
""fullscreenenter"",""1"",""1966""
","
","
","""event"",""trial"",""time""
""fullscreenenter"",""1"",""1966""
","
","","","484","","","20","7582","2148","&#9761;","elianto","#3366ff99","-1"," ","0","0","[1345.6000000014901]","1","0","2","","","","","","","",""
"call-function","57","498568","0.0-2.0-12.0","battery-v0.2","","""event"",""trial"",""time""
""fullscreenenter"",""1"",""1966""
","
","
","""event"",""trial"",""time""
""fullscreenenter"",""1"",""1966""
","
","","","","","","","","","","","","","","","","","","","","","","","","","","",""
"pit-instructions","58","531317","0.0-2.0-13.0","battery-v0.2","","""event"",""trial"",""time""
""fullscreenenter"",""1"",""1966""
","
","
","""event"",""trial"",""time""
""fullscreenenter"",""1"",""1966""
","
","","[{""page_index"":0,""viewing_time"":4940},{""page_index"":1,""viewing_time"":6202.70000000298},{""page_index"":2,""viewing_time"":4257.60000000149},{""page_index"":3,""viewing_time"":11347.59999999404},{""page_index"":4,""viewing_time"":5998.5}]","32747.20000000298","","","","","","","","","","","","","","","","","","","","","","","",""
"pit-trial","59","536186","0.0-2.0-14.0-0.0","battery-v0.2","","""event"",""trial"",""time""
""fullscreenenter"",""1"",""1966""
","
","
","""event"",""trial"",""time""
""fullscreenenter"",""1"",""1966""
","
","","","-1","","","20","7582","2148","&#9826;","elianto","#f73b6a7A","-1","-1","1","0","[]","0","0","3","","","","","","","",""
"pit-trial","60","541058","0.0-2.0-14.0-1.0","battery-v0.2","","""event"",""trial"",""time""
""fullscreenenter"",""1"",""1966""
","
","
","""event"",""trial"",""time""
""fullscreenenter"",""1"",""1966""
","
","","","-1","","","20","7582","2148","&#9826;","elianto","#f73b6a7A","-1","-1","1","0","[]","0","0","3","","","","","","","",""
"pit-trial","61","545930","0.0-2.0-14.0-2.0","battery-v0.2","","""event"",""trial"",""time""
""fullscreenenter"",""1"",""1966""
","
","
","""event"",""trial"",""time""
""fullscreenenter"",""1"",""1966""
","
","","","-1","","","20","7582","2148","&#9826;","elianto","#f73b6a7A","-1","-1","1","0","[]","0","0","3","","","","","","","",""
"pit-trial","62","550800","0.0-2.0-14.0-3.0","battery-v0.2","","""event"",""trial"",""time""
""fullscreenenter"",""1"",""1966""
","
","
","""event"",""trial"",""time""
""fullscreenenter"",""1"",""1966""
","
","","","-1","","","20","7582","2148","&#9826;","elianto","#f73b6a7A","-1","-1","1","-10","[]","0","0","3","","","","","","","",""
"pit-trial","63","555666","0.0-2.0-14.0-4.0","battery-v0.2","","""event"",""trial"",""time""
""fullscreenenter"",""1"",""1966""
","
","
","""event"",""trial"",""time""
""fullscreenenter"",""1"",""1966""
","
","","","-1","","","20","7582","2148","&#9826;","elianto","#f73b6a7A","-1","-1","1","0","[]","0","0","3","","","","","","","",""
"pit-trial","64","560536","0.0-2.0-14.1-0.1","battery-v0.2","","""event"",""trial"",""time""
""fullscreenenter"",""1"",""1966""
","
","
","""event"",""trial"",""time""
""fullscreenenter"",""1"",""1966""
","
","","","-1","","","20","7582","2148","&#9826;","elianto","#f73b6a7A","-1","-1","1","0","[]","0","0","3","","","","","","","",""
"pit-trial","65","565410","0.0-2.0-14.1-1.1","battery-v0.2","","""event"",""trial"",""time""
""fullscreenenter"",""1"",""1966""
","
","
","""event"",""trial"",""time""
""fullscreenenter"",""1"",""1966""
","
","","","-1","","","20","7582","2148","&#9826;","elianto","#f73b6a7A","-1","-1","1","0","[]","0","0","3","","","","","","","",""
"pit-trial","66","570280","0.0-2.0-14.1-2.1","battery-v0.2","","""event"",""trial"",""time""
""fullscreenenter"",""1"",""1966""
","
","
","""event"",""trial"",""time""
""fullscreenenter"",""1"",""1966""
","
","","","-1","","","20","7582","2148","&#9826;","elianto","#f73b6a7A","-1","-1","1","0","[]","0","0","3","","","","","","","",""
"pit-trial","67","575154","0.0-2.0-14.1-3.1","battery-v0.2","","""event"",""trial"",""time""
""fullscreenenter"",""1"",""1966""
","
","
","""event"",""trial"",""time""
""fullscreenenter"",""1"",""1966""
","
","","","-1","","","20","7582","2148","&#9826;","elianto","#f73b6a7A","-1","-1","1","-10","[]","0","0","3","","","","","","","",""
"pit-trial","68","580024","0.0-2.0-14.1-4.1","battery-v0.2","","""event"",""trial"",""time""
""fullscreenenter"",""1"",""1966""
","
","
","""event"",""trial"",""time""
""fullscreenenter"",""1"",""1966""
","
","","","-1","","","20","7582","2148","&#9826;","elianto","#f73b6a7A","-1","-1","1","0","[]","0","0","3","","","","","","","",""
"pit-trial","69","584894","0.0-2.0-14.2-0.2","battery-v0.2","","""event"",""trial"",""time""
""fullscreenenter"",""1"",""1966""
","
","
","""event"",""trial"",""time""
""fullscreenenter"",""1"",""1966""
","
","","","-1","","","20","7582","2148","&#9826;","elianto","#f73b6a7A","-1","-1","1","0","[]","0","0","3","","","","","","","",""
"pit-trial","70","589762","0.0-2.0-14.2-1.2","battery-v0.2","","""event"",""trial"",""time""
""fullscreenenter"",""1"",""1966""
","
","
","""event"",""trial"",""time""
""fullscreenenter"",""1"",""1966""
","
","","","-1","","","20","7582","2148","&#9826;","elianto","#f73b6a7A","-1","-1","1","0","[]","0","0","3","","","","","","","",""
"pit-trial","71","594632","0.0-2.0-14.2-2.2","battery-v0.2","","""event"",""trial"",""time""
""fullscreenenter"",""1"",""1966""
","
","
","""event"",""trial"",""time""
""fullscreenenter"",""1"",""1966""
","
","","","-1","","","20","7582","2148","&#9826;","elianto","#f73b6a7A","-1","-1","1","0","[]","0","0","3","","","","","","","",""
"pit-trial","72","599496","0.0-2.0-14.2-3.2","battery-v0.2","","""event"",""trial"",""time""
""fullscreenenter"",""1"",""1966""
","
","
","""event"",""trial"",""time""
""fullscreenenter"",""1"",""1966""
","
","","","-1","","","20","7582","2148","&#9826;","elianto","#f73b6a7A","-1","-1","1","-10","[]","0","0","3","","","","","","","",""
"pit-trial","73","604360","0.0-2.0-14.2-4.2","battery-v0.2","","""event"",""trial"",""time""
""fullscreenenter"",""1"",""1966""
","
","
","""event"",""trial"",""time""
""fullscreenenter"",""1"",""1966""
","
","","","-1","","","20","7582","2148","&#9826;","elianto","#f73b6a7A","-1","-1","1","0","[]","0","0","3","","","","","","","",""
"pit-trial","74","609234","0.0-2.0-14.3-0.3","battery-v0.2","","""event"",""trial"",""time""
""fullscreenenter"",""1"",""1966""
","
","
","""event"",""trial"",""time""
""fullscreenenter"",""1"",""1966""
","
","","","-1","","","20","7582","2148","&#9826;","elianto","#f73b6a7A","-1","-1","1","0","[]","0","0","3","","","","","","","",""
"pit-trial","75","614105","0.0-2.0-14.3-1.3","battery-v0.2","","""event"",""trial"",""time""
""fullscreenenter"",""1"",""1966""
","
","
","""event"",""trial"",""time""
""fullscreenenter"",""1"",""1966""
","
","","","-1","","","20","7582","2148","&#9826;","elianto","#f73b6a7A","-1","-1","1","0","[]","0","0","3","","","","","","","",""
"pit-trial","76","618978","0.0-2.0-14.3-2.3","battery-v0.2","","""event"",""trial"",""time""
""fullscreenenter"",""1"",""1966""
","
","
","""event"",""trial"",""time""
""fullscreenenter"",""1"",""1966""
","
","","","-1","","","20","7582","2148","&#9826;","elianto","#f73b6a7A","-1","-1","1","0","[]","0","0","3","","","","","","","",""
"pit-trial","77","623842","0.0-2.0-14.3-3.3","battery-v0.2","","""event"",""trial"",""time""
""fullscreenenter"",""1"",""1966""
","
","
","""event"",""trial"",""time""
""fullscreenenter"",""1"",""1966""
","
","","","-1","","","20","7582","2148","&#9826;","elianto","#f73b6a7A","-1","-1","1","-10","[]","0","0","3","","","","","","","",""
"pit-trial","78","628712","0.0-2.0-14.3-4.3","battery-v0.2","","""event"",""trial"",""time""
""fullscreenenter"",""1"",""1966""
","
","
","""event"",""trial"",""time""
""fullscreenenter"",""1"",""1966""
","
","","","-1","","","20","7582","2148","&#9826;","elianto","#f73b6a7A","-1","-1","1","0","[]","0","0","3","","","","","","","",""
"call-function","79","628715","0.0-2.0-15.0","battery-v0.2","","""event"",""trial"",""time""
""fullscreenenter"",""1"",""1966""
","
","
","""event"",""trial"",""time""
""fullscreenenter"",""1"",""1966""
","
","","","","","","","","","","","","","","","","","","","","","","","","","","",""
"pit-instructions","80","653096","0.0-2.0-16.0","battery-v0.2","","""event"",""trial"",""time""
""fullscreenenter"",""1"",""1966""
","
","
","""event"",""trial"",""time""
""fullscreenenter"",""1"",""1966""
","
","","[{""page_index"":0,""viewing_time"":6752.30000000447},{""page_index"":1,""viewing_time"":8014.79999999702},{""page_index"":2,""viewing_time"":4750.30000000447},{""page_index"":3,""viewing_time"":4861.69999999553}]","24379.90000000596","","","","","","","","","","","","","","","","","","","","","","","",""
"pit-trial","81","656386","0.0-2.0-17.0-0.0","battery-v0.2","","""event"",""trial"",""time""
""fullscreenenter"",""1"",""1966""
","
","
","""event"",""trial"",""time""
""fullscreenenter"",""1"",""1966""
","
","","","429.79999999701977","","","20","7582","2148","&#9789;","elianto","#f73b6a7A"," "," ","1","0","[1280.5]","1","0","4","","","","","","","",""
"pit-trial","82","659838","0.0-2.0-17.0-1.0","battery-v0.2","","""event"",""trial"",""time""
""fullscreenenter"",""1"",""1966""
","
","
","""event"",""trial"",""time""
""fullscreenenter"",""1"",""1966""
","
","","","585.8999999985099","","","20","7582","2148","&#9789;","elianto","#f73b6a7A"," "," ","1","0","[1443.2999999970198]","1","0","4","","","","","","","",""
"pit-trial","83","663026","0.0-2.0-17.0-2.0","battery-v0.2","","""event"",""trial"",""time""
""fullscreenenter"",""1"",""1966""
","
","
","""event"",""trial"",""time""
""fullscreenenter"",""1"",""1966""
","
","","","318.79999999701977","","","20","7582","2148","&#9789;","elianto","#f73b6a7A"," "," ","1","0","[1174.2999999970198]","1","0","4","","","","","","","",""
"pit-trial","84","666338","0.0-2.0-17.0-3.0","battery-v0.2","","""event"",""trial"",""time""
""fullscreenenter"",""1"",""1966""
","
","
","""event"",""trial"",""time""
""fullscreenenter"",""1"",""1966""
","
","","","444.69999999552965","","","20","7582","2148","&#9789;","elianto","#f73b6a7A"," "," ","1","-10","[1297.1999999955297]","1","0","4","","","","","","","",""
"pit-trial","85","671210","0.0-2.0-17.0-4.0","battery-v0.2","","""event"",""trial"",""time""
""fullscreenenter"",""1"",""1966""
","
","
","""event"",""trial"",""time""
""fullscreenenter"",""1"",""1966""
","
","","","-1","","","20","7582","2148","&#9789;","elianto","#f73b6a7A"," ","-1","0","-10","[]","0","0","4","","","","","","","",""
"pit-trial","86","676082","0.0-2.0-17.1-0.1","battery-v0.2","","""event"",""trial"",""time""
""fullscreenenter"",""1"",""1966""
","
","
","""event"",""trial"",""time""
""fullscreenenter"",""1"",""1966""
","
","","","-1","","","20","7582","2148","&#9789;","elianto","#f73b6a7A"," ","-1","0","-10","[]","0","0","4","","","","","","","",""
"pit-trial","87","679351","0.0-2.0-17.1-1.1","battery-v0.2","","""event"",""trial"",""time""
""fullscreenenter"",""1"",""1966""
","
","
","""event"",""trial"",""time""
""fullscreenenter"",""1"",""1966""
","
","","","398.6000000014901","","","20","7582","2148","&#9789;","elianto","#f73b6a7A"," "," ","1","0","[1259.3000000044703]","1","0","4","","","","","","","",""
"pit-trial","88","682809","0.0-2.0-17.1-2.1","battery-v0.2","","""event"",""trial"",""time""
""fullscreenenter"",""1"",""1966""
","
","
","""event"",""trial"",""time""
""fullscreenenter"",""1"",""1966""
","
","","","586.6999999955297","","","20","7582","2148","&#9789;","elianto","#f73b6a7A"," "," ","1","0","[1443.1999999955297]","1","0","4","","","","","","","",""
"pit-trial","89","686154","0.0-2.0-17.1-3.1","battery-v0.2","","""event"",""trial"",""time""
""fullscreenenter"",""1"",""1966""
","
","
","""event"",""trial"",""time""
""fullscreenenter"",""1"",""1966""
","
","","","476.69999999552965","","","20","7582","2148","&#9789;","elianto","#f73b6a7A"," "," ","1","-10","[1328.7999999970198]","1","0","4","","","","","","","",""
"pit-trial","90","689562","0.0-2.0-17.1-4.1","battery-v0.2","","""event"",""trial"",""time""
""fullscreenenter"",""1"",""1966""
","
","
","""event"",""trial"",""time""
""fullscreenenter"",""1"",""1966""
","
","","","541.7999999970198","","","20","7582","2148","&#9789;","elianto","#f73b6a7A"," "," ","1","0","[1398.3999999985099]","1","0","4","","","","","","","",""
"pit-trial","91","692879","0.0-2.0-17.2-0.2","battery-v0.2","","""event"",""trial"",""time""
""fullscreenenter"",""1"",""1966""
","
","
","""event"",""trial"",""time""
""fullscreenenter"",""1"",""1966""
","
","","","458.29999999701977","","","20","7582","2148","&#9789;","elianto","#f73b6a7A"," "," ","1","0","[1308.1999999955297]","1","0","4","","","","","","","",""
"pit-trial","92","695951","0.0-2.0-17.2-1.2","battery-v0.2","","""event"",""trial"",""time""
""fullscreenenter"",""1"",""1966""
","
","
","""event"",""trial"",""time""
""fullscreenenter"",""1"",""1966""
","
","","","204.5","","","20","7582","2148","&#9789;","elianto","#f73b6a7A"," "," ","1","0","[1059.8999999985099]","1","0","4","","","","","","","",""
"pit-trial","93","699154","0.0-2.0-17.2-2.2","battery-v0.2","","""event"",""trial"",""time""
""fullscreenenter"",""1"",""1966""
","
","
","""event"",""trial"",""time""
""fullscreenenter"",""1"",""1966""
","
","","","334.80000000447035","","","20","7582","2148","&#9789;","elianto","#f73b6a7A"," "," ","1","0","[1190.3999999985099]","1","0","4","","","","","","","",""
"pit-trial","94","704026","0.0-2.0-17.2-3.2","battery-v0.2","","""event"",""trial"",""time""
""fullscreenenter"",""1"",""1966""
","
","
","""event"",""trial"",""time""
""fullscreenenter"",""1"",""1966""
","
","","","-1","","","20","7582","2148","&#9789;","elianto","#f73b6a7A"," ","-1","0","0","[4549.10000000149]","1","0","4","","","","","","","",""
"pit-trial","95","707519","0.0-2.0-17.2-4.2","battery-v0.2","","""event"",""trial"",""time""
""fullscreenenter"",""1"",""1966""
","
","
","""event"",""trial"",""time""
""fullscreenenter"",""1"",""1966""
","
","","","634.0999999940395","","","20","7582","2148","&#9789;","elianto","#f73b6a7A"," "," ","1","0","[1486.5]","1","0","4","","","","","","","",""
"pit-trial","96","710943","0.0-2.0-17.3-0.3","battery-v0.2","","""event"",""trial"",""time""
""fullscreenenter"",""1"",""1966""
","
","
","""event"",""trial"",""time""
""fullscreenenter"",""1"",""1966""
","
","","","561.3999999985099","","","20","7582","2148","&#9789;","elianto","#f73b6a7A"," "," ","1","0","[1416.3999999985099]","1","0","4","","","","","","","",""
"pit-trial","97","714239","0.0-2.0-17.3-1.3","battery-v0.2","","""event"",""trial"",""time""
""fullscreenenter"",""1"",""1966""
","
","
","""event"",""trial"",""time""
""fullscreenenter"",""1"",""1966""
","
","","","434.1000000014901","","","20","7582","2148","&#9789;","elianto","#f73b6a7A"," "," ","1","0","[1286.1999999955297]","1","0","4","","","","","","","",""
"pit-trial","98","717551","0.0-2.0-17.3-2.3","battery-v0.2","","""event"",""trial"",""time""
""fullscreenenter"",""1"",""1966""
","
","
","""event"",""trial"",""time""
""fullscreenenter"",""1"",""1966""
","
","","","446.19999999552965","","","20","7582","2148","&#9789;","elianto","#f73b6a7A"," "," ","1","0","[1301.1999999955297]","1","0","4","","","","","","","",""
"pit-trial","99","720842","0.0-2.0-17.3-3.3","battery-v0.2","","""event"",""trial"",""time""
""fullscreenenter"",""1"",""1966""
","
","
","""event"",""trial"",""time""
""fullscreenenter"",""1"",""1966""
","
","","","423.79999999701977","","","20","7582","2148","&#9789;","elianto","#f73b6a7A"," "," ","1","-10","[1279.5]","1","0","4","","","","","","","",""
"pit-trial","100","724367","0.0-2.0-17.3-4.3","battery-v0.2","","""event"",""trial"",""time""
""fullscreenenter"",""1"",""1966""
","
","
","""event"",""trial"",""time""
""fullscreenenter"",""1"",""1966""
","
","","","661.3999999985099","","","20","7582","2148","&#9789;","elianto","#f73b6a7A"," "," ","1","0","[1515.3999999985099]","1","0","4","","","","","","","",""
"call-function","101","724370","0.0-2.0-18.0","battery-v0.2","","""event"",""trial"",""time""
""fullscreenenter"",""1"",""1966""
","
","
","""event"",""trial"",""time""
""fullscreenenter"",""1"",""1966""
","
","","","","","","","","","","","","","","","","","","","","","","","","","","",""
"pit-instructions","102","818256","0.0-2.0-19.0","battery-v0.2","","""event"",""trial"",""time""
""fullscreenenter"",""1"",""1966""
","
","
","""event"",""trial"",""time""
""fullscreenenter"",""1"",""1966""
","
","","[{""page_index"":0,""viewing_time"":6414.5},{""page_index"":1,""viewing_time"":5076},{""page_index"":2,""viewing_time"":9598.89999999851},{""page_index"":3,""viewing_time"":14862.80000000447},{""page_index"":4,""viewing_time"":21732.60000000149},{""page_index"":5,""viewing_time"":8180.89999999851},{""page_index"":6,""viewing_time"":9159.29999999702},{""page_index"":7,""viewing_time"":14668.89999999851},{""page_index"":8,""viewing_time"":4190.5}]","93885","","","","","","","","","","","","","","","","","","","","","","","",""
"pit-comprehension","103","823110","0.0-2.0-20.0-0.0","battery-v0.2","","""event"",""trial"",""time""
""fullscreenenter"",""1"",""1966""
","
","
","""event"",""trial"",""time""
""fullscreenenter"",""1"",""1966""
","
","","","4848.5","[""SPACE""]","0","20","7582","2148","","","","","","","","","","","","","","","","","","",""
"pit-instructions","104","828592","0.0-2.0-20.0-1.0","battery-v0.2","","""event"",""trial"",""time""
""fullscreenenter"",""1"",""1966""
","
","
","""event"",""trial"",""time""
""fullscreenenter"",""1"",""1966""
","
","","[{""page_index"":0,""viewing_time"":5454.60000000149}]","5454.9000000059605","","","","","","","","","","","","","","","","","","","","","","","",""
"pit-comprehension","105","835665","0.0-2.0-21.0-0.0","battery-v0.2","","""event"",""trial"",""time""
""fullscreenenter"",""1"",""1966""
","
","
","""event"",""trial"",""time""
""fullscreenenter"",""1"",""1966""
","
","","","7068.5999999940395","[""10""]","0","20","7582","2148","","","","","","","","","","","","","","","","","","",""
"pit-instructions","106","844723","0.0-2.0-21.0-1.0","battery-v0.2","","""event"",""trial"",""time""
""fullscreenenter"",""1"",""1966""
","
","
","""event"",""trial"",""time""
""fullscreenenter"",""1"",""1966""
","
","","[{""page_index"":0,""viewing_time"":9027}]","9027.30000000447","","","","","","","","","","","","","","","","","","","","","","","",""
"pit-comprehension","107","869001","0.0-2.0-22.0-0.0","battery-v0.2","","""event"",""trial"",""time""
""fullscreenenter"",""1"",""1966""
","
","
","""event"",""trial"",""time""
""fullscreenenter"",""1"",""1966""
","
","","","24273.10000000149","[""0""]","0","20","7582","2148","","","","","","","","","","","","","","","","","","",""
"pit-instructions","108","874148","0.0-2.0-22.0-1.0","battery-v0.2","","""event"",""trial"",""time""
""fullscreenenter"",""1"",""1966""
","
","
","""event"",""trial"",""time""
""fullscreenenter"",""1"",""1966""
","
","","[{""page_index"":0,""viewing_time"":5117.5999999940395}]","5118.0999999940395","","","","","","","","","","","","","","","","","","","","","","","",""
"pit-comprehension","109","882889","0.0-2.0-23.0-0.0","battery-v0.2","","""event"",""trial"",""time""
""fullscreenenter"",""1"",""1966""
","
","
","""event"",""trial"",""time""
""fullscreenenter"",""1"",""1966""
","
","","","8735.10000000149","[""True""]","0","20","7582","2148","","","","","","","","","","","","","","","","","","",""
"pit-instructions","110","894195","0.0-2.0-23.0-1.0","battery-v0.2","","""event"",""trial"",""time""
""fullscreenenter"",""1"",""1966""
","
","
","""event"",""trial"",""time""
""fullscreenenter"",""1"",""1966""
","
","","[{""page_index"":0,""viewing_time"":11276.29999999702}]","11276.89999999851","","","","","","","","","","","","","","","","","","","","","","","",""
"pit-comprehension","111","904595","0.0-2.0-24.0-0.0","battery-v0.2","","""event"",""trial"",""time""
""fullscreenenter"",""1"",""1966""
","
","
","""event"",""trial"",""time""
""fullscreenenter"",""1"",""1966""
","
","","","10395.69999999553","[""True""]","0","20","7582","2148","","","","","","","","","","","","","","","","","","",""
"pit-instructions","112","938908","0.0-2.0-24.0-1.0","battery-v0.2","","""event"",""trial"",""time""
""fullscreenenter"",""1"",""1966""
","
","
","""event"",""trial"",""time""
""fullscreenenter"",""1"",""1966""
","
","","[{""page_index"":0,""viewing_time"":34286.5}]","34286.70000000298","","","","","","","","","","","","","","","","","","","","","","","",""
"pit-comprehension","113","965806","0.0-2.0-25.0-0.0","battery-v0.2","","""event"",""trial"",""time""
""fullscreenenter"",""1"",""1966""
","
","
","""event"",""trial"",""time""
""fullscreenenter"",""1"",""1966""
","
","","","26894.30000000447","[""True""]","0","20","7582","2148","","","","","","","","","","","","","","","","","","",""
"pit-instructions","114","974244","0.0-2.0-25.0-1.0","battery-v0.2","","""event"",""trial"",""time""
""fullscreenenter"",""1"",""1966""
","
","
","""event"",""trial"",""time""
""fullscreenenter"",""1"",""1966""
","
","","[{""page_index"":0,""viewing_time"":8405}]","8405.60000000149","","","","","","","","","","","","","","","","","","","","","","","",""
"pit-comprehension","115","1044915","0.0-2.0-26.0-0.0","battery-v0.2","","""event"",""trial"",""time""
""fullscreenenter"",""1"",""1966""
","
","
","""event"",""trial"",""time""
""fullscreenenter"",""1"",""1966""
","
","","","70665.5","[""False""]","0","20","7582","2148","","","","","","","","","","","","","","","","","","",""
"pit-instructions","116","1053391","0.0-2.0-26.0-1.0","battery-v0.2","","""event"",""trial"",""time""
""fullscreenenter"",""1"",""1966""
","
","
","""event"",""trial"",""time""
""fullscreenenter"",""1"",""1966""
","
","","[{""page_index"":0,""viewing_time"":8444.89999999851}]","8445.5","","","","","","","","","","","","","","","","","","","","","","","",""
"pit-instructions","117","1082975","0.0-3.0","battery-v0.2","","""event"",""trial"",""time""
""fullscreenenter"",""1"",""1966""
","
","
","""event"",""trial"",""time""
""fullscreenenter"",""1"",""1966""
","
","","[{""page_index"":0,""viewing_time"":12306.60000000149},{""page_index"":1,""viewing_time"":7333.5},{""page_index"":2,""viewing_time"":9939.89999999851}]","29580.60000000149","","","","","","","","","","","","","","","","","","","","","","","",""
"pit-trial","118","1087266","0.0-4.0","battery-v0.2","","""event"",""trial"",""time""
""fullscreenenter"",""1"",""1966""
","
","
","""event"",""trial"",""time""
""fullscreenenter"",""1"",""1966""
","
","","","1427.5","","","20","7582","2148","&#9728;","elianto","#f73b6a7A","-1"," ","0","0","[2278.5]","1","1","","","7582","1","0","4","lose","no-go","1"
"pit-trial","119","1090778","0.0-5.0","battery-v0.2","","""event"",""trial"",""time""
""fullscreenenter"",""1"",""1966""
","
","
","""event"",""trial"",""time""
""fullscreenenter"",""1"",""1966""
","
","","","638.2999999970198","","","20","7582","2148","&#9733;","elianto","#3366ff99","-1"," ","0","0","[1496.9000000059605]","1","1","","","7582","2","2","2","win","no-go","0"
"pit-trial","120","1094482","0.0-6.0","battery-v0.2","","""event"",""trial"",""time""
""fullscreenenter"",""1"",""1966""
","
","
","""event"",""trial"",""time""
""fullscreenenter"",""1"",""1966""
","
","","","842.2999999970198","","","20","7582","2148","&#9752;","elianto","#f73b6a7A"," "," ","1","0","[1692.8000000044703]","1","1","","","7582","3","3","3","lose","go","0"
"pit-trial","121","1097930","0.0-7.0","battery-v0.2","","""event"",""trial"",""time""
""fullscreenenter"",""1"",""1966""
","
","
","""event"",""trial"",""time""
""fullscreenenter"",""1"",""1966""
","
","","","573.2999999970198","","","20","7582","2148","&#9730;","elianto","#3366ff99"," "," ","1","+10","[1431.7999999970198]","1","1","","","7582","4","1","1","win","go","0"
"pit-trial","122","1101554","0.0-8.0","battery-v0.2","","""event"",""trial"",""time""
""fullscreenenter"",""1"",""1966""
","
","
","""event"",""trial"",""time""
""fullscreenenter"",""1"",""1966""
","
","","","750.6999999955297","","","20","7582","2148","&#9728;","elianto","#f73b6a7A","-1"," ","0","-10","[1611.2000000029802]","1","1","","","7582","5","0","4","lose","no-go","0"
"pit-trial","123","1105017","0.0-9.0","battery-v0.2","","""event"",""trial"",""time""
""fullscreenenter"",""1"",""1966""
","
","
","""event"",""trial"",""time""
""fullscreenenter"",""1"",""1966""
","
","","","596.8999999985099","","","20","7582","2148","&#9733;","elianto","#3366ff99","-1"," ","0","+10","[330.8999999985099,1453.6999999955297]","2","1","","","7582","6","2","2","win","no-go","1"
"pit-trial","124","1108562","0.0-10.0","battery-v0.2","","""event"",""trial"",""time""
""fullscreenenter"",""1"",""1966""
","
","
","""event"",""trial"",""time""
""fullscreenenter"",""1"",""1966""
","
","","","672.8000000044703","","","20","7582","2148","&#9730;","elianto","#3366ff99"," "," ","1","+10","[1530.5]","1","1","","","7582","7","1","1","win","go","0"
"pit-trial","125","1113430","0.0-11.0","battery-v0.2","","""event"",""trial"",""time""
""fullscreenenter"",""1"",""1966""
","
","
","""event"",""trial"",""time""
""fullscreenenter"",""1"",""1966""
","
","","","-1","","","20","7582","2148","&#9752;","elianto","#f73b6a7A"," ","-1","0","0","[]","0","1","","","7582","8","3","3","lose","go","1"
"pit-trial","126","1118294","0.0-12.0","battery-v0.2","","""event"",""trial"",""time""
""fullscreenenter"",""1"",""1966""
","
","
","""event"",""trial"",""time""
""fullscreenenter"",""1"",""1966""
","
","","","-1","","","20","7582","2148","&#9728;","elianto","#f73b6a7A","-1","-1","1","0","[]","0","1","","","7582","9","0","4","lose","no-go","0"
"pit-trial","127","1121878","0.0-13.0","battery-v0.2","","""event"",""trial"",""time""
""fullscreenenter"",""1"",""1966""
","
","
","""event"",""trial"",""time""
""fullscreenenter"",""1"",""1966""
","
","","","726.3999999985099","","","20","7582","2148","&#9733;","elianto","#3366ff99","-1"," ","0","+10","[1576.6000000014901]","1","1","","","7582","10","2","2","win","no-go","1"
"pit-trial","128","1126745","0.0-14.0","battery-v0.2","","""event"",""trial"",""time""
""fullscreenenter"",""1"",""1966""
","
","
","""event"",""trial"",""time""
""fullscreenenter"",""1"",""1966""
","
","","","-1","","","20","7582","2148","&#9730;","elianto","#3366ff99"," ","-1","0","0","[169.60000000149012]","1","1","","","7582","11","1","1","win","go","0"
"pit-trial","129","1131606","0.0-15.0","battery-v0.2","","""event"",""trial"",""time""
""fullscreenenter"",""1"",""1966""
","
","
","""event"",""trial"",""time""
""fullscreenenter"",""1"",""1966""
","
","","","-1","","","20","7582","2148","&#9752;","elianto","#f73b6a7A"," ","-1","0","0","[]","0","1","","","7582","12","3","3","lose","go","1"
"pit-trial","130","1136470","0.0-16.0","battery-v0.2","","""event"",""trial"",""time""
""fullscreenenter"",""1"",""1966""
","
","
","""event"",""trial"",""time""
""fullscreenenter"",""1"",""1966""
","
","","","-1","","","20","7582","2148","&#9728;","elianto","#f73b6a7A","-1","-1","1","0","[]","0","1","","","7582","13","0","4","lose","no-go","0"
"pit-trial","131","1139648","0.0-17.0","battery-v0.2","","""event"",""trial"",""time""
""fullscreenenter"",""1"",""1966""
","
","
","""event"",""trial"",""time""
""fullscreenenter"",""1"",""1966""
","
","","","313.19999999552965","","","20","7582","2148","&#9730;","elianto","#3366ff99"," "," ","1","+10","[1167.5]","1","1","","","7582","14","1","1","win","go","0"
"pit-trial","132","1144513","0.0-18.0","battery-v0.2","","""event"",""trial"",""time""
""fullscreenenter"",""1"",""1966""
","
","
","""event"",""trial"",""time""
""fullscreenenter"",""1"",""1966""
","
","","","-1","","","20","7582","2148","&#9752;","elianto","#f73b6a7A"," ","-1","0","-10","[]","0","1","","","7582","15","3","3","lose","go","0"
"pit-trial","133","1148049","0.0-19.0","battery-v0.2","","""event"",""trial"",""time""
""fullscreenenter"",""1"",""1966""
","
","
","""event"",""trial"",""time""
""fullscreenenter"",""1"",""1966""
","
","","","672.3000000044703","","","20","7582","2148","&#9733;","elianto","#3366ff99","-1"," ","0","0","[1522.2999999970198]","1","1","","","7582","16","2","2","win","no-go","0"
"pit-trial","134","1151402","0.0-20.0","battery-v0.2","","""event"",""trial"",""time""
""fullscreenenter"",""1"",""1966""
","
","
","""event"",""trial"",""time""
""fullscreenenter"",""1"",""1966""
","
","","","480.8999999985099","","","20","7582","2148","&#9733;","elianto","#3366ff99","-1"," ","0","+10","[1341.2999999970198]","1","1","","","7582","17","2","2","win","no-go","1"
"pit-trial","135","1155153","0.0-21.0","battery-v0.2","","""event"",""trial"",""time""
""fullscreenenter"",""1"",""1966""
","
","
","""event"",""trial"",""time""
""fullscreenenter"",""1"",""1966""
","
","","","880.2000000029802","","","20","7582","2148","&#9728;","elianto","#f73b6a7A","-1"," ","0","-10","[1739.6999999955297]","1","1","","","7582","18","0","4","lose","no-go","0"
"pit-trial","136","1158806","0.0-22.0","battery-v0.2","","""event"",""trial"",""time""
""fullscreenenter"",""1"",""1966""
","
","
","""event"",""trial"",""time""
""fullscreenenter"",""1"",""1966""
","
","","","785.3999999985099","","","20","7582","2148","&#9730;","elianto","#3366ff99"," "," ","1","+10","[1644]","1","1","","","7582","19","1","1","win","go","0"
"pit-trial","137","1163488","0.0-23.0","battery-v0.2","","""event"",""trial"",""time""
""fullscreenenter"",""1"",""1966""
","
","
","""event"",""trial"",""time""
""fullscreenenter"",""1"",""1966""
","
","","","1820.7999999970198","","","20","7582","2148","&#9752;","elianto","#f73b6a7A"," "," ","1","0","[2675.10000000149]","1","1","","","7582","20","3","3","lose","go","0"
"pit-instructions","138","1184952","0.0-24.0","battery-v0.2","","""event"",""trial"",""time""
""fullscreenenter"",""1"",""1966""
","
","
","""event"",""trial"",""time""
""fullscreenenter"",""1"",""1966""
","
","","[{""page_index"":0,""viewing_time"":13433.60000000149},{""page_index"":1,""viewing_time"":8025.89999999851}]","21460","","","","","","","","","","","","","","","","","","","","","","","",""
"pit-trial","139","1188571","0.0-25.0","battery-v0.2","","""event"",""trial"",""time""
""fullscreenenter"",""1"",""1966""
","
","
","""event"",""trial"",""time""
""fullscreenenter"",""1"",""1966""
","
","","","752.8000000044703","","","20","7582","2148","l","elianto","#3366ff99","-1"," ","0","0","[1607.8999999985099]","1","2","","","7582","21","1","2","win","no-go","0"
"pit-trial","140","1192641","0.0-26.0","battery-v0.2","","""event"",""trial"",""time""
""fullscreenenter"",""1"",""1966""
","
","
","""event"",""trial"",""time""
""fullscreenenter"",""1"",""1966""
","
","","","1201.2999999970198","","","20","7582","2148","u","elianto","#f73b6a7A"," "," ","1","0","[2057.39999999851]","1","2","","","7582","22","0","3","lose","go","0"
"pit-trial","141","1196823","0.0-27.0","battery-v0.2","","""event"",""trial"",""time""
""fullscreenenter"",""1"",""1966""
","
","
","""event"",""trial"",""time""
""fullscreenenter"",""1"",""1966""
","
","","","1322.5","","","20","7582","2148","a","elianto","#f73b6a7A"," "," ","1","0","[2174.4000000059605]","1","2","","","7582","23","2","3","lose","go","0"
"pit-trial","142","1201690","0.0-28.0","battery-v0.2","","""event"",""trial"",""time""
""fullscreenenter"",""1"",""1966""
","
","
","""event"",""trial"",""time""
""fullscreenenter"",""1"",""1966""
","
","","","-1","","","20","7582","2148","g","elianto","#f73b6a7A","-1","-1","1","0","[]","0","2","","","7582","24","3","4","lose","no-go","0"
"pit-trial","143","1205099","0.0-29.0","battery-v0.2","","""event"",""trial"",""time""
""fullscreenenter"",""1"",""1966""
","
","
","""event"",""trial"",""time""
""fullscreenenter"",""1"",""1966""
","
","","","539.5","","","20","7582","2148","l","elianto","#3366ff99","-1"," ","0","0","[1392.2999999970198]","1","2","","","7582","25","1","2","win","no-go","0"
"pit-trial","144","1209968","0.0-30.0","battery-v0.2","","""event"",""trial"",""time""
""fullscreenenter"",""1"",""1966""
","
","
","""event"",""trial"",""time""
""fullscreenenter"",""1"",""1966""
","
","","","-1","","","20","7582","2148","g","elianto","#f73b6a7A","-1","-1","1","0","[]","0","2","","","7582","26","3","4","lose","no-go","0"
"pit-trial","145","1214834","0.0-31.0","battery-v0.2","","""event"",""trial"",""time""
""fullscreenenter"",""1"",""1966""
","
","
","""event"",""trial"",""time""
""fullscreenenter"",""1"",""1966""
","
","","","-1","","","20","7582","2148","u","elianto","#f73b6a7A"," ","-1","0","-10","[]","0","2","","","7582","27","0","3","lose","go","0"
"pit-trial","146","1219703","0.0-32.0","battery-v0.2","","""event"",""trial"",""time""
""fullscreenenter"",""1"",""1966""
","
","
","""event"",""trial"",""time""
""fullscreenenter"",""1"",""1966""
","
","","","-1","","","20","7582","2148","a","elianto","#f73b6a7A"," ","-1","0","-10","[3165.89999999851,3600.5]","2","2","","","7582","28","2","3","lose","go","0"
"pit-trial","147","1224567","0.0-33.0","battery-v0.2","","""event"",""trial"",""time""
""fullscreenenter"",""1"",""1966""
","
","
","""event"",""trial"",""time""
""fullscreenenter"",""1"",""1966""
","
","","","-1","","","20","7582","2148","a","elianto","#f73b6a7A"," ","-1","0","-10","[4201.70000000298]","1","2","","","7582","29","2","3","lose","go","0"
"pit-trial","148","1228402","0.0-34.0","battery-v0.2","","""event"",""trial"",""time""
""fullscreenenter"",""1"",""1966""
","
","
","""event"",""trial"",""time""
""fullscreenenter"",""1"",""1966""
","
","","","964.1000000014901","","","20","7582","2148","g","elianto","#f73b6a7A","-1"," ","0","-10","[1818.6999999955297]","1","2","","","7582","30","3","4","lose","no-go","0"
"pit-trial","149","1231890","0.0-35.0","battery-v0.2","","""event"",""trial"",""time""
""fullscreenenter"",""1"",""1966""
","
","
","""event"",""trial"",""time""
""fullscreenenter"",""1"",""1966""
","
","","","617.8000000044703","","","20","7582","2148","l","elianto","#3366ff99","-1"," ","0","0","[1479.2000000029802]","1","2","","","7582","31","1","2","win","no-go","0"
"pit-trial","150","1235330","0.0-36.0","battery-v0.2","","""event"",""trial"",""time""
""fullscreenenter"",""1"",""1966""
","
","
","""event"",""trial"",""time""
""fullscreenenter"",""1"",""1966""
","
","","","578.3999999985099","","","20","7582","2148","u","elianto","#f73b6a7A"," "," ","1","0","[1430.7000000029802]","1","2","","","7582","32","0","3","lose","go","0"
"pit-trial","151","1238610","0.0-37.0","battery-v0.2","","""event"",""trial"",""time""
""fullscreenenter"",""1"",""1966""
","
","
","""event"",""trial"",""time""
""fullscreenenter"",""1"",""1966""
","
","","","407.1000000014901","","","20","7582","2148","u","elianto","#f73b6a7A"," "," ","1","0","[1267.6999999955297]","1","2","","","7582","33","0","3","lose","go","0"
"pit-trial","152","1242427","0.0-38.0","battery-v0.2","","""event"",""trial"",""time""
""fullscreenenter"",""1"",""1966""
","
","
","""event"",""trial"",""time""
""fullscreenenter"",""1"",""1966""
","
","","","949.2999999970198","","","20","7582","2148","a","elianto","#f73b6a7A"," "," ","1","0","[1799.7999999970198]","1","2","","","7582","34","2","3","lose","go","0"
"pit-trial","153","1245975","0.0-39.0","battery-v0.2","","""event"",""trial"",""time""
""fullscreenenter"",""1"",""1966""
","
","
","""event"",""trial"",""time""
""fullscreenenter"",""1"",""1966""
","
","","","691.2000000029802","","","20","7582","2148","l","elianto","#3366ff99","-1"," ","0","0","[1542.1999999955297]","1","2","","","7582","35","1","2","win","no-go","0"
"pit-trial","154","1250839","0.0-40.0","battery-v0.2","","""event"",""trial"",""time""
""fullscreenenter"",""1"",""1966""
","
","
","""event"",""trial"",""time""
""fullscreenenter"",""1"",""1966""
","
","","","-1","","","20","7582","2148","g","elianto","#f73b6a7A","-1","-1","1","0","[]","0","2","","","7582","36","3","4","lose","no-go","0"
"pit-trial","155","1253879","0.0-41.0","battery-v0.2","","""event"",""trial"",""time""
""fullscreenenter"",""1"",""1966""
","
","
","""event"",""trial"",""time""
""fullscreenenter"",""1"",""1966""
","
","","","172.69999999552965","","","20","7582","2148","u","elianto","#f73b6a7A"," "," ","1","-10","[1027]","1","2","","","7582","37","0","3","lose","go","1"
"pit-trial","156","1258745","0.0-42.0","battery-v0.2","","""event"",""trial"",""time""
""fullscreenenter"",""1"",""1966""
","
","
","""event"",""trial"",""time""
""fullscreenenter"",""1"",""1966""
","
","","","-1","","","20","7582","2148","g","elianto","#f73b6a7A","-1","-1","1","-10","[]","0","2","","","7582","38","3","4","lose","no-go","1"
"pit-trial","157","1262023","0.0-43.0","battery-v0.2","","""event"",""trial"",""time""
""fullscreenenter"",""1"",""1966""
","
","
","""event"",""trial"",""time""
""fullscreenenter"",""1"",""1966""
","
","","","410.30000000447035","","","20","7582","2148","a","elianto","#f73b6a7A"," "," ","1","0","[1271.3999999985099]","1","2","","","7582","39","2","3","lose","go","0"
"pit-trial","158","1265746","0.0-44.0","battery-v0.2","","""event"",""trial"",""time""
""fullscreenenter"",""1"",""1966""
","
","
","""event"",""trial"",""time""
""fullscreenenter"",""1"",""1966""
","
","","","859.3999999985099","","","20","7582","2148","l","elianto","#3366ff99","-1"," ","0","0","[1712.6999999955297]","1","2","","","7582","40","1","2","win","no-go","0"
"pit-trial","159","1270615","0.0-45.0","battery-v0.2","","""event"",""trial"",""time""
""fullscreenenter"",""1"",""1966""
","
","
","""event"",""trial"",""time""
""fullscreenenter"",""1"",""1966""
","
","","","-1","","","20","7582","2148","g","elianto","#f73b6a7A","-1","-1","1","0","[]","0","2","","","7582","41","3","4","lose","no-go","0"
"pit-trial","160","1274007","0.0-46.0","battery-v0.2","","""event"",""trial"",""time""
""fullscreenenter"",""1"",""1966""
","
","
","""event"",""trial"",""time""
""fullscreenenter"",""1"",""1966""
","
","","","528.3000000044703","","","20","7582","2148","l","elianto","#3366ff99","-1"," ","0","0","[1383.8999999985099]","1","2","","","7582","42","1","2","win","no-go","0"
"pit-trial","161","1278199","0.0-47.0","battery-v0.2","","""event"",""trial"",""time""
""fullscreenenter"",""1"",""1966""
","
","
","""event"",""trial"",""time""
""fullscreenenter"",""1"",""1966""
","
","","","1334.2000000029802","","","20","7582","2148","a","elianto","#f73b6a7A"," "," ","1","-10","[2185.89999999851]","1","2","","","7582","43","2","3","lose","go","1"
"pit-trial","162","1282594","0.0-48.0","battery-v0.2","","""event"",""trial"",""time""
""fullscreenenter"",""1"",""1966""
","
","
","""event"",""trial"",""time""
""fullscreenenter"",""1"",""1966""
","
","","","1526","","","20","7582","2148","u","elianto","#f73b6a7A"," "," ","1","0","[2381.2999999970198]","1","2","","","7582","44","0","3","lose","go","0"
"pit-trial","163","1286807","0.0-49.0","battery-v0.2","","""event"",""trial"",""time""
""fullscreenenter"",""1"",""1966""
","
","
","""event"",""trial"",""time""
""fullscreenenter"",""1"",""1966""
","
","","","1354.6999999955297","","","20","7582","2148","a","elianto","#f73b6a7A"," "," ","1","-10","[2205.2999999970198]","1","2","","","7582","45","2","3","lose","go","1"
"pit-trial","164","1291671","0.0-50.0","battery-v0.2","","""event"",""trial"",""time""
""fullscreenenter"",""1"",""1966""
","
","
","""event"",""trial"",""time""
""fullscreenenter"",""1"",""1966""
","
","","","-1","","","20","7582","2148","g","elianto","#f73b6a7A","-1","-1","1","0","[]","0","2","","","7582","46","3","4","lose","no-go","0"
"pit-trial","165","1296535","0.0-51.0","battery-v0.2","","""event"",""trial"",""time""
""fullscreenenter"",""1"",""1966""
","
","
","""event"",""trial"",""time""
""fullscreenenter"",""1"",""1966""
","
","","","-1","","","20","7582","2148","u","elianto","#f73b6a7A"," ","-1","0","-10","[]","0","2","","","7582","47","0","3","lose","go","0"
"pit-trial","166","1301399","0.0-52.0","battery-v0.2","","""event"",""trial"",""time""
""fullscreenenter"",""1"",""1966""
","
","
","""event"",""trial"",""time""
""fullscreenenter"",""1"",""1966""
","
","","","-1","","","20","7582","2148","l","elianto","#3366ff99","-1","-1","1","0","[]","0","2","","","7582","48","1","2","win","no-go","1"
"pit-trial","167","1305922","0.0-53.0","battery-v0.2","","""event"",""trial"",""time""
""fullscreenenter"",""1"",""1966""
","
","
","""event"",""trial"",""time""
""fullscreenenter"",""1"",""1966""
","
","","","1651.2999999970198","","","20","7582","2148","g","elianto","#f73b6a7A","-1"," ","0","-10","[2506.4000000059605]","1","2","","","7582","49","3","4","lose","no-go","0"
"pit-trial","168","1310791","0.0-54.0","battery-v0.2","","""event"",""trial"",""time""
""fullscreenenter"",""1"",""1966""
","
","
","""event"",""trial"",""time""
""fullscreenenter"",""1"",""1966""
","
","","","-1","","","20","7582","2148","l","elianto","#3366ff99","-1","-1","1","+10","[]","0","2","","","7582","50","1","2","win","no-go","0"
"pit-trial","169","1315655","0.0-55.0","battery-v0.2","","""event"",""trial"",""time""
""fullscreenenter"",""1"",""1966""
","
","
","""event"",""trial"",""time""
""fullscreenenter"",""1"",""1966""
","
","","","-1","","","20","7582","2148","u","elianto","#f73b6a7A"," ","-1","0","-10","[]","0","2","","","7582","51","0","3","lose","go","0"
"pit-trial","170","1320178","0.0-56.0","battery-v0.2","","""event"",""trial"",""time""
""fullscreenenter"",""1"",""1966""
","
","
","""event"",""trial"",""time""
""fullscreenenter"",""1"",""1966""
","
","","","1659.8000000044703","","","20","7582","2148","a","elianto","#f73b6a7A"," "," ","1","-10","[2512.10000000149]","1","2","","","7582","52","2","3","lose","go","1"
"pit-trial","171","1324647","0.0-57.0","battery-v0.2","","""event"",""trial"",""time""
""fullscreenenter"",""1"",""1966""
","
","
","""event"",""trial"",""time""
""fullscreenenter"",""1"",""1966""
","
","","","1611.1000000014901","","","20","7582","2148","g","elianto","#f73b6a7A","-1"," ","0","-10","[2461.1999999955297]","1","2","","","7582","53","3","4","lose","no-go","0"
"pit-trial","172","1329512","0.0-58.0","battery-v0.2","","""event"",""trial"",""time""
""fullscreenenter"",""1"",""1966""
","
","
","""event"",""trial"",""time""
""fullscreenenter"",""1"",""1966""
","
","","","-1","","","20","7582","2148","a","elianto","#f73b6a7A"," ","-1","0","-10","[2886.2000000029802]","1","2","","","7582","54","2","3","lose","go","0"
"pit-trial","173","1334375","0.0-59.0","battery-v0.2","","""event"",""trial"",""time""
""fullscreenenter"",""1"",""1966""
","
","
","""event"",""trial"",""time""
""fullscreenenter"",""1"",""1966""
","
","","","-1","","","20","7582","2148","u","elianto","#f73b6a7A"," ","-1","0","-10","[3911.1999999955297]","1","2","","","7582","55","0","3","lose","go","0"
"pit-trial","174","1339239","0.0-60.0","battery-v0.2","","""event"",""trial"",""time""
""fullscreenenter"",""1"",""1966""
","
","
","""event"",""trial"",""time""
""fullscreenenter"",""1"",""1966""
","
","","","-1","","","20","7582","2148","l","elianto","#3366ff99","-1","-1","1","0","[]","0","2","","","7582","56","1","2","win","no-go","1"
"pit-trial","175","1344103","0.0-61.0","battery-v0.2","","""event"",""trial"",""time""
""fullscreenenter"",""1"",""1966""
","
","
","""event"",""trial"",""time""
""fullscreenenter"",""1"",""1966""
","
","","","-1","","","20","7582","2148","a","elianto","#f73b6a7A"," ","-1","0","0","[2953.7000000029802]","1","2","","","7582","57","2","3","lose","go","1"
"pit-trial","176","1348967","0.0-62.0","battery-v0.2","","""event"",""trial"",""time""
""fullscreenenter"",""1"",""1966""
","
","
","""event"",""trial"",""time""
""fullscreenenter"",""1"",""1966""
","
","","","-1","","","20","7582","2148","u","elianto","#f73b6a7A"," ","-1","0","-10","[]","0","2","","","7582","58","0","3","lose","go","0"
"pit-trial","177","1352882","0.0-63.0","battery-v0.2","","""event"",""trial"",""time""
""fullscreenenter"",""1"",""1966""
","
","
","""event"",""trial"",""time""
""fullscreenenter"",""1"",""1966""
","
","","","1049.7999999970198","","","20","7582","2148","g","elianto","#f73b6a7A","-1"," ","0","-10","[1905.3999999985099]","1","2","","","7582","59","3","4","lose","no-go","0"
"pit-trial","178","1357751","0.0-64.0","battery-v0.2","","""event"",""trial"",""time""
""fullscreenenter"",""1"",""1966""
","
","
","""event"",""trial"",""time""
""fullscreenenter"",""1"",""1966""
","
","","","-1","","","20","7582","2148","p","elianto","#3366ff99"," ","-1","0","0","[]","0","2","","","7582","60","4","1","win","go","0"
"pit-trial","179","1362615","0.0-65.0","battery-v0.2","","""event"",""trial"",""time""
""fullscreenenter"",""1"",""1966""
","
","
","""event"",""trial"",""time""
""fullscreenenter"",""1"",""1966""
","
","","","-1","","","20","7582","2148","p","elianto","#3366ff99"," ","-1","0","0","[]","0","2","","","7582","61","4","1","win","go","0"
"pit-trial","180","1367074","0.0-66.0","battery-v0.2","","""event"",""trial"",""time""
""fullscreenenter"",""1"",""1966""
","
","
","""event"",""trial"",""time""
""fullscreenenter"",""1"",""1966""
","
","","","1590.3999999985099","","","20","7582","2148","a","elianto","#f73b6a7A"," "," ","1","-10","[2445.39999999851]","1","2","","","7582","62","2","3","lose","go","1"
"pit-trial","181","1371938","0.0-67.0","battery-v0.2","","""event"",""trial"",""time""
""fullscreenenter"",""1"",""1966""
","
","
","""event"",""trial"",""time""
""fullscreenenter"",""1"",""1966""
","
","","","-1","","","20","7582","2148","g","elianto","#f73b6a7A","-1","-1","1","0","[]","0","2","","","7582","63","3","4","lose","no-go","0"
"pit-trial","182","1376807","0.0-68.0","battery-v0.2","","""event"",""trial"",""time""
""fullscreenenter"",""1"",""1966""
","
","
","""event"",""trial"",""time""
""fullscreenenter"",""1"",""1966""
","
","","","-1","","","20","7582","2148","l","elianto","#3366ff99","-1","-1","1","+10","[]","0","2","","","7582","64","1","2","win","no-go","0"
"pit-trial","183","1380535","0.0-69.0","battery-v0.2","","""event"",""trial"",""time""
""fullscreenenter"",""1"",""1966""
","
","
","""event"",""trial"",""time""
""fullscreenenter"",""1"",""1966""
","
","","","867.2999999970198","","","20","7582","2148","s","elianto","#3366ff99","-1"," ","0","+10","[1717.8000000044703]","1","2","","","7582","65","5","2","win","no-go","1"
"pit-trial","184","1385399","0.0-70.0","battery-v0.2","","""event"",""trial"",""time""
""fullscreenenter"",""1"",""1966""
","
","
","""event"",""trial"",""time""
""fullscreenenter"",""1"",""1966""
","
","","","-1","","","20","7582","2148","l","elianto","#3366ff99","-1","-1","1","+10","[]","0","2","","","7582","66","1","2","win","no-go","0"
"pit-trial","185","1389943","0.0-71.0","battery-v0.2","","""event"",""trial"",""time""
""fullscreenenter"",""1"",""1966""
","
","
","""event"",""trial"",""time""
""fullscreenenter"",""1"",""1966""
","
","","","1677.1999999955297","","","20","7582","2148","g","elianto","#f73b6a7A","-1"," ","0","-10","[2532.5]","1","2","","","7582","67","3","4","lose","no-go","0"
"pit-trial","186","1394039","0.0-72.0","battery-v0.2","","""event"",""trial"",""time""
""fullscreenenter"",""1"",""1966""
","
","
","""event"",""trial"",""time""
""fullscreenenter"",""1"",""1966""
","
","","","1235.2999999970198","","","20","7582","2148","p","elianto","#3366ff99"," "," ","1","+10","[2085.89999999851]","1","2","","","7582","68","4","1","win","go","0"
"pit-trial","187","1398903","0.0-73.0","battery-v0.2","","""event"",""trial"",""time""
""fullscreenenter"",""1"",""1966""
","
","
","""event"",""trial"",""time""
""fullscreenenter"",""1"",""1966""
","
","","","-1","","","20","7582","2148","a","elianto","#f73b6a7A"," ","-1","0","-10","[]","0","2","","","7582","69","2","3","lose","go","0"
"pit-trial","188","1402759","0.0-74.0","battery-v0.2","","""event"",""trial"",""time""
""fullscreenenter"",""1"",""1966""
","
","
","""event"",""trial"",""time""
""fullscreenenter"",""1"",""1966""
","
","","","990.5","","","20","7582","2148","l","elianto","#3366ff99","-1"," ","0","0","[1845.7999999970198]","1","2","","","7582","70","1","2","win","no-go","0"
"pit-trial","189","1406546","0.0-75.0","battery-v0.2","","""event"",""trial"",""time""
""fullscreenenter"",""1"",""1966""
","
","
","""event"",""trial"",""time""
""fullscreenenter"",""1"",""1966""
","
","","","920.2000000029802","","","20","7582","2148","s","elianto","#3366ff99","-1"," ","0","0","[1774.5]","1","2","","","7582","71","5","2","win","no-go","0"
"pit-trial","190","1410530","0.0-76.0","battery-v0.2","","""event"",""trial"",""time""
""fullscreenenter"",""1"",""1966""
","
","
","""event"",""trial"",""time""
""fullscreenenter"",""1"",""1966""
","
","","","1111.3999999985099","","","20","7582","2148","p","elianto","#3366ff99"," "," ","1","0","[1970.8999999985099]","1","2","","","7582","72","4","1","win","go","1"
"pit-trial","191","1414442","0.0-77.0","battery-v0.2","","""event"",""trial"",""time""
""fullscreenenter"",""1"",""1966""
","
","
","""event"",""trial"",""time""
""fullscreenenter"",""1"",""1966""
","
","","","1037.3999999985099","","","20","7582","2148","g","elianto","#f73b6a7A","-1"," ","0","-10","[1897.6999999955297]","1","2","","","7582","73","3","4","lose","no-go","0"
"pit-trial","192","1418386","0.0-78.0","battery-v0.2","","""event"",""trial"",""time""
""fullscreenenter"",""1"",""1966""
","
","
","""event"",""trial"",""time""
""fullscreenenter"",""1"",""1966""
","
","","","1082.0999999940395","","","20","7582","2148","s","elianto","#3366ff99","-1"," ","0","+10","[1932.3999999985099]","1","2","","","7582","74","5","2","win","no-go","1"
"pit-trial","193","1422194","0.0-79.0","battery-v0.2","","""event"",""trial"",""time""
""fullscreenenter"",""1"",""1966""
","
","
","""event"",""trial"",""time""
""fullscreenenter"",""1"",""1966""
","
","","","938.3999999985099","","","20","7582","2148","l","elianto","#3366ff99","-1"," ","0","0","[1793.8999999985099]","1","2","","","7582","75","1","2","win","no-go","0"
"pit-trial","194","1425874","0.0-80.0","battery-v0.2","","""event"",""trial"",""time""
""fullscreenenter"",""1"",""1966""
","
","
","""event"",""trial"",""time""
""fullscreenenter"",""1"",""1966""
","
","","","816.6000000014901","","","20","7582","2148","p","elianto","#3366ff99"," "," ","1","+10","[1666.8000000044703]","1","2","","","7582","76","4","1","win","go","0"
"pit-trial","195","1429666","0.0-81.0","battery-v0.2","","""event"",""trial"",""time""
""fullscreenenter"",""1"",""1966""
","
","
","""event"",""trial"",""time""
""fullscreenenter"",""1"",""1966""
","
","","","924.5","","","20","7582","2148","p","elianto","#3366ff99"," "," ","1","+10","[1775.8999999985099]","1","2","","","7582","77","4","1","win","go","0"
"pit-trial","196","1434482","0.0-82.0","battery-v0.2","","""event"",""trial"",""time""
""fullscreenenter"",""1"",""1966""
","
","
","""event"",""trial"",""time""
""fullscreenenter"",""1"",""1966""
","
","","","1942.9000000059605","","","20","7582","2148","g","elianto","#f73b6a7A","-1"," ","0","-10","[2801.2000000029802]","1","2","","","7582","78","3","4","lose","no-go","0"
"pit-trial","197","1438018","0.0-83.0","battery-v0.2","","""event"",""trial"",""time""
""fullscreenenter"",""1"",""1966""
","
","
","""event"",""trial"",""time""
""fullscreenenter"",""1"",""1966""
","
","","","668.8000000044703","","","20","7582","2148","p","elianto","#3366ff99"," "," ","1","+10","[1526]","1","2","","","7582","79","4","1","win","go","0"
"pit-trial","198","1442370","0.0-84.0","battery-v0.2","","""event"",""trial"",""time""
""fullscreenenter"",""1"",""1966""
","
","
","""event"",""trial"",""time""
""fullscreenenter"",""1"",""1966""
","
","","","1482.1999999955297","","","20","7582","2148","s","elianto","#3366ff99","-1"," ","0","+10","[2339.10000000149]","1","2","","","7582","80","5","2","win","no-go","1"
"pit-trial","199","1447239","0.0-85.0","battery-v0.2","","""event"",""trial"",""time""
""fullscreenenter"",""1"",""1966""
","
","
","""event"",""trial"",""time""
""fullscreenenter"",""1"",""1966""
","
","","","-1","","","20","7582","2148","p","elianto","#3366ff99"," ","-1","0","0","[]","0","2","","","7582","81","4","1","win","go","0"
"pit-trial","200","1452103","0.0-86.0","battery-v0.2","","""event"",""trial"",""time""
""fullscreenenter"",""1"",""1966""
","
","
","""event"",""trial"",""time""
""fullscreenenter"",""1"",""1966""
","
","","","-1","","","20","7582","2148","g","elianto","#f73b6a7A","-1","-1","1","0","[]","0","2","","","7582","82","3","4","lose","no-go","0"
"pit-trial","201","1456967","0.0-87.0","battery-v0.2","","""event"",""trial"",""time""
""fullscreenenter"",""1"",""1966""
","
","
","""event"",""trial"",""time""
""fullscreenenter"",""1"",""1966""
","
","","","-1","","","20","7582","2148","e","elianto","#f73b6a7A","-1","-1","1","0","[]","0","2","","","7582","83","7","4","lose","no-go","0"
"pit-trial","202","1461831","0.0-88.0","battery-v0.2","","""event"",""trial"",""time""
""fullscreenenter"",""1"",""1966""
","
","
","""event"",""trial"",""time""
""fullscreenenter"",""1"",""1966""
","
","","","-1","","","20","7582","2148","s","elianto","#3366ff99","-1","-1","1","+10","[]","0","2","","","7582","84","5","2","win","no-go","0"
"pit-trial","203","1466696","0.0-89.0","battery-v0.2","","""event"",""trial"",""time""
""fullscreenenter"",""1"",""1966""
","
","
","""event"",""trial"",""time""
""fullscreenenter"",""1"",""1966""
","
","","","-1","","","20","7582","2148","p","elianto","#3366ff99"," ","-1","0","0","[]","0","2","","","7582","85","4","1","win","go","0"
"pit-trial","204","1471559","0.0-90.0","battery-v0.2","","""event"",""trial"",""time""
""fullscreenenter"",""1"",""1966""
","
","
","""event"",""trial"",""time""
""fullscreenenter"",""1"",""1966""
","
","","","-1","","","20","7582","2148","s","elianto","#3366ff99","-1","-1","1","0","[]","0","2","","","7582","86","5","2","win","no-go","1"
"pit-trial","205","1474914","0.0-91.0","battery-v0.2","","""event"",""trial"",""time""
""fullscreenenter"",""1"",""1966""
","
","
","""event"",""trial"",""time""
""fullscreenenter"",""1"",""1966""
","
","","","493.70000000298023","","","20","7582","2148","e","elianto","#f73b6a7A","-1"," ","0","-10","[653.7000000029802,1344.3000000044703]","2","2","","","7582","87","7","4","lose","no-go","0"
"pit-trial","206","1478823","0.0-92.0","battery-v0.2","","""event"",""trial"",""time""
""fullscreenenter"",""1"",""1966""
","
","
","""event"",""trial"",""time""
""fullscreenenter"",""1"",""1966""
","
","","","1047.2000000029802","","","20","7582","2148","w","elianto","#f73b6a7A"," "," ","1","0","[1898.5]","1","2","","","7582","88","6","3","lose","go","0"
"pit-trial","207","1483688","0.0-93.0","battery-v0.2","","""event"",""trial"",""time""
""fullscreenenter"",""1"",""1966""
","
","
","""event"",""trial"",""time""
""fullscreenenter"",""1"",""1966""
","
","","","-1","","","20","7582","2148","e","elianto","#f73b6a7A","-1","-1","1","0","[]","0","2","","","7582","89","7","4","lose","no-go","0"
"pit-trial","208","1488552","0.0-94.0","battery-v0.2","","""event"",""trial"",""time""
""fullscreenenter"",""1"",""1966""
","
","
","""event"",""trial"",""time""
""fullscreenenter"",""1"",""1966""
","
","","","-1","","","20","7582","2148","w","elianto","#f73b6a7A"," ","-1","0","-10","[3835.89999999851]","1","2","","","7582","90","6","3","lose","go","0"
"pit-trial","209","1492056","0.0-95.0","battery-v0.2","","""event"",""trial"",""time""
""fullscreenenter"",""1"",""1966""
","
","
","""event"",""trial"",""time""
""fullscreenenter"",""1"",""1966""
","
","","","641.8999999985099","","","20","7582","2148","s","elianto","#3366ff99","-1"," ","0","+10","[1495.8999999985099]","1","2","","","7582","91","5","2","win","no-go","1"
"pit-trial","210","1496760","0.0-96.0","battery-v0.2","","""event"",""trial"",""time""
""fullscreenenter"",""1"",""1966""
","
","
","""event"",""trial"",""time""
""fullscreenenter"",""1"",""1966""
","
","","","1843.6000000014901","","","20","7582","2148","p","elianto","#3366ff99"," "," ","1","+10","[2696.2000000029802]","1","2","","","7582","92","4","1","win","go","0"
"pit-trial","211","1500311","0.0-97.0","battery-v0.2","","""event"",""trial"",""time""
""fullscreenenter"",""1"",""1966""
","
","
","""event"",""trial"",""time""
""fullscreenenter"",""1"",""1966""
","
","","","693.2999999970198","","","20","7582","2148","s","elianto","#3366ff99","-1"," ","0","0","[1543.7999999970198]","1","2","","","7582","93","5","2","win","no-go","0"
"pit-trial","212","1505176","0.0-98.0","battery-v0.2","","""event"",""trial"",""time""
""fullscreenenter"",""1"",""1966""
","
","
","""event"",""trial"",""time""
""fullscreenenter"",""1"",""1966""
","
","","","-1","","","20","7582","2148","e","elianto","#f73b6a7A","-1","-1","1","0","[]","0","2","","","7582","94","7","4","lose","no-go","0"
"pit-trial","213","1509459","0.0-99.0","battery-v0.2","","""event"",""trial"",""time""
""fullscreenenter"",""1"",""1966""
","
","
","""event"",""trial"",""time""
""fullscreenenter"",""1"",""1966""
","
","","","1419.7999999970198","","","20","7582","2148","d","elianto","#3366ff99"," "," ","1","+10","[2269.9000000059605]","1","2","","","7582","95","8","1","win","go","0"
"pit-trial","214","1514328","0.0-100.0","battery-v0.2","","""event"",""trial"",""time""
""fullscreenenter"",""1"",""1966""
","
","
","""event"",""trial"",""time""
""fullscreenenter"",""1"",""1966""
","
","","","-1","","","20","7582","2148","w","elianto","#f73b6a7A"," ","-1","0","-10","[]","0","2","","","7582","96","6","3","lose","go","0"
"pit-trial","215","1518466","0.0-101.0","battery-v0.2","","""event"",""trial"",""time""
""fullscreenenter"",""1"",""1966""
","
","
","""event"",""trial"",""time""
""fullscreenenter"",""1"",""1966""
","
","","","1269","","","20","7582","2148","e","elianto","#f73b6a7A","-1"," ","0","-10","[2124.10000000149]","1","2","","","7582","97","7","4","lose","no-go","0"
"pit-trial","216","1522290","0.0-102.0","battery-v0.2","","""event"",""trial"",""time""
""fullscreenenter"",""1"",""1966""
","
","
","""event"",""trial"",""time""
""fullscreenenter"",""1"",""1966""
","
","","","958.7999999970198","","","20","7582","2148","d","elianto","#3366ff99"," "," ","1","+10","[1815.1999999955297]","1","2","","","7582","98","8","1","win","go","0"
"pit-trial","217","1525880","0.0-103.0","battery-v0.2","","""event"",""trial"",""time""
""fullscreenenter"",""1"",""1966""
","
","
","""event"",""trial"",""time""
""fullscreenenter"",""1"",""1966""
","
","","","731.6000000014901","","","20","7582","2148","s","elianto","#3366ff99","-1"," ","0","0","[1583]","1","2","","","7582","99","5","2","win","no-go","0"
"pit-trial","218","1529282","0.0-104.0","battery-v0.2","","""event"",""trial"",""time""
""fullscreenenter"",""1"",""1966""
","
","
","""event"",""trial"",""time""
""fullscreenenter"",""1"",""1966""
","
","","","533.6999999955297","","","20","7582","2148","w","elianto","#f73b6a7A"," "," ","1","0","[1387.8999999985099]","1","2","","","7582","100","6","3","lose","go","0"
"pit-trial","219","1532760","0.0-105.0","battery-v0.2","","""event"",""trial"",""time""
""fullscreenenter"",""1"",""1966""
","
","
","""event"",""trial"",""time""
""fullscreenenter"",""1"",""1966""
","
","","","611.1999999955297","","","20","7582","2148","s","elianto","#3366ff99","-1"," ","0","0","[1470.6000000014901]","1","2","","","7582","101","5","2","win","no-go","0"
"pit-trial","220","1537122","0.0-106.0","battery-v0.2","","""event"",""trial"",""time""
""fullscreenenter"",""1"",""1966""
","
","
","""event"",""trial"",""time""
""fullscreenenter"",""1"",""1966""
","
","","","1502.6000000014901","","","20","7582","2148","d","elianto","#3366ff99"," "," ","1","+10","[2352.5999999940395]","1","2","","","7582","102","8","1","win","go","0"
"pit-trial","221","1541543","0.0-107.0","battery-v0.2","","""event"",""trial"",""time""
""fullscreenenter"",""1"",""1966""
","
","
","""event"",""trial"",""time""
""fullscreenenter"",""1"",""1966""
","
","","","1554.5","","","20","7582","2148","j","elianto","#3366ff99"," "," ","1","+10","[2408.10000000149]","1","2","","","7582","103","9","1","win","go","0"
"pit-trial","222","1545506","0.0-108.0","battery-v0.2","","""event"",""trial"",""time""
""fullscreenenter"",""1"",""1966""
","
","
","""event"",""trial"",""time""
""fullscreenenter"",""1"",""1966""
","
","","","1093.8999999985099","","","20","7582","2148","e","elianto","#f73b6a7A","-1"," ","0","-10","[1947.1999999955297]","1","2","","","7582","104","7","4","lose","no-go","0"
"pit-trial","223","1549735","0.0-109.0","battery-v0.2","","""event"",""trial"",""time""
""fullscreenenter"",""1"",""1966""
","
","
","""event"",""trial"",""time""
""fullscreenenter"",""1"",""1966""
","
","","","1373.1999999955297","","","20","7582","2148","w","elianto","#f73b6a7A"," "," ","1","0","[2224.5999999940395]","1","2","","","7582","105","6","3","lose","go","0"
"pit-trial","224","1553346","0.0-110.0","battery-v0.2","","""event"",""trial"",""time""
""fullscreenenter"",""1"",""1966""
","
","
","""event"",""trial"",""time""
""fullscreenenter"",""1"",""1966""
","
","","","745.7000000029802","","","20","7582","2148","j","elianto","#3366ff99"," "," ","1","0","[1601]","1","2","","","7582","106","9","1","win","go","1"
"pit-trial","225","1556690","0.0-111.0","battery-v0.2","","""event"",""trial"",""time""
""fullscreenenter"",""1"",""1966""
","
","
","""event"",""trial"",""time""
""fullscreenenter"",""1"",""1966""
","
","","","474.40000000596046","","","20","7582","2148","p","elianto","#3366ff99"," "," ","1","+10","[1333.8000000044703]","1","2","","","7582","107","4","1","win","go","0"
"pit-trial","226","1559720","0.0-112.0","battery-v0.2","","""event"",""trial"",""time""
""fullscreenenter"",""1"",""1966""
","
","
","""event"",""trial"",""time""
""fullscreenenter"",""1"",""1966""
","
","","","172.70000000298023","","","20","7582","2148","d","elianto","#3366ff99"," "," ","1","+10","[1022.9000000059605]","1","2","","","7582","108","8","1","win","go","0"
"pit-trial","227","1562850","0.0-113.0","battery-v0.2","","""event"",""trial"",""time""
""fullscreenenter"",""1"",""1966""
","
","
","""event"",""trial"",""time""
""fullscreenenter"",""1"",""1966""
","
","","","261.1000000014901","","","20","7582","2148","d","elianto","#3366ff99"," "," ","1","0","[146.60000000149012,1115.2999999970198]","2","2","","","7582","109","8","1","win","go","1"
"pit-trial","228","1566914","0.0-114.0","battery-v0.2","","""event"",""trial"",""time""
""fullscreenenter"",""1"",""1966""
","
","
","""event"",""trial"",""time""
""fullscreenenter"",""1"",""1966""
","
","","","1195.3000000044703","","","20","7582","2148","s","elianto","#3366ff99","-1"," ","0","0","[2052.7999999970198]","1","2","","","7582","110","5","2","win","no-go","0"
"pit-trial","229","1571784","0.0-115.0","battery-v0.2","","""event"",""trial"",""time""
""fullscreenenter"",""1"",""1966""
","
","
","""event"",""trial"",""time""
""fullscreenenter"",""1"",""1966""
","
","","","-1","","","20","7582","2148","j","elianto","#3366ff99"," ","-1","0","0","[3833.5]","1","2","","","7582","111","9","1","win","go","0"
"pit-trial","230","1576648","0.0-116.0","battery-v0.2","","""event"",""trial"",""time""
""fullscreenenter"",""1"",""1966""
","
","
","""event"",""trial"",""time""
""fullscreenenter"",""1"",""1966""
","
","","","-1","","","20","7582","2148","w","elianto","#f73b6a7A"," ","-1","0","0","[]","0","2","","","7582","112","6","3","lose","go","1"
"pit-trial","231","1580472","0.0-117.0","battery-v0.2","","""event"",""trial"",""time""
""fullscreenenter"",""1"",""1966""
","
","
","""event"",""trial"",""time""
""fullscreenenter"",""1"",""1966""
","
","","","956.2000000029802","","","20","7582","2148","j","elianto","#3366ff99"," "," ","1","+10","[1811.6000000014901]","1","2","","","7582","113","9","1","win","go","0"
"pit-trial","232","1585336","0.0-118.0","battery-v0.2","","""event"",""trial"",""time""
""fullscreenenter"",""1"",""1966""
","
","
","""event"",""trial"",""time""
""fullscreenenter"",""1"",""1966""
","
","","","-1","","","20","7582","2148","w","elianto","#f73b6a7A"," ","-1","0","-10","[3201.89999999851]","1","2","","","7582","114","6","3","lose","go","0"
"pit-trial","233","1589074","0.0-119.0","battery-v0.2","","""event"",""trial"",""time""
""fullscreenenter"",""1"",""1966""
","
","
","""event"",""trial"",""time""
""fullscreenenter"",""1"",""1966""
","
","","","868.5","","","20","7582","2148","d","elianto","#3366ff99"," "," ","1","+10","[1724.3999999985099]","1","2","","","7582","115","8","1","win","go","0"
"pit-trial","234","1592770","0.0-120.0","battery-v0.2","","""event"",""trial"",""time""
""fullscreenenter"",""1"",""1966""
","
","
","""event"",""trial"",""time""
""fullscreenenter"",""1"",""1966""
","
","","","833.2000000029802","","","20","7582","2148","s","elianto","#3366ff99","-1"," ","0","0","[1684.1000000014901]","1","2","","","7582","116","5","2","win","no-go","0"
"pit-trial","235","1597642","0.0-121.0","battery-v0.2","","""event"",""trial"",""time""
""fullscreenenter"",""1"",""1966""
","
","
","""event"",""trial"",""time""
""fullscreenenter"",""1"",""1966""
","
","","","-1","","","20","7582","2148","j","elianto","#3366ff99"," ","-1","0","0","[3949.6999999955297]","1","2","","","7582","117","9","1","win","go","0"
"pit-trial","236","1602514","0.0-122.0","battery-v0.2","","""event"",""trial"",""time""
""fullscreenenter"",""1"",""1966""
","
","
","""event"",""trial"",""time""
""fullscreenenter"",""1"",""1966""
","
","","","-1","","","20","7582","2148","w","elianto","#f73b6a7A"," ","-1","0","0","[]","0","2","","","7582","118","6","3","lose","go","1"
"pit-trial","237","1605928","0.0-123.0","battery-v0.2","","""event"",""trial"",""time""
""fullscreenenter"",""1"",""1966""
","
","
","""event"",""trial"",""time""
""fullscreenenter"",""1"",""1966""
","
","","","540.5","","","20","7582","2148","d","elianto","#3366ff99"," "," ","1","+10","[1400]","1","2","","","7582","119","8","1","win","go","0"
"pit-trial","238","1609954","0.0-124.0","battery-v0.2","","""event"",""trial"",""time""
""fullscreenenter"",""1"",""1966""
","
","
","""event"",""trial"",""time""
""fullscreenenter"",""1"",""1966""
","
","","","1158.1999999955297","","","20","7582","2148","s","elianto","#3366ff99","-1"," ","0","0","[2013.3999999985099]","1","2","","","7582","120","5","2","win","no-go","0"
"pit-trial","239","1614824","0.0-125.0","battery-v0.2","","""event"",""trial"",""time""
""fullscreenenter"",""1"",""1966""
","
","
","""event"",""trial"",""time""
""fullscreenenter"",""1"",""1966""
","
","","","-1","","","20","7582","2148","j","elianto","#3366ff99"," ","-1","0","0","[]","0","2","","","7582","121","9","1","win","go","0"
"pit-trial","240","1619688","0.0-126.0","battery-v0.2","","""event"",""trial"",""time""
""fullscreenenter"",""1"",""1966""
","
","
","""event"",""trial"",""time""
""fullscreenenter"",""1"",""1966""
","
","","","-1","","","20","7582","2148","e","elianto","#f73b6a7A","-1","-1","1","-10","[]","0","2","","","7582","122","7","4","lose","no-go","1"
"pit-trial","241","1622952","0.0-127.0","battery-v0.2","","""event"",""trial"",""time""
""fullscreenenter"",""1"",""1966""
","
","
","""event"",""trial"",""time""
""fullscreenenter"",""1"",""1966""
","
","","","398.79999999701977","","","20","7582","2148","w","elianto","#f73b6a7A"," "," ","1","0","[1250.1000000014901,2590.7999999970198]","2","2","","","7582","123","6","3","lose","go","0"
"pit-trial","242","1627816","0.0-128.0","battery-v0.2","","""event"",""trial"",""time""
""fullscreenenter"",""1"",""1966""
","
","
","""event"",""trial"",""time""
""fullscreenenter"",""1"",""1966""
","
","","","-1","","","20","7582","2148","d","elianto","#3366ff99"," ","-1","0","0","[]","0","2","","","7582","124","8","1","win","go","0"
"pit-trial","243","1632680","0.0-129.0","battery-v0.2","","""event"",""trial"",""time""
""fullscreenenter"",""1"",""1966""
","
","
","""event"",""trial"",""time""
""fullscreenenter"",""1"",""1966""
","
","","","-1","","","20","7582","2148","w","elianto","#f73b6a7A"," ","-1","0","-10","[3392.7000000029802]","1","2","","","7582","125","6","3","lose","go","0"
"pit-trial","244","1637096","0.0-130.0","battery-v0.2","","""event"",""trial"",""time""
""fullscreenenter"",""1"",""1966""
","
","
","""event"",""trial"",""time""
""fullscreenenter"",""1"",""1966""
","
","","","1547.7999999970198","","","20","7582","2148","j","elianto","#3366ff99"," "," ","1","+10","[2402.89999999851]","1","2","","","7582","126","9","1","win","go","0"
"pit-trial","245","1641960","0.0-131.0","battery-v0.2","","""event"",""trial"",""time""
""fullscreenenter"",""1"",""1966""
","
","
","""event"",""trial"",""time""
""fullscreenenter"",""1"",""1966""
","
","","","-1","","","20","7582","2148","d","elianto","#3366ff99"," ","-1","0","0","[4761.5]","1","2","","","7582","127","8","1","win","go","0"
"pit-trial","246","1646824","0.0-132.0","battery-v0.2","","""event"",""trial"",""time""
""fullscreenenter"",""1"",""1966""
","
","
","""event"",""trial"",""time""
""fullscreenenter"",""1"",""1966""
","
","","","-1","","","20","7582","2148","e","elianto","#f73b6a7A","-1","-1","1","0","[]","0","2","","","7582","128","7","4","lose","no-go","0"
"pit-trial","247","1651688","0.0-133.0","battery-v0.2","","""event"",""trial"",""time""
""fullscreenenter"",""1"",""1966""
","
","
","""event"",""trial"",""time""
""fullscreenenter"",""1"",""1966""
","
","","","-1","","","20","7582","2148","d","elianto","#3366ff99"," ","-1","0","0","[]","0","2","","","7582","129","8","1","win","go","0"
"pit-trial","248","1656552","0.0-134.0","battery-v0.2","","""event"",""trial"",""time""
""fullscreenenter"",""1"",""1966""
","
","
","""event"",""trial"",""time""
""fullscreenenter"",""1"",""1966""
","
","","","-1","","","20","7582","2148","e","elianto","#f73b6a7A","-1","-1","1","0","[3905.5]","1","2","","","7582","130","7","4","lose","no-go","0"
"pit-trial","249","1660466","0.0-135.0","battery-v0.2","","""event"",""trial"",""time""
""fullscreenenter"",""1"",""1966""
","
","
","""event"",""trial"",""time""
""fullscreenenter"",""1"",""1966""
","
","","","1047.1000000014901","","","20","7582","2148","w","elianto","#f73b6a7A"," "," ","1","-10","[1901.3999999985099]","1","2","","","7582","131","6","3","lose","go","1"
"pit-trial","250","1663394","0.0-136.0","battery-v0.2","","""event"",""trial"",""time""
""fullscreenenter"",""1"",""1966""
","
","
","""event"",""trial"",""time""
""fullscreenenter"",""1"",""1966""
","
","","","58.399999998509884","","","20","7582","2148","j","elianto","#3366ff99"," "," ","1","+10","[913.8999999985099,1525.7000000029802]","2","2","","","7582","132","9","1","win","go","0"
"pit-trial","251","1666872","0.0-137.0","battery-v0.2","","""event"",""trial"",""time""
""fullscreenenter"",""1"",""1966""
","
","
","""event"",""trial"",""time""
""fullscreenenter"",""1"",""1966""
","
","","","606.8999999985099","","","20","7582","2148","e","elianto","#f73b6a7A","-1"," ","0","-10","[1467.2999999970198]","1","2","","","7582","133","7","4","lose","no-go","0"
"pit-trial","252","1671448","0.0-138.0","battery-v0.2","","""event"",""trial"",""time""
""fullscreenenter"",""1"",""1966""
","
","
","""event"",""trial"",""time""
""fullscreenenter"",""1"",""1966""
","
","","","1710.7999999970198","","","20","7582","2148","w","elianto","#f73b6a7A"," "," ","1","0","[2562.9000000059605]","1","2","","","7582","134","6","3","lose","go","0"
"pit-trial","253","1676312","0.0-139.0","battery-v0.2","","""event"",""trial"",""time""
""fullscreenenter"",""1"",""1966""
","
","
","""event"",""trial"",""time""
""fullscreenenter"",""1"",""1966""
","
","","","-1","","","20","7582","2148","d","elianto","#3366ff99"," ","-1","0","0","[2991.1999999955297]","1","2","","","7582","135","8","1","win","go","0"
"pit-trial","254","1681170","0.0-140.0","battery-v0.2","","""event"",""trial"",""time""
""fullscreenenter"",""1"",""1966""
","
","
","""event"",""trial"",""time""
""fullscreenenter"",""1"",""1966""
","
","","","-1","","","20","7582","2148","j","elianto","#3366ff99"," ","-1","0","0","[]","0","2","","","7582","136","9","1","win","go","0"
"pit-trial","255","1686039","0.0-141.0","battery-v0.2","","""event"",""trial"",""time""
""fullscreenenter"",""1"",""1966""
","
","
","""event"",""trial"",""time""
""fullscreenenter"",""1"",""1966""
","
","","","-1","","","20","7582","2148","w","elianto","#f73b6a7A"," ","-1","0","-10","[2898.5,3472.4000000059605]","2","2","","","7582","137","6","3","lose","go","0"
"pit-trial","256","1690904","0.0-142.0","battery-v0.2","","""event"",""trial"",""time""
""fullscreenenter"",""1"",""1966""
","
","
","""event"",""trial"",""time""
""fullscreenenter"",""1"",""1966""
","
","","","-1","","","20","7582","2148","j","elianto","#3366ff99"," ","-1","0","0","[504.6000000014901]","1","2","","","7582","138","9","1","win","go","0"
"pit-trial","257","1695768","0.0-143.0","battery-v0.2","","""event"",""trial"",""time""
""fullscreenenter"",""1"",""1966""
","
","
","""event"",""trial"",""time""
""fullscreenenter"",""1"",""1966""
","
","","","2001.5","","","20","7582","2148","e","elianto","#f73b6a7A","-1"," ","0","-10","[2853.2999999970198,3717.89999999851]","2","2","","","7582","139","7","4","lose","no-go","0"
"pit-trial","258","1700578","0.0-144.0","battery-v0.2","","""event"",""trial"",""time""
""fullscreenenter"",""1"",""1966""
""blur"",""259"",""1705828""
""focus"",""259"",""1757550""
""blur"",""259"",""1759755""
""focus"",""259"",""1805851""
""blur"",""259"",""1876650""
""focus"",""259"",""2393668""
","""event"",""trial"",""time""
""blur"",""259"",""1705828""
""blur"",""259"",""1759755""
""blur"",""259"",""1876650""
","""event"",""trial"",""time""
""focus"",""259"",""1757550""
""focus"",""259"",""1805851""
""focus"",""259"",""2393668""
","""event"",""trial"",""time""
""fullscreenenter"",""1"",""1966""
","
","","","1942.8999999985099","","","20","7582","2148","d","elianto","#3366ff99"," "," ","1","+10","[2797]","1","2","","","7582","140","8","1","win","go","0"
"pit-instructions","259","2404679","0.0-145.0","battery-v0.2","","""event"",""trial"",""time""
""fullscreenenter"",""1"",""1966""
""blur"",""259"",""1705828""
""focus"",""259"",""1757550""
""blur"",""259"",""1759755""
""focus"",""259"",""1805851""
""blur"",""259"",""1876650""
""focus"",""259"",""2393668""
","""event"",""trial"",""time""
""blur"",""259"",""1705828""
""blur"",""259"",""1759755""
""blur"",""259"",""1876650""
","""event"",""trial"",""time""
""focus"",""259"",""1757550""
""focus"",""259"",""1805851""
""focus"",""259"",""2393668""
","""event"",""trial"",""time""
""fullscreenenter"",""1"",""1966""
","
","","[{""page_index"":0,""viewing_time"":694154.5},{""page_index"":1,""viewing_time"":9936.60000000149}]","704091.700000003","","","","","","","","","","","","","","","","","","","","","","","",""
"pit-trial","260","2408573","0.0-146.0","battery-v0.2","","""event"",""trial"",""time""
""fullscreenenter"",""1"",""1966""
""blur"",""259"",""1705828""
""focus"",""259"",""1757550""
""blur"",""259"",""1759755""
""focus"",""259"",""1805851""
""blur"",""259"",""1876650""
""focus"",""259"",""2393668""
","""event"",""trial"",""time""
""blur"",""259"",""1705828""
""blur"",""259"",""1759755""
""blur"",""259"",""1876650""
","""event"",""trial"",""time""
""focus"",""259"",""1757550""
""focus"",""259"",""1805851""
""focus"",""259"",""2393668""
","""event"",""trial"",""time""
""fullscreenenter"",""1"",""1966""
","
","","","1022.7000000029802","","","20","7582","2148","f","elianto","#3366ff99"," "," ","1","+10","[1880.2999999970198]","1","3","","","7582","141","1","1","win","go","0"
"pit-trial","261","2412393","0.0-147.0","battery-v0.2","","""event"",""trial"",""time""
""fullscreenenter"",""1"",""1966""
""blur"",""259"",""1705828""
""focus"",""259"",""1757550""
