"trial_type","trial_index","time_elapsed","internal_node_id","task_version","subject_id","interactions","blur_events","focus_events","fullscreenenter_events","fullscreenexit_events","success","view_history","rt","responses","num_errors","age","subject","participantId","rune","rune_set","hex","correct","choice","accuracy","outcome","keys","total_keys","block","practice","value","sub","trial","stimulus","robot","valence","action","sham"
"pavlovia","0","19","0.0-0.0","battery-v0.2","","""event"",""trial"",""time""
""fullscreenenter"",""1"",""2772""
","
","
","""event"",""trial"",""time""
""fullscreenenter"",""1"",""2772""
","
","","","","","","","","","","","","","","","","","","","","","","","","","","",""
"fullscreen","1","3763","0.0-1.0","battery-v0.2","","""event"",""trial"",""time""
""fullscreenenter"",""1"",""2772""
","
","
","""event"",""trial"",""time""
""fullscreenenter"",""1"",""2772""
","
","true","","","","","","","","","","","","","","","","","","","","","","","","","",""
"pit-instructions","2","10902","0.0-2.0-0.0","battery-v0.2","","""event"",""trial"",""time""
""fullscreenenter"",""1"",""2772""
","
","
","""event"",""trial"",""time""
""fullscreenenter"",""1"",""2772""
","
","","[{""page_index"":0,""viewing_time"":7135.399999991059}]","7135.79999999702","","","","","","","","","","","","","","","","","","","","","","","",""
"pit-comprehension","3","14518","0.0-2.0-1.0-0.0","battery-v0.2","","""event"",""trial"",""time""
""fullscreenenter"",""1"",""2772""
","
","
","""event"",""trial"",""time""
""fullscreenenter"",""1"",""2772""
","
","","","3612.5999999940395","[""shark""]","0","24","14974","6148","","","","","","","","","","","","","","","","","","",""
"pit-instructions","4","15776","0.0-2.0-1.0-1.0","battery-v0.2","","""event"",""trial"",""time""
""fullscreenenter"",""1"",""2772""
","
","
","""event"",""trial"",""time""
""fullscreenenter"",""1"",""2772""
","
","","[{""page_index"":0,""viewing_time"":1251.7000000029802}]","1252","","","","","","","","","","","","","","","","","","","","","","","",""
"pit-comprehension","5","18333","0.0-2.0-2.0-0.0","battery-v0.2","","""event"",""trial"",""time""
""fullscreenenter"",""1"",""2772""
","
","
","""event"",""trial"",""time""
""fullscreenenter"",""1"",""2772""
","
","","","2554.6000000089407","[""tiger""]","0","24","14974","6148","","","","","","","","","","","","","","","","","","",""
"pit-instructions","6","19345","0.0-2.0-2.0-1.0","battery-v0.2","","""event"",""trial"",""time""
""fullscreenenter"",""1"",""2772""
","
","
","""event"",""trial"",""time""
""fullscreenenter"",""1"",""2772""
","
","","[{""page_index"":0,""viewing_time"":1008.0999999940395}]","1008.3999999910593","","","","","","","","","","","","","","","","","","","","","","","",""
"pit-instructions","7","120503","0.0-2.0-3.0","battery-v0.2","","""event"",""trial"",""time""
""fullscreenenter"",""1"",""2772""
","
","
","""event"",""trial"",""time""
""fullscreenenter"",""1"",""2772""
","
","","[{""page_index"":0,""viewing_time"":8727.40000000596},{""page_index"":1,""viewing_time"":7391.5999999940395},{""page_index"":2,""viewing_time"":6451.9000000059605},{""page_index"":3,""viewing_time"":5490},{""page_index"":4,""viewing_time"":6864.5},{""page_index"":5,""viewing_time"":8442.89999999106},{""page_index"":6,""viewing_time"":9223.800000011921},{""page_index"":7,""viewing_time"":7293},{""page_index"":8,""viewing_time"":6360.199999988079},{""page_index"":9,""viewing_time"":8357.90000000596},{""page_index"":10,""viewing_time"":7771.4000000059605},{""page_index"":11,""viewing_time"":7624.79999999702},{""page_index"":12,""viewing_time"":6281.70000000298},{""page_index"":13,""viewing_time"":4874}]","101155.5","","","","","","","","","","","","","","","","","","","","","","","",""
"pit-trial","8","124274","0.0-2.0-4.0-0.0","battery-v0.2","","""event"",""trial"",""time""
""fullscreenenter"",""1"",""2772""
","
","
","""event"",""trial"",""time""
""fullscreenenter"",""1"",""2772""
","
","","","913.3999999910593","","","24","14974","6148","&#9784;","elianto","#FFFFF080"," "," ","1","&#10004","[1768.1000000089407]","1","0","0","","","","","","","",""
"pit-trial","9","127893","0.0-2.0-4.1-0.1","battery-v0.2","","""event"",""trial"",""time""
""fullscreenenter"",""1"",""2772""
","
","
","""event"",""trial"",""time""
""fullscreenenter"",""1"",""2772""
","
","","","764.1000000089407","","","24","14974","6148","&#9784;","elianto","#FFFFF080"," "," ","1","&#10004","[1614.4000000059605]","1","0","0","","","","","","","",""
"pit-trial","10","131362","0.0-2.0-4.2-0.2","battery-v0.2","","""event"",""trial"",""time""
""fullscreenenter"",""1"",""2772""
","
","
","""event"",""trial"",""time""
""fullscreenenter"",""1"",""2772""
","
","","","613.2000000029802","","","24","14974","6148","&#9784;","elianto","#FFFFF080"," "," ","1","&#10004","[1464.800000011921]","1","0","0","","","","","","","",""
"pit-trial","11","134917","0.0-2.0-4.3-0.3","battery-v0.2","","""event"",""trial"",""time""
""fullscreenenter"",""1"",""2772""
","
","
","""event"",""trial"",""time""
""fullscreenenter"",""1"",""2772""
","
","","","698.4000000059605","","","24","14974","6148","&#9784;","elianto","#FFFFF080"," "," ","1","&#10004","[1550.300000011921]","1","0","0","","","","","","","",""
"pit-trial","12","138391","0.0-2.0-4.4-0.4","battery-v0.2","","""event"",""trial"",""time""
""fullscreenenter"",""1"",""2772""
","
","
","""event"",""trial"",""time""
""fullscreenenter"",""1"",""2772""
","
","","","618","","","24","14974","6148","&#9784;","elianto","#FFFFF080"," "," ","1","&#10004","[1469.7000000029802]","1","0","0","","","","","","","",""
"pit-instructions","13","158608","0.0-2.0-5.0","battery-v0.2","","""event"",""trial"",""time""
""fullscreenenter"",""1"",""2772""
","
","
","""event"",""trial"",""time""
""fullscreenenter"",""1"",""2772""
","
","","[{""page_index"":0,""viewing_time"":4859.800000011921},{""page_index"":1,""viewing_time"":5379.899999991059},{""page_index"":2,""viewing_time"":4886.4000000059605},{""page_index"":3,""viewing_time"":5087.5999999940395}]","20213.90000000596","","","","","","","","","","","","","","","","","","","","","","","",""
"pit-trial","14","163464","0.0-2.0-6.0-0.0","battery-v0.2","","""event"",""trial"",""time""
""fullscreenenter"",""1"",""2772""
","
","
","""event"",""trial"",""time""
""fullscreenenter"",""1"",""2772""
","
","","","-1","","","24","14974","6148","&#9854;","elianto","#FFFFF080","-1","-1","1","&#10004","[]","0","0","1","","","","","","","",""
"pit-trial","15","168320","0.0-2.0-6.1-0.1","battery-v0.2","","""event"",""trial"",""time""
""fullscreenenter"",""1"",""2772""
","
","
","""event"",""trial"",""time""
""fullscreenenter"",""1"",""2772""
","
","","","-1","","","24","14974","6148","&#9854;","elianto","#FFFFF080","-1","-1","1","&#10004","[]","0","0","1","","","","","","","",""
"pit-trial","16","173175","0.0-2.0-6.2-0.2","battery-v0.2","","""event"",""trial"",""time""
""fullscreenenter"",""1"",""2772""
","
","
","""event"",""trial"",""time""
""fullscreenenter"",""1"",""2772""
","
","","","-1","","","24","14974","6148","&#9854;","elianto","#FFFFF080","-1","-1","1","&#10004","[]","0","0","1","","","","","","","",""
"pit-trial","17","178031","0.0-2.0-6.3-0.3","battery-v0.2","","""event"",""trial"",""time""
""fullscreenenter"",""1"",""2772""
","
","
","""event"",""trial"",""time""
""fullscreenenter"",""1"",""2772""
","
","","","-1","","","24","14974","6148","&#9854;","elianto","#FFFFF080","-1","-1","1","&#10004","[]","0","0","1","","","","","","","",""
"pit-trial","18","182887","0.0-2.0-6.4-0.4","battery-v0.2","","""event"",""trial"",""time""
""fullscreenenter"",""1"",""2772""
","
","
","""event"",""trial"",""time""
""fullscreenenter"",""1"",""2772""
","
","","","-1","","","24","14974","6148","&#9854;","elianto","#FFFFF080","-1","-1","1","&#10004","[]","0","0","1","","","","","","","",""
"pit-instructions","19","302376","0.0-2.0-7.0","battery-v0.2","","""event"",""trial"",""time""
""fullscreenenter"",""1"",""2772""
","
","
","""event"",""trial"",""time""
""fullscreenenter"",""1"",""2772""
","
","","[{""page_index"":0,""viewing_time"":5495.70000000298},{""page_index"":1,""viewing_time"":7439.4000000059605},{""page_index"":2,""viewing_time"":6390.20000000298},{""page_index"":3,""viewing_time"":7224.199999988079},{""page_index"":4,""viewing_time"":7757.800000011921},{""page_index"":5,""viewing_time"":5319.5999999940395},{""page_index"":6,""viewing_time"":4460.4000000059605},{""page_index"":7,""viewing_time"":9659.09999999404},{""page_index"":8,""viewing_time"":6573.20000000298},{""page_index"":9,""viewing_time"":5657.0999999940395},{""page_index"":10,""viewing_time"":6640.100000008941},{""page_index"":11,""viewing_time"":6423.199999988079},{""page_index"":12,""viewing_time"":7108.20000000298},{""page_index"":13,""viewing_time"":7057.5},{""page_index"":14,""viewing_time"":6923.9000000059605},{""page_index"":15,""viewing_time"":6240.5999999940395},{""page_index"":16,""viewing_time"":6091.9000000059605},{""page_index"":17,""viewing_time"":7023}]","119485.5","","","","","","","","","","","","","","","","","","","","","","","",""
"pit-trial","20","306074","0.0-2.0-8.0-0.0","battery-v0.2","","""event"",""trial"",""time""
""fullscreenenter"",""1"",""2772""
","
","
","""event"",""trial"",""time""
""fullscreenenter"",""1"",""2772""
","
","","","844.2999999970198","","","24","14974","6148","&#9776;","elianto","#3366ff99"," "," ","1","+10","[1694.7999999970198]","1","0","1","","","","","","","",""
"pit-trial","21","309693","0.0-2.0-8.0-1.0","battery-v0.2","","""event"",""trial"",""time""
""fullscreenenter"",""1"",""2772""
","
","
","""event"",""trial"",""time""
""fullscreenenter"",""1"",""2772""
","
","","","763.8999999910593","","","24","14974","6148","&#9776;","elianto","#3366ff99"," "," ","1","+10","[1615.2999999970198]","1","0","1","","","","","","","",""
"pit-trial","22","313093","0.0-2.0-8.0-2.0","battery-v0.2","","""event"",""trial"",""time""
""fullscreenenter"",""1"",""2772""
","
","
","""event"",""trial"",""time""
""fullscreenenter"",""1"",""2772""
","
","","","545.1000000089407","","","24","14974","6148","&#9776;","elianto","#3366ff99"," "," ","1","+10","[1396.300000011921]","1","0","1","","","","","","","",""
"pit-trial","23","316435","0.0-2.0-8.0-3.0","battery-v0.2","","""event"",""trial"",""time""
""fullscreenenter"",""1"",""2772""
","
","
","""event"",""trial"",""time""
""fullscreenenter"",""1"",""2772""
","
","","","487.5","","","24","14974","6148","&#9776;","elianto","#3366ff99"," "," ","1","0","[1338.800000011921]","1","0","1","","","","","","","",""
"pit-trial","24","320002","0.0-2.0-8.0-4.0","battery-v0.2","","""event"",""trial"",""time""
""fullscreenenter"",""1"",""2772""
","
","
","""event"",""trial"",""time""
""fullscreenenter"",""1"",""2772""
","
","","","710.5","","","24","14974","6148","&#9776;","elianto","#3366ff99"," "," ","1","+10","[1562.6000000089407]","1","0","1","","","","","","","",""
"pit-trial","25","323394","0.0-2.0-8.1-0.1","battery-v0.2","","""event"",""trial"",""time""
""fullscreenenter"",""1"",""2772""
","
","
","""event"",""trial"",""time""
""fullscreenenter"",""1"",""2772""
","
","","","538.8000000119209","","","24","14974","6148","&#9776;","elianto","#3366ff99"," "," ","1","+10","[1389.7000000029802]","1","0","1","","","","","","","",""
"pit-trial","26","326792","0.0-2.0-8.1-1.1","battery-v0.2","","""event"",""trial"",""time""
""fullscreenenter"",""1"",""2772""
","
","
","""event"",""trial"",""time""
""fullscreenenter"",""1"",""2772""
","
","","","544.2999999970198","","","24","14974","6148","&#9776;","elianto","#3366ff99"," "," ","1","+10","[1395.5999999940395]","1","0","1","","","","","","","",""
"pit-trial","27","330141","0.0-2.0-8.1-2.1","battery-v0.2","","""event"",""trial"",""time""
""fullscreenenter"",""1"",""2772""
","
","
","""event"",""trial"",""time""
""fullscreenenter"",""1"",""2772""
","
","","","493.79999999701977","","","24","14974","6148","&#9776;","elianto","#3366ff99"," "," ","1","+10","[1345.1000000089407]","1","0","1","","","","","","","",""
"pit-trial","28","333340","0.0-2.0-8.1-3.1","battery-v0.2","","""event"",""trial"",""time""
""fullscreenenter"",""1"",""2772""
","
","
","""event"",""trial"",""time""
""fullscreenenter"",""1"",""2772""
","
","","","345.3999999910593","","","24","14974","6148","&#9776;","elianto","#3366ff99"," "," ","1","0","[1196]","1","0","1","","","","","","","",""
"pit-trial","29","336635","0.0-2.0-8.1-4.1","battery-v0.2","","""event"",""trial"",""time""
""fullscreenenter"",""1"",""2772""
","
","
","""event"",""trial"",""time""
""fullscreenenter"",""1"",""2772""
","
","","","439.90000000596046","","","24","14974","6148","&#9776;","elianto","#3366ff99"," "," ","1","+10","[1291.5]","1","0","1","","","","","","","",""
"pit-trial","30","339878","0.0-2.0-8.2-0.2","battery-v0.2","","""event"",""trial"",""time""
""fullscreenenter"",""1"",""2772""
","
","
","""event"",""trial"",""time""
""fullscreenenter"",""1"",""2772""
","
","","","389.8999999910593","","","24","14974","6148","&#9776;","elianto","#3366ff99"," "," ","1","+10","[1240.3999999910593]","1","0","1","","","","","","","",""
"pit-trial","31","343027","0.0-2.0-8.2-1.2","battery-v0.2","","""event"",""trial"",""time""
""fullscreenenter"",""1"",""2772""
","
","
","""event"",""trial"",""time""
""fullscreenenter"",""1"",""2772""
","
","","","294.1000000089407","","","24","14974","6148","&#9776;","elianto","#3366ff99"," "," ","1","+10","[1145.2999999970198]","1","0","1","","","","","","","",""
"pit-trial","32","346415","0.0-2.0-8.2-2.2","battery-v0.2","","""event"",""trial"",""time""
""fullscreenenter"",""1"",""2772""
","
","
","""event"",""trial"",""time""
""fullscreenenter"",""1"",""2772""
","
","","","533.5","","","24","14974","6148","&#9776;","elianto","#3366ff99"," "," ","1","+10","[1384.7999999970198]","1","0","1","","","","","","","",""
"pit-trial","33","349656","0.0-2.0-8.2-3.2","battery-v0.2","","""event"",""trial"",""time""
""fullscreenenter"",""1"",""2772""
","
","
","""event"",""trial"",""time""
""fullscreenenter"",""1"",""2772""
","
","","","387.30000001192093","","","24","14974","6148","&#9776;","elianto","#3366ff99"," "," ","1","0","[1238.5]","1","0","1","","","","","","","",""
"pit-trial","34","352674","0.0-2.0-8.2-4.2","battery-v0.2","","""event"",""trial"",""time""
""fullscreenenter"",""1"",""2772""
","
","
","""event"",""trial"",""time""
""fullscreenenter"",""1"",""2772""
","
","","","163.40000000596046","","","24","14974","6148","&#9776;","elianto","#3366ff99"," "," ","1","+10","[1014.2999999970198]","1","0","1","","","","","","","",""
"call-function","35","352676","0.0-2.0-9.0","battery-v0.2","","""event"",""trial"",""time""
""fullscreenenter"",""1"",""2772""
","
","
","""event"",""trial"",""time""
""fullscreenenter"",""1"",""2772""
","
","","","","","","","","","","","","","","","","","","","","","","","","","","",""
"pit-instructions","36","390290","0.0-2.0-10.0","battery-v0.2","","""event"",""trial"",""time""
""fullscreenenter"",""1"",""2772""
","
","
","""event"",""trial"",""time""
""fullscreenenter"",""1"",""2772""
","
","","[{""page_index"":0,""viewing_time"":5557.4000000059605},{""page_index"":1,""viewing_time"":6488.0999999940395},{""page_index"":2,""viewing_time"":9425.60000000894},{""page_index"":3,""viewing_time"":8790.59999999404},{""page_index"":4,""viewing_time"":7351.5}]","37613.40000000596","","","","","","","","","","","","","","","","","","","","","","","",""
"pit-trial","37","395144","0.0-2.0-11.0-0.0","battery-v0.2","","""event"",""trial"",""time""
""fullscreenenter"",""1"",""2772""
","
","
","""event"",""trial"",""time""
""fullscreenenter"",""1"",""2772""
","
","","","-1","","","24","14974","6148","&#9761;","elianto","#3366ff99","-1","-1","1","+10","[]","0","0","2","","","","","","","",""
"pit-trial","38","399999","0.0-2.0-11.0-1.0","battery-v0.2","","""event"",""trial"",""time""
""fullscreenenter"",""1"",""2772""
","
","
","""event"",""trial"",""time""
""fullscreenenter"",""1"",""2772""
","
","","","-1","","","24","14974","6148","&#9761;","elianto","#3366ff99","-1","-1","1","+10","[]","0","0","2","","","","","","","",""
"pit-trial","39","404855","0.0-2.0-11.0-2.0","battery-v0.2","","""event"",""trial"",""time""
""fullscreenenter"",""1"",""2772""
","
","
","""event"",""trial"",""time""
""fullscreenenter"",""1"",""2772""
","
","","","-1","","","24","14974","6148","&#9761;","elianto","#3366ff99","-1","-1","1","+10","[]","0","0","2","","","","","","","",""
"pit-trial","40","409710","0.0-2.0-11.0-3.0","battery-v0.2","","""event"",""trial"",""time""
""fullscreenenter"",""1"",""2772""
","
","
","""event"",""trial"",""time""
""fullscreenenter"",""1"",""2772""
","
","","","-1","","","24","14974","6148","&#9761;","elianto","#3366ff99","-1","-1","1","0","[]","0","0","2","","","","","","","",""
"pit-trial","41","414564","0.0-2.0-11.0-4.0","battery-v0.2","","""event"",""trial"",""time""
""fullscreenenter"",""1"",""2772""
","
","
","""event"",""trial"",""time""
""fullscreenenter"",""1"",""2772""
","
","","","-1","","","24","14974","6148","&#9761;","elianto","#3366ff99","-1","-1","1","+10","[]","0","0","2","","","","","","","",""
"pit-trial","42","419419","0.0-2.0-11.1-0.1","battery-v0.2","","""event"",""trial"",""time""
""fullscreenenter"",""1"",""2772""
","
","
","""event"",""trial"",""time""
""fullscreenenter"",""1"",""2772""
","
","","","-1","","","24","14974","6148","&#9761;","elianto","#3366ff99","-1","-1","1","+10","[]","0","0","2","","","","","","","",""
"pit-trial","43","424274","0.0-2.0-11.1-1.1","battery-v0.2","","""event"",""trial"",""time""
""fullscreenenter"",""1"",""2772""
","
","
","""event"",""trial"",""time""
""fullscreenenter"",""1"",""2772""
","
","","","-1","","","24","14974","6148","&#9761;","elianto","#3366ff99","-1","-1","1","+10","[]","0","0","2","","","","","","","",""
"pit-trial","44","429128","0.0-2.0-11.1-2.1","battery-v0.2","","""event"",""trial"",""time""
""fullscreenenter"",""1"",""2772""
","
","
","""event"",""trial"",""time""
""fullscreenenter"",""1"",""2772""
","
","","","-1","","","24","14974","6148","&#9761;","elianto","#3366ff99","-1","-1","1","+10","[]","0","0","2","","","","","","","",""
"pit-trial","45","433983","0.0-2.0-11.1-3.1","battery-v0.2","","""event"",""trial"",""time""
""fullscreenenter"",""1"",""2772""
","
","
","""event"",""trial"",""time""
""fullscreenenter"",""1"",""2772""
","
","","","-1","","","24","14974","6148","&#9761;","elianto","#3366ff99","-1","-1","1","0","[]","0","0","2","","","","","","","",""
"pit-trial","46","438838","0.0-2.0-11.1-4.1","battery-v0.2","","""event"",""trial"",""time""
""fullscreenenter"",""1"",""2772""
","
","
","""event"",""trial"",""time""
""fullscreenenter"",""1"",""2772""
","
","","","-1","","","24","14974","6148","&#9761;","elianto","#3366ff99","-1","-1","1","+10","[]","0","0","2","","","","","","","",""
"pit-trial","47","443692","0.0-2.0-11.2-0.2","battery-v0.2","","""event"",""trial"",""time""
""fullscreenenter"",""1"",""2772""
","
","
","""event"",""trial"",""time""
""fullscreenenter"",""1"",""2772""
","
","","","-1","","","24","14974","6148","&#9761;","elianto","#3366ff99","-1","-1","1","+10","[]","0","0","2","","","","","","","",""
"pit-trial","48","448547","0.0-2.0-11.2-1.2","battery-v0.2","","""event"",""trial"",""time""
""fullscreenenter"",""1"",""2772""
","
","
","""event"",""trial"",""time""
""fullscreenenter"",""1"",""2772""
","
","","","-1","","","24","14974","6148","&#9761;","elianto","#3366ff99","-1","-1","1","+10","[]","0","0","2","","","","","","","",""
"pit-trial","49","453401","0.0-2.0-11.2-2.2","battery-v0.2","","""event"",""trial"",""time""
""fullscreenenter"",""1"",""2772""
","
","
","""event"",""trial"",""time""
""fullscreenenter"",""1"",""2772""
","
","","","-1","","","24","14974","6148","&#9761;","elianto","#3366ff99","-1","-1","1","+10","[]","0","0","2","","","","","","","",""
"pit-trial","50","458256","0.0-2.0-11.2-3.2","battery-v0.2","","""event"",""trial"",""time""
""fullscreenenter"",""1"",""2772""
","
","
","""event"",""trial"",""time""
""fullscreenenter"",""1"",""2772""
","
","","","-1","","","24","14974","6148","&#9761;","elianto","#3366ff99","-1","-1","1","0","[]","0","0","2","","","","","","","",""
"pit-trial","51","463111","0.0-2.0-11.2-4.2","battery-v0.2","","""event"",""trial"",""time""
""fullscreenenter"",""1"",""2772""
","
","
","""event"",""trial"",""time""
""fullscreenenter"",""1"",""2772""
","
","","","-1","","","24","14974","6148","&#9761;","elianto","#3366ff99","-1","-1","1","+10","[]","0","0","2","","","","","","","",""
"pit-trial","52","467966","0.0-2.0-11.3-0.3","battery-v0.2","","""event"",""trial"",""time""
""fullscreenenter"",""1"",""2772""
","
","
","""event"",""trial"",""time""
""fullscreenenter"",""1"",""2772""
","
","","","-1","","","24","14974","6148","&#9761;","elianto","#3366ff99","-1","-1","1","+10","[]","0","0","2","","","","","","","",""
"pit-trial","53","472821","0.0-2.0-11.3-1.3","battery-v0.2","","""event"",""trial"",""time""
""fullscreenenter"",""1"",""2772""
","
","
","""event"",""trial"",""time""
""fullscreenenter"",""1"",""2772""
","
","","","-1","","","24","14974","6148","&#9761;","elianto","#3366ff99","-1","-1","1","+10","[]","0","0","2","","","","","","","",""
"pit-trial","54","477676","0.0-2.0-11.3-2.3","battery-v0.2","","""event"",""trial"",""time""
""fullscreenenter"",""1"",""2772""
","
","
","""event"",""trial"",""time""
""fullscreenenter"",""1"",""2772""
","
","","","-1","","","24","14974","6148","&#9761;","elianto","#3366ff99","-1","-1","1","+10","[]","0","0","2","","","","","","","",""
"pit-trial","55","482530","0.0-2.0-11.3-3.3","battery-v0.2","","""event"",""trial"",""time""
""fullscreenenter"",""1"",""2772""
","
","
","""event"",""trial"",""time""
""fullscreenenter"",""1"",""2772""
","
","","","-1","","","24","14974","6148","&#9761;","elianto","#3366ff99","-1","-1","1","0","[]","0","0","2","","","","","","","",""
"pit-trial","56","487386","0.0-2.0-11.3-4.3","battery-v0.2","","""event"",""trial"",""time""
""fullscreenenter"",""1"",""2772""
","
","
","""event"",""trial"",""time""
""fullscreenenter"",""1"",""2772""
","
","","","-1","","","24","14974","6148","&#9761;","elianto","#3366ff99","-1","-1","1","+10","[]","0","0","2","","","","","","","",""
"call-function","57","487388","0.0-2.0-12.0","battery-v0.2","","""event"",""trial"",""time""
""fullscreenenter"",""1"",""2772""
","
","
","""event"",""trial"",""time""
""fullscreenenter"",""1"",""2772""
","
","","","","","","","","","","","","","","","","","","","","","","","","","","",""
"pit-instructions","58","538650","0.0-2.0-13.0","battery-v0.2","","""event"",""trial"",""time""
""fullscreenenter"",""1"",""2772""
","
","
","""event"",""trial"",""time""
""fullscreenenter"",""1"",""2772""
","
","","[{""page_index"":0,""viewing_time"":12003.59999999404},{""page_index"":1,""viewing_time"":10318.70000000298},{""page_index"":2,""viewing_time"":8692.10000000894},{""page_index"":3,""viewing_time"":14290.59999999404},{""page_index"":4,""viewing_time"":5956.29999999702}]","51261.59999999404","","","","","","","","","","","","","","","","","","","","","","","",""
"pit-trial","59","541995","0.0-2.0-14.0-0.0","battery-v0.2","","""event"",""trial"",""time""
""fullscreenenter"",""1"",""2772""
","
","
","""event"",""trial"",""time""
""fullscreenenter"",""1"",""2772""
","
","","","490.30000001192093","","","24","14974","6148","&#9826;","elianto","#f73b6a7A","-1"," ","0","-10","[1341.800000011921]","1","0","3","","","","","","","",""
"pit-trial","60","546851","0.0-2.0-14.0-1.0","battery-v0.2","","""event"",""trial"",""time""
""fullscreenenter"",""1"",""2772""
","
","
","""event"",""trial"",""time""
""fullscreenenter"",""1"",""2772""
","
","","","-1","","","24","14974","6148","&#9826;","elianto","#f73b6a7A","-1","-1","1","0","[]","0","0","3","","","","","","","",""
"pit-trial","61","551705","0.0-2.0-14.0-2.0","battery-v0.2","","""event"",""trial"",""time""
""fullscreenenter"",""1"",""2772""
","
","
","""event"",""trial"",""time""
""fullscreenenter"",""1"",""2772""
","
","","","-1","","","24","14974","6148","&#9826;","elianto","#f73b6a7A","-1","-1","1","0","[]","0","0","3","","","","","","","",""
"pit-trial","62","556560","0.0-2.0-14.0-3.0","battery-v0.2","","""event"",""trial"",""time""
""fullscreenenter"",""1"",""2772""
","
","
","""event"",""trial"",""time""
""fullscreenenter"",""1"",""2772""
","
","","","-1","","","24","14974","6148","&#9826;","elianto","#f73b6a7A","-1","-1","1","-10","[]","0","0","3","","","","","","","",""
"pit-trial","63","561414","0.0-2.0-14.0-4.0","battery-v0.2","","""event"",""trial"",""time""
""fullscreenenter"",""1"",""2772""
","
","
","""event"",""trial"",""time""
""fullscreenenter"",""1"",""2772""
","
","","","-1","","","24","14974","6148","&#9826;","elianto","#f73b6a7A","-1","-1","1","0","[]","0","0","3","","","","","","","",""
"pit-trial","64","566270","0.0-2.0-14.1-0.1","battery-v0.2","","""event"",""trial"",""time""
""fullscreenenter"",""1"",""2772""
","
","
","""event"",""trial"",""time""
""fullscreenenter"",""1"",""2772""
","
","","","-1","","","24","14974","6148","&#9826;","elianto","#f73b6a7A","-1","-1","1","0","[]","0","0","3","","","","","","","",""
"pit-trial","65","571126","0.0-2.0-14.1-1.1","battery-v0.2","","""event"",""trial"",""time""
""fullscreenenter"",""1"",""2772""
","
","
","""event"",""trial"",""time""
""fullscreenenter"",""1"",""2772""
","
","","","-1","","","24","14974","6148","&#9826;","elianto","#f73b6a7A","-1","-1","1","0","[]","0","0","3","","","","","","","",""
"pit-trial","66","575980","0.0-2.0-14.1-2.1","battery-v0.2","","""event"",""trial"",""time""
""fullscreenenter"",""1"",""2772""
","
","
","""event"",""trial"",""time""
""fullscreenenter"",""1"",""2772""
","
","","","-1","","","24","14974","6148","&#9826;","elianto","#f73b6a7A","-1","-1","1","0","[]","0","0","3","","","","","","","",""
"pit-trial","67","580834","0.0-2.0-14.1-3.1","battery-v0.2","","""event"",""trial"",""time""
""fullscreenenter"",""1"",""2772""
","
","
","""event"",""trial"",""time""
""fullscreenenter"",""1"",""2772""
","
","","","-1","","","24","14974","6148","&#9826;","elianto","#f73b6a7A","-1","-1","1","-10","[]","0","0","3","","","","","","","",""
"pit-trial","68","585689","0.0-2.0-14.1-4.1","battery-v0.2","","""event"",""trial"",""time""
""fullscreenenter"",""1"",""2772""
","
","
","""event"",""trial"",""time""
""fullscreenenter"",""1"",""2772""
","
","","","-1","","","24","14974","6148","&#9826;","elianto","#f73b6a7A","-1","-1","1","0","[]","0","0","3","","","","","","","",""
"pit-trial","69","590545","0.0-2.0-14.2-0.2","battery-v0.2","","""event"",""trial"",""time""
""fullscreenenter"",""1"",""2772""
","
","
","""event"",""trial"",""time""
""fullscreenenter"",""1"",""2772""
","
","","","-1","","","24","14974","6148","&#9826;","elianto","#f73b6a7A","-1","-1","1","0","[]","0","0","3","","","","","","","",""
"pit-trial","70","595400","0.0-2.0-14.2-1.2","battery-v0.2","","""event"",""trial"",""time""
""fullscreenenter"",""1"",""2772""
","
","
","""event"",""trial"",""time""
""fullscreenenter"",""1"",""2772""
","
","","","-1","","","24","14974","6148","&#9826;","elianto","#f73b6a7A","-1","-1","1","0","[]","0","0","3","","","","","","","",""
"pit-trial","71","600255","0.0-2.0-14.2-2.2","battery-v0.2","","""event"",""trial"",""time""
""fullscreenenter"",""1"",""2772""
","
","
","""event"",""trial"",""time""
""fullscreenenter"",""1"",""2772""
","
","","","-1","","","24","14974","6148","&#9826;","elianto","#f73b6a7A","-1","-1","1","0","[]","0","0","3","","","","","","","",""
"pit-trial","72","605109","0.0-2.0-14.2-3.2","battery-v0.2","","""event"",""trial"",""time""
""fullscreenenter"",""1"",""2772""
","
","
","""event"",""trial"",""time""
""fullscreenenter"",""1"",""2772""
","
","","","-1","","","24","14974","6148","&#9826;","elianto","#f73b6a7A","-1","-1","1","-10","[]","0","0","3","","","","","","","",""
"pit-trial","73","609964","0.0-2.0-14.2-4.2","battery-v0.2","","""event"",""trial"",""time""
""fullscreenenter"",""1"",""2772""
","
","
","""event"",""trial"",""time""
""fullscreenenter"",""1"",""2772""
","
","","","-1","","","24","14974","6148","&#9826;","elianto","#f73b6a7A","-1","-1","1","0","[]","0","0","3","","","","","","","",""
"pit-trial","74","614820","0.0-2.0-14.3-0.3","battery-v0.2","","""event"",""trial"",""time""
""fullscreenenter"",""1"",""2772""
","
","
","""event"",""trial"",""time""
""fullscreenenter"",""1"",""2772""
","
","","","-1","","","24","14974","6148","&#9826;","elianto","#f73b6a7A","-1","-1","1","0","[]","0","0","3","","","","","","","",""
"pit-trial","75","619676","0.0-2.0-14.3-1.3","battery-v0.2","","""event"",""trial"",""time""
""fullscreenenter"",""1"",""2772""
","
","
","""event"",""trial"",""time""
""fullscreenenter"",""1"",""2772""
","
","","","-1","","","24","14974","6148","&#9826;","elianto","#f73b6a7A","-1","-1","1","0","[]","0","0","3","","","","","","","",""
"pit-trial","76","624532","0.0-2.0-14.3-2.3","battery-v0.2","","""event"",""trial"",""time""
""fullscreenenter"",""1"",""2772""
","
","
","""event"",""trial"",""time""
""fullscreenenter"",""1"",""2772""
","
","","","-1","","","24","14974","6148","&#9826;","elianto","#f73b6a7A","-1","-1","1","0","[]","0","0","3","","","","","","","",""
"pit-trial","77","629388","0.0-2.0-14.3-3.3","battery-v0.2","","""event"",""trial"",""time""
""fullscreenenter"",""1"",""2772""
","
","
","""event"",""trial"",""time""
""fullscreenenter"",""1"",""2772""
","
","","","-1","","","24","14974","6148","&#9826;","elianto","#f73b6a7A","-1","-1","1","-10","[]","0","0","3","","","","","","","",""
"pit-trial","78","634242","0.0-2.0-14.3-4.3","battery-v0.2","","""event"",""trial"",""time""
""fullscreenenter"",""1"",""2772""
","
","
","""event"",""trial"",""time""
""fullscreenenter"",""1"",""2772""
","
","","","-1","","","24","14974","6148","&#9826;","elianto","#f73b6a7A","-1","-1","1","0","[]","0","0","3","","","","","","","",""
"call-function","79","634244","0.0-2.0-15.0","battery-v0.2","","""event"",""trial"",""time""
""fullscreenenter"",""1"",""2772""
","
","
","""event"",""trial"",""time""
""fullscreenenter"",""1"",""2772""
","
","","","","","","","","","","","","","","","","","","","","","","","","","","",""
"pit-instructions","80","674982","0.0-2.0-16.0","battery-v0.2","","""event"",""trial"",""time""
""fullscreenenter"",""1"",""2772""
","
","
","""event"",""trial"",""time""
""fullscreenenter"",""1"",""2772""
","
","","[{""page_index"":0,""viewing_time"":10703},{""page_index"":1,""viewing_time"":10848.5},{""page_index"":2,""viewing_time"":7591.4000000059605},{""page_index"":3,""viewing_time"":11593.5}]","40736.70000000298","","","","","","","","","","","","","","","","","","","","","","","",""
"pit-trial","81","679221","0.0-2.0-17.0-0.0","battery-v0.2","","""event"",""trial"",""time""
""fullscreenenter"",""1"",""2772""
","
","
","""event"",""trial"",""time""
""fullscreenenter"",""1"",""2772""
","
","","","1384.5","","","24","14974","6148","&#9789;","elianto","#f73b6a7A"," "," ","1","0","[2236.2000000029802]","1","0","4","","","","","","","",""
"pit-trial","82","682529","0.0-2.0-17.0-1.0","battery-v0.2","","""event"",""trial"",""time""
""fullscreenenter"",""1"",""2772""
","
","
","""event"",""trial"",""time""
""fullscreenenter"",""1"",""2772""
","
","","","452.59999999403954","","","24","14974","6148","&#9789;","elianto","#f73b6a7A"," "," ","1","0","[1304.2999999970198]","1","0","4","","","","","","","",""
"pit-trial","83","685682","0.0-2.0-17.0-2.0","battery-v0.2","","""event"",""trial"",""time""
""fullscreenenter"",""1"",""2772""
","
","
","""event"",""trial"",""time""
""fullscreenenter"",""1"",""2772""
","
","","","299.79999999701977","","","24","14974","6148","&#9789;","elianto","#f73b6a7A"," "," ","1","0","[1150.5]","1","0","4","","","","","","","",""
"pit-trial","84","689063","0.0-2.0-17.0-3.0","battery-v0.2","","""event"",""trial"",""time""
""fullscreenenter"",""1"",""2772""
","
","
","""event"",""trial"",""time""
""fullscreenenter"",""1"",""2772""
","
","","","527.1999999880791","","","24","14974","6148","&#9789;","elianto","#f73b6a7A"," "," ","1","-10","[1378]","1","0","4","","","","","","","",""
"pit-trial","85","692397","0.0-2.0-17.0-4.0","battery-v0.2","","""event"",""trial"",""time""
""fullscreenenter"",""1"",""2772""
","
","
","""event"",""trial"",""time""
""fullscreenenter"",""1"",""2772""
","
","","","478.8999999910593","","","24","14974","6148","&#9789;","elianto","#f73b6a7A"," "," ","1","0","[1330.7000000029802]","1","0","4","","","","","","","",""
"pit-trial","86","695730","0.0-2.0-17.1-0.1","battery-v0.2","","""event"",""trial"",""time""
""fullscreenenter"",""1"",""2772""
","
","
","""event"",""trial"",""time""
""fullscreenenter"",""1"",""2772""
","
","","","476.79999999701977","","","24","14974","6148","&#9789;","elianto","#f73b6a7A"," "," ","1","0","[1328]","1","0","4","","","","","","","",""
"pit-trial","87","699140","0.0-2.0-17.1-1.1","battery-v0.2","","""event"",""trial"",""time""
""fullscreenenter"",""1"",""2772""
","
","
","""event"",""trial"",""time""
""fullscreenenter"",""1"",""2772""
","
","","","556.6000000089407","","","24","14974","6148","&#9789;","elianto","#f73b6a7A"," "," ","1","0","[1406.800000011921]","1","0","4","","","","","","","",""
"pit-trial","88","702481","0.0-2.0-17.1-2.1","battery-v0.2","","""event"",""trial"",""time""
""fullscreenenter"",""1"",""2772""
","
","
","""event"",""trial"",""time""
""fullscreenenter"",""1"",""2772""
","
","","","487.40000000596046","","","24","14974","6148","&#9789;","elianto","#f73b6a7A"," "," ","1","0","[1338.7000000029802]","1","0","4","","","","","","","",""
"pit-trial","89","705734","0.0-2.0-17.1-3.1","battery-v0.2","","""event"",""trial"",""time""
""fullscreenenter"",""1"",""2772""
","
","
","""event"",""trial"",""time""
""fullscreenenter"",""1"",""2772""
","
","","","398.69999998807907","","","24","14974","6148","&#9789;","elianto","#f73b6a7A"," "," ","1","-10","[1249]","1","0","4","","","","","","","",""
"pit-trial","90","709053","0.0-2.0-17.1-4.1","battery-v0.2","","""event"",""trial"",""time""
""fullscreenenter"",""1"",""2772""
","
","
","""event"",""trial"",""time""
""fullscreenenter"",""1"",""2772""
","
","","","464.5","","","24","14974","6148","&#9789;","elianto","#f73b6a7A"," "," ","1","0","[1316.1000000089407]","1","0","4","","","","","","","",""
"pit-trial","91","712250","0.0-2.0-17.2-0.2","battery-v0.2","","""event"",""trial"",""time""
""fullscreenenter"",""1"",""2772""
","
","
","""event"",""trial"",""time""
""fullscreenenter"",""1"",""2772""
","
","","","341.29999999701977","","","24","14974","6148","&#9789;","elianto","#f73b6a7A"," "," ","1","0","[1192.7999999970198]","1","0","4","","","","","","","",""
"pit-trial","92","715351","0.0-2.0-17.2-1.2","battery-v0.2","","""event"",""trial"",""time""
""fullscreenenter"",""1"",""2772""
","
","
","""event"",""trial"",""time""
""fullscreenenter"",""1"",""2772""
","
","","","246.8999999910593","","","24","14974","6148","&#9789;","elianto","#f73b6a7A"," "," ","1","0","[1097.5]","1","0","4","","","","","","","",""
"pit-trial","93","720206","0.0-2.0-17.2-2.2","battery-v0.2","","""event"",""trial"",""time""
""fullscreenenter"",""1"",""2772""
","
","
","""event"",""trial"",""time""
""fullscreenenter"",""1"",""2772""
","
","","","-1","","","24","14974","6148","&#9789;","elianto","#f73b6a7A"," ","-1","0","-10","[]","0","0","4","","","","","","","",""
"pit-trial","94","723497","0.0-2.0-17.2-3.2","battery-v0.2","","""event"",""trial"",""time""
""fullscreenenter"",""1"",""2772""
","
","
","""event"",""trial"",""time""
""fullscreenenter"",""1"",""2772""
","
","","","436.70000000298023","","","24","14974","6148","&#9789;","elianto","#f73b6a7A"," "," ","1","-10","[1287.7000000029802]","1","0","4","","","","","","","",""
"pit-trial","95","726718","0.0-2.0-17.2-4.2","battery-v0.2","","""event"",""trial"",""time""
""fullscreenenter"",""1"",""2772""
","
","
","""event"",""trial"",""time""
""fullscreenenter"",""1"",""2772""
","
","","","366.6000000089407","","","24","14974","6148","&#9789;","elianto","#f73b6a7A"," "," ","1","0","[1217.2000000029802]","1","0","4","","","","","","","",""
"pit-trial","96","729759","0.0-2.0-17.3-0.3","battery-v0.2","","""event"",""trial"",""time""
""fullscreenenter"",""1"",""2772""
","
","
","""event"",""trial"",""time""
""fullscreenenter"",""1"",""2772""
","
","","","188.40000000596046","","","24","14974","6148","&#9789;","elianto","#f73b6a7A"," "," ","1","0","[1039]","1","0","4","","","","","","","",""
"pit-trial","97","732833","0.0-2.0-17.3-1.3","battery-v0.2","","""event"",""trial"",""time""
""fullscreenenter"",""1"",""2772""
","
","
","""event"",""trial"",""time""
""fullscreenenter"",""1"",""2772""
","
","","","219.3999999910593","","","24","14974","6148","&#9789;","elianto","#f73b6a7A"," "," ","1","0","[1070.9000000059605]","1","0","4","","","","","","","",""
"pit-trial","98","735851","0.0-2.0-17.3-2.3","battery-v0.2","","""event"",""trial"",""time""
""fullscreenenter"",""1"",""2772""
","
","
","""event"",""trial"",""time""
""fullscreenenter"",""1"",""2772""
","
","","","163.59999999403954","","","24","14974","6148","&#9789;","elianto","#f73b6a7A"," "," ","1","0","[1014.1000000089407]","1","0","4","","","","","","","",""
"pit-trial","99","738952","0.0-2.0-17.3-3.3","battery-v0.2","","""event"",""trial"",""time""
""fullscreenenter"",""1"",""2772""
","
","
","""event"",""trial"",""time""
""fullscreenenter"",""1"",""2772""
","
","","","247","","","24","14974","6148","&#9789;","elianto","#f73b6a7A"," "," ","1","-10","[1098]","1","0","4","","","","","","","",""
"pit-trial","100","742092","0.0-2.0-17.3-4.3","battery-v0.2","","""event"",""trial"",""time""
""fullscreenenter"",""1"",""2772""
","
","
","""event"",""trial"",""time""
""fullscreenenter"",""1"",""2772""
","
","","","286.80000001192093","","","24","14974","6148","&#9789;","elianto","#f73b6a7A"," "," ","1","0","[1137]","1","0","4","","","","","","","",""
"call-function","101","742094","0.0-2.0-18.0","battery-v0.2","","""event"",""trial"",""time""
""fullscreenenter"",""1"",""2772""
","
","
","""event"",""trial"",""time""
""fullscreenenter"",""1"",""2772""
","
","","","","","","","","","","","","","","","","","","","","","","","","","","",""
"pit-instructions","102","838035","0.0-2.0-19.0","battery-v0.2","","""event"",""trial"",""time""
""fullscreenenter"",""1"",""2772""
","
","
","""event"",""trial"",""time""
""fullscreenenter"",""1"",""2772""
","
","","[{""page_index"":0,""viewing_time"":12319.300000011921},{""page_index"":1,""viewing_time"":9324.199999988079},{""page_index"":2,""viewing_time"":15848},{""page_index"":3,""viewing_time"":12622.60000000894},{""page_index"":4,""viewing_time"":9041.5},{""page_index"":5,""viewing_time"":8540.09999999404},{""page_index"":6,""viewing_time"":14345.10000000894},{""page_index"":7,""viewing_time"":9292.59999999404},{""page_index"":8,""viewing_time"":4589.5}]","95923.40000000596","","","","","","","","","","","","","","","","","","","","","","","",""
"pit-comprehension","103","842510","0.0-2.0-20.0-0.0","battery-v0.2","","""event"",""trial"",""time""
""fullscreenenter"",""1"",""2772""
","
","
","""event"",""trial"",""time""
""fullscreenenter"",""1"",""2772""
","
","","","4469.399999991059","[""SPACE""]","0","24","14974","6148","","","","","","","","","","","","","","","","","","",""
"pit-instructions","104","845782","0.0-2.0-20.0-1.0","battery-v0.2","","""event"",""trial"",""time""
""fullscreenenter"",""1"",""2772""
","
","
","""event"",""trial"",""time""
""fullscreenenter"",""1"",""2772""
","
","","[{""page_index"":0,""viewing_time"":3234.6000000089407}]","3234.9000000059605","","","","","","","","","","","","","","","","","","","","","","","",""
"pit-comprehension","105","851379","0.0-2.0-21.0-0.0","battery-v0.2","","""event"",""trial"",""time""
""fullscreenenter"",""1"",""2772""
","
","
","""event"",""trial"",""time""
""fullscreenenter"",""1"",""2772""
","
","","","5590.800000011921","[""10""]","0","24","14974","6148","","","","","","","","","","","","","","","","","","",""
"pit-instructions","106","857243","0.0-2.0-21.0-1.0","battery-v0.2","","""event"",""trial"",""time""
""fullscreenenter"",""1"",""2772""
","
","
","""event"",""trial"",""time""
""fullscreenenter"",""1"",""2772""
","
","","[{""page_index"":0,""viewing_time"":5824.20000000298}]","5824.5","","","","","","","","","","","","","","","","","","","","","","","",""
"pit-comprehension","107","863745","0.0-2.0-22.0-0.0","battery-v0.2","","""event"",""trial"",""time""
""fullscreenenter"",""1"",""2772""
","
","
","""event"",""trial"",""time""
""fullscreenenter"",""1"",""2772""
","
","","","6497.100000008941","[""0""]","0","24","14974","6148","","","","","","","","","","","","","","","","","","",""
"pit-instructions","108","865270","0.0-2.0-22.0-1.0","battery-v0.2","","""event"",""trial"",""time""
""fullscreenenter"",""1"",""2772""
","
","
","""event"",""trial"",""time""
""fullscreenenter"",""1"",""2772""
","
","","[{""page_index"":0,""viewing_time"":1489.7000000029802}]","1490","","","","","","","","","","","","","","","","","","","","","","","",""
"pit-comprehension","109","873922","0.0-2.0-23.0-0.0","battery-v0.2","","""event"",""trial"",""time""
""fullscreenenter"",""1"",""2772""
","
","
","""event"",""trial"",""time""
""fullscreenenter"",""1"",""2772""
","
","","","8648.39999999106","[""True""]","0","24","14974","6148","","","","","","","","","","","","","","","","","","",""
"pit-instructions","110","875460","0.0-2.0-23.0-1.0","battery-v0.2","","""event"",""trial"",""time""
""fullscreenenter"",""1"",""2772""
","
","
","""event"",""trial"",""time""
""fullscreenenter"",""1"",""2772""
","
","","[{""page_index"":0,""viewing_time"":1499.2000000029802}]","1499.5","","","","","","","","","","","","","","","","","","","","","","","",""
"pit-comprehension","111","882969","0.0-2.0-24.0-0.0","battery-v0.2","","""event"",""trial"",""time""
""fullscreenenter"",""1"",""2772""
","
","
","""event"",""trial"",""time""
""fullscreenenter"",""1"",""2772""
","
","","","7506","[""True""]","0","24","14974","6148","","","","","","","","","","","","","","","","","","",""
"pit-instructions","112","884541","0.0-2.0-24.0-1.0","battery-v0.2","","""event"",""trial"",""time""
""fullscreenenter"",""1"",""2772""
","
","
","""event"",""trial"",""time""
""fullscreenenter"",""1"",""2772""
","
","","[{""page_index"":0,""viewing_time"":1534.9000000059605}]","1535.2000000029802","","","","","","","","","","","","","","","","","","","","","","","",""
"pit-comprehension","113","890948","0.0-2.0-25.0-0.0","battery-v0.2","","""event"",""trial"",""time""
""fullscreenenter"",""1"",""2772""
","
","
","""event"",""trial"",""time""
""fullscreenenter"",""1"",""2772""
","
","","","6405.20000000298","[""True""]","0","24","14974","6148","","","","","","","","","","","","","","","","","","",""
"pit-instructions","114","892842","0.0-2.0-25.0-1.0","battery-v0.2","","""event"",""trial"",""time""
""fullscreenenter"",""1"",""2772""
","
","
","""event"",""trial"",""time""
""fullscreenenter"",""1"",""2772""
","
","","[{""page_index"":0,""viewing_time"":1855.7000000029802}]","1856","","","","","","","","","","","","","","","","","","","","","","","",""
"pit-comprehension","115","897791","0.0-2.0-26.0-0.0","battery-v0.2","","""event"",""trial"",""time""
""fullscreenenter"",""1"",""2772""
","
","
","""event"",""trial"",""time""
""fullscreenenter"",""1"",""2772""
","
","","","4945.70000000298","[""False""]","0","24","14974","6148","","","","","","","","","","","","","","","","","","",""
"pit-instructions","116","899231","0.0-2.0-26.0-1.0","battery-v0.2","","""event"",""trial"",""time""
""fullscreenenter"",""1"",""2772""
","
","
","""event"",""trial"",""time""
""fullscreenenter"",""1"",""2772""
","
","","[{""page_index"":0,""viewing_time"":1401.9000000059605}]","1402.1000000089407","","","","","","","","","","","","","","","","","","","","","","","",""
"pit-instructions","117","916009","0.0-3.0","battery-v0.2","","""event"",""trial"",""time""
""fullscreenenter"",""1"",""2772""
","
","
","""event"",""trial"",""time""
""fullscreenenter"",""1"",""2772""
","
","","[{""page_index"":0,""viewing_time"":3755},{""page_index"":1,""viewing_time"":5948.399999991059},{""page_index"":2,""viewing_time"":7072.70000000298}]","16776.39999999106","","","","","","","","","","","","","","","","","","","","","","","",""
"pit-trial","118","919657","0.0-4.0","battery-v0.2","","""event"",""trial"",""time""
""fullscreenenter"",""1"",""2772""
","
","
","""event"",""trial"",""time""
""fullscreenenter"",""1"",""2772""
","
","","","790.3999999910593","","","24","14974","6148","&#9730;","elianto","#3366ff99"," "," ","1","+10","[1641.699999988079]","1","1","","","14974","1","1","1","win","go","0"
"pit-trial","119","923754","0.0-5.0","battery-v0.2","","""event"",""trial"",""time""
""fullscreenenter"",""1"",""2772""
","
","
","""event"",""trial"",""time""
""fullscreenenter"",""1"",""2772""
","
","","","1243.2000000029802","","","24","14974","6148","&#9752;","elianto","#f73b6a7A"," "," ","1","0","[2093.5]","1","1","","","14974","2","3","3","lose","go","0"
"pit-trial","120","928610","0.0-6.0","battery-v0.2","","""event"",""trial"",""time""
""fullscreenenter"",""1"",""2772""
","
","
","""event"",""trial"",""time""
""fullscreenenter"",""1"",""2772""
","
","","","-1","","","24","14974","6148","&#9728;","elianto","#f73b6a7A","-1","-1","1","0","[]","0","1","","","14974","3","0","4","lose","no-go","0"
"pit-trial","121","932327","0.0-7.0","battery-v0.2","","""event"",""trial"",""time""
""fullscreenenter"",""1"",""2772""
","
","
","""event"",""trial"",""time""
""fullscreenenter"",""1"",""2772""
","
","","","863","","","24","14974","6148","&#9733;","elianto","#3366ff99","-1"," ","0","0","[1713.5]","1","1","","","14974","4","2","2","win","no-go","0"
"pit-trial","122","936060","0.0-8.0","battery-v0.2","","""event"",""trial"",""time""
""fullscreenenter"",""1"",""2772""
","
","
","""event"",""trial"",""time""
""fullscreenenter"",""1"",""2772""
","
","","","879.5","","","24","14974","6148","&#9730;","elianto","#3366ff99"," "," ","1","+10","[1730.0999999940395]","1","1","","","14974","5","1","1","win","go","0"
"pit-trial","123","940915","0.0-9.0","battery-v0.2","","""event"",""trial"",""time""
""fullscreenenter"",""1"",""2772""
","
","
","""event"",""trial"",""time""
""fullscreenenter"",""1"",""2772""
","
","","","-1","","","24","14974","6148","&#9733;","elianto","#3366ff99","-1","-1","1","+10","[]","0","1","","","14974","6","2","2","win","no-go","0"
"pit-trial","124","945770","0.0-10.0","battery-v0.2","","""event"",""trial"",""time""
""fullscreenenter"",""1"",""2772""
","
","
","""event"",""trial"",""time""
""fullscreenenter"",""1"",""2772""
","
","","","-1","","","24","14974","6148","&#9728;","elianto","#f73b6a7A","-1","-1","1","0","[]","0","1","","","14974","7","0","4","lose","no-go","0"
"pit-trial","125","949439","0.0-11.0","battery-v0.2","","""event"",""trial"",""time""
""fullscreenenter"",""1"",""2772""
","
","
","""event"",""trial"",""time""
""fullscreenenter"",""1"",""2772""
","
","","","816","","","24","14974","6148","&#9752;","elianto","#f73b6a7A"," "," ","1","-10","[1667.0999999940395]","1","1","","","14974","8","3","3","lose","go","1"
"pit-trial","126","952994","0.0-12.0","battery-v0.2","","""event"",""trial"",""time""
""fullscreenenter"",""1"",""2772""
","
","
","""event"",""trial"",""time""
""fullscreenenter"",""1"",""2772""
","
","","","701","","","24","14974","6148","&#9730;","elianto","#3366ff99"," "," ","1","0","[1551.1000000089407]","1","1","","","14974","9","1","1","win","go","1"
"pit-trial","127","957246","0.0-13.0","battery-v0.2","","""event"",""trial"",""time""
""fullscreenenter"",""1"",""2772""
","
","
","""event"",""trial"",""time""
""fullscreenenter"",""1"",""2772""
","
","","","1398.0999999940395","","","24","14974","6148","&#9752;","elianto","#f73b6a7A"," "," ","1","0","[2249.2000000029802]","1","1","","","14974","10","3","3","lose","go","0"
"pit-trial","128","962101","0.0-14.0","battery-v0.2","","""event"",""trial"",""time""
""fullscreenenter"",""1"",""2772""
","
","
","""event"",""trial"",""time""
""fullscreenenter"",""1"",""2772""
","
","","","-1","","","24","14974","6148","&#9733;","elianto","#3366ff99","-1","-1","1","+10","[]","0","1","","","14974","11","2","2","win","no-go","0"
"pit-trial","129","966958","0.0-15.0","battery-v0.2","","""event"",""trial"",""time""
""fullscreenenter"",""1"",""2772""
","
","
","""event"",""trial"",""time""
""fullscreenenter"",""1"",""2772""
","
","","","-1","","","24","14974","6148","&#9728;","elianto","#f73b6a7A","-1","-1","1","0","[]","0","1","","","14974","12","0","4","lose","no-go","0"
"pit-trial","130","970725","0.0-16.0","battery-v0.2","","""event"",""trial"",""time""
""fullscreenenter"",""1"",""2772""
","
","
","""event"",""trial"",""time""
""fullscreenenter"",""1"",""2772""
","
","","","914.5999999940395","","","24","14974","6148","&#9752;","elianto","#f73b6a7A"," "," ","1","0","[1764.5999999940395]","1","1","","","14974","13","3","3","lose","go","0"
"pit-trial","131","974648","0.0-17.0","battery-v0.2","","""event"",""trial"",""time""
""fullscreenenter"",""1"",""2772""
","
","
","""event"",""trial"",""time""
""fullscreenenter"",""1"",""2772""
","
","","","1067.8999999910593","","","24","14974","6148","&#9730;","elianto","#3366ff99"," "," ","1","0","[1919]","1","1","","","14974","14","1","1","win","go","1"
"pit-trial","132","979503","0.0-18.0","battery-v0.2","","""event"",""trial"",""time""
""fullscreenenter"",""1"",""2772""
","
","
","""event"",""trial"",""time""
""fullscreenenter"",""1"",""2772""
","
","","","-1","","","24","14974","6148","&#9728;","elianto","#f73b6a7A","-1","-1","1","0","[]","0","1","","","14974","15","0","4","lose","no-go","0"
"pit-trial","133","984359","0.0-19.0","battery-v0.2","","""event"",""trial"",""time""
""fullscreenenter"",""1"",""2772""
","
","
","""event"",""trial"",""time""
""fullscreenenter"",""1"",""2772""
","
","","","-1","","","24","14974","6148","&#9733;","elianto","#3366ff99","-1","-1","1","+10","[]","0","1","","","14974","16","2","2","win","no-go","0"
"pit-trial","134","988634","0.0-20.0","battery-v0.2","","""event"",""trial"",""time""
""fullscreenenter"",""1"",""2772""
","
","
","""event"",""trial"",""time""
""fullscreenenter"",""1"",""2772""
","
","","","1422.2999999970198","","","24","14974","6148","&#9752;","elianto","#f73b6a7A"," "," ","1","0","[2272.5999999940395]","1","1","","","14974","17","3","3","lose","go","0"
"pit-trial","135","993489","0.0-21.0","battery-v0.2","","""event"",""trial"",""time""
""fullscreenenter"",""1"",""2772""
","
","
","""event"",""trial"",""time""
""fullscreenenter"",""1"",""2772""
","
","","","-1","","","24","14974","6148","&#9733;","elianto","#3366ff99","-1","-1","1","+10","[]","0","1","","","14974","18","2","2","win","no-go","0"
"pit-trial","136","998344","0.0-22.0","battery-v0.2","","""event"",""trial"",""time""
""fullscreenenter"",""1"",""2772""
","
","
","""event"",""trial"",""time""
""fullscreenenter"",""1"",""2772""
","
","","","-1","","","24","14974","6148","&#9728;","elianto","#f73b6a7A","-1","-1","1","0","[]","0","1","","","14974","19","0","4","lose","no-go","0"
"pit-trial","137","1002304","0.0-23.0","battery-v0.2","","""event"",""trial"",""time""
""fullscreenenter"",""1"",""2772""
","
","
","""event"",""trial"",""time""
""fullscreenenter"",""1"",""2772""
","
","","","1106.2999999970198","","","24","14974","6148","&#9730;","elianto","#3366ff99"," "," ","1","+10","[1957.7000000029802]","1","1","","","14974","20","1","1","win","go","0"
"pit-instructions","138","1014982","0.0-24.0","battery-v0.2","","""event"",""trial"",""time""
""fullscreenenter"",""1"",""2772""
","
","
","""event"",""trial"",""time""
""fullscreenenter"",""1"",""2772""
","
","","[{""page_index"":0,""viewing_time"":5693.20000000298},{""page_index"":1,""viewing_time"":6983.899999991059}]","12677.39999999106","","","","","","","","","","","","","","","","","","","","","","","",""
"pit-trial","139","1018801","0.0-25.0","battery-v0.2","","""event"",""trial"",""time""
""fullscreenenter"",""1"",""2772""
","
","
","""event"",""trial"",""time""
""fullscreenenter"",""1"",""2772""
","
","","","963.4000000059605","","","24","14974","6148","m","elianto","#f73b6a7A"," "," ","1","0","[1814.7000000029802]","1","2","","","14974","21","0","3","lose","go","0"
"pit-trial","140","1023655","0.0-26.0","battery-v0.2","","""event"",""trial"",""time""
""fullscreenenter"",""1"",""2772""
","
","
","""event"",""trial"",""time""
""fullscreenenter"",""1"",""2772""
","
","","","-1","","","24","14974","6148","y","elianto","#f73b6a7A"," ","-1","0","-10","[]","0","2","","","14974","22","2","3","lose","go","0"
"pit-trial","141","1028511","0.0-27.0","battery-v0.2","","""event"",""trial"",""time""
""fullscreenenter"",""1"",""2772""
","
","
","""event"",""trial"",""time""
""fullscreenenter"",""1"",""2772""
","
","","","-1","","","24","14974","6148","h","elianto","#f73b6a7A","-1","-1","1","0","[]","0","2","","","14974","23","3","4","lose","no-go","0"
"pit-trial","142","1032717","0.0-28.0","battery-v0.2","","""event"",""trial"",""time""
""fullscreenenter"",""1"",""2772""
","
","
","""event"",""trial"",""time""
""fullscreenenter"",""1"",""2772""
","
","","","1352.7999999970198","","","24","14974","6148","r","elianto","#3366ff99","-1"," ","0","+10","[2203.5]","1","2","","","14974","24","1","2","win","no-go","1"
"pit-trial","143","1037571","0.0-29.0","battery-v0.2","","""event"",""trial"",""time""
""fullscreenenter"",""1"",""2772""
","
","
","""event"",""trial"",""time""
""fullscreenenter"",""1"",""2772""
","
","","","-1","","","24","14974","6148","h","elianto","#f73b6a7A","-1","-1","1","0","[]","0","2","","","14974","25","3","4","lose","no-go","0"
"pit-trial","144","1041595","0.0-30.0","battery-v0.2","","""event"",""trial"",""time""
""fullscreenenter"",""1"",""2772""
","
","
","""event"",""trial"",""time""
""fullscreenenter"",""1"",""2772""
","
","","","1169.0999999940395","","","24","14974","6148","r","elianto","#3366ff99","-1"," ","0","+10","[2020.7000000029802]","1","2","","","14974","26","1","2","win","no-go","1"
"pit-trial","145","1045922","0.0-31.0","battery-v0.2","","""event"",""trial"",""time""
""fullscreenenter"",""1"",""2772""
","
","
","""event"",""trial"",""time""
""fullscreenenter"",""1"",""2772""
","
","","","1472.6000000089407","","","24","14974","6148","y","elianto","#f73b6a7A"," "," ","1","0","[2324.1000000089407]","1","2","","","14974","27","2","3","lose","go","0"
"pit-trial","146","1050451","0.0-32.0","battery-v0.2","","""event"",""trial"",""time""
""fullscreenenter"",""1"",""2772""
","
","
","""event"",""trial"",""time""
""fullscreenenter"",""1"",""2772""
","
","","","1673.2999999970198","","","24","14974","6148","m","elianto","#f73b6a7A"," "," ","1","-10","[2524.4000000059605]","1","2","","","14974","28","0","3","lose","go","1"
"pit-trial","147","1054251","0.0-33.0","battery-v0.2","","""event"",""trial"",""time""
""fullscreenenter"",""1"",""2772""
","
","
","""event"",""trial"",""time""
""fullscreenenter"",""1"",""2772""
","
","","","946.3000000119209","","","24","14974","6148","r","elianto","#3366ff99","-1"," ","0","0","[1797.4000000059605]","1","2","","","14974","29","1","2","win","no-go","0"
"pit-trial","148","1059106","0.0-34.0","battery-v0.2","","""event"",""trial"",""time""
""fullscreenenter"",""1"",""2772""
","
","
","""event"",""trial"",""time""
""fullscreenenter"",""1"",""2772""
","
","","","-1","","","24","14974","6148","m","elianto","#f73b6a7A"," ","-1","0","-10","[]","0","2","","","14974","30","0","3","lose","go","0"
"pit-trial","149","1063960","0.0-35.0","battery-v0.2","","""event"",""trial"",""time""
""fullscreenenter"",""1"",""2772""
","
","
","""event"",""trial"",""time""
""fullscreenenter"",""1"",""2772""
","
","","","-1","","","24","14974","6148","y","elianto","#f73b6a7A"," ","-1","0","-10","[]","0","2","","","14974","31","2","3","lose","go","0"
"pit-trial","150","1068815","0.0-36.0","battery-v0.2","","""event"",""trial"",""time""
""fullscreenenter"",""1"",""2772""
","
","
","""event"",""trial"",""time""
""fullscreenenter"",""1"",""2772""
","
","","","-1","","","24","14974","6148","h","elianto","#f73b6a7A","-1","-1","1","0","[]","0","2","","","14974","32","3","4","lose","no-go","0"
"pit-trial","151","1073671","0.0-37.0","battery-v0.2","","""event"",""trial"",""time""
""fullscreenenter"",""1"",""2772""
","
","
","""event"",""trial"",""time""
""fullscreenenter"",""1"",""2772""
","
","","","-1","","","24","14974","6148","h","elianto","#f73b6a7A","-1","-1","1","0","[]","0","2","","","14974","33","3","4","lose","no-go","0"
"pit-trial","152","1078526","0.0-38.0","battery-v0.2","","""event"",""trial"",""time""
""fullscreenenter"",""1"",""2772""
","
","
","""event"",""trial"",""time""
""fullscreenenter"",""1"",""2772""
","
","","","-1","","","24","14974","6148","m","elianto","#f73b6a7A"," ","-1","0","-10","[]","0","2","","","14974","34","0","3","lose","go","0"
"pit-trial","153","1082190","0.0-39.0","battery-v0.2","","""event"",""trial"",""time""
""fullscreenenter"",""1"",""2772""
","
","
","""event"",""trial"",""time""
""fullscreenenter"",""1"",""2772""
","
","","","811.5","","","24","14974","6148","r","elianto","#3366ff99","-1"," ","0","0","[1662.4000000059605]","1","2","","","14974","35","1","2","win","no-go","0"
"pit-trial","154","1086431","0.0-40.0","battery-v0.2","","""event"",""trial"",""time""
""fullscreenenter"",""1"",""2772""
","
","
","""event"",""trial"",""time""
""fullscreenenter"",""1"",""2772""
","
","","","1382.8999999910593","","","24","14974","6148","y","elianto","#f73b6a7A"," "," ","1","0","[2236.8999999910593]","1","2","","","14974","36","2","3","lose","go","0"
"pit-trial","155","1091285","0.0-41.0","battery-v0.2","","""event"",""trial"",""time""
""fullscreenenter"",""1"",""2772""
","
","
","""event"",""trial"",""time""
""fullscreenenter"",""1"",""2772""
","
","","","-1","","","24","14974","6148","h","elianto","#f73b6a7A","-1","-1","1","0","[]","0","2","","","14974","37","3","4","lose","no-go","0"
"pit-trial","156","1095082","0.0-42.0","battery-v0.2","","""event"",""trial"",""time""
""fullscreenenter"",""1"",""2772""
","
","
","""event"",""trial"",""time""
""fullscreenenter"",""1"",""2772""
","
","","","942.7000000029802","","","24","14974","6148","m","elianto","#f73b6a7A"," "," ","1","0","[1794.7000000029802]","1","2","","","14974","38","0","3","lose","go","0"
"pit-trial","157","1098664","0.0-43.0","battery-v0.2","","""event"",""trial"",""time""
""fullscreenenter"",""1"",""2772""
","
","
","""event"",""trial"",""time""
""fullscreenenter"",""1"",""2772""
","
","","","727.0999999940395","","","24","14974","6148","r","elianto","#3366ff99","-1"," ","0","0","[1578.2999999970198]","1","2","","","14974","39","1","2","win","no-go","0"
"pit-trial","158","1102557","0.0-44.0","battery-v0.2","","""event"",""trial"",""time""
""fullscreenenter"",""1"",""2772""
","
","
","""event"",""trial"",""time""
""fullscreenenter"",""1"",""2772""
","
","","","1038.5","","","24","14974","6148","y","elianto","#f73b6a7A"," "," ","1","0","[1889.5999999940395]","1","2","","","14974","40","2","3","lose","go","0"
"pit-trial","159","1106342","0.0-45.0","battery-v0.2","","""event"",""trial"",""time""
""fullscreenenter"",""1"",""2772""
","
","
","""event"",""trial"",""time""
""fullscreenenter"",""1"",""2772""
","
","","","931.2000000029802","","","24","14974","6148","y","elianto","#f73b6a7A"," "," ","1","0","[1781.6000000089407]","1","2","","","14974","41","2","3","lose","go","0"
"pit-trial","160","1111198","0.0-46.0","battery-v0.2","","""event"",""trial"",""time""
""fullscreenenter"",""1"",""2772""
","
","
","""event"",""trial"",""time""
""fullscreenenter"",""1"",""2772""
","
","","","-1","","","24","14974","6148","h","elianto","#f73b6a7A","-1","-1","1","0","[]","0","2","","","14974","42","3","4","lose","no-go","0"
"pit-trial","161","1115345","0.0-47.0","battery-v0.2","","""event"",""trial"",""time""
""fullscreenenter"",""1"",""2772""
","
","
","""event"",""trial"",""time""
""fullscreenenter"",""1"",""2772""
","
","","","1292.2000000029802","","","24","14974","6148","r","elianto","#3366ff99","-1"," ","0","+10","[2143.7000000029802]","1","2","","","14974","43","1","2","win","no-go","1"
"pit-trial","162","1119566","0.0-48.0","battery-v0.2","","""event"",""trial"",""time""
""fullscreenenter"",""1"",""2772""
","
","
","""event"",""trial"",""time""
""fullscreenenter"",""1"",""2772""
","
","","","1366.7999999970198","","","24","14974","6148","m","elianto","#f73b6a7A"," "," ","1","-10","[2217.4000000059605]","1","2","","","14974","44","0","3","lose","go","1"
"pit-trial","163","1124420","0.0-49.0","battery-v0.2","","""event"",""trial"",""time""
""fullscreenenter"",""1"",""2772""
","
","
","""event"",""trial"",""time""
""fullscreenenter"",""1"",""2772""
","
","","","-1","","","24","14974","6148","m","elianto","#f73b6a7A"," ","-1","0","-10","[]","0","2","","","14974","45","0","3","lose","go","0"
"pit-trial","164","1127938","0.0-50.0","battery-v0.2","","""event"",""trial"",""time""
""fullscreenenter"",""1"",""2772""
","
","
","""event"",""trial"",""time""
""fullscreenenter"",""1"",""2772""
","
","","","662.7999999970198","","","24","14974","6148","r","elianto","#3366ff99","-1"," ","0","+10","[1514.2000000029802]","1","2","","","14974","46","1","2","win","no-go","1"
"pit-trial","165","1132793","0.0-51.0","battery-v0.2","","""event"",""trial"",""time""
""fullscreenenter"",""1"",""2772""
","
","
","""event"",""trial"",""time""
""fullscreenenter"",""1"",""2772""
","
","","","-1","","","24","14974","6148","y","elianto","#f73b6a7A"," ","-1","0","-10","[]","0","2","","","14974","47","2","3","lose","go","0"
"pit-trial","166","1137649","0.0-52.0","battery-v0.2","","""event"",""trial"",""time""
""fullscreenenter"",""1"",""2772""
","
","
","""event"",""trial"",""time""
""fullscreenenter"",""1"",""2772""
","
","","","-1","","","24","14974","6148","h","elianto","#f73b6a7A","-1","-1","1","0","[]","0","2","","","14974","48","3","4","lose","no-go","0"
"pit-trial","167","1142505","0.0-53.0","battery-v0.2","","""event"",""trial"",""time""
""fullscreenenter"",""1"",""2772""
","
","
","""event"",""trial"",""time""
""fullscreenenter"",""1"",""2772""
","
","","","-1","","","24","14974","6148","h","elianto","#f73b6a7A","-1","-1","1","0","[]","0","2","","","14974","49","3","4","lose","no-go","0"
"pit-trial","168","1146375","0.0-54.0","battery-v0.2","","""event"",""trial"",""time""
""fullscreenenter"",""1"",""2772""
","
","
","""event"",""trial"",""time""
""fullscreenenter"",""1"",""2772""
","
","","","1016.5","","","24","14974","6148","y","elianto","#f73b6a7A"," "," ","1","0","[1867.3999999910593]","1","2","","","14974","50","2","3","lose","go","0"
"pit-trial","169","1150789","0.0-55.0","battery-v0.2","","""event"",""trial"",""time""
""fullscreenenter"",""1"",""2772""
","
","
","""event"",""trial"",""time""
""fullscreenenter"",""1"",""2772""
","
","","","1558.7000000029802","","","24","14974","6148","m","elianto","#f73b6a7A"," "," ","1","0","[2409.7000000029802]","1","2","","","14974","51","0","3","lose","go","0"
"pit-trial","170","1154450","0.0-56.0","battery-v0.2","","""event"",""trial"",""time""
""fullscreenenter"",""1"",""2772""
","
","
","""event"",""trial"",""time""
""fullscreenenter"",""1"",""2772""
","
","","","807.7000000029802","","","24","14974","6148","r","elianto","#3366ff99","-1"," ","0","0","[1659]","1","2","","","14974","52","1","2","win","no-go","0"
"pit-trial","171","1159306","0.0-57.0","battery-v0.2","","""event"",""trial"",""time""
""fullscreenenter"",""1"",""2772""
","
","
","""event"",""trial"",""time""
""fullscreenenter"",""1"",""2772""
","
","","","-1","","","24","14974","6148","h","elianto","#f73b6a7A","-1","-1","1","0","[]","0","2","","","14974","53","3","4","lose","no-go","0"
"pit-trial","172","1163004","0.0-58.0","battery-v0.2","","""event"",""trial"",""time""
""fullscreenenter"",""1"",""2772""
","
","
","""event"",""trial"",""time""
""fullscreenenter"",""1"",""2772""
","
","","","842.6000000089407","","","24","14974","6148","y","elianto","#f73b6a7A"," "," ","1","0","[1694]","1","2","","","14974","54","2","3","lose","go","0"
"pit-trial","173","1166879","0.0-59.0","battery-v0.2","","""event"",""trial"",""time""
""fullscreenenter"",""1"",""2772""
","
","
","""event"",""trial"",""time""
""fullscreenenter"",""1"",""2772""
","
","","","1020.2000000029802","","","24","14974","6148","m","elianto","#f73b6a7A"," "," ","1","0","[1871]","1","2","","","14974","55","0","3","lose","go","0"
"pit-trial","174","1170610","0.0-60.0","battery-v0.2","","""event"",""trial"",""time""
""fullscreenenter"",""1"",""2772""
","
","
","""event"",""trial"",""time""
""fullscreenenter"",""1"",""2772""
","
","","","877","","","24","14974","6148","r","elianto","#3366ff99","-1"," ","0","0","[1727.2000000029802]","1","2","","","14974","56","1","2","win","no-go","0"
"pit-trial","175","1175464","0.0-61.0","battery-v0.2","","""event"",""trial"",""time""
""fullscreenenter"",""1"",""2772""
","
","
","""event"",""trial"",""time""
""fullscreenenter"",""1"",""2772""
","
","","","-1","","","24","14974","6148","h","elianto","#f73b6a7A","-1","-1","1","0","[]","0","2","","","14974","57","3","4","lose","no-go","0"
"pit-trial","176","1179255","0.0-62.0","battery-v0.2","","""event"",""trial"",""time""
""fullscreenenter"",""1"",""2772""
","
","
","""event"",""trial"",""time""
""fullscreenenter"",""1"",""2772""
","
","","","936.2999999970198","","","24","14974","6148","z","elianto","#3366ff99"," "," ","1","0","[1787.1000000089407]","1","2","","","14974","58","4","1","win","go","1"
"pit-trial","177","1183470","0.0-63.0","battery-v0.2","","""event"",""trial"",""time""
""fullscreenenter"",""1"",""2772""
","
","
","""event"",""trial"",""time""
""fullscreenenter"",""1"",""2772""
","
","","","1361.199999988079","","","24","14974","6148","m","elianto","#f73b6a7A"," "," ","1","0","[2212.5999999940395]","1","2","","","14974","59","0","3","lose","go","0"
"pit-trial","178","1187249","0.0-64.0","battery-v0.2","","""event"",""trial"",""time""
""fullscreenenter"",""1"",""2772""
","
","
","""event"",""trial"",""time""
""fullscreenenter"",""1"",""2772""
","
","","","925.6999999880791","","","24","14974","6148","y","elianto","#f73b6a7A"," "," ","1","0","[1776.699999988079]","1","2","","","14974","60","2","3","lose","go","0"
"pit-trial","179","1191451","0.0-65.0","battery-v0.2","","""event"",""trial"",""time""
""fullscreenenter"",""1"",""2772""
","
","
","""event"",""trial"",""time""
""fullscreenenter"",""1"",""2772""
","
","","","1347.300000011921","","","24","14974","6148","y","elianto","#f73b6a7A"," "," ","1","0","[2198.5]","1","2","","","14974","61","2","3","lose","go","0"
"pit-trial","180","1196307","0.0-66.0","battery-v0.2","","""event"",""trial"",""time""
""fullscreenenter"",""1"",""2772""
","
","
","""event"",""trial"",""time""
""fullscreenenter"",""1"",""2772""
","
","","","-1","","","24","14974","6148","h","elianto","#f73b6a7A","-1","-1","1","0","[]","0","2","","","14974","62","3","4","lose","no-go","0"
"pit-trial","181","1200264","0.0-67.0","battery-v0.2","","""event"",""trial"",""time""
""fullscreenenter"",""1"",""2772""
","
","
","""event"",""trial"",""time""
""fullscreenenter"",""1"",""2772""
","
","","","1104.2999999970198","","","24","14974","6148","r","elianto","#3366ff99","-1"," ","0","0","[1954.3999999910593]","1","2","","","14974","63","1","2","win","no-go","0"
"pit-trial","182","1205119","0.0-68.0","battery-v0.2","","""event"",""trial"",""time""
""fullscreenenter"",""1"",""2772""
","
","
","""event"",""trial"",""time""
""fullscreenenter"",""1"",""2772""
","
","","","-1","","","24","14974","6148","z","elianto","#3366ff99"," ","-1","0","0","[]","0","2","","","14974","64","4","1","win","go","0"
"pit-trial","183","1209974","0.0-69.0","battery-v0.2","","""event"",""trial"",""time""
""fullscreenenter"",""1"",""2772""
","
","
","""event"",""trial"",""time""
""fullscreenenter"",""1"",""2772""
","
","","","-1","","","24","14974","6148","r","elianto","#3366ff99","-1","-1","1","+10","[]","0","2","","","14974","65","1","2","win","no-go","0"
"pit-trial","184","1214830","0.0-70.0","battery-v0.2","","""event"",""trial"",""time""
""fullscreenenter"",""1"",""2772""
","
","
","""event"",""trial"",""time""
""fullscreenenter"",""1"",""2772""
","
","","","-1","","","24","14974","6148","h","elianto","#f73b6a7A","-1","-1","1","0","[]","0","2","","","14974","66","3","4","lose","no-go","0"
"pit-trial","185","1218836","0.0-71.0","battery-v0.2","","""event"",""trial"",""time""
""fullscreenenter"",""1"",""2772""
","
","
","""event"",""trial"",""time""
""fullscreenenter"",""1"",""2772""
","
","","","1152","","","24","14974","6148","z","elianto","#3366ff99"," "," ","1","+10","[2002.7000000029802]","1","2","","","14974","67","4","1","win","go","0"
"pit-trial","186","1222622","0.0-72.0","battery-v0.2","","""event"",""trial"",""time""
""fullscreenenter"",""1"",""2772""
","
","
","""event"",""trial"",""time""
""fullscreenenter"",""1"",""2772""
","
","","","932.6000000089407","","","24","14974","6148","c","elianto","#3366ff99","-1"," ","0","0","[1783]","1","2","","","14974","68","5","2","win","no-go","0"
"pit-trial","187","1226917","0.0-73.0","battery-v0.2","","""event"",""trial"",""time""
""fullscreenenter"",""1"",""2772""
","
","
","""event"",""trial"",""time""
""fullscreenenter"",""1"",""2772""
","
","","","1439.9000000059605","","","24","14974","6148","r","elianto","#3366ff99","-1"," ","0","+10","[2290.7999999970198]","1","2","","","14974","69","1","2","win","no-go","1"
"pit-trial","188","1231772","0.0-74.0","battery-v0.2","","""event"",""trial"",""time""
""fullscreenenter"",""1"",""2772""
","
","
","""event"",""trial"",""time""
""fullscreenenter"",""1"",""2772""
","
","","","-1","","","24","14974","6148","c","elianto","#3366ff99","-1","-1","1","+10","[]","0","2","","","14974","70","5","2","win","no-go","0"
"pit-trial","189","1235952","0.0-75.0","battery-v0.2","","""event"",""trial"",""time""
""fullscreenenter"",""1"",""2772""
","
","
","""event"",""trial"",""time""
""fullscreenenter"",""1"",""2772""
","
","","","1326.0999999940395","","","24","14974","6148","z","elianto","#3366ff99"," "," ","1","+10","[2177.5]","1","2","","","14974","71","4","1","win","go","0"
"pit-trial","190","1240242","0.0-76.0","battery-v0.2","","""event"",""trial"",""time""
""fullscreenenter"",""1"",""2772""
","
","
","""event"",""trial"",""time""
""fullscreenenter"",""1"",""2772""
","
","","","1434.6000000089407","","","24","14974","6148","y","elianto","#f73b6a7A"," "," ","1","0","[2286.1000000089407]","1","2","","","14974","72","2","3","lose","go","0"
"pit-trial","191","1244455","0.0-77.0","battery-v0.2","","""event"",""trial"",""time""
""fullscreenenter"",""1"",""2772""
","
","
","""event"",""trial"",""time""
""fullscreenenter"",""1"",""2772""
","
","","","1358.9000000059605","","","24","14974","6148","c","elianto","#3366ff99","-1"," ","0","+10","[2208.9000000059605]","1","2","","","14974","73","5","2","win","no-go","1"
"pit-trial","192","1248410","0.0-78.0","battery-v0.2","","""event"",""trial"",""time""
""fullscreenenter"",""1"",""2772""
","
","
","""event"",""trial"",""time""
""fullscreenenter"",""1"",""2772""
","
","","","1100.3999999910593","","","24","14974","6148","z","elianto","#3366ff99"," "," ","1","0","[1952]","1","2","","","14974","74","4","1","win","go","1"
"pit-trial","193","1253266","0.0-79.0","battery-v0.2","","""event"",""trial"",""time""
""fullscreenenter"",""1"",""2772""
","
","
","""event"",""trial"",""time""
""fullscreenenter"",""1"",""2772""
","
","","","-1","","","24","14974","6148","h","elianto","#f73b6a7A","-1","-1","1","0","[]","0","2","","","14974","75","3","4","lose","no-go","0"
"pit-trial","194","1256961","0.0-80.0","battery-v0.2","","""event"",""trial"",""time""
""fullscreenenter"",""1"",""2772""
","
","
","""event"",""trial"",""time""
""fullscreenenter"",""1"",""2772""
","
","","","840.3999999910593","","","24","14974","6148","r","elianto","#3366ff99","-1"," ","0","0","[1691.8999999910593]","1","2","","","14974","76","1","2","win","no-go","0"
"pit-trial","195","1261817","0.0-81.0","battery-v0.2","","""event"",""trial"",""time""
""fullscreenenter"",""1"",""2772""
","
","
","""event"",""trial"",""time""
""fullscreenenter"",""1"",""2772""
","
","","","-1","","","24","14974","6148","h","elianto","#f73b6a7A","-1","-1","1","0","[]","0","2","","","14974","77","3","4","lose","no-go","0"
"pit-trial","196","1266025","0.0-82.0","battery-v0.2","","""event"",""trial"",""time""
""fullscreenenter"",""1"",""2772""
","
","
","""event"",""trial"",""time""
""fullscreenenter"",""1"",""2772""
","
","","","1354.5","","","24","14974","6148","c","elianto","#3366ff99","-1"," ","0","0","[2205.3999999910593]","1","2","","","14974","78","5","2","win","no-go","0"
"pit-trial","197","1270880","0.0-83.0","battery-v0.2","","""event"",""trial"",""time""
""fullscreenenter"",""1"",""2772""
","
","
","""event"",""trial"",""time""
""fullscreenenter"",""1"",""2772""
","
","","","-1","","","24","14974","6148","z","elianto","#3366ff99"," ","-1","0","0","[]","0","2","","","14974","79","4","1","win","go","0"
"pit-trial","198","1275641","0.0-84.0","battery-v0.2","","""event"",""trial"",""time""
""fullscreenenter"",""1"",""2772""
","
","
","""event"",""trial"",""time""
""fullscreenenter"",""1"",""2772""
","
","","","1906.2000000029802","","","24","14974","6148","z","elianto","#3366ff99"," "," ","1","+10","[2757.3999999910593]","1","2","","","14974","80","4","1","win","go","0"
"pit-trial","199","1280495","0.0-85.0","battery-v0.2","","""event"",""trial"",""time""
""fullscreenenter"",""1"",""2772""
","
","
","""event"",""trial"",""time""
""fullscreenenter"",""1"",""2772""
","
","","","-1","","","24","14974","6148","h","elianto","#f73b6a7A","-1","-1","1","0","[]","0","2","","","14974","81","3","4","lose","no-go","0"
"pit-trial","200","1285053","0.0-86.0","battery-v0.2","","""event"",""trial"",""time""
""fullscreenenter"",""1"",""2772""
","
","
","""event"",""trial"",""time""
""fullscreenenter"",""1"",""2772""
","
","","","1705.7000000029802","","","24","14974","6148","t","elianto","#f73b6a7A","-1"," ","0","-10","[2556]","1","2","","","14974","82","7","4","lose","no-go","0"
"pit-trial","201","1288838","0.0-87.0","battery-v0.2","","""event"",""trial"",""time""
""fullscreenenter"",""1"",""2772""
","
","
","""event"",""trial"",""time""
""fullscreenenter"",""1"",""2772""
","
","","","930.0999999940395","","","24","14974","6148","z","elianto","#3366ff99"," "," ","1","0","[1782]","1","2","","","14974","83","4","1","win","go","1"
"pit-trial","202","1293346","0.0-88.0","battery-v0.2","","""event"",""trial"",""time""
""fullscreenenter"",""1"",""2772""
","
","
","""event"",""trial"",""time""
""fullscreenenter"",""1"",""2772""
","
","","","1653.199999988079","","","24","14974","6148","c","elianto","#3366ff99","-1"," ","0","+10","[2504.3999999910593]","1","2","","","14974","84","5","2","win","no-go","1"
"pit-trial","203","1298201","0.0-89.0","battery-v0.2","","""event"",""trial"",""time""
""fullscreenenter"",""1"",""2772""
","
","
","""event"",""trial"",""time""
""fullscreenenter"",""1"",""2772""
","
","","","-1","","","24","14974","6148","t","elianto","#f73b6a7A","-1","-1","1","-10","[]","0","2","","","14974","85","7","4","lose","no-go","1"
"pit-trial","204","1302181","0.0-90.0","battery-v0.2","","""event"",""trial"",""time""
""fullscreenenter"",""1"",""2772""
","
","
","""event"",""trial"",""time""
""fullscreenenter"",""1"",""2772""
","
","","","1125.5","","","24","14974","6148","z","elianto","#3366ff99"," "," ","1","+10","[1977.3999999910593]","1","2","","","14974","86","4","1","win","go","0"
"pit-trial","205","1306432","0.0-91.0","battery-v0.2","","""event"",""trial"",""time""
""fullscreenenter"",""1"",""2772""
","
","
","""event"",""trial"",""time""
""fullscreenenter"",""1"",""2772""
","
","","","1396.300000011921","","","24","14974","6148","b","elianto","#f73b6a7A"," "," ","1","0","[2247.8999999910593]","1","2","","","14974","87","6","3","lose","go","0"
"pit-trial","206","1310419","0.0-92.0","battery-v0.2","","""event"",""trial"",""time""
""fullscreenenter"",""1"",""2772""
","
","
","""event"",""trial"",""time""
""fullscreenenter"",""1"",""2772""
","
","","","1131.9000000059605","","","24","14974","6148","c","elianto","#3366ff99","-1"," ","0","+10","[1983.7000000029802]","1","2","","","14974","88","5","2","win","no-go","1"
"pit-trial","207","1314180","0.0-93.0","battery-v0.2","","""event"",""trial"",""time""
""fullscreenenter"",""1"",""2772""
","
","
","""event"",""trial"",""time""
""fullscreenenter"",""1"",""2772""
","
","","","906.5","","","24","14974","6148","z","elianto","#3366ff99"," "," ","1","0","[1757.5999999940395]","1","2","","","14974","89","4","1","win","go","1"
"pit-trial","208","1318228","0.0-94.0","battery-v0.2","","""event"",""trial"",""time""
""fullscreenenter"",""1"",""2772""
","
","
","""event"",""trial"",""time""
""fullscreenenter"",""1"",""2772""
","
","","","1192.0999999940395","","","24","14974","6148","b","elianto","#f73b6a7A"," "," ","1","0","[2043.3999999910593]","1","2","","","14974","90","6","3","lose","go","0"
"pit-trial","209","1323082","0.0-95.0","battery-v0.2","","""event"",""trial"",""time""
""fullscreenenter"",""1"",""2772""
","
","
","""event"",""trial"",""time""
""fullscreenenter"",""1"",""2772""
","
","","","-1","","","24","14974","6148","t","elianto","#f73b6a7A","-1","-1","1","0","[]","0","2","","","14974","91","7","4","lose","no-go","0"
"pit-trial","210","1327323","0.0-96.0","battery-v0.2","","""event"",""trial"",""time""
""fullscreenenter"",""1"",""2772""
","
","
","""event"",""trial"",""time""
""fullscreenenter"",""1"",""2772""
","
","","","1386.5","","","24","14974","6148","c","elianto","#3366ff99","-1"," ","0","0","[2238.1000000089407]","1","2","","","14974","92","5","2","win","no-go","0"
"pit-trial","211","1331378","0.0-97.0","battery-v0.2","","""event"",""trial"",""time""
""fullscreenenter"",""1"",""2772""
","
","
","""event"",""trial"",""time""
""fullscreenenter"",""1"",""2772""
","
","","","1201","","","24","14974","6148","c","elianto","#3366ff99","-1"," ","0","0","[2052.4000000059605]","1","2","","","14974","93","5","2","win","no-go","0"
"pit-trial","212","1336232","0.0-98.0","battery-v0.2","","""event"",""trial"",""time""
""fullscreenenter"",""1"",""2772""
","
","
","""event"",""trial"",""time""
""fullscreenenter"",""1"",""2772""
","
","","","-1","","","24","14974","6148","t","elianto","#f73b6a7A","-1","-1","1","0","[]","0","2","","","14974","94","7","4","lose","no-go","0"
"pit-trial","213","1340230","0.0-99.0","battery-v0.2","","""event"",""trial"",""time""
""fullscreenenter"",""1"",""2772""
","
","
","""event"",""trial"",""time""
""fullscreenenter"",""1"",""2772""
","
","","","1142.7000000029802","","","24","14974","6148","b","elianto","#f73b6a7A"," "," ","1","0","[1994.5]","1","2","","","14974","95","6","3","lose","go","0"
"pit-trial","214","1344206","0.0-100.0","battery-v0.2","","""event"",""trial"",""time""
""fullscreenenter"",""1"",""2772""
","
","
","""event"",""trial"",""time""
""fullscreenenter"",""1"",""2772""
","
","","","1120","","","24","14974","6148","f","elianto","#3366ff99"," "," ","1","+10","[1971.5999999940395]","1","2","","","14974","96","8","1","win","go","0"
"pit-trial","215","1349062","0.0-101.0","battery-v0.2","","""event"",""trial"",""time""
""fullscreenenter"",""1"",""2772""
","
","
","""event"",""trial"",""time""
""fullscreenenter"",""1"",""2772""
","
","","","-1","","","24","14974","6148","c","elianto","#3366ff99","-1","-1","1","0","[]","0","2","","","14974","97","5","2","win","no-go","1"
"pit-trial","216","1353918","0.0-102.0","battery-v0.2","","""event"",""trial"",""time""
""fullscreenenter"",""1"",""2772""
","
","
","""event"",""trial"",""time""
""fullscreenenter"",""1"",""2772""
","
","","","-1","","","24","14974","6148","t","elianto","#f73b6a7A","-1","-1","1","0","[]","0","2","","","14974","98","7","4","lose","no-go","0"
"pit-trial","217","1357730","0.0-103.0","battery-v0.2","","""event"",""trial"",""time""
""fullscreenenter"",""1"",""2772""
","
","
","""event"",""trial"",""time""
""fullscreenenter"",""1"",""2772""
","
","","","958.3999999910593","","","24","14974","6148","b","elianto","#f73b6a7A"," "," ","1","0","[1809.3999999910593]","1","2","","","14974","99","6","3","lose","go","0"
"pit-trial","218","1361993","0.0-104.0","battery-v0.2","","""event"",""trial"",""time""
""fullscreenenter"",""1"",""2772""
","
","
","""event"",""trial"",""time""
""fullscreenenter"",""1"",""2772""
","
","","","1408.3999999910593","","","24","14974","6148","f","elianto","#3366ff99"," "," ","1","+10","[2259.6000000089407]","1","2","","","14974","100","8","1","win","go","0"
"pit-trial","219","1366847","0.0-105.0","battery-v0.2","","""event"",""trial"",""time""
""fullscreenenter"",""1"",""2772""
","
","
","""event"",""trial"",""time""
""fullscreenenter"",""1"",""2772""
","
","","","-1","","","24","14974","6148","t","elianto","#f73b6a7A","-1","-1","1","0","[]","0","2","","","14974","101","7","4","lose","no-go","0"
"pit-trial","220","1370970","0.0-106.0","battery-v0.2","","""event"",""trial"",""time""
""fullscreenenter"",""1"",""2772""
","
","
","""event"",""trial"",""time""
""fullscreenenter"",""1"",""2772""
","
","","","1268.9000000059605","","","24","14974","6148","c","elianto","#3366ff99","-1"," ","0","0","[2120.2999999970198]","1","2","","","14974","102","5","2","win","no-go","0"
"pit-trial","221","1374553","0.0-107.0","battery-v0.2","","""event"",""trial"",""time""
""fullscreenenter"",""1"",""2772""
","
","
","""event"",""trial"",""time""
""fullscreenenter"",""1"",""2772""
","
","","","727.5","","","24","14974","6148","f","elianto","#3366ff99"," "," ","1","+10","[1579.300000011921]","1","2","","","14974","103","8","1","win","go","0"
"pit-trial","222","1378288","0.0-108.0","battery-v0.2","","""event"",""trial"",""time""
""fullscreenenter"",""1"",""2772""
","
","
","""event"",""trial"",""time""
""fullscreenenter"",""1"",""2772""
","
","","","880.2999999970198","","","24","14974","6148","n","elianto","#3366ff99"," "," ","1","+10","[1731.9000000059605]","1","2","","","14974","104","9","1","win","go","0"
"pit-trial","223","1382166","0.0-109.0","battery-v0.2","","""event"",""trial"",""time""
""fullscreenenter"",""1"",""2772""
","
","
","""event"",""trial"",""time""
""fullscreenenter"",""1"",""2772""
","
","","","1022.9000000059605","","","24","14974","6148","f","elianto","#3366ff99"," "," ","1","+10","[1874.5]","1","2","","","14974","105","8","1","win","go","0"
"pit-trial","224","1385873","0.0-110.0","battery-v0.2","","""event"",""trial"",""time""
""fullscreenenter"",""1"",""2772""
","
","
","""event"",""trial"",""time""
""fullscreenenter"",""1"",""2772""
","
","","","852.4000000059605","","","24","14974","6148","n","elianto","#3366ff99"," "," ","1","+10","[1703]","1","2","","","14974","106","9","1","win","go","0"
"pit-trial","225","1389936","0.0-111.0","battery-v0.2","","""event"",""trial"",""time""
""fullscreenenter"",""1"",""2772""
","
","
","""event"",""trial"",""time""
""fullscreenenter"",""1"",""2772""
","
","","","1208.5","","","24","14974","6148","z","elianto","#3366ff99"," "," ","1","+10","[2060]","1","2","","","14974","107","4","1","win","go","0"
"pit-trial","226","1393849","0.0-112.0","battery-v0.2","","""event"",""trial"",""time""
""fullscreenenter"",""1"",""2772""
","
","
","""event"",""trial"",""time""
""fullscreenenter"",""1"",""2772""
","
","","","1057","","","24","14974","6148","b","elianto","#f73b6a7A"," "," ","1","0","[1908.7000000029802]","1","2","","","14974","108","6","3","lose","go","0"
"pit-trial","227","1397838","0.0-113.0","battery-v0.2","","""event"",""trial"",""time""
""fullscreenenter"",""1"",""2772""
","
","
","""event"",""trial"",""time""
""fullscreenenter"",""1"",""2772""
","
","","","1134.2999999970198","","","24","14974","6148","b","elianto","#f73b6a7A"," "," ","1","0","[1985]","1","2","","","14974","109","6","3","lose","go","0"
"pit-trial","228","1401763","0.0-114.0","battery-v0.2","","""event"",""trial"",""time""
""fullscreenenter"",""1"",""2772""
","
","
","""event"",""trial"",""time""
""fullscreenenter"",""1"",""2772""
","
","","","1071.199999988079","","","24","14974","6148","f","elianto","#3366ff99"," "," ","1","+10","[1921.8999999910593]","1","2","","","14974","110","8","1","win","go","0"
"pit-trial","229","1405466","0.0-115.0","battery-v0.2","","""event"",""trial"",""time""
""fullscreenenter"",""1"",""2772""
","
","
","""event"",""trial"",""time""
""fullscreenenter"",""1"",""2772""
","
","","","848.3000000119209","","","24","14974","6148","n","elianto","#3366ff99"," "," ","1","+10","[1699]","1","2","","","14974","111","9","1","win","go","0"
"pit-trial","230","1410321","0.0-116.0","battery-v0.2","","""event"",""trial"",""time""
""fullscreenenter"",""1"",""2772""
","
","
","""event"",""trial"",""time""
""fullscreenenter"",""1"",""2772""
","
","","","-1","","","24","14974","6148","c","elianto","#3366ff99","-1","-1","1","+10","[]","0","2","","","14974","112","5","2","win","no-go","0"
"pit-trial","231","1414007","0.0-117.0","battery-v0.2","","""event"",""trial"",""time""
""fullscreenenter"",""1"",""2772""
","
","
","""event"",""trial"",""time""
""fullscreenenter"",""1"",""2772""
","
","","","831.1000000089407","","","24","14974","6148","b","elianto","#f73b6a7A"," "," ","1","-10","[1682.4000000059605]","1","2","","","14974","113","6","3","lose","go","1"
"pit-trial","232","1418863","0.0-118.0","battery-v0.2","","""event"",""trial"",""time""
""fullscreenenter"",""1"",""2772""
","
","
","""event"",""trial"",""time""
""fullscreenenter"",""1"",""2772""
","
","","","-1","","","24","14974","6148","c","elianto","#3366ff99","-1","-1","1","0","[]","0","2","","","14974","114","5","2","win","no-go","1"
"pit-trial","233","1422570","0.0-119.0","battery-v0.2","","""event"",""trial"",""time""
""fullscreenenter"",""1"",""2772""
","
","
","""event"",""trial"",""time""
""fullscreenenter"",""1"",""2772""
","
","","","853.0999999940395","","","24","14974","6148","n","elianto","#3366ff99"," "," ","1","+10","[1703.2999999970198]","1","2","","","14974","115","9","1","win","go","0"
"pit-trial","234","1426187","0.0-120.0","battery-v0.2","","""event"",""trial"",""time""
""fullscreenenter"",""1"",""2772""
","
","
","""event"",""trial"",""time""
""fullscreenenter"",""1"",""2772""
","
","","","762.9000000059605","","","24","14974","6148","f","elianto","#3366ff99"," "," ","1","+10","[1613.4000000059605]","1","2","","","14974","116","8","1","win","go","0"
"pit-trial","235","1431042","0.0-121.0","battery-v0.2","","""event"",""trial"",""time""
""fullscreenenter"",""1"",""2772""
","
","
","""event"",""trial"",""time""
""fullscreenenter"",""1"",""2772""
","
","","","-1","","","24","14974","6148","c","elianto","#3366ff99","-1","-1","1","+10","[]","0","2","","","14974","117","5","2","win","no-go","0"
"pit-trial","236","1434782","0.0-122.0","battery-v0.2","","""event"",""trial"",""time""
""fullscreenenter"",""1"",""2772""
","
","
","""event"",""trial"",""time""
""fullscreenenter"",""1"",""2772""
","
","","","886","","","24","14974","6148","b","elianto","#f73b6a7A"," "," ","1","0","[1736.7000000029802]","1","2","","","14974","118","6","3","lose","go","0"
"pit-trial","237","1438480","0.0-123.0","battery-v0.2","","""event"",""trial"",""time""
""fullscreenenter"",""1"",""2772""
","
","
","""event"",""trial"",""time""
""fullscreenenter"",""1"",""2772""
","
","","","842.7999999970198","","","24","14974","6148","f","elianto","#3366ff99"," "," ","1","+10","[1694.4000000059605]","1","2","","","14974","119","8","1","win","go","0"
"pit-trial","238","1442126","0.0-124.0","battery-v0.2","","""event"",""trial"",""time""
""fullscreenenter"",""1"",""2772""
","
","
","""event"",""trial"",""time""
""fullscreenenter"",""1"",""2772""
","
","","","791.6000000089407","","","24","14974","6148","n","elianto","#3366ff99"," "," ","1","+10","[1642]","1","2","","","14974","120","9","1","win","go","0"
"pit-trial","239","1445848","0.0-125.0","battery-v0.2","","""event"",""trial"",""time""
""fullscreenenter"",""1"",""2772""
","
","
","""event"",""trial"",""time""
""fullscreenenter"",""1"",""2772""
","
","","","867.2999999970198","","","24","14974","6148","f","elianto","#3366ff99"," "," ","1","+10","[1718.4000000059605]","1","2","","","14974","121","8","1","win","go","0"
"pit-trial","240","1449405","0.0-126.0","battery-v0.2","","""event"",""trial"",""time""
""fullscreenenter"",""1"",""2772""
","
","
","""event"",""trial"",""time""
""fullscreenenter"",""1"",""2772""
","
","","","702.4000000059605","","","24","14974","6148","n","elianto","#3366ff99"," "," ","1","+10","[1554]","1","2","","","14974","122","9","1","win","go","0"
"pit-trial","241","1453124","0.0-127.0","battery-v0.2","","""event"",""trial"",""time""
""fullscreenenter"",""1"",""2772""
","
","
","""event"",""trial"",""time""
""fullscreenenter"",""1"",""2772""
","
","","","865.3000000119209","","","24","14974","6148","b","elianto","#f73b6a7A"," "," ","1","0","[1715.7000000029802]","1","2","","","14974","123","6","3","lose","go","0"
"pit-trial","242","1457980","0.0-128.0","battery-v0.2","","""event"",""trial"",""time""
""fullscreenenter"",""1"",""2772""
","
","
","""event"",""trial"",""time""
""fullscreenenter"",""1"",""2772""
","
","","","-1","","","24","14974","6148","t","elianto","#f73b6a7A","-1","-1","1","0","[]","0","2","","","14974","124","7","4","lose","no-go","0"
"pit-trial","243","1462835","0.0-129.0","battery-v0.2","","""event"",""trial"",""time""
""fullscreenenter"",""1"",""2772""
","
","
","""event"",""trial"",""time""
""fullscreenenter"",""1"",""2772""
","
","","","-1","","","24","14974","6148","t","elianto","#f73b6a7A","-1","-1","1","0","[]","0","2","","","14974","125","7","4","lose","no-go","0"
"pit-trial","244","1466667","0.0-130.0","battery-v0.2","","""event"",""trial"",""time""
""fullscreenenter"",""1"",""2772""
","
","
","""event"",""trial"",""time""
""fullscreenenter"",""1"",""2772""
","
","","","978.8999999910593","","","24","14974","6148","n","elianto","#3366ff99"," "," ","1","0","[1829.2999999970198]","1","2","","","14974","126","9","1","win","go","1"
"pit-trial","245","1470235","0.0-131.0","battery-v0.2","","""event"",""trial"",""time""
""fullscreenenter"",""1"",""2772""
","
","
","""event"",""trial"",""time""
""fullscreenenter"",""1"",""2772""
","
","","","713.1999999880791","","","24","14974","6148","f","elianto","#3366ff99"," "," ","1","+10","[1564.199999988079]","1","2","","","14974","127","8","1","win","go","0"
"pit-trial","246","1473909","0.0-132.0","battery-v0.2","","""event"",""trial"",""time""
""fullscreenenter"",""1"",""2772""
","
","
","""event"",""trial"",""time""
""fullscreenenter"",""1"",""2772""
","
","","","819.2000000029802","","","24","14974","6148","b","elianto","#f73b6a7A"," "," ","1","0","[1671.0999999940395]","1","2","","","14974","128","6","3","lose","go","0"
"pit-trial","247","1478765","0.0-133.0","battery-v0.2","","""event"",""trial"",""time""
""fullscreenenter"",""1"",""2772""
","
","
","""event"",""trial"",""time""
""fullscreenenter"",""1"",""2772""
","
","","","-1","","","24","14974","6148","t","elianto","#f73b6a7A","-1","-1","1","0","[]","0","2","","","14974","129","7","4","lose","no-go","0"
"pit-trial","248","1482380","0.0-134.0","battery-v0.2","","""event"",""trial"",""time""
""fullscreenenter"",""1"",""2772""
","
","
","""event"",""trial"",""time""
""fullscreenenter"",""1"",""2772""
","
","","","761.5","","","24","14974","6148","f","elianto","#3366ff99"," "," ","1","0","[1611.8999999910593]","1","2","","","14974","130","8","1","win","go","1"
"pit-trial","249","1485989","0.0-135.0","battery-v0.2","","""event"",""trial"",""time""
""fullscreenenter"",""1"",""2772""
","
","
","""event"",""trial"",""time""
""fullscreenenter"",""1"",""2772""
","
","","","755.0999999940395","","","24","14974","6148","b","elianto","#f73b6a7A"," "," ","1","0","[1606.2000000029802]","1","2","","","14974","131","6","3","lose","go","0"
"pit-trial","250","1489693","0.0-136.0","battery-v0.2","","""event"",""trial"",""time""
""fullscreenenter"",""1"",""2772""
","
","
","""event"",""trial"",""time""
""fullscreenenter"",""1"",""2772""
","
","","","850.6999999880791","","","24","14974","6148","n","elianto","#3366ff99"," "," ","1","0","[1701.5999999940395]","1","2","","","14974","132","9","1","win","go","1"
"pit-trial","251","1494549","0.0-137.0","battery-v0.2","","""event"",""trial"",""time""
""fullscreenenter"",""1"",""2772""
","
","
","""event"",""trial"",""time""
""fullscreenenter"",""1"",""2772""
","
","","","-1","","","24","14974","6148","t","elianto","#f73b6a7A","-1","-1","1","0","[]","0","2","","","14974","133","7","4","lose","no-go","0"
"pit-trial","252","1498123","0.0-138.0","battery-v0.2","","""event"",""trial"",""time""
""fullscreenenter"",""1"",""2772""
","
","
","""event"",""trial"",""time""
""fullscreenenter"",""1"",""2772""
","
","","","719.5","","","24","14974","6148","f","elianto","#3366ff99"," "," ","1","+10","[1571.5]","1","2","","","14974","134","8","1","win","go","0"
"pit-trial","253","1501824","0.0-139.0","battery-v0.2","","""event"",""trial"",""time""
""fullscreenenter"",""1"",""2772""
","
","
","""event"",""trial"",""time""
""fullscreenenter"",""1"",""2772""
","
","","","846.2000000029802","","","24","14974","6148","b","elianto","#f73b6a7A"," "," ","1","0","[1697]","1","2","","","14974","135","6","3","lose","go","0"
"pit-trial","254","1505543","0.0-140.0","battery-v0.2","","""event"",""trial"",""time""
""fullscreenenter"",""1"",""2772""
","
","
","""event"",""trial"",""time""
""fullscreenenter"",""1"",""2772""
","
","","","864.5999999940395","","","24","14974","6148","n","elianto","#3366ff99"," "," ","1","0","[1715.4000000059605]","1","2","","","14974","136","9","1","win","go","1"
"pit-trial","255","1509054","0.0-141.0","battery-v0.2","","""event"",""trial"",""time""
""fullscreenenter"",""1"",""2772""
","
","
","""event"",""trial"",""time""
""fullscreenenter"",""1"",""2772""
","
","","","655.3999999910593","","","24","14974","6148","f","elianto","#3366ff99"," "," ","1","+10","[1508.199999988079]","1","2","","","14974","137","8","1","win","go","0"
"pit-trial","256","1512667","0.0-142.0","battery-v0.2","","""event"",""trial"",""time""
""fullscreenenter"",""1"",""2772""
","
","
","""event"",""trial"",""time""
""fullscreenenter"",""1"",""2772""
","
","","","757.6000000089407","","","24","14974","6148","b","elianto","#f73b6a7A"," "," ","1","0","[1609]","1","2","","","14974","138","6","3","lose","go","0"
"pit-trial","257","1517523","0.0-143.0","battery-v0.2","","""event"",""trial"",""time""
""fullscreenenter"",""1"",""2772""
","
","
","""event"",""trial"",""time""
""fullscreenenter"",""1"",""2772""
","
","","","-1","","","24","14974","6148","t","elianto","#f73b6a7A","-1","-1","1","0","[]","0","2","","","14974","139","7","4","lose","no-go","0"
"pit-trial","258","1521387","0.0-144.0","battery-v0.2","","""event"",""trial"",""time""
""fullscreenenter"",""1"",""2772""
","
","
","""event"",""trial"",""time""
""fullscreenenter"",""1"",""2772""
","
","","","1009.7999999970198","","","24","14974","6148","n","elianto","#3366ff99"," "," ","1","+10","[1861.7000000029802]","1","2","","","14974","140","9","1","win","go","0"
"pit-instructions","259","1689977","0.0-145.0","battery-v0.2","","""event"",""trial"",""time""
""fullscreenenter"",""1"",""2772""
","
","
","""event"",""trial"",""time""
""fullscreenenter"",""1"",""2772""
","
","","[{""page_index"":0,""viewing_time"":159880},{""page_index"":1,""viewing_time"":8705.800000011921}]","168586.09999999404","","","","","","","","","","","","","","","","","","","","","","","",""
"pit-trial","260","1693806","0.0-146.0","battery-v0.2","","""event"",""trial"",""time""
""fullscreenenter"",""1"",""2772""
","
","
","""event"",""trial"",""time""
""fullscreenenter"",""1"",""2772""
","
","","","972.3000000119209","","","24","14974","6148","e","elianto","#f73b6a7A","-1"," ","0","-10","[1822.4000000059605]","1","3","","","14974","141","2","4","lose","no-go","0"
"pit-trial","261","1698277","0.0-147.0","battery-v0.2","","""event"",""trial"",""time""
""fullscreenenter"",""1"",""2772""
","
","
","""event"",""trial"",""time""
""fullscreenenter"",""1"",""2772""
","
","","","1617.5","","","24","14974","6148","w","elianto","#f73b6a7A"," "," ","1","0","[2468.800000011921]","1","3","","","14974","142","3","3","lose","go","0"
"pit-trial","262","1702278","0.0-148.0","battery-v0.2","","""event"",""trial"",""time""
""fullscreenenter"",""1"",""2772""
","
","
","""event"",""trial"",""time""
""fullscreenenter"",""1"",""2772""
","
","","","1146.4000000059605","","","24","14974","6148","d","elianto","#3366ff99"," "," ","1","0","[1996.699999988079]","1","3","","","14974","143","1","1","win","go","1"
"pit-trial","263","1706187","0.0-149.0","battery-v0.2","","""event"",""trial"",""time""
""fullscreenenter"",""1"",""2772""
","
","
","""event"",""trial"",""time""
""fullscreenenter"",""1"",""2772""
","
","","","1054.5","","","24","14974","6148","j","elianto","#f73b6a7A","-1"," ","0","0","[1905]","1","3","","","14974","144","0","4","lose","no-go","1"
"pit-trial","264","1711042","0.0-150.0","battery-v0.2","","""event"",""trial"",""time""
""fullscreenenter"",""1"",""2772""
","
","
","""event"",""trial"",""time""
""fullscreenenter"",""1"",""2772""
","
","","","-1","","","24","14974","6148","d","elianto","#3366ff99"," ","-1","0","0","[]","0","3","","","14974","145","1","1","win","go","0"
"pit-trial","265","1715897","0.0-151.0","battery-v0.2","","""event"",""trial"",""time""
""fullscreenenter"",""1"",""2772""
","
","
","""event"",""trial"",""time""
""fullscreenenter"",""1"",""2772""
","
","","","-1","","","24","14974","6148","e","elianto","#f73b6a7A","-1","-1","1","0","[]","0","3","","","14974","146","2","4","lose","no-go","0"
"pit-trial","266","1719969","0.0-152.0","battery-v0.2","","""event"",""trial"",""time""
""fullscreenenter"",""1"",""2772""
","
","
","""event"",""trial"",""time""
""fullscreenenter"",""1"",""2772""
","
