"trial_type","trial_index","time_elapsed","internal_node_id","task_version","subject_id","interactions","blur_events","focus_events","fullscreenenter_events","fullscreenexit_events","success","view_history","rt","responses","num_errors","age","subject","participantId","rune","rune_set","hex","correct","choice","accuracy","outcome","keys","total_keys","block","practice","value","sub","trial","stimulus","robot","valence","action","sham"
"pavlovia","0","6","0.0-0.0","battery-v0.2","","""event"",""trial"",""time""
""fullscreenenter"",""1"",""1579""
","
","
","""event"",""trial"",""time""
""fullscreenenter"",""1"",""1579""
","
","","","","","","","","","","","","","","","","","","","","","","","","","","",""
"fullscreen","1","2565","0.0-1.0","battery-v0.2","","""event"",""trial"",""time""
""fullscreenenter"",""1"",""1579""
","
","
","""event"",""trial"",""time""
""fullscreenenter"",""1"",""1579""
","
","true","","","","","","","","","","","","","","","","","","","","","","","","","",""
"pit-instructions","2","6431","0.0-2.0-0.0","battery-v0.2","","""event"",""trial"",""time""
""fullscreenenter"",""1"",""1579""
""fullscreenexit"",""3"",""13000""
","
","
","""event"",""trial"",""time""
""fullscreenenter"",""1"",""1579""
","""event"",""trial"",""time""
""fullscreenexit"",""3"",""13000""
","","[{""page_index"":0,""viewing_time"":3860.899999999907}]","3861.5999999996275","","","","","","","","","","","","","","","","","","","","","","","",""
"pit-comprehension","3","43387","0.0-2.0-1.0-0.0","battery-v0.2","","""event"",""trial"",""time""
""fullscreenenter"",""1"",""1579""
""fullscreenexit"",""3"",""13000""
","
","
","""event"",""trial"",""time""
""fullscreenenter"",""1"",""1579""
","""event"",""trial"",""time""
""fullscreenexit"",""3"",""13000""
","","","36950.10000000009","[""shark""]","0","20","9814","4586","","","","","","","","","","","","","","","","","","",""
"pit-instructions","4","55783","0.0-2.0-1.0-1.0","battery-v0.2","","""event"",""trial"",""time""
""fullscreenenter"",""1"",""1579""
""fullscreenexit"",""3"",""13000""
","
","
","""event"",""trial"",""time""
""fullscreenenter"",""1"",""1579""
","""event"",""trial"",""time""
""fullscreenexit"",""3"",""13000""
","","[{""page_index"":0,""viewing_time"":12382.19999999972}]","12382.799999999814","","","","","","","","","","","","","","","","","","","","","","","",""
"pit-comprehension","5","58413","0.0-2.0-2.0-0.0","battery-v0.2","","""event"",""trial"",""time""
""fullscreenenter"",""1"",""1579""
""fullscreenexit"",""3"",""13000""
","
","
","""event"",""trial"",""time""
""fullscreenenter"",""1"",""1579""
","""event"",""trial"",""time""
""fullscreenexit"",""3"",""13000""
","","","2624.899999999907","[""tiger""]","0","20","9814","4586","","","","","","","","","","","","","","","","","","",""
"pit-instructions","6","59541","0.0-2.0-2.0-1.0","battery-v0.2","","""event"",""trial"",""time""
""fullscreenenter"",""1"",""1579""
""fullscreenexit"",""3"",""13000""
","
","
","""event"",""trial"",""time""
""fullscreenenter"",""1"",""1579""
","""event"",""trial"",""time""
""fullscreenexit"",""3"",""13000""
","","[{""page_index"":0,""viewing_time"":1123.2999999998137}]","1123.8999999999069","","","","","","","","","","","","","","","","","","","","","","","",""
"pit-instructions","7","176224","0.0-2.0-3.0","battery-v0.2","","""event"",""trial"",""time""
""fullscreenenter"",""1"",""1579""
""fullscreenexit"",""3"",""13000""
","
","
","""event"",""trial"",""time""
""fullscreenenter"",""1"",""1579""
","""event"",""trial"",""time""
""fullscreenexit"",""3"",""13000""
","","[{""page_index"":0,""viewing_time"":8307.700000000186},{""page_index"":1,""viewing_time"":10511.69999999972},{""page_index"":2,""viewing_time"":6519.4000000003725},{""page_index"":3,""viewing_time"":9373.799999999814},{""page_index"":4,""viewing_time"":5377.799999999814},{""page_index"":5,""viewing_time"":7685.100000000093},{""page_index"":6,""viewing_time"":7164.600000000093},{""page_index"":7,""viewing_time"":7591.5},{""page_index"":8,""viewing_time"":13973.200000000186},{""page_index"":9,""viewing_time"":9041.599999999627},{""page_index"":10,""viewing_time"":8532.80000000028},{""page_index"":11,""viewing_time"":9110.600000000093},{""page_index"":12,""viewing_time"":7312.399999999907},{""page_index"":13,""viewing_time"":6176}]","116678.80000000028","","","","","","","","","","","","","","","","","","","","","","","",""
"pit-trial","8","179677","0.0-2.0-4.0-0.0","battery-v0.2","","""event"",""trial"",""time""
""fullscreenenter"",""1"",""1579""
""fullscreenexit"",""3"",""13000""
","
","
","""event"",""trial"",""time""
""fullscreenenter"",""1"",""1579""
","""event"",""trial"",""time""
""fullscreenexit"",""3"",""13000""
","","","590.8000000002794","","","20","9814","4586","&#9784;","elianto","#FFFFF080"," "," ","1","&#10004","[1441.6000000000931]","1","0","0","","","","","","","",""
"pit-trial","9","183417","0.0-2.0-4.1-0.1","battery-v0.2","","""event"",""trial"",""time""
""fullscreenenter"",""1"",""1579""
""fullscreenexit"",""3"",""13000""
","
","
","""event"",""trial"",""time""
""fullscreenenter"",""1"",""1579""
","""event"",""trial"",""time""
""fullscreenexit"",""3"",""13000""
","","","874.3000000002794","","","20","9814","4586","&#9784;","elianto","#FFFFF080"," "," ","1","&#10004","[1725.2000000001863]","1","0","0","","","","","","","",""
"pit-trial","10","186759","0.0-2.0-4.2-0.2","battery-v0.2","","""event"",""trial"",""time""
""fullscreenenter"",""1"",""1579""
""fullscreenexit"",""3"",""13000""
","
","
","""event"",""trial"",""time""
""fullscreenenter"",""1"",""1579""
","""event"",""trial"",""time""
""fullscreenexit"",""3"",""13000""
","","","469.5","","","20","9814","4586","&#9784;","elianto","#FFFFF080"," "," ","1","&#10004","[1327.1999999997206]","1","0","0","","","","","","","",""
"pit-trial","11","190088","0.0-2.0-4.3-0.3","battery-v0.2","","""event"",""trial"",""time""
""fullscreenenter"",""1"",""1579""
""fullscreenexit"",""3"",""13000""
","
","
","""event"",""trial"",""time""
""fullscreenenter"",""1"",""1579""
","""event"",""trial"",""time""
""fullscreenexit"",""3"",""13000""
","","","463.89999999990687","","","20","9814","4586","&#9784;","elianto","#FFFFF080"," "," ","1","&#10004","[1315.1999999997206]","1","0","0","","","","","","","",""
"pit-trial","12","193432","0.0-2.0-4.4-0.4","battery-v0.2","","""event"",""trial"",""time""
""fullscreenenter"",""1"",""1579""
""fullscreenexit"",""3"",""13000""
","
","
","""event"",""trial"",""time""
""fullscreenenter"",""1"",""1579""
","""event"",""trial"",""time""
""fullscreenexit"",""3"",""13000""
","","","477.89999999990687","","","20","9814","4586","&#9784;","elianto","#FFFFF080"," "," ","1","&#10004","[1330.7000000001863]","1","0","0","","","","","","","",""
"pit-instructions","13","218972","0.0-2.0-5.0","battery-v0.2","","""event"",""trial"",""time""
""fullscreenenter"",""1"",""1579""
""fullscreenexit"",""3"",""13000""
","
","
","""event"",""trial"",""time""
""fullscreenenter"",""1"",""1579""
","""event"",""trial"",""time""
""fullscreenexit"",""3"",""13000""
","","[{""page_index"":0,""viewing_time"":5870.100000000093},{""page_index"":1,""viewing_time"":6369.600000000093},{""page_index"":2,""viewing_time"":7034.600000000093},{""page_index"":3,""viewing_time"":6260.100000000093}]","25535.100000000093","","","","","","","","","","","","","","","","","","","","","","","",""
"pit-trial","14","223836","0.0-2.0-6.0-0.0","battery-v0.2","","""event"",""trial"",""time""
""fullscreenenter"",""1"",""1579""
""fullscreenexit"",""3"",""13000""
","
","
","""event"",""trial"",""time""
""fullscreenenter"",""1"",""1579""
","""event"",""trial"",""time""
""fullscreenexit"",""3"",""13000""
","","","-1","","","20","9814","4586","&#9854;","elianto","#FFFFF080","-1","-1","1","&#10004","[]","0","0","1","","","","","","","",""
"pit-trial","15","228705","0.0-2.0-6.1-0.1","battery-v0.2","","""event"",""trial"",""time""
""fullscreenenter"",""1"",""1579""
""fullscreenexit"",""3"",""13000""
","
","
","""event"",""trial"",""time""
""fullscreenenter"",""1"",""1579""
","""event"",""trial"",""time""
""fullscreenexit"",""3"",""13000""
","","","-1","","","20","9814","4586","&#9854;","elianto","#FFFFF080","-1","-1","1","&#10004","[]","0","0","1","","","","","","","",""
"pit-trial","16","233577","0.0-2.0-6.2-0.2","battery-v0.2","","""event"",""trial"",""time""
""fullscreenenter"",""1"",""1579""
""fullscreenexit"",""3"",""13000""
","
","
","""event"",""trial"",""time""
""fullscreenenter"",""1"",""1579""
","""event"",""trial"",""time""
""fullscreenexit"",""3"",""13000""
","","","-1","","","20","9814","4586","&#9854;","elianto","#FFFFF080","-1","-1","1","&#10004","[]","0","0","1","","","","","","","",""
"pit-trial","17","238449","0.0-2.0-6.3-0.3","battery-v0.2","","""event"",""trial"",""time""
""fullscreenenter"",""1"",""1579""
""fullscreenexit"",""3"",""13000""
","
","
","""event"",""trial"",""time""
""fullscreenenter"",""1"",""1579""
","""event"",""trial"",""time""
""fullscreenexit"",""3"",""13000""
","","","-1","","","20","9814","4586","&#9854;","elianto","#FFFFF080","-1","-1","1","&#10004","[]","0","0","1","","","","","","","",""
"pit-trial","18","243320","0.0-2.0-6.4-0.4","battery-v0.2","","""event"",""trial"",""time""
""fullscreenenter"",""1"",""1579""
""fullscreenexit"",""3"",""13000""
","
","
","""event"",""trial"",""time""
""fullscreenenter"",""1"",""1579""
","""event"",""trial"",""time""
""fullscreenexit"",""3"",""13000""
","","","-1","","","20","9814","4586","&#9854;","elianto","#FFFFF080","-1","-1","1","&#10004","[]","0","0","1","","","","","","","",""
"pit-instructions","19","368484","0.0-2.0-7.0","battery-v0.2","","""event"",""trial"",""time""
""fullscreenenter"",""1"",""1579""
""fullscreenexit"",""3"",""13000""
","
","
","""event"",""trial"",""time""
""fullscreenenter"",""1"",""1579""
","""event"",""trial"",""time""
""fullscreenexit"",""3"",""13000""
","","[{""page_index"":0,""viewing_time"":7309.399999999907},{""page_index"":1,""viewing_time"":8278.700000000186},{""page_index"":2,""viewing_time"":8497.100000000093},{""page_index"":3,""viewing_time"":9975},{""page_index"":4,""viewing_time"":6056.899999999907},{""page_index"":5,""viewing_time"":6071.699999999721},{""page_index"":6,""viewing_time"":5855.100000000093},{""page_index"":7,""viewing_time"":8894},{""page_index"":8,""viewing_time"":7003.399999999907},{""page_index"":9,""viewing_time"":5693.9000000003725},{""page_index"":10,""viewing_time"":6184.399999999907},{""page_index"":11,""viewing_time"":4057},{""page_index"":12,""viewing_time"":6326.699999999721},{""page_index"":13,""viewing_time"":7338},{""page_index"":14,""viewing_time"":6429.300000000279},{""page_index"":15,""viewing_time"":7544.899999999907},{""page_index"":16,""viewing_time"":6107.100000000093},{""page_index"":17,""viewing_time"":7538}]","125161.20000000019","","","","","","","","","","","","","","","","","","","","","","","",""
"pit-trial","20","371896","0.0-2.0-8.0-0.0","battery-v0.2","","""event"",""trial"",""time""
""fullscreenenter"",""1"",""1579""
""fullscreenexit"",""3"",""13000""
","
","
","""event"",""trial"",""time""
""fullscreenenter"",""1"",""1579""
","""event"",""trial"",""time""
""fullscreenexit"",""3"",""13000""
","","","544.2999999998137","","","20","9814","4586","&#9776;","elianto","#3366ff99"," "," ","1","+10","[1398.5]","1","0","1","","","","","","","",""
"pit-trial","21","375382","0.0-2.0-8.0-1.0","battery-v0.2","","""event"",""trial"",""time""
""fullscreenenter"",""1"",""1579""
""fullscreenexit"",""3"",""13000""
","
","
","""event"",""trial"",""time""
""fullscreenenter"",""1"",""1579""
","""event"",""trial"",""time""
""fullscreenexit"",""3"",""13000""
","","","618.6000000000931","","","20","9814","4586","&#9776;","elianto","#3366ff99"," "," ","1","+10","[1477.1000000000931]","1","0","1","","","","","","","",""
"pit-trial","22","378833","0.0-2.0-8.0-2.0","battery-v0.2","","""event"",""trial"",""time""
""fullscreenenter"",""1"",""1579""
""fullscreenexit"",""3"",""13000""
","
","
","""event"",""trial"",""time""
""fullscreenenter"",""1"",""1579""
","""event"",""trial"",""time""
""fullscreenexit"",""3"",""13000""
","","","582","","","20","9814","4586","&#9776;","elianto","#3366ff99"," "," ","1","+10","[1434.3999999999069]","1","0","1","","","","","","","",""
"pit-trial","23","382219","0.0-2.0-8.0-3.0","battery-v0.2","","""event"",""trial"",""time""
""fullscreenenter"",""1"",""1579""
""fullscreenexit"",""3"",""13000""
","
","
","""event"",""trial"",""time""
""fullscreenenter"",""1"",""1579""
","""event"",""trial"",""time""
""fullscreenexit"",""3"",""13000""
","","","526.2000000001863","","","20","9814","4586","&#9776;","elianto","#3366ff99"," "," ","1","0","[1382.5]","1","0","1","","","","","","","",""
"pit-trial","24","385672","0.0-2.0-8.0-4.0","battery-v0.2","","""event"",""trial"",""time""
""fullscreenenter"",""1"",""1579""
""fullscreenexit"",""3"",""13000""
","
","
","""event"",""trial"",""time""
""fullscreenenter"",""1"",""1579""
","""event"",""trial"",""time""
""fullscreenexit"",""3"",""13000""
","","","588.8999999999069","","","20","9814","4586","&#9776;","elianto","#3366ff99"," "," ","1","+10","[1443.3999999999069]","1","0","1","","","","","","","",""
"pit-trial","25","389072","0.0-2.0-8.1-0.1","battery-v0.2","","""event"",""trial"",""time""
""fullscreenenter"",""1"",""1579""
""fullscreenexit"",""3"",""13000""
","
","
","""event"",""trial"",""time""
""fullscreenenter"",""1"",""1579""
","""event"",""trial"",""time""
""fullscreenexit"",""3"",""13000""
","","","534.5","","","20","9814","4586","&#9776;","elianto","#3366ff99"," "," ","1","+10","[1385.5]","1","0","1","","","","","","","",""
"pit-trial","26","392609","0.0-2.0-8.1-1.1","battery-v0.2","","""event"",""trial"",""time""
""fullscreenenter"",""1"",""1579""
""fullscreenexit"",""3"",""13000""
","
","
","""event"",""trial"",""time""
""fullscreenenter"",""1"",""1579""
","""event"",""trial"",""time""
""fullscreenexit"",""3"",""13000""
","","","674.8999999999069","","","20","9814","4586","&#9776;","elianto","#3366ff99"," "," ","1","+10","[1526.7000000001863]","1","0","1","","","","","","","",""
"pit-trial","27","396342","0.0-2.0-8.1-2.1","battery-v0.2","","""event"",""trial"",""time""
""fullscreenenter"",""1"",""1579""
""fullscreenexit"",""3"",""13000""
","
","
","""event"",""trial"",""time""
""fullscreenenter"",""1"",""1579""
","""event"",""trial"",""time""
""fullscreenexit"",""3"",""13000""
","","","862.3000000002794","","","20","9814","4586","&#9776;","elianto","#3366ff99"," "," ","1","+10","[1720.2000000001863]","1","0","1","","","","","","","",""
"pit-trial","28","399704","0.0-2.0-8.1-3.1","battery-v0.2","","""event"",""trial"",""time""
""fullscreenenter"",""1"",""1579""
""fullscreenexit"",""3"",""13000""
","
","
","""event"",""trial"",""time""
""fullscreenenter"",""1"",""1579""
","""event"",""trial"",""time""
""fullscreenexit"",""3"",""13000""
","","","485.10000000009313","","","20","9814","4586","&#9776;","elianto","#3366ff99"," "," ","1","0","[1345.6000000000931]","1","0","1","","","","","","","",""
"pit-trial","29","403044","0.0-2.0-8.1-4.1","battery-v0.2","","""event"",""trial"",""time""
""fullscreenenter"",""1"",""1579""
""fullscreenexit"",""3"",""13000""
","
","
","""event"",""trial"",""time""
""fullscreenenter"",""1"",""1579""
","""event"",""trial"",""time""
""fullscreenexit"",""3"",""13000""
","","","476.39999999990687","","","20","9814","4586","&#9776;","elianto","#3366ff99"," "," ","1","+10","[1328.1999999997206]","1","0","1","","","","","","","",""
"pit-trial","30","406439","0.0-2.0-8.2-0.2","battery-v0.2","","""event"",""trial"",""time""
""fullscreenenter"",""1"",""1579""
""fullscreenexit"",""3"",""13000""
","
","
","""event"",""trial"",""time""
""fullscreenenter"",""1"",""1579""
","""event"",""trial"",""time""
""fullscreenexit"",""3"",""13000""
","","","531.3000000002794","","","20","9814","4586","&#9776;","elianto","#3366ff99"," "," ","1","+10","[1384.8999999999069]","1","0","1","","","","","","","",""
"pit-trial","31","409742","0.0-2.0-8.2-1.2","battery-v0.2","","""event"",""trial"",""time""
""fullscreenenter"",""1"",""1579""
""fullscreenexit"",""3"",""13000""
","
","
","""event"",""trial"",""time""
""fullscreenenter"",""1"",""1579""
","""event"",""trial"",""time""
""fullscreenexit"",""3"",""13000""
","","","436.39999999990687","","","20","9814","4586","&#9776;","elianto","#3366ff99"," "," ","1","+10","[1294.8999999999069]","1","0","1","","","","","","","",""
"pit-trial","32","413223","0.0-2.0-8.2-2.2","battery-v0.2","","""event"",""trial"",""time""
""fullscreenenter"",""1"",""1579""
""fullscreenexit"",""3"",""13000""
","
","
","""event"",""trial"",""time""
""fullscreenenter"",""1"",""1579""
","""event"",""trial"",""time""
""fullscreenexit"",""3"",""13000""
","","","609.2000000001863","","","20","9814","4586","&#9776;","elianto","#3366ff99"," "," ","1","+10","[1469]","1","0","1","","","","","","","",""
"pit-trial","33","416623","0.0-2.0-8.2-3.2","battery-v0.2","","""event"",""trial"",""time""
""fullscreenenter"",""1"",""1579""
""fullscreenexit"",""3"",""13000""
","
","
","""event"",""trial"",""time""
""fullscreenenter"",""1"",""1579""
","""event"",""trial"",""time""
""fullscreenexit"",""3"",""13000""
","","","539.1999999997206","","","20","9814","4586","&#9776;","elianto","#3366ff99"," "," ","1","0","[1389.7999999998137]","1","0","1","","","","","","","",""
"pit-trial","34","419608","0.0-2.0-8.2-4.2","battery-v0.2","","""event"",""trial"",""time""
""fullscreenenter"",""1"",""1579""
""fullscreenexit"",""3"",""13000""
","
","
","""event"",""trial"",""time""
""fullscreenenter"",""1"",""1579""
","""event"",""trial"",""time""
""fullscreenexit"",""3"",""13000""
","","","120.59999999962747","","","20","9814","4586","&#9776;","elianto","#3366ff99"," "," ","1","+10","[970.6999999997206]","1","0","1","","","","","","","",""
"call-function","35","419611","0.0-2.0-9.0","battery-v0.2","","""event"",""trial"",""time""
""fullscreenenter"",""1"",""1579""
""fullscreenexit"",""3"",""13000""
","
","
","""event"",""trial"",""time""
""fullscreenenter"",""1"",""1579""
","""event"",""trial"",""time""
""fullscreenexit"",""3"",""13000""
","","","","","","","","","","","","","","","","","","","","","","","","","","",""
"pit-instructions","36","467728","0.0-2.0-10.0","battery-v0.2","","""event"",""trial"",""time""
""fullscreenenter"",""1"",""1579""
""fullscreenexit"",""3"",""13000""
","
","
","""event"",""trial"",""time""
""fullscreenenter"",""1"",""1579""
","""event"",""trial"",""time""
""fullscreenexit"",""3"",""13000""
","","[{""page_index"":0,""viewing_time"":7971.700000000186},{""page_index"":1,""viewing_time"":7203.399999999907},{""page_index"":2,""viewing_time"":12493.799999999814},{""page_index"":3,""viewing_time"":12955.600000000093},{""page_index"":4,""viewing_time"":7490.700000000186}]","48115.89999999991","","","","","","","","","","","","","","","","","","","","","","","",""
"pit-trial","37","471124","0.0-2.0-11.0-0.0","battery-v0.2","","""event"",""trial"",""time""
""fullscreenenter"",""1"",""1579""
""fullscreenexit"",""3"",""13000""
","
","
","""event"",""trial"",""time""
""fullscreenenter"",""1"",""1579""
","""event"",""trial"",""time""
""fullscreenexit"",""3"",""13000""
","","","526.1999999997206","","","20","9814","4586","&#9761;","elianto","#3366ff99","-1"," ","0","0","[1384.5999999996275]","1","0","2","","","","","","","",""
"pit-trial","38","474484","0.0-2.0-11.0-1.0","battery-v0.2","","""event"",""trial"",""time""
""fullscreenenter"",""1"",""1579""
""fullscreenexit"",""3"",""13000""
","
","
","""event"",""trial"",""time""
""fullscreenenter"",""1"",""1579""
","""event"",""trial"",""time""
""fullscreenexit"",""3"",""13000""
","","","497.20000000018626","","","20","9814","4586","&#9761;","elianto","#3366ff99","-1"," ","0","0","[1347.6000000000931]","1","0","2","","","","","","","",""
"pit-trial","39","477864","0.0-2.0-11.0-2.0","battery-v0.2","","""event"",""trial"",""time""
""fullscreenenter"",""1"",""1579""
""fullscreenexit"",""3"",""13000""
","
","
","""event"",""trial"",""time""
""fullscreenenter"",""1"",""1579""
","""event"",""trial"",""time""
""fullscreenexit"",""3"",""13000""
","","","508.79999999981374","","","20","9814","4586","&#9761;","elianto","#3366ff99","-1"," ","0","0","[1363.2999999998137]","1","0","2","","","","","","","",""
"pit-trial","40","481200","0.0-2.0-11.0-3.0","battery-v0.2","","""event"",""trial"",""time""
""fullscreenenter"",""1"",""1579""
""fullscreenexit"",""3"",""13000""
","
","
","""event"",""trial"",""time""
""fullscreenenter"",""1"",""1579""
","""event"",""trial"",""time""
""fullscreenexit"",""3"",""13000""
","","","461.89999999990687","","","20","9814","4586","&#9761;","elianto","#3366ff99","-1"," ","0","+10","[1320.1999999997206]","1","0","2","","","","","","","",""
"pit-trial","41","484775","0.0-2.0-11.0-4.0","battery-v0.2","","""event"",""trial"",""time""
""fullscreenenter"",""1"",""1579""
""fullscreenexit"",""3"",""13000""
","
","
","""event"",""trial"",""time""
""fullscreenenter"",""1"",""1579""
","""event"",""trial"",""time""
""fullscreenexit"",""3"",""13000""
","","","705.7999999998137","","","20","9814","4586","&#9761;","elianto","#3366ff99","-1"," ","0","0","[1562]","1","0","2","","","","","","","",""
"pit-trial","42","488112","0.0-2.0-11.1-0.1","battery-v0.2","","""event"",""trial"",""time""
""fullscreenenter"",""1"",""1579""
""fullscreenexit"",""3"",""13000""
","
","
","""event"",""trial"",""time""
""fullscreenenter"",""1"",""1579""
","""event"",""trial"",""time""
""fullscreenexit"",""3"",""13000""
","","","466.29999999981374","","","20","9814","4586","&#9761;","elianto","#3366ff99","-1"," ","0","0","[1325.1000000000931]","1","0","2","","","","","","","",""
"pit-trial","43","491431","0.0-2.0-11.1-1.1","battery-v0.2","","""event"",""trial"",""time""
""fullscreenenter"",""1"",""1579""
""fullscreenexit"",""3"",""13000""
","
","
","""event"",""trial"",""time""
""fullscreenenter"",""1"",""1579""
","""event"",""trial"",""time""
""fullscreenexit"",""3"",""13000""
","","","447.29999999981374","","","20","9814","4586","&#9761;","elianto","#3366ff99","-1"," ","0","0","[1304.9000000003725]","1","0","2","","","","","","","",""
"pit-trial","44","494503","0.0-2.0-11.1-2.1","battery-v0.2","","""event"",""trial"",""time""
""fullscreenenter"",""1"",""1579""
""fullscreenexit"",""3"",""13000""
","
","
","""event"",""trial"",""time""
""fullscreenenter"",""1"",""1579""
","""event"",""trial"",""time""
""fullscreenexit"",""3"",""13000""
","","","201.29999999981374","","","20","9814","4586","&#9761;","elianto","#3366ff99","-1"," ","0","0","[1058.6999999997206]","1","0","2","","","","","","","",""
"pit-trial","45","497797","0.0-2.0-11.1-3.1","battery-v0.2","","""event"",""trial"",""time""
""fullscreenenter"",""1"",""1579""
""fullscreenexit"",""3"",""13000""
","
","
","""event"",""trial"",""time""
""fullscreenenter"",""1"",""1579""
","""event"",""trial"",""time""
""fullscreenexit"",""3"",""13000""
","","","431","","","20","9814","4586","&#9761;","elianto","#3366ff99","-1"," ","0","+10","[1281.1999999997206]","1","0","2","","","","","","","",""
"pit-trial","46","500837","0.0-2.0-11.1-4.1","battery-v0.2","","""event"",""trial"",""time""
""fullscreenenter"",""1"",""1579""
""fullscreenexit"",""3"",""13000""
","
","
","""event"",""trial"",""time""
""fullscreenenter"",""1"",""1579""
","""event"",""trial"",""time""
""fullscreenexit"",""3"",""13000""
","","","176.59999999962747","","","20","9814","4586","&#9761;","elianto","#3366ff99","-1"," ","0","0","[1030]","1","0","2","","","","","","","",""
"pit-trial","47","504291","0.0-2.0-11.2-0.2","battery-v0.2","","""event"",""trial"",""time""
""fullscreenenter"",""1"",""1579""
""fullscreenexit"",""3"",""13000""
","
","
","""event"",""trial"",""time""
""fullscreenenter"",""1"",""1579""
","""event"",""trial"",""time""
""fullscreenexit"",""3"",""13000""
","","","593.3999999999069","","","20","9814","4586","&#9761;","elianto","#3366ff99","-1"," ","0","0","[1443.5999999996275]","1","0","2","","","","","","","",""
"pit-trial","48","507551","0.0-2.0-11.2-1.2","battery-v0.2","","""event"",""trial"",""time""
""fullscreenenter"",""1"",""1579""
""fullscreenexit"",""3"",""13000""
","
","
","""event"",""trial"",""time""
""fullscreenenter"",""1"",""1579""
","""event"",""trial"",""time""
""fullscreenexit"",""3"",""13000""
","","","395.20000000018626","","","20","9814","4586","&#9761;","elianto","#3366ff99","-1"," ","0","0","[1249.5]","1","0","2","","","","","","","",""
"pit-trial","49","510813","0.0-2.0-11.2-2.2","battery-v0.2","","""event"",""trial"",""time""
""fullscreenenter"",""1"",""1579""
""fullscreenexit"",""3"",""13000""
","
","
","""event"",""trial"",""time""
""fullscreenenter"",""1"",""1579""
","""event"",""trial"",""time""
""fullscreenexit"",""3"",""13000""
","","","400.20000000018626","","","20","9814","4586","&#9761;","elianto","#3366ff99","-1"," ","0","0","[1255.1000000000931]","1","0","2","","","","","","","",""
"pit-trial","50","514792","0.0-2.0-11.2-3.2","battery-v0.2","","""event"",""trial"",""time""
""fullscreenenter"",""1"",""1579""
""fullscreenexit"",""3"",""13000""
","
","
","""event"",""trial"",""time""
""fullscreenenter"",""1"",""1579""
","""event"",""trial"",""time""
""fullscreenexit"",""3"",""13000""
","","","1113.6999999997206","","","20","9814","4586","&#9761;","elianto","#3366ff99","-1"," ","0","+10","[1965.7000000001863]","1","0","2","","","","","","","",""
"pit-trial","51","518056","0.0-2.0-11.2-4.2","battery-v0.2","","""event"",""trial"",""time""
""fullscreenenter"",""1"",""1579""
""fullscreenexit"",""3"",""13000""
","
","
","""event"",""trial"",""time""
""fullscreenenter"",""1"",""1579""
","""event"",""trial"",""time""
""fullscreenexit"",""3"",""13000""
","","","391.89999999990687","","","20","9814","4586","&#9761;","elianto","#3366ff99","-1"," ","0","0","[1250.5]","1","0","2","","","","","","","",""
"pit-trial","52","521088","0.0-2.0-11.3-0.3","battery-v0.2","","""event"",""trial"",""time""
""fullscreenenter"",""1"",""1579""
""fullscreenexit"",""3"",""13000""
","
","
","""event"",""trial"",""time""
""fullscreenenter"",""1"",""1579""
","""event"",""trial"",""time""
""fullscreenexit"",""3"",""13000""
","","","161.5","","","20","9814","4586","&#9761;","elianto","#3366ff99","-1"," ","0","0","[1018.7999999998137]","1","0","2","","","","","","","",""
"pit-trial","53","524248","0.0-2.0-11.3-1.3","battery-v0.2","","""event"",""trial"",""time""
""fullscreenenter"",""1"",""1579""
""fullscreenexit"",""3"",""13000""
","
","
","""event"",""trial"",""time""
""fullscreenenter"",""1"",""1579""
","""event"",""trial"",""time""
""fullscreenexit"",""3"",""13000""
","","","286.89999999990687","","","20","9814","4586","&#9761;","elianto","#3366ff99","-1"," ","0","0","[1144.7000000001863]","1","0","2","","","","","","","",""
"pit-trial","54","527448","0.0-2.0-11.3-2.3","battery-v0.2","","""event"",""trial"",""time""
""fullscreenenter"",""1"",""1579""
""fullscreenexit"",""3"",""13000""
","
","
","""event"",""trial"",""time""
""fullscreenenter"",""1"",""1579""
","""event"",""trial"",""time""
""fullscreenexit"",""3"",""13000""
","","","334.09999999962747","","","20","9814","4586","&#9761;","elianto","#3366ff99","-1"," ","0","0","[1190.3000000002794]","1","0","2","","","","","","","",""
"pit-trial","55","530552","0.0-2.0-11.3-3.3","battery-v0.2","","""event"",""trial"",""time""
""fullscreenenter"",""1"",""1579""
""fullscreenexit"",""3"",""13000""
","
","
","""event"",""trial"",""time""
""fullscreenenter"",""1"",""1579""
","""event"",""trial"",""time""
""fullscreenexit"",""3"",""13000""
","","","232","","","20","9814","4586","&#9761;","elianto","#3366ff99","-1"," ","0","+10","[1087.7000000001863]","1","0","2","","","","","","","",""
"pit-trial","56","533671","0.0-2.0-11.3-4.3","battery-v0.2","","""event"",""trial"",""time""
""fullscreenenter"",""1"",""1579""
""fullscreenexit"",""3"",""13000""
","
","
","""event"",""trial"",""time""
""fullscreenenter"",""1"",""1579""
","""event"",""trial"",""time""
""fullscreenexit"",""3"",""13000""
","","","258.8000000002794","","","20","9814","4586","&#9761;","elianto","#3366ff99","-1"," ","0","0","[1109.5]","1","0","2","","","","","","","",""
"call-function","57","533674","0.0-2.0-12.0","battery-v0.2","","""event"",""trial"",""time""
""fullscreenenter"",""1"",""1579""
""fullscreenexit"",""3"",""13000""
","
","
","""event"",""trial"",""time""
""fullscreenenter"",""1"",""1579""
","""event"",""trial"",""time""
""fullscreenexit"",""3"",""13000""
","","","","","","","","","","","","","","","","","","","","","","","","","","",""
"pit-instructions","58","573360","0.0-2.0-13.0","battery-v0.2","","""event"",""trial"",""time""
""fullscreenenter"",""1"",""1579""
""fullscreenexit"",""3"",""13000""
","
","
","""event"",""trial"",""time""
""fullscreenenter"",""1"",""1579""
","""event"",""trial"",""time""
""fullscreenexit"",""3"",""13000""
","","[{""page_index"":0,""viewing_time"":6496.4000000003725},{""page_index"":1,""viewing_time"":9377.799999999814},{""page_index"":2,""viewing_time"":7048.700000000186},{""page_index"":3,""viewing_time"":10205.19999999972},{""page_index"":4,""viewing_time"":6556}]","39684.80000000028","","","","","","","","","","","","","","","","","","","","","","","",""
"pit-trial","59","578232","0.0-2.0-14.0-0.0","battery-v0.2","","""event"",""trial"",""time""
""fullscreenenter"",""1"",""1579""
""fullscreenexit"",""3"",""13000""
","
","
","""event"",""trial"",""time""
""fullscreenenter"",""1"",""1579""
","""event"",""trial"",""time""
""fullscreenexit"",""3"",""13000""
","","","-1","","","20","9814","4586","&#9826;","elianto","#f73b6a7A","-1","-1","1","0","[]","0","0","3","","","","","","","",""
"pit-trial","60","583104","0.0-2.0-14.0-1.0","battery-v0.2","","""event"",""trial"",""time""
""fullscreenenter"",""1"",""1579""
""fullscreenexit"",""3"",""13000""
","
","
","""event"",""trial"",""time""
""fullscreenenter"",""1"",""1579""
","""event"",""trial"",""time""
""fullscreenexit"",""3"",""13000""
","","","-1","","","20","9814","4586","&#9826;","elianto","#f73b6a7A","-1","-1","1","0","[]","0","0","3","","","","","","","",""
"pit-trial","61","586995","0.0-2.0-14.0-2.0","battery-v0.2","","""event"",""trial"",""time""
""fullscreenenter"",""1"",""1579""
""fullscreenexit"",""3"",""13000""
","
","
","""event"",""trial"",""time""
""fullscreenenter"",""1"",""1579""
","""event"",""trial"",""time""
""fullscreenexit"",""3"",""13000""
","","","1030","","","20","9814","4586","&#9826;","elianto","#f73b6a7A","-1"," ","0","-10","[1881.1000000000931]","1","0","3","","","","","","","",""
"pit-trial","62","591861","0.0-2.0-14.0-3.0","battery-v0.2","","""event"",""trial"",""time""
""fullscreenenter"",""1"",""1579""
""fullscreenexit"",""3"",""13000""
","
","
","""event"",""trial"",""time""
""fullscreenenter"",""1"",""1579""
","""event"",""trial"",""time""
""fullscreenexit"",""3"",""13000""
","","","-1","","","20","9814","4586","&#9826;","elianto","#f73b6a7A","-1","-1","1","-10","[]","0","0","3","","","","","","","",""
"pit-trial","63","596727","0.0-2.0-14.0-4.0","battery-v0.2","","""event"",""trial"",""time""
""fullscreenenter"",""1"",""1579""
""fullscreenexit"",""3"",""13000""
","
","
","""event"",""trial"",""time""
""fullscreenenter"",""1"",""1579""
","""event"",""trial"",""time""
""fullscreenexit"",""3"",""13000""
","","","-1","","","20","9814","4586","&#9826;","elianto","#f73b6a7A","-1","-1","1","0","[]","0","0","3","","","","","","","",""
"pit-trial","64","601600","0.0-2.0-14.1-0.1","battery-v0.2","","""event"",""trial"",""time""
""fullscreenenter"",""1"",""1579""
""fullscreenexit"",""3"",""13000""
","
","
","""event"",""trial"",""time""
""fullscreenenter"",""1"",""1579""
","""event"",""trial"",""time""
""fullscreenexit"",""3"",""13000""
","","","-1","","","20","9814","4586","&#9826;","elianto","#f73b6a7A","-1","-1","1","0","[]","0","0","3","","","","","","","",""
"pit-trial","65","606470","0.0-2.0-14.1-1.1","battery-v0.2","","""event"",""trial"",""time""
""fullscreenenter"",""1"",""1579""
""fullscreenexit"",""3"",""13000""
","
","
","""event"",""trial"",""time""
""fullscreenenter"",""1"",""1579""
","""event"",""trial"",""time""
""fullscreenexit"",""3"",""13000""
","","","-1","","","20","9814","4586","&#9826;","elianto","#f73b6a7A","-1","-1","1","0","[]","0","0","3","","","","","","","",""
"pit-trial","66","611342","0.0-2.0-14.1-2.1","battery-v0.2","","""event"",""trial"",""time""
""fullscreenenter"",""1"",""1579""
""fullscreenexit"",""3"",""13000""
","
","
","""event"",""trial"",""time""
""fullscreenenter"",""1"",""1579""
","""event"",""trial"",""time""
""fullscreenexit"",""3"",""13000""
","","","-1","","","20","9814","4586","&#9826;","elianto","#f73b6a7A","-1","-1","1","0","[]","0","0","3","","","","","","","",""
"pit-trial","67","616214","0.0-2.0-14.1-3.1","battery-v0.2","","""event"",""trial"",""time""
""fullscreenenter"",""1"",""1579""
""fullscreenexit"",""3"",""13000""
","
","
","""event"",""trial"",""time""
""fullscreenenter"",""1"",""1579""
","""event"",""trial"",""time""
""fullscreenexit"",""3"",""13000""
","","","-1","","","20","9814","4586","&#9826;","elianto","#f73b6a7A","-1","-1","1","-10","[]","0","0","3","","","","","","","",""
"pit-trial","68","621084","0.0-2.0-14.1-4.1","battery-v0.2","","""event"",""trial"",""time""
""fullscreenenter"",""1"",""1579""
""fullscreenexit"",""3"",""13000""
","
","
","""event"",""trial"",""time""
""fullscreenenter"",""1"",""1579""
","""event"",""trial"",""time""
""fullscreenexit"",""3"",""13000""
","","","-1","","","20","9814","4586","&#9826;","elianto","#f73b6a7A","-1","-1","1","0","[]","0","0","3","","","","","","","",""
"pit-trial","69","625951","0.0-2.0-14.2-0.2","battery-v0.2","","""event"",""trial"",""time""
""fullscreenenter"",""1"",""1579""
""fullscreenexit"",""3"",""13000""
","
","
","""event"",""trial"",""time""
""fullscreenenter"",""1"",""1579""
","""event"",""trial"",""time""
""fullscreenexit"",""3"",""13000""
","","","-1","","","20","9814","4586","&#9826;","elianto","#f73b6a7A","-1","-1","1","0","[]","0","0","3","","","","","","","",""
"pit-trial","70","630823","0.0-2.0-14.2-1.2","battery-v0.2","","""event"",""trial"",""time""
""fullscreenenter"",""1"",""1579""
""fullscreenexit"",""3"",""13000""
","
","
","""event"",""trial"",""time""
""fullscreenenter"",""1"",""1579""
","""event"",""trial"",""time""
""fullscreenexit"",""3"",""13000""
","","","-1","","","20","9814","4586","&#9826;","elianto","#f73b6a7A","-1","-1","1","0","[]","0","0","3","","","","","","","",""
"pit-trial","71","635696","0.0-2.0-14.2-2.2","battery-v0.2","","""event"",""trial"",""time""
""fullscreenenter"",""1"",""1579""
""fullscreenexit"",""3"",""13000""
","
","
","""event"",""trial"",""time""
""fullscreenenter"",""1"",""1579""
","""event"",""trial"",""time""
""fullscreenexit"",""3"",""13000""
","","","-1","","","20","9814","4586","&#9826;","elianto","#f73b6a7A","-1","-1","1","0","[]","0","0","3","","","","","","","",""
"pit-trial","72","640568","0.0-2.0-14.2-3.2","battery-v0.2","","""event"",""trial"",""time""
""fullscreenenter"",""1"",""1579""
""fullscreenexit"",""3"",""13000""
","
","
","""event"",""trial"",""time""
""fullscreenenter"",""1"",""1579""
","""event"",""trial"",""time""
""fullscreenexit"",""3"",""13000""
","","","-1","","","20","9814","4586","&#9826;","elianto","#f73b6a7A","-1","-1","1","-10","[]","0","0","3","","","","","","","",""
"pit-trial","73","644248","0.0-2.0-14.2-4.2","battery-v0.2","","""event"",""trial"",""time""
""fullscreenenter"",""1"",""1579""
""fullscreenexit"",""3"",""13000""
","
","
","""event"",""trial"",""time""
""fullscreenenter"",""1"",""1579""
","""event"",""trial"",""time""
""fullscreenexit"",""3"",""13000""
","","","814.8999999999069","","","20","9814","4586","&#9826;","elianto","#f73b6a7A","-1"," ","0","-10","[1667.2000000001863]","1","0","3","","","","","","","",""
"pit-trial","74","649120","0.0-2.0-14.3-0.3","battery-v0.2","","""event"",""trial"",""time""
""fullscreenenter"",""1"",""1579""
""fullscreenexit"",""3"",""13000""
","
","
","""event"",""trial"",""time""
""fullscreenenter"",""1"",""1579""
","""event"",""trial"",""time""
""fullscreenexit"",""3"",""13000""
","","","-1","","","20","9814","4586","&#9826;","elianto","#f73b6a7A","-1","-1","1","0","[]","0","0","3","","","","","","","",""
"pit-trial","75","653991","0.0-2.0-14.3-1.3","battery-v0.2","","""event"",""trial"",""time""
""fullscreenenter"",""1"",""1579""
""fullscreenexit"",""3"",""13000""
","
","
","""event"",""trial"",""time""
""fullscreenenter"",""1"",""1579""
","""event"",""trial"",""time""
""fullscreenexit"",""3"",""13000""
","","","-1","","","20","9814","4586","&#9826;","elianto","#f73b6a7A","-1","-1","1","0","[]","0","0","3","","","","","","","",""
"pit-trial","76","658860","0.0-2.0-14.3-2.3","battery-v0.2","","""event"",""trial"",""time""
""fullscreenenter"",""1"",""1579""
""fullscreenexit"",""3"",""13000""
","
","
","""event"",""trial"",""time""
""fullscreenenter"",""1"",""1579""
","""event"",""trial"",""time""
""fullscreenexit"",""3"",""13000""
","","","-1","","","20","9814","4586","&#9826;","elianto","#f73b6a7A","-1","-1","1","0","[]","0","0","3","","","","","","","",""
"pit-trial","77","663727","0.0-2.0-14.3-3.3","battery-v0.2","","""event"",""trial"",""time""
""fullscreenenter"",""1"",""1579""
""fullscreenexit"",""3"",""13000""
","
","
","""event"",""trial"",""time""
""fullscreenenter"",""1"",""1579""
","""event"",""trial"",""time""
""fullscreenexit"",""3"",""13000""
","","","-1","","","20","9814","4586","&#9826;","elianto","#f73b6a7A","-1","-1","1","-10","[]","0","0","3","","","","","","","",""
"pit-trial","78","668600","0.0-2.0-14.3-4.3","battery-v0.2","","""event"",""trial"",""time""
""fullscreenenter"",""1"",""1579""
""fullscreenexit"",""3"",""13000""
","
","
","""event"",""trial"",""time""
""fullscreenenter"",""1"",""1579""
","""event"",""trial"",""time""
""fullscreenexit"",""3"",""13000""
","","","-1","","","20","9814","4586","&#9826;","elianto","#f73b6a7A","-1","-1","1","0","[]","0","0","3","","","","","","","",""
"call-function","79","668603","0.0-2.0-15.0","battery-v0.2","","""event"",""trial"",""time""
""fullscreenenter"",""1"",""1579""
""fullscreenexit"",""3"",""13000""
","
","
","""event"",""trial"",""time""
""fullscreenenter"",""1"",""1579""
","""event"",""trial"",""time""
""fullscreenexit"",""3"",""13000""
","","","","","","","","","","","","","","","","","","","","","","","","","","",""
"pit-instructions","80","697463","0.0-2.0-16.0","battery-v0.2","","""event"",""trial"",""time""
""fullscreenenter"",""1"",""1579""
""fullscreenexit"",""3"",""13000""
","
","
","""event"",""trial"",""time""
""fullscreenenter"",""1"",""1579""
","""event"",""trial"",""time""
""fullscreenexit"",""3"",""13000""
","","[{""page_index"":0,""viewing_time"":7489.399999999907},{""page_index"":1,""viewing_time"":9614.799999999814},{""page_index"":2,""viewing_time"":5816.800000000279},{""page_index"":3,""viewing_time"":5937.399999999907}]","28859","","","","","","","","","","","","","","","","","","","","","","","",""
"pit-trial","81","702331","0.0-2.0-17.0-0.0","battery-v0.2","","""event"",""trial"",""time""
""fullscreenenter"",""1"",""1579""
""fullscreenexit"",""3"",""13000""
","
","
","""event"",""trial"",""time""
""fullscreenenter"",""1"",""1579""
","""event"",""trial"",""time""
""fullscreenexit"",""3"",""13000""
","","","-1","","","20","9814","4586","&#9789;","elianto","#f73b6a7A"," ","-1","0","-10","[]","0","0","4","","","","","","","",""
"pit-trial","82","707200","0.0-2.0-17.0-1.0","battery-v0.2","","""event"",""trial"",""time""
""fullscreenenter"",""1"",""1579""
""fullscreenexit"",""3"",""13000""
","
","
","""event"",""trial"",""time""
""fullscreenenter"",""1"",""1579""
","""event"",""trial"",""time""
""fullscreenexit"",""3"",""13000""
","","","-1","","","20","9814","4586","&#9789;","elianto","#f73b6a7A"," ","-1","0","-10","[]","0","0","4","","","","","","","",""
"pit-trial","83","712072","0.0-2.0-17.0-2.0","battery-v0.2","","""event"",""trial"",""time""
""fullscreenenter"",""1"",""1579""
""fullscreenexit"",""3"",""13000""
","
","
","""event"",""trial"",""time""
""fullscreenenter"",""1"",""1579""
","""event"",""trial"",""time""
""fullscreenexit"",""3"",""13000""
","","","-1","","","20","9814","4586","&#9789;","elianto","#f73b6a7A"," ","-1","0","-10","[]","0","0","4","","","","","","","",""
"pit-trial","84","716944","0.0-2.0-17.0-3.0","battery-v0.2","","""event"",""trial"",""time""
""fullscreenenter"",""1"",""1579""
""fullscreenexit"",""3"",""13000""
","
","
","""event"",""trial"",""time""
""fullscreenenter"",""1"",""1579""
","""event"",""trial"",""time""
""fullscreenexit"",""3"",""13000""
","","","-1","","","20","9814","4586","&#9789;","elianto","#f73b6a7A"," ","-1","0","0","[]","0","0","4","","","","","","","",""
"pit-trial","85","721815","0.0-2.0-17.0-4.0","battery-v0.2","","""event"",""trial"",""time""
""fullscreenenter"",""1"",""1579""
""fullscreenexit"",""3"",""13000""
","
","
","""event"",""trial"",""time""
""fullscreenenter"",""1"",""1579""
","""event"",""trial"",""time""
""fullscreenexit"",""3"",""13000""
","","","-1","","","20","9814","4586","&#9789;","elianto","#f73b6a7A"," ","-1","0","-10","[]","0","0","4","","","","","","","",""
"pit-trial","86","726683","0.0-2.0-17.1-0.1","battery-v0.2","","""event"",""trial"",""time""
""fullscreenenter"",""1"",""1579""
""fullscreenexit"",""3"",""13000""
","
","
","""event"",""trial"",""time""
""fullscreenenter"",""1"",""1579""
","""event"",""trial"",""time""
""fullscreenexit"",""3"",""13000""
","","","-1","","","20","9814","4586","&#9789;","elianto","#f73b6a7A"," ","-1","0","-10","[]","0","0","4","","","","","","","",""
"pit-trial","87","731551","0.0-2.0-17.1-1.1","battery-v0.2","","""event"",""trial"",""time""
""fullscreenenter"",""1"",""1579""
""fullscreenexit"",""3"",""13000""
","
","
","""event"",""trial"",""time""
""fullscreenenter"",""1"",""1579""
","""event"",""trial"",""time""
""fullscreenexit"",""3"",""13000""
","","","-1","","","20","9814","4586","&#9789;","elianto","#f73b6a7A"," ","-1","0","-10","[]","0","0","4","","","","","","","",""
"pit-trial","88","736422","0.0-2.0-17.1-2.1","battery-v0.2","","""event"",""trial"",""time""
""fullscreenenter"",""1"",""1579""
""fullscreenexit"",""3"",""13000""
","
","
","""event"",""trial"",""time""
""fullscreenenter"",""1"",""1579""
","""event"",""trial"",""time""
""fullscreenexit"",""3"",""13000""
","","","-1","","","20","9814","4586","&#9789;","elianto","#f73b6a7A"," ","-1","0","-10","[]","0","0","4","","","","","","","",""
"pit-trial","89","741295","0.0-2.0-17.1-3.1","battery-v0.2","","""event"",""trial"",""time""
""fullscreenenter"",""1"",""1579""
""fullscreenexit"",""3"",""13000""
","
","
","""event"",""trial"",""time""
""fullscreenenter"",""1"",""1579""
","""event"",""trial"",""time""
""fullscreenexit"",""3"",""13000""
","","","-1","","","20","9814","4586","&#9789;","elianto","#f73b6a7A"," ","-1","0","0","[]","0","0","4","","","","","","","",""
"pit-trial","90","746166","0.0-2.0-17.1-4.1","battery-v0.2","","""event"",""trial"",""time""
""fullscreenenter"",""1"",""1579""
""fullscreenexit"",""3"",""13000""
","
","
","""event"",""trial"",""time""
""fullscreenenter"",""1"",""1579""
","""event"",""trial"",""time""
""fullscreenexit"",""3"",""13000""
","","","-1","","","20","9814","4586","&#9789;","elianto","#f73b6a7A"," ","-1","0","-10","[]","0","0","4","","","","","","","",""
"pit-trial","91","751039","0.0-2.0-17.2-0.2","battery-v0.2","","""event"",""trial"",""time""
""fullscreenenter"",""1"",""1579""
""fullscreenexit"",""3"",""13000""
","
","
","""event"",""trial"",""time""
""fullscreenenter"",""1"",""1579""
","""event"",""trial"",""time""
""fullscreenexit"",""3"",""13000""
","","","-1","","","20","9814","4586","&#9789;","elianto","#f73b6a7A"," ","-1","0","-10","[]","0","0","4","","","","","","","",""
"pit-trial","92","755912","0.0-2.0-17.2-1.2","battery-v0.2","","""event"",""trial"",""time""
""fullscreenenter"",""1"",""1579""
""fullscreenexit"",""3"",""13000""
","
","
","""event"",""trial"",""time""
""fullscreenenter"",""1"",""1579""
","""event"",""trial"",""time""
""fullscreenexit"",""3"",""13000""
","","","-1","","","20","9814","4586","&#9789;","elianto","#f73b6a7A"," ","-1","0","-10","[]","0","0","4","","","","","","","",""
"pit-trial","93","760784","0.0-2.0-17.2-2.2","battery-v0.2","","""event"",""trial"",""time""
""fullscreenenter"",""1"",""1579""
""fullscreenexit"",""3"",""13000""
","
","
","""event"",""trial"",""time""
""fullscreenenter"",""1"",""1579""
","""event"",""trial"",""time""
""fullscreenexit"",""3"",""13000""
","","","-1","","","20","9814","4586","&#9789;","elianto","#f73b6a7A"," ","-1","0","-10","[]","0","0","4","","","","","","","",""
"pit-trial","94","765655","0.0-2.0-17.2-3.2","battery-v0.2","","""event"",""trial"",""time""
""fullscreenenter"",""1"",""1579""
""fullscreenexit"",""3"",""13000""
","
","
","""event"",""trial"",""time""
""fullscreenenter"",""1"",""1579""
","""event"",""trial"",""time""
""fullscreenexit"",""3"",""13000""
","","","-1","","","20","9814","4586","&#9789;","elianto","#f73b6a7A"," ","-1","0","0","[]","0","0","4","","","","","","","",""
"pit-trial","95","770527","0.0-2.0-17.2-4.2","battery-v0.2","","""event"",""trial"",""time""
""fullscreenenter"",""1"",""1579""
""fullscreenexit"",""3"",""13000""
","
","
","""event"",""trial"",""time""
""fullscreenenter"",""1"",""1579""
","""event"",""trial"",""time""
""fullscreenexit"",""3"",""13000""
","","","-1","","","20","9814","4586","&#9789;","elianto","#f73b6a7A"," ","-1","0","-10","[]","0","0","4","","","","","","","",""
"pit-trial","96","775399","0.0-2.0-17.3-0.3","battery-v0.2","","""event"",""trial"",""time""
""fullscreenenter"",""1"",""1579""
""fullscreenexit"",""3"",""13000""
","
","
","""event"",""trial"",""time""
""fullscreenenter"",""1"",""1579""
","""event"",""trial"",""time""
""fullscreenexit"",""3"",""13000""
","","","-1","","","20","9814","4586","&#9789;","elianto","#f73b6a7A"," ","-1","0","-10","[]","0","0","4","","","","","","","",""
"pit-trial","97","780271","0.0-2.0-17.3-1.3","battery-v0.2","","""event"",""trial"",""time""
""fullscreenenter"",""1"",""1579""
""fullscreenexit"",""3"",""13000""
","
","
","""event"",""trial"",""time""
""fullscreenenter"",""1"",""1579""
","""event"",""trial"",""time""
""fullscreenexit"",""3"",""13000""
","","","-1","","","20","9814","4586","&#9789;","elianto","#f73b6a7A"," ","-1","0","-10","[]","0","0","4","","","","","","","",""
"pit-trial","98","785142","0.0-2.0-17.3-2.3","battery-v0.2","","""event"",""trial"",""time""
""fullscreenenter"",""1"",""1579""
""fullscreenexit"",""3"",""13000""
","
","
","""event"",""trial"",""time""
""fullscreenenter"",""1"",""1579""
","""event"",""trial"",""time""
""fullscreenexit"",""3"",""13000""
","","","-1","","","20","9814","4586","&#9789;","elianto","#f73b6a7A"," ","-1","0","-10","[]","0","0","4","","","","","","","",""
"pit-trial","99","790015","0.0-2.0-17.3-3.3","battery-v0.2","","""event"",""trial"",""time""
""fullscreenenter"",""1"",""1579""
""fullscreenexit"",""3"",""13000""
","
","
","""event"",""trial"",""time""
""fullscreenenter"",""1"",""1579""
","""event"",""trial"",""time""
""fullscreenexit"",""3"",""13000""
","","","-1","","","20","9814","4586","&#9789;","elianto","#f73b6a7A"," ","-1","0","0","[]","0","0","4","","","","","","","",""
"pit-trial","100","794887","0.0-2.0-17.3-4.3","battery-v0.2","","""event"",""trial"",""time""
""fullscreenenter"",""1"",""1579""
""fullscreenexit"",""3"",""13000""
","
","
","""event"",""trial"",""time""
""fullscreenenter"",""1"",""1579""
","""event"",""trial"",""time""
""fullscreenexit"",""3"",""13000""
","","","-1","","","20","9814","4586","&#9789;","elianto","#f73b6a7A"," ","-1","0","-10","[]","0","0","4","","","","","","","",""
"call-function","101","794890","0.0-2.0-18.0","battery-v0.2","","""event"",""trial"",""time""
""fullscreenenter"",""1"",""1579""
""fullscreenexit"",""3"",""13000""
","
","
","""event"",""trial"",""time""
""fullscreenenter"",""1"",""1579""
","""event"",""trial"",""time""
""fullscreenexit"",""3"",""13000""
","","","","","","","","","","","","","","","","","","","","","","","","","","",""
"pit-instructions","102","863280","0.0-2.0-19.0","battery-v0.2","","""event"",""trial"",""time""
""fullscreenenter"",""1"",""1579""
""fullscreenexit"",""3"",""13000""
","
","
","""event"",""trial"",""time""
""fullscreenenter"",""1"",""1579""
","""event"",""trial"",""time""
""fullscreenexit"",""3"",""13000""
","","[{""page_index"":0,""viewing_time"":6701},{""page_index"":1,""viewing_time"":6708},{""page_index"":2,""viewing_time"":8492.19999999972},{""page_index"":3,""viewing_time"":9898.80000000028},{""page_index"":4,""viewing_time"":8637.899999999907},{""page_index"":5,""viewing_time"":8702.700000000186},{""page_index"":6,""viewing_time"":9335.899999999907},{""page_index"":7,""viewing_time"":6371.699999999721},{""page_index"":8,""viewing_time"":3540.100000000093}]","68389","","","","","","","","","","","","","","","","","","","","","","","",""
"pit-comprehension","103","867988","0.0-2.0-20.0-0.0","battery-v0.2","","""event"",""trial"",""time""
""fullscreenenter"",""1"",""1579""
""fullscreenexit"",""3"",""13000""
","
","
","""event"",""trial"",""time""
""fullscreenenter"",""1"",""1579""
","""event"",""trial"",""time""
""fullscreenexit"",""3"",""13000""
","","","4703.199999999721","[""SPACE""]","0","20","9814","4586","","","","","","","","","","","","","","","","","","",""
"pit-instructions","104","870517","0.0-2.0-20.0-1.0","battery-v0.2","","""event"",""trial"",""time""
""fullscreenenter"",""1"",""1579""
""fullscreenexit"",""3"",""13000""
","
","
","""event"",""trial"",""time""
""fullscreenenter"",""1"",""1579""
","""event"",""trial"",""time""
""fullscreenexit"",""3"",""13000""
","","[{""page_index"":0,""viewing_time"":2499.1999999997206}]","2499.6999999997206","","","","","","","","","","","","","","","","","","","","","","","",""
"pit-comprehension","105","876467","0.0-2.0-21.0-0.0","battery-v0.2","","""event"",""trial"",""time""
""fullscreenenter"",""1"",""1579""
""fullscreenexit"",""3"",""13000""
","
","
","""event"",""trial"",""time""
""fullscreenenter"",""1"",""1579""
","""event"",""trial"",""time""
""fullscreenexit"",""3"",""13000""
","","","5945.200000000186","[""10""]","0","20","9814","4586","","","","","","","","","","","","","","","","","","",""
"pit-instructions","106","879593","0.0-2.0-21.0-1.0","battery-v0.2","","""event"",""trial"",""time""
""fullscreenenter"",""1"",""1579""
""fullscreenexit"",""3"",""13000""
","
","
","""event"",""trial"",""time""
""fullscreenenter"",""1"",""1579""
","""event"",""trial"",""time""
""fullscreenexit"",""3"",""13000""
","","[{""page_index"":0,""viewing_time"":3094.5}]","3095.2000000001863","","","","","","","","","","","","","","","","","","","","","","","",""
"pit-comprehension","107","886752","0.0-2.0-22.0-0.0","battery-v0.2","","""event"",""trial"",""time""
""fullscreenenter"",""1"",""1579""
""fullscreenexit"",""3"",""13000""
","
","
","""event"",""trial"",""time""
""fullscreenenter"",""1"",""1579""
","""event"",""trial"",""time""
""fullscreenexit"",""3"",""13000""
","","","7153.700000000186","[""-10""]","1","20","9814","4586","","","","","","","","","","","","","","","","","","",""
"pit-instructions","108","892861","0.0-2.0-22.0-1.0","battery-v0.2","","""event"",""trial"",""time""
""fullscreenenter"",""1"",""1579""
""fullscreenexit"",""3"",""13000""
","
","
","""event"",""trial"",""time""
""fullscreenenter"",""1"",""1579""
","""event"",""trial"",""time""
""fullscreenexit"",""3"",""13000""
","","[{""page_index"":0,""viewing_time"":6077.199999999721}]","6077.699999999721","","","","","","","","","","","","","","","","","","","","","","","",""
"pit-instructions","109","893872","0.0-2.0-22.0-2.0-0.0","battery-v0.2","","""event"",""trial"",""time""
""fullscreenenter"",""1"",""1579""
""fullscreenexit"",""3"",""13000""
","
","
","""event"",""trial"",""time""
""fullscreenenter"",""1"",""1579""
","""event"",""trial"",""time""
""fullscreenexit"",""3"",""13000""
","","[{""page_index"":0,""viewing_time"":1006.7999999998137}]","1007.2999999998137","","","","","","","","","","","","","","","","","","","","","","","",""
"pit-comprehension","110","901164","0.0-2.0-22.1-0.1","battery-v0.2","","""event"",""trial"",""time""
""fullscreenenter"",""1"",""1579""
""fullscreenexit"",""3"",""13000""
","
","
","""event"",""trial"",""time""
""fullscreenenter"",""1"",""1579""
","""event"",""trial"",""time""
""fullscreenexit"",""3"",""13000""
","","","7287.700000000186","[""0""]","0","20","9814","4586","","","","","","","","","","","","","","","","","","",""
"pit-instructions","111","903782","0.0-2.0-22.1-1.1","battery-v0.2","","""event"",""trial"",""time""
""fullscreenenter"",""1"",""1579""
""fullscreenexit"",""3"",""13000""
","
","
","""event"",""trial"",""time""
""fullscreenenter"",""1"",""1579""
","""event"",""trial"",""time""
""fullscreenexit"",""3"",""13000""
","","[{""page_index"":0,""viewing_time"":2586.8000000002794}]","2587.2000000001863","","","","","","","","","","","","","","","","","","","","","","","",""
"pit-comprehension","112","914895","0.0-2.0-23.0-0.0","battery-v0.2","","""event"",""trial"",""time""
""fullscreenenter"",""1"",""1579""
""fullscreenexit"",""3"",""13000""
","
","
","""event"",""trial"",""time""
""fullscreenenter"",""1"",""1579""
","""event"",""trial"",""time""
""fullscreenexit"",""3"",""13000""
","","","11107.799999999814","[""True""]","0","20","9814","4586","","","","","","","","","","","","","","","","","","",""
"pit-instructions","113","917546","0.0-2.0-23.0-1.0","battery-v0.2","","""event"",""trial"",""time""
""fullscreenenter"",""1"",""1579""
""fullscreenexit"",""3"",""13000""
","
","
","""event"",""trial"",""time""
""fullscreenenter"",""1"",""1579""
","""event"",""trial"",""time""
""fullscreenexit"",""3"",""13000""
","","[{""page_index"":0,""viewing_time"":2618.600000000093}]","2619.100000000093","","","","","","","","","","","","","","","","","","","","","","","",""
"pit-comprehension","114","926233","0.0-2.0-24.0-0.0","battery-v0.2","","""event"",""trial"",""time""
""fullscreenenter"",""1"",""1579""
""fullscreenexit"",""3"",""13000""
","
","
","""event"",""trial"",""time""
""fullscreenenter"",""1"",""1579""
","""event"",""trial"",""time""
""fullscreenexit"",""3"",""13000""
","","","8682.30000000028","[""True""]","0","20","9814","4586","","","","","","","","","","","","","","","","","","",""
"pit-instructions","115","931655","0.0-2.0-24.0-1.0","battery-v0.2","","""event"",""trial"",""time""
""fullscreenenter"",""1"",""1579""
""fullscreenexit"",""3"",""13000""
","
","
","""event"",""trial"",""time""
""fullscreenenter"",""1"",""1579""
","""event"",""trial"",""time""
""fullscreenexit"",""3"",""13000""
","","[{""page_index"":0,""viewing_time"":5388.0999999996275}]","5388.699999999721","","","","","","","","","","","","","","","","","","","","","","","",""
"pit-comprehension","116","938273","0.0-2.0-25.0-0.0","battery-v0.2","","""event"",""trial"",""time""
""fullscreenenter"",""1"",""1579""
""fullscreenexit"",""3"",""13000""
","
","
","""event"",""trial"",""time""
""fullscreenenter"",""1"",""1579""
","""event"",""trial"",""time""
""fullscreenexit"",""3"",""13000""
","","","6613.399999999907","[""True""]","0","20","9814","4586","","","","","","","","","","","","","","","","","","",""
"pit-instructions","117","940378","0.0-2.0-25.0-1.0","battery-v0.2","","""event"",""trial"",""time""
""fullscreenenter"",""1"",""1579""
""fullscreenexit"",""3"",""13000""
","
","
","""event"",""trial"",""time""
""fullscreenenter"",""1"",""1579""
","""event"",""trial"",""time""
""fullscreenexit"",""3"",""13000""
","","[{""page_index"":0,""viewing_time"":2072.100000000093}]","2072.5","","","","","","","","","","","","","","","","","","","","","","","",""
"pit-comprehension","118","945650","0.0-2.0-26.0-0.0","battery-v0.2","","""event"",""trial"",""time""
""fullscreenenter"",""1"",""1579""
""fullscreenexit"",""3"",""13000""
","
","
","""event"",""trial"",""time""
""fullscreenenter"",""1"",""1579""
","""event"",""trial"",""time""
""fullscreenexit"",""3"",""13000""
","","","5266.899999999907","[""False""]","0","20","9814","4586","","","","","","","","","","","","","","","","","","",""
"pit-instructions","119","947907","0.0-2.0-26.0-1.0","battery-v0.2","","""event"",""trial"",""time""
""fullscreenenter"",""1"",""1579""
""fullscreenexit"",""3"",""13000""
","
","
","""event"",""trial"",""time""
""fullscreenenter"",""1"",""1579""
","""event"",""trial"",""time""
""fullscreenexit"",""3"",""13000""
","","[{""page_index"":0,""viewing_time"":2224.2000000001863}]","2224.7000000001863","","","","","","","","","","","","","","","","","","","","","","","",""
"pit-instructions","120","985836","0.0-3.0","battery-v0.2","","""event"",""trial"",""time""
""fullscreenenter"",""1"",""1579""
""fullscreenexit"",""3"",""13000""
","
","
","""event"",""trial"",""time""
""fullscreenenter"",""1"",""1579""
","""event"",""trial"",""time""
""fullscreenexit"",""3"",""13000""
","","[{""page_index"":0,""viewing_time"":25612.69999999972},{""page_index"":1,""viewing_time"":5955},{""page_index"":2,""viewing_time"":6357.700000000186}]","37925.799999999814","","","","","","","","","","","","","","","","","","","","","","","",""
"pit-trial","121","990711","0.0-4.0","battery-v0.2","","""event"",""trial"",""time""
""fullscreenenter"",""1"",""1579""
""fullscreenexit"",""3"",""13000""
","
","
","""event"",""trial"",""time""
""fullscreenenter"",""1"",""1579""
","""event"",""trial"",""time""
""fullscreenexit"",""3"",""13000""
","","","-1","","","20","9814","4586","&#9752;","elianto","#f73b6a7A"," ","-1","0","0","[]","0","1","","","9814","1","3","3","lose","go","1"
"pit-trial","122","994140","0.0-5.0","battery-v0.2","","""event"",""trial"",""time""
""fullscreenenter"",""1"",""1579""
""fullscreenexit"",""3"",""13000""
","
","
","""event"",""trial"",""time""
""fullscreenenter"",""1"",""1579""
","""event"",""trial"",""time""
""fullscreenexit"",""3"",""13000""
","","","563.2000000001863","","","20","9814","4586","&#9730;","elianto","#3366ff99"," "," ","1","+10","[1417.7999999998137]","1","1","","","9814","2","1","1","win","go","0"
"pit-trial","123","999015","0.0-6.0","battery-v0.2","","""event"",""trial"",""time""
""fullscreenenter"",""1"",""1579""
""fullscreenexit"",""3"",""13000""
","
","
","""event"",""trial"",""time""
""fullscreenenter"",""1"",""1579""
","""event"",""trial"",""time""
""fullscreenexit"",""3"",""13000""
","","","-1","","","20","9814","4586","&#9728;","elianto","#f73b6a7A","-1","-1","1","0","[]","0","1","","","9814","3","0","4","lose","no-go","0"
"pit-trial","124","1002438","0.0-7.0","battery-v0.2","","""event"",""trial"",""time""
""fullscreenenter"",""1"",""1579""
""fullscreenexit"",""3"",""13000""
","
","
","""event"",""trial"",""time""
""fullscreenenter"",""1"",""1579""
","""event"",""trial"",""time""
""fullscreenexit"",""3"",""13000""
","","","562.2000000001863","","","20","9814","4586","&#9733;","elianto","#3366ff99","-1"," ","0","+10","[1414]","1","1","","","9814","4","2","2","win","no-go","1"
"pit-trial","125","1007310","0.0-8.0","battery-v0.2","","""event"",""trial"",""time""
""fullscreenenter"",""1"",""1579""
""fullscreenexit"",""3"",""13000""
","
","
","""event"",""trial"",""time""
""fullscreenenter"",""1"",""1579""
","""event"",""trial"",""time""
""fullscreenexit"",""3"",""13000""
","","","-1","","","20","9814","4586","&#9752;","elianto","#f73b6a7A"," ","-1","0","0","[]","0","1","","","9814","5","3","3","lose","go","1"
"pit-trial","126","1010690","0.0-9.0","battery-v0.2","","""event"",""trial"",""time""
""fullscreenenter"",""1"",""1579""
""fullscreenexit"",""3"",""13000""
","
","
","""event"",""trial"",""time""
""fullscreenenter"",""1"",""1579""
","""event"",""trial"",""time""
""fullscreenexit"",""3"",""13000""
","","","520.6999999997206","","","20","9814","4586","&#9733;","elianto","#3366ff99","-1"," ","0","0","[1374]","1","1","","","9814","6","2","2","win","no-go","0"
"pit-trial","127","1014199","0.0-10.0","battery-v0.2","","""event"",""trial"",""time""
""fullscreenenter"",""1"",""1579""
""fullscreenexit"",""3"",""13000""
","
","
","""event"",""trial"",""time""
""fullscreenenter"",""1"",""1579""
","""event"",""trial"",""time""
""fullscreenexit"",""3"",""13000""
","","","638.1000000000931","","","20","9814","4586","&#9730;","elianto","#3366ff99"," "," ","1","+10","[1493.3999999999069]","1","1","","","9814","7","1","1","win","go","0"
"pit-trial","128","1019070","0.0-11.0","battery-v0.2","","""event"",""trial"",""time""
""fullscreenenter"",""1"",""1579""
""fullscreenexit"",""3"",""13000""
","
","
","""event"",""trial"",""time""
""fullscreenenter"",""1"",""1579""
","""event"",""trial"",""time""
""fullscreenexit"",""3"",""13000""
","","","-1","","","20","9814","4586","&#9728;","elianto","#f73b6a7A","-1","-1","1","0","[]","0","1","","","9814","8","0","4","lose","no-go","0"
"pit-trial","129","1023943","0.0-12.0","battery-v0.2","","""event"",""trial"",""time""
""fullscreenenter"",""1"",""1579""
""fullscreenexit"",""3"",""13000""
","
","
","""event"",""trial"",""time""
""fullscreenenter"",""1"",""1579""
","""event"",""trial"",""time""
""fullscreenexit"",""3"",""13000""
","","","-1","","","20","9814","4586","&#9752;","elianto","#f73b6a7A"," ","-1","0","-10","[]","0","1","","","9814","9","3","3","lose","go","0"
"pit-trial","130","1028814","0.0-13.0","battery-v0.2","","""event"",""trial"",""time""
""fullscreenenter"",""1"",""1579""
""fullscreenexit"",""3"",""13000""
","
","
","""event"",""trial"",""time""
""fullscreenenter"",""1"",""1579""
","""event"",""trial"",""time""
""fullscreenexit"",""3"",""13000""
","","","-1","","","20","9814","4586","&#9728;","elianto","#f73b6a7A","-1","-1","1","0","[]","0","1","","","9814","10","0","4","lose","no-go","0"
"pit-trial","131","1032519","0.0-14.0","battery-v0.2","","""event"",""trial"",""time""
""fullscreenenter"",""1"",""1579""
""fullscreenexit"",""3"",""13000""
","
","
","""event"",""trial"",""time""
""fullscreenenter"",""1"",""1579""
","""event"",""trial"",""time""
""fullscreenexit"",""3"",""13000""
","","","838.8999999999069","","","20","9814","4586","&#9733;","elianto","#3366ff99","-1"," ","0","0","[1689.8999999999069]","1","1","","","9814","11","2","2","win","no-go","0"
"pit-trial","132","1035967","0.0-15.0","battery-v0.2","","""event"",""trial"",""time""
""fullscreenenter"",""1"",""1579""
""fullscreenexit"",""3"",""13000""
","
","
","""event"",""trial"",""time""
""fullscreenenter"",""1"",""1579""
","""event"",""trial"",""time""
""fullscreenexit"",""3"",""13000""
","","","577.6000000000931","","","20","9814","4586","&#9730;","elianto","#3366ff99"," "," ","1","+10","[1435.5]","1","1","","","9814","12","1","1","win","go","0"
"pit-trial","133","1039374","0.0-16.0","battery-v0.2","","""event"",""trial"",""time""
""fullscreenenter"",""1"",""1579""
""fullscreenexit"",""3"",""13000""
","
","
","""event"",""trial"",""time""
""fullscreenenter"",""1"",""1579""
","""event"",""trial"",""time""
""fullscreenexit"",""3"",""13000""
","","","540.7000000001863","","","20","9814","4586","&#9730;","elianto","#3366ff99"," "," ","1","0","[1391.1000000000931]","1","1","","","9814","13","1","1","win","go","1"
"pit-trial","134","1043079","0.0-17.0","battery-v0.2","","""event"",""trial"",""time""
""fullscreenenter"",""1"",""1579""
""fullscreenexit"",""3"",""13000""
","
","
","""event"",""trial"",""time""
""fullscreenenter"",""1"",""1579""
","""event"",""trial"",""time""
""fullscreenexit"",""3"",""13000""
","","","833.5","","","20","9814","4586","&#9733;","elianto","#3366ff99","-1"," ","0","0","[1690.7000000001863]","1","1","","","9814","14","2","2","win","no-go","0"
"pit-trial","135","1047950","0.0-18.0","battery-v0.2","","""event"",""trial"",""time""
""fullscreenenter"",""1"",""1579""
""fullscreenexit"",""3"",""13000""
","
","
","""event"",""trial"",""time""
""fullscreenenter"",""1"",""1579""
","""event"",""trial"",""time""
""fullscreenexit"",""3"",""13000""
","","","-1","","","20","9814","4586","&#9728;","elianto","#f73b6a7A","-1","-1","1","0","[]","0","1","","","9814","15","0","4","lose","no-go","0"
"pit-trial","136","1052819","0.0-19.0","battery-v0.2","","""event"",""trial"",""time""
""fullscreenenter"",""1"",""1579""
""fullscreenexit"",""3"",""13000""
","
","
","""event"",""trial"",""time""
""fullscreenenter"",""1"",""1579""
","""event"",""trial"",""time""
""fullscreenexit"",""3"",""13000""
","","","-1","","","20","9814","4586","&#9752;","elianto","#f73b6a7A"," ","-1","0","-10","[]","0","1","","","9814","16","3","3","lose","go","0"
"pit-trial","137","1057686","0.0-20.0","battery-v0.2","","""event"",""trial"",""time""
""fullscreenenter"",""1"",""1579""
""fullscreenexit"",""3"",""13000""
","
","
","""event"",""trial"",""time""
""fullscreenenter"",""1"",""1579""
","""event"",""trial"",""time""
""fullscreenexit"",""3"",""13000""
","","","-1","","","20","9814","4586","&#9752;","elianto","#f73b6a7A"," ","-1","0","0","[]","0","1","","","9814","17","3","3","lose","go","1"
"pit-trial","138","1061420","0.0-21.0","battery-v0.2","","""event"",""trial"",""time""
""fullscreenenter"",""1"",""1579""
""fullscreenexit"",""3"",""13000""
","
","
","""event"",""trial"",""time""
""fullscreenenter"",""1"",""1579""
","""event"",""trial"",""time""
""fullscreenexit"",""3"",""13000""
","","","865.3999999999069","","","20","9814","4586","&#9733;","elianto","#3366ff99","-1"," ","0","0","[1723.3999999999069]","1","1","","","9814","18","2","2","win","no-go","0"
"pit-trial","139","1065086","0.0-22.0","battery-v0.2","","""event"",""trial"",""time""
""fullscreenenter"",""1"",""1579""
""fullscreenexit"",""3"",""13000""
","
","
","""event"",""trial"",""time""
""fullscreenenter"",""1"",""1579""
","""event"",""trial"",""time""
""fullscreenexit"",""3"",""13000""
","","","793.8999999999069","","","20","9814","4586","&#9730;","elianto","#3366ff99"," "," ","1","0","[1654.7999999998137]","1","1","","","9814","19","1","1","win","go","1"
"pit-trial","140","1069958","0.0-23.0","battery-v0.2","","""event"",""trial"",""time""
""fullscreenenter"",""1"",""1579""
""fullscreenexit"",""3"",""13000""
","
","
","""event"",""trial"",""time""
""fullscreenenter"",""1"",""1579""
","""event"",""trial"",""time""
""fullscreenexit"",""3"",""13000""
","","","-1","","","20","9814","4586","&#9728;","elianto","#f73b6a7A","-1","-1","1","0","[]","0","1","","","9814","20","0","4","lose","no-go","0"
"pit-instructions","141","1085127","0.0-24.0","battery-v0.2","","""event"",""trial"",""time""
""fullscreenenter"",""1"",""1579""
""fullscreenexit"",""3"",""13000""
","
","
","""event"",""trial"",""time""
""fullscreenenter"",""1"",""1579""
","""event"",""trial"",""time""
""fullscreenexit"",""3"",""13000""
","","[{""page_index"":0,""viewing_time"":8683.100000000093},{""page_index"":1,""viewing_time"":6482.199999999721}]","15165.899999999907","","","","","","","","","","","","","","","","","","","","","","","",""
"pit-trial","142","1089996","0.0-25.0","battery-v0.2","","""event"",""trial"",""time""
""fullscreenenter"",""1"",""1579""
""fullscreenexit"",""3"",""13000""
","
","
","""event"",""trial"",""time""
""fullscreenenter"",""1"",""1579""
","""event"",""trial"",""time""
""fullscreenexit"",""3"",""13000""
","","","-1","","","20","9814","4586","g","elianto","#f73b6a7A","-1","-1","1","0","[]","0","2","","","9814","21","3","4","lose","no-go","0"
"pit-trial","143","1093446","0.0-26.0","battery-v0.2","","""event"",""trial"",""time""
""fullscreenenter"",""1"",""1579""
""fullscreenexit"",""3"",""13000""
","
","
","""event"",""trial"",""time""
""fullscreenenter"",""1"",""1579""
","""event"",""trial"",""time""
""fullscreenexit"",""3"",""13000""
","","","587.6000000000931","","","20","9814","4586","l","elianto","#3366ff99","-1"," ","0","0","[1438.6000000000931]","1","2","","","9814","22","1","2","win","no-go","0"
"pit-trial","144","1098318","0.0-27.0","battery-v0.2","","""event"",""trial"",""time""
""fullscreenenter"",""1"",""1579""
""fullscreenexit"",""3"",""13000""
","
","
","""event"",""trial"",""time""
""fullscreenenter"",""1"",""1579""
","""event"",""trial"",""time""
""fullscreenexit"",""3"",""13000""
","","","-1","","","20","9814","4586","a","elianto","#f73b6a7A"," ","-1","0","0","[]","0","2","","","9814","23","2","3","lose","go","1"
"pit-trial","145","1103191","0.0-28.0","battery-v0.2","","""event"",""trial"",""time""
""fullscreenenter"",""1"",""1579""
""fullscreenexit"",""3"",""13000""
","
","
","""event"",""trial"",""time""
""fullscreenenter"",""1"",""1579""
","""event"",""trial"",""time""
""fullscreenexit"",""3"",""13000""
","","","-1","","","20","9814","4586","u","elianto","#f73b6a7A"," ","-1","0","-10","[]","0","2","","","9814","24","0","3","lose","go","0"
"pit-trial","146","1108057","0.0-29.0","battery-v0.2","","""event"",""trial"",""time""
""fullscreenenter"",""1"",""1579""
""fullscreenexit"",""3"",""13000""
","
","
","""event"",""trial"",""time""
""fullscreenenter"",""1"",""1579""
","""event"",""trial"",""time""
""fullscreenexit"",""3"",""13000""
","","","-1","","","20","9814","4586","g","elianto","#f73b6a7A","-1","-1","1","0","[]","0","2","","","9814","25","3","4","lose","no-go","0"
"pit-trial","147","1112926","0.0-30.0","battery-v0.2","","""event"",""trial"",""time""
""fullscreenenter"",""1"",""1579""
""fullscreenexit"",""3"",""13000""
","
","
","""event"",""trial"",""time""
""fullscreenenter"",""1"",""1579""
","""event"",""trial"",""time""
""fullscreenexit"",""3"",""13000""
","","","-1","","","20","9814","4586","u","elianto","#f73b6a7A"," ","-1","0","-10","[]","0","2","","","9814","26","0","3","lose","go","0"
"pit-trial","148","1117795","0.0-31.0","battery-v0.2","","""event"",""trial"",""time""
""fullscreenenter"",""1"",""1579""
""fullscreenexit"",""3"",""13000""
","
","
","""event"",""trial"",""time""
""fullscreenenter"",""1"",""1579""
","""event"",""trial"",""time""
""fullscreenexit"",""3"",""13000""
","","","-1","","","20","9814","4586","a","elianto","#f73b6a7A"," ","-1","0","-10","[]","0","2","","","9814","27","2","3","lose","go","0"
"pit-trial","149","1121358","0.0-32.0","battery-v0.2","","""event"",""trial"",""time""
""fullscreenenter"",""1"",""1579""
""fullscreenexit"",""3"",""13000""
","
","
","""event"",""trial"",""time""
""fullscreenenter"",""1"",""1579""
","""event"",""trial"",""time""
""fullscreenexit"",""3"",""13000""
","","","693.9000000003725","","","20","9814","4586","l","elianto","#3366ff99","-1"," ","0","+10","[1546.5]","1","2","","","9814","28","1","2","win","no-go","1"
"pit-trial","150","1126229","0.0-33.0","battery-v0.2","","""event"",""trial"",""time""
""fullscreenenter"",""1"",""1579""
""fullscreenexit"",""3"",""13000""
","
","
","""event"",""trial"",""time""
""fullscreenenter"",""1"",""1579""
","""event"",""trial"",""time""
""fullscreenexit"",""3"",""13000""
","","","-1","","","20","9814","4586","g","elianto","#f73b6a7A","-1","-1","1","0","[]","0","2","","","9814","29","3","4","lose","no-go","0"
"pit-trial","151","1129677","0.0-34.0","battery-v0.2","","""event"",""trial"",""time""
""fullscreenenter"",""1"",""1579""
""fullscreenexit"",""3"",""13000""
","
","
","""event"",""trial"",""time""
""fullscreenenter"",""1"",""1579""
","""event"",""trial"",""time""
""fullscreenexit"",""3"",""13000""
","","","584","","","20","9814","4586","l","elianto","#3366ff99","-1"," ","0","+10","[1434.7000000001863]","1","2","","","9814","30","1","2","win","no-go","1"
"pit-trial","152","1134547","0.0-35.0","battery-v0.2","","""event"",""trial"",""time""
""fullscreenenter"",""1"",""1579""
""fullscreenexit"",""3"",""13000""
","
","
","""event"",""trial"",""time""
""fullscreenenter"",""1"",""1579""
","""event"",""trial"",""time""
""fullscreenexit"",""3"",""13000""
","","","-1","","","20","9814","4586","a","elianto","#f73b6a7A"," ","-1","0","-10","[]","0","2","","","9814","31","2","3","lose","go","0"
"pit-trial","153","1139411","0.0-36.0","battery-v0.2","","""event"",""trial"",""time""
""fullscreenenter"",""1"",""1579""
""fullscreenexit"",""3"",""13000""
","
","
","""event"",""trial"",""time""
""fullscreenenter"",""1"",""1579""
","""event"",""trial"",""time""
""fullscreenexit"",""3"",""13000""
","","","-1","","","20","9814","4586","u","elianto","#f73b6a7A"," ","-1","0","-10","[]","0","2","","","9814","32","0","3","lose","go","0"
"pit-trial","154","1144278","0.0-37.0","battery-v0.2","","""event"",""trial"",""time""
""fullscreenenter"",""1"",""1579""
""fullscreenexit"",""3"",""13000""
","
","
","""event"",""trial"",""time""
""fullscreenenter"",""1"",""1579""
","""event"",""trial"",""time""
""fullscreenexit"",""3"",""13000""
","","","-1","","","20","9814","4586","g","elianto","#f73b6a7A","-1","-1","1","-10","[]","0","2","","","9814","33","3","4","lose","no-go","1"
"pit-trial","155","1149150","0.0-38.0","battery-v0.2","","""event"",""trial"",""time""
""fullscreenenter"",""1"",""1579""
""fullscreenexit"",""3"",""13000""
","
","
","""event"",""trial"",""time""
""fullscreenenter"",""1"",""1579""
","""event"",""trial"",""time""
""fullscreenexit"",""3"",""13000""
","","","-1","","","20","9814","4586","u","elianto","#f73b6a7A"," ","-1","0","-10","[]","0","2","","","9814","34","0","3","lose","go","0"
"pit-trial","156","1154022","0.0-39.0","battery-v0.2","","""event"",""trial"",""time""
""fullscreenenter"",""1"",""1579""
""fullscreenexit"",""3"",""13000""
","
","
","""event"",""trial"",""time""
""fullscreenenter"",""1"",""1579""
","""event"",""trial"",""time""
""fullscreenexit"",""3"",""13000""
","","","-1","","","20","9814","4586","a","elianto","#f73b6a7A"," ","-1","0","-10","[]","0","2","","","9814","35","2","3","lose","go","0"
"pit-trial","157","1157566","0.0-40.0","battery-v0.2","","""event"",""trial"",""time""
""fullscreenenter"",""1"",""1579""
""fullscreenexit"",""3"",""13000""
","
","
","""event"",""trial"",""time""
""fullscreenenter"",""1"",""1579""
","""event"",""trial"",""time""
""fullscreenexit"",""3"",""13000""
","","","669.7999999998137","","","20","9814","4586","l","elianto","#3366ff99","-1"," ","0","0","[1528.5]","1","2","","","9814","36","1","2","win","no-go","0"
"pit-trial","158","1162435","0.0-41.0","battery-v0.2","","""event"",""trial"",""time""
""fullscreenenter"",""1"",""1579""
""fullscreenexit"",""3"",""13000""
","
","
","""event"",""trial"",""time""
""fullscreenenter"",""1"",""1579""
","""event"",""trial"",""time""
""fullscreenexit"",""3"",""13000""
","","","-1","","","20","9814","4586","g","elianto","#f73b6a7A","-1","-1","1","0","[]","0","2","","","9814","37","3","4","lose","no-go","0"
"pit-trial","159","1167302","0.0-42.0","battery-v0.2","","""event"",""trial"",""time""
""fullscreenenter"",""1"",""1579""
""fullscreenexit"",""3"",""13000""
","
","
","""event"",""trial"",""time""
""fullscreenenter"",""1"",""1579""
","""event"",""trial"",""time""
""fullscreenexit"",""3"",""13000""
","","","-1","","","20","9814","4586","a","elianto","#f73b6a7A"," ","-1","0","-10","[]","0","2","","","9814","38","2","3","lose","go","0"
"pit-trial","160","1171046","0.0-43.0","battery-v0.2","","""event"",""trial"",""time""
""fullscreenenter"",""1"",""1579""
""fullscreenexit"",""3"",""13000""
","
","
","""event"",""trial"",""time""
""fullscreenenter"",""1"",""1579""
","""event"",""trial"",""time""
""fullscreenexit"",""3"",""13000""
","","","876.7000000001863","","","20","9814","4586","l","elianto","#3366ff99","-1"," ","0","+10","[1734.2000000001863]","1","2","","","9814","39","1","2","win","no-go","1"
"pit-trial","161","1175918","0.0-44.0","battery-v0.2","","""event"",""trial"",""time""
""fullscreenenter"",""1"",""1579""
""fullscreenexit"",""3"",""13000""
","
","
","""event"",""trial"",""time""
""fullscreenenter"",""1"",""1579""
","""event"",""trial"",""time""
""fullscreenexit"",""3"",""13000""
","","","-1","","","20","9814","4586","u","elianto","#f73b6a7A"," ","-1","0","0","[]","0","2","","","9814","40","0","3","lose","go","1"
"pit-trial","162","1179302","0.0-45.0","battery-v0.2","","""event"",""trial"",""time""
""fullscreenenter"",""1"",""1579""
""fullscreenexit"",""3"",""13000""
","
","
","""event"",""trial"",""time""
""fullscreenenter"",""1"",""1579""
","""event"",""trial"",""time""
""fullscreenexit"",""3"",""13000""
","","","515.8999999999069","","","20","9814","4586","l","elianto","#3366ff99","-1"," ","0","0","[1372.6000000000931]","1","2","","","9814","41","1","2","win","no-go","0"
"pit-trial","163","1184170","0.0-46.0","battery-v0.2","","""event"",""trial"",""time""
""fullscreenenter"",""1"",""1579""
""fullscreenexit"",""3"",""13000""
","
","
","""event"",""trial"",""time""
""fullscreenenter"",""1"",""1579""
","""event"",""trial"",""time""
""fullscreenexit"",""3"",""13000""
","","","-1","","","20","9814","4586","g","elianto","#f73b6a7A","-1","-1","1","-10","[]","0","2","","","9814","42","3","4","lose","no-go","1"
"pit-trial","164","1189038","0.0-47.0","battery-v0.2","","""event"",""trial"",""time""
""fullscreenenter"",""1"",""1579""
""fullscreenexit"",""3"",""13000""
","
","
","""event"",""trial"",""time""
""fullscreenenter"",""1"",""1579""
","""event"",""trial"",""time""
""fullscreenexit"",""3"",""13000""
","","","-1","","","20","9814","4586","a","elianto","#f73b6a7A"," ","-1","0","-10","[]","0","2","","","9814","43","2","3","lose","go","0"
"pit-trial","165","1193910","0.0-48.0","battery-v0.2","","""event"",""trial"",""time""
""fullscreenenter"",""1"",""1579""
""fullscreenexit"",""3"",""13000""
","
","
","""event"",""trial"",""time""
""fullscreenenter"",""1"",""1579""
","""event"",""trial"",""time""
""fullscreenexit"",""3"",""13000""
","","","-1","","","20","9814","4586","u","elianto","#f73b6a7A"," ","-1","0","-10","[]","0","2","","","9814","44","0","3","lose","go","0"
"pit-trial","166","1198781","0.0-49.0","battery-v0.2","","""event"",""trial"",""time""
""fullscreenenter"",""1"",""1579""
""fullscreenexit"",""3"",""13000""
","
","
","""event"",""trial"",""time""
""fullscreenenter"",""1"",""1579""
","""event"",""trial"",""time""
""fullscreenexit"",""3"",""13000""
","","","-1","","","20","9814","4586","g","elianto","#f73b6a7A","-1","-1","1","0","[]","0","2","","","9814","45","3","4","lose","no-go","0"
"pit-trial","167","1202462","0.0-50.0","battery-v0.2","","""event"",""trial"",""time""
""fullscreenenter"",""1"",""1579""
""fullscreenexit"",""3"",""13000""
","
","
","""event"",""trial"",""time""
""fullscreenenter"",""1"",""1579""
","""event"",""trial"",""time""
""fullscreenexit"",""3"",""13000""
","","","814.3999999999069","","","20","9814","4586","l","elianto","#3366ff99","-1"," ","0","+10","[1665.1000000000931]","1","2","","","9814","46","1","2","win","no-go","1"
"pit-trial","168","1207334","0.0-51.0","battery-v0.2","","""event"",""trial"",""time""
""fullscreenenter"",""1"",""1579""
""fullscreenexit"",""3"",""13000""
","
","
","""event"",""trial"",""time""
""fullscreenenter"",""1"",""1579""
","""event"",""trial"",""time""
""fullscreenexit"",""3"",""13000""
","","","-1","","","20","9814","4586","a","elianto","#f73b6a7A"," ","-1","0","-10","[]","0","2","","","9814","47","2","3","lose","go","0"
"pit-trial","169","1212205","0.0-52.0","battery-v0.2","","""event"",""trial"",""time""
""fullscreenenter"",""1"",""1579""
""fullscreenexit"",""3"",""13000""
","
","
","""event"",""trial"",""time""
""fullscreenenter"",""1"",""1579""
","""event"",""trial"",""time""
""fullscreenexit"",""3"",""13000""
","","","-1","","","20","9814","4586","u","elianto","#f73b6a7A"," ","-1","0","-10","[]","0","2","","","9814","48","0","3","lose","go","0"
"pit-trial","170","1217078","0.0-53.0","battery-v0.2","","""event"",""trial"",""time""
""fullscreenenter"",""1"",""1579""
""fullscreenexit"",""3"",""13000""
","
","
","""event"",""trial"",""time""
""fullscreenenter"",""1"",""1579""
","""event"",""trial"",""time""
""fullscreenexit"",""3"",""13000""
","","","-1","","","20","9814","4586","a","elianto","#f73b6a7A"," ","-1","0","-10","[]","0","2","","","9814","49","2","3","lose","go","0"
"pit-trial","171","1221949","0.0-54.0","battery-v0.2","","""event"",""trial"",""time""
""fullscreenenter"",""1"",""1579""
""fullscreenexit"",""3"",""13000""
","
","
","""event"",""trial"",""time""
""fullscreenenter"",""1"",""1579""
","""event"",""trial"",""time""
""fullscreenexit"",""3"",""13000""
","","","-1","","","20","9814","4586","g","elianto","#f73b6a7A","-1","-1","1","0","[]","0","2","","","9814","50","3","4","lose","no-go","0"
"pit-trial","172","1226819","0.0-55.0","battery-v0.2","","""event"",""trial"",""time""
""fullscreenenter"",""1"",""1579""
""fullscreenexit"",""3"",""13000""
","
","
","""event"",""trial"",""time""
""fullscreenenter"",""1"",""1579""
","""event"",""trial"",""time""
""fullscreenexit"",""3"",""13000""
","","","-1","","","20","9814","4586","l","elianto","#3366ff99","-1","-1","1","+10","[]","0","2","","","9814","51","1","2","win","no-go","0"
"pit-trial","173","1231690","0.0-56.0","battery-v0.2","","""event"",""trial"",""time""
""fullscreenenter"",""1"",""1579""
""fullscreenexit"",""3"",""13000""
","
","
","""event"",""trial"",""time""
""fullscreenenter"",""1"",""1579""
","""event"",""trial"",""time""
""fullscreenexit"",""3"",""13000""
","","","-1","","","20","9814","4586","u","elianto","#f73b6a7A"," ","-1","0","0","[]","0","2","","","9814","52","0","3","lose","go","1"
"pit-trial","174","1235107","0.0-57.0","battery-v0.2","","""event"",""trial"",""time""
""fullscreenenter"",""1"",""1579""
""fullscreenexit"",""3"",""13000""
","
","
","""event"",""trial"",""time""
""fullscreenenter"",""1"",""1579""
","""event"",""trial"",""time""
""fullscreenexit"",""3"",""13000""
","","","555.3999999999069","","","20","9814","4586","l","elianto","#3366ff99","-1"," ","0","0","[1408.7999999998137]","1","2","","","9814","53","1","2","win","no-go","0"
"pit-trial","175","1239974","0.0-58.0","battery-v0.2","","""event"",""trial"",""time""
""fullscreenenter"",""1"",""1579""
""fullscreenexit"",""3"",""13000""
","
","
","""event"",""trial"",""time""
""fullscreenenter"",""1"",""1579""
","""event"",""trial"",""time""
""fullscreenexit"",""3"",""13000""
","","","-1","","","20","9814","4586","a","elianto","#f73b6a7A"," ","-1","0","0","[]","0","2","","","9814","54","2","3","lose","go","1"
"pit-trial","176","1244845","0.0-59.0","battery-v0.2","","""event"",""trial"",""time""
""fullscreenenter"",""1"",""1579""
""fullscreenexit"",""3"",""13000""
","
","
","""event"",""trial"",""time""
""fullscreenenter"",""1"",""1579""
","""event"",""trial"",""time""
""fullscreenexit"",""3"",""13000""
","","","-1","","","20","9814","4586","u","elianto","#f73b6a7A"," ","-1","0","-10","[]","0","2","","","9814","55","0","3","lose","go","0"
"pit-trial","177","1249718","0.0-60.0","battery-v0.2","","""event"",""trial"",""time""
""fullscreenenter"",""1"",""1579""
""fullscreenexit"",""3"",""13000""
","
","
","""event"",""trial"",""time""
""fullscreenenter"",""1"",""1579""
","""event"",""trial"",""time""
""fullscreenexit"",""3"",""13000""
","","","-1","","","20","9814","4586","g","elianto","#f73b6a7A","-1","-1","1","0","[]","0","2","","","9814","56","3","4","lose","no-go","0"
"pit-trial","178","1254589","0.0-61.0","battery-v0.2","","""event"",""trial"",""time""
""fullscreenenter"",""1"",""1579""
""fullscreenexit"",""3"",""13000""
","
","
","""event"",""trial"",""time""
""fullscreenenter"",""1"",""1579""
","""event"",""trial"",""time""
""fullscreenexit"",""3"",""13000""
","","","-1","","","20","9814","4586","u","elianto","#f73b6a7A"," ","-1","0","-10","[]","0","2","","","9814","57","0","3","lose","go","0"
"pit-trial","179","1258323","0.0-62.0","battery-v0.2","","""event"",""trial"",""time""
""fullscreenenter"",""1"",""1579""
""fullscreenexit"",""3"",""13000""
","
","
","""event"",""trial"",""time""
""fullscreenenter"",""1"",""1579""
","""event"",""trial"",""time""
""fullscreenexit"",""3"",""13000""
","","","865.1000000000931","","","20","9814","4586","p","elianto","#3366ff99"," "," ","1","0","[1722]","1","2","","","9814","58","4","1","win","go","1"
"pit-trial","180","1263190","0.0-63.0","battery-v0.2","","""event"",""trial"",""time""
""fullscreenenter"",""1"",""1579""
""fullscreenexit"",""3"",""13000""
","
","
","""event"",""trial"",""time""
""fullscreenenter"",""1"",""1579""
","""event"",""trial"",""time""
""fullscreenexit"",""3"",""13000""
","","","-1","","","20","9814","4586","g","elianto","#f73b6a7A","-1","-1","1","-10","[]","0","2","","","9814","59","3","4","lose","no-go","1"
"pit-trial","181","1268061","0.0-64.0","battery-v0.2","","""event"",""trial"",""time""
""fullscreenenter"",""1"",""1579""
""fullscreenexit"",""3"",""13000""
","
","
","""event"",""trial"",""time""
""fullscreenenter"",""1"",""1579""
","""event"",""trial"",""time""
""fullscreenexit"",""3"",""13000""
","","","-1","","","20","9814","4586","a","elianto","#f73b6a7A"," ","-1","0","-10","[]","0","2","","","9814","60","2","3","lose","go","0"
"pit-trial","182","1271901","0.0-65.0","battery-v0.2","","""event"",""trial"",""time""
""fullscreenenter"",""1"",""1579""
""fullscreenexit"",""3"",""13000""
","
","
","""event"",""trial"",""time""
""fullscreenenter"",""1"",""1579""
","""event"",""trial"",""time""
""fullscreenexit"",""3"",""13000""
","","","978.6000000000931","","","20","9814","4586","l","elianto","#3366ff99","-1"," ","0","0","[1829]","1","2","","","9814","61","1","2","win","no-go","0"
"pit-trial","183","1275629","0.0-66.0","battery-v0.2","","""event"",""trial"",""time""
""fullscreenenter"",""1"",""1579""
""fullscreenexit"",""3"",""13000""
","
","
","""event"",""trial"",""time""
""fullscreenenter"",""1"",""1579""
","""event"",""trial"",""time""
""fullscreenexit"",""3"",""13000""
","","","856.3999999999069","","","20","9814","4586","p","elianto","#3366ff99"," "," ","1","+10","[1714.3000000002794]","1","2","","","9814","62","4","1","win","go","0"
"pit-trial","184","1280494","0.0-67.0","battery-v0.2","","""event"",""trial"",""time""
""fullscreenenter"",""1"",""1579""
""fullscreenexit"",""3"",""13000""
","
","
","""event"",""trial"",""time""
""fullscreenenter"",""1"",""1579""
","""event"",""trial"",""time""
""fullscreenexit"",""3"",""13000""
","","","-1","","","20","9814","4586","g","elianto","#f73b6a7A","-1","-1","1","0","[]","0","2","","","9814","63","3","4","lose","no-go","0"
"pit-trial","185","1285365","0.0-68.0","battery-v0.2","","""event"",""trial"",""time""
""fullscreenenter"",""1"",""1579""
""fullscreenexit"",""3"",""13000""
","
","
","""event"",""trial"",""time""
""fullscreenenter"",""1"",""1579""
","""event"",""trial"",""time""
""fullscreenexit"",""3"",""13000""
","","","-1","","","20","9814","4586","a","elianto","#f73b6a7A"," ","-1","0","-10","[]","0","2","","","9814","64","2","3","lose","go","0"
"pit-trial","186","1288777","0.0-69.0","battery-v0.2","","""event"",""trial"",""time""
""fullscreenenter"",""1"",""1579""
""fullscreenexit"",""3"",""13000""
","
","
","""event"",""trial"",""time""
""fullscreenenter"",""1"",""1579""
","""event"",""trial"",""time""
""fullscreenexit"",""3"",""13000""
","","","546.6999999997206","","","20","9814","4586","p","elianto","#3366ff99"," "," ","1","+10","[1404.7999999998137]","1","2","","","9814","65","4","1","win","go","0"
"pit-trial","187","1292446","0.0-70.0","battery-v0.2","","""event"",""trial"",""time""
""fullscreenenter"",""1"",""1579""
""fullscreenexit"",""3"",""13000""
","
","
","""event"",""trial"",""time""
""fullscreenenter"",""1"",""1579""
","""event"",""trial"",""time""
""fullscreenexit"",""3"",""13000""
","","","803.7000000001863","","","20","9814","4586","s","elianto","#3366ff99","-1"," ","0","+10","[1656.1999999997206]","1","2","","","9814","66","5","2","win","no-go","1"
"pit-trial","188","1296309","0.0-71.0","battery-v0.2","","""event"",""trial"",""time""
""fullscreenenter"",""1"",""1579""
""fullscreenexit"",""3"",""13000""
","
","
","""event"",""trial"",""time""
""fullscreenenter"",""1"",""1579""
","""event"",""trial"",""time""
""fullscreenexit"",""3"",""13000""
","","","1000","","","20","9814","4586","l","elianto","#3366ff99","-1"," ","0","0","[1850.1000000000931]","1","2","","","9814","67","1","2","win","no-go","0"
"pit-trial","189","1301181","0.0-72.0","battery-v0.2","","""event"",""trial"",""time""
""fullscreenenter"",""1"",""1579""
""fullscreenexit"",""3"",""13000""
","
","
","""event"",""trial"",""time""
""fullscreenenter"",""1"",""1579""
","""event"",""trial"",""time""
""fullscreenexit"",""3"",""13000""
","","","-1","","","20","9814","4586","g","elianto","#f73b6a7A","-1","-1","1","-10","[]","0","2","","","9814","68","3","4","lose","no-go","1"
"pit-trial","190","1305113","0.0-73.0","battery-v0.2","","""event"",""trial"",""time""
""fullscreenenter"",""1"",""1579""
""fullscreenexit"",""3"",""13000""
","
","
","""event"",""trial"",""time""
""fullscreenenter"",""1"",""1579""
","""event"",""trial"",""time""
""fullscreenexit"",""3"",""13000""
","","","1067.8999999999069","","","20","9814","4586","p","elianto","#3366ff99"," "," ","1","0","[1926.6000000000931]","1","2","","","9814","69","4","1","win","go","1"
"pit-trial","191","1308669","0.0-74.0","battery-v0.2","","""event"",""trial"",""time""
""fullscreenenter"",""1"",""1579""
""fullscreenexit"",""3"",""13000""
","
","
","""event"",""trial"",""time""
""fullscreenenter"",""1"",""1579""
","""event"",""trial"",""time""
""fullscreenexit"",""3"",""13000""
","","","693","","","20","9814","4586","s","elianto","#3366ff99","-1"," ","0","0","[1545.8999999999069]","1","2","","","9814","70","5","2","win","no-go","0"
"pit-trial","192","1313539","0.0-75.0","battery-v0.2","","""event"",""trial"",""time""
""fullscreenenter"",""1"",""1579""
""fullscreenexit"",""3"",""13000""
","
","
","""event"",""trial"",""time""
""fullscreenenter"",""1"",""1579""
","""event"",""trial"",""time""
""fullscreenexit"",""3"",""13000""
","","","-1","","","20","9814","4586","a","elianto","#f73b6a7A"," ","-1","0","-10","[]","0","2","","","9814","71","2","3","lose","go","0"
"pit-trial","193","1318413","0.0-76.0","battery-v0.2","","""event"",""trial"",""time""
""fullscreenenter"",""1"",""1579""
""fullscreenexit"",""3"",""13000""
","
","
","""event"",""trial"",""time""
""fullscreenenter"",""1"",""1579""
","""event"",""trial"",""time""
""fullscreenexit"",""3"",""13000""
","","","-1","","","20","9814","4586","l","elianto","#3366ff99","-1","-1","1","0","[]","0","2","","","9814","72","1","2","win","no-go","1"
"pit-trial","194","1323283","0.0-77.0","battery-v0.2","","""event"",""trial"",""time""
""fullscreenenter"",""1"",""1579""
""fullscreenexit"",""3"",""13000""
","
","
","""event"",""trial"",""time""
""fullscreenenter"",""1"",""1579""
","""event"",""trial"",""time""
""fullscreenexit"",""3"",""13000""
","","","-1","","","20","9814","4586","g","elianto","#f73b6a7A","-1","-1","1","0","[]","0","2","","","9814","73","3","4","lose","no-go","0"
"pit-trial","195","1326829","0.0-78.0","battery-v0.2","","""event"",""trial"",""time""
""fullscreenenter"",""1"",""1579""
""fullscreenexit"",""3"",""13000""
","
","
","""event"",""trial"",""time""
""fullscreenenter"",""1"",""1579""
","""event"",""trial"",""time""
""fullscreenexit"",""3"",""13000""
","","","673.2000000001863","","","20","9814","4586","s","elianto","#3366ff99","-1"," ","0","+10","[1534.5]","1","2","","","9814","74","5","2","win","no-go","1"
"pit-trial","196","1331699","0.0-79.0","battery-v0.2","","""event"",""trial"",""time""
""fullscreenenter"",""1"",""1579""
""fullscreenexit"",""3"",""13000""
","
","
","""event"",""trial"",""time""
""fullscreenenter"",""1"",""1579""
","""event"",""trial"",""time""
""fullscreenexit"",""3"",""13000""
","","","-1","","","20","9814","4586","l","elianto","#3366ff99","-1","-1","1","+10","[]","0","2","","","9814","75","1","2","win","no-go","0"
"pit-trial","197","1335314","0.0-80.0","battery-v0.2","","""event"",""trial"",""time""
""fullscreenenter"",""1"",""1579""
""fullscreenexit"",""3"",""13000""
","
","
","""event"",""trial"",""time""
""fullscreenenter"",""1"",""1579""
","""event"",""trial"",""time""
""fullscreenexit"",""3"",""13000""
","","","745.1999999997206","","","20","9814","4586","p","elianto","#3366ff99"," "," ","1","+10","[1605.6999999997206]","1","2","","","9814","76","4","1","win","go","0"
"pit-trial","198","1339429","0.0-81.0","battery-v0.2","","""event"",""trial"",""time""
""fullscreenenter"",""1"",""1579""
""fullscreenexit"",""3"",""13000""
","
","
","""event"",""trial"",""time""
""fullscreenenter"",""1"",""1579""
","""event"",""trial"",""time""
""fullscreenexit"",""3"",""13000""
","","","1248.5","","","20","9814","4586","s","elianto","#3366ff99","-1"," ","0","0","[2099.3000000002794]","1","2","","","9814","77","5","2","win","no-go","0"
"pit-trial","199","1344301","0.0-82.0","battery-v0.2","","""event"",""trial"",""time""
""fullscreenenter"",""1"",""1579""
""fullscreenexit"",""3"",""13000""
","
","
","""event"",""trial"",""time""
""fullscreenenter"",""1"",""1579""
","""event"",""trial"",""time""
""fullscreenexit"",""3"",""13000""
","","","-1","","","20","9814","4586","p","elianto","#3366ff99"," ","-1","0","0","[]","0","2","","","9814","78","4","1","win","go","0"
"pit-trial","200","1349169","0.0-83.0","battery-v0.2","","""event"",""trial"",""time""
""fullscreenenter"",""1"",""1579""
""fullscreenexit"",""3"",""13000""
","
","
","""event"",""trial"",""time""
""fullscreenenter"",""1"",""1579""
","""event"",""trial"",""time""
""fullscreenexit"",""3"",""13000""
","","","-1","","","20","9814","4586","g","elianto","#f73b6a7A","-1","-1","1","0","[]","0","2","","","9814","79","3","4","lose","no-go","0"
"pit-trial","201","1352946","0.0-84.0","battery-v0.2","","""event"",""trial"",""time""
""fullscreenenter"",""1"",""1579""
""fullscreenexit"",""3"",""13000""
","
","
","""event"",""trial"",""time""
""fullscreenenter"",""1"",""1579""
","""event"",""trial"",""time""
""fullscreenexit"",""3"",""13000""
","","","913.7999999998137","","","20","9814","4586","p","elianto","#3366ff99"," "," ","1","0","[1768.6000000000931]","1","2","","","9814","80","4","1","win","go","1"
"pit-trial","202","1357811","0.0-85.0","battery-v0.2","","""event"",""trial"",""time""
""fullscreenenter"",""1"",""1579""
""fullscreenexit"",""3"",""13000""
","
","
","""event"",""trial"",""time""
""fullscreenenter"",""1"",""1579""
","""event"",""trial"",""time""
""fullscreenexit"",""3"",""13000""
","","","-1","","","20","9814","4586","p","elianto","#3366ff99"," ","-1","0","+10","[]","0","2","","","9814","81","4","1","win","go","1"
"pit-trial","203","1362685","0.0-86.0","battery-v0.2","","""event"",""trial"",""time""
""fullscreenenter"",""1"",""1579""
""fullscreenexit"",""3"",""13000""
","
","
","""event"",""trial"",""time""
""fullscreenenter"",""1"",""1579""
","""event"",""trial"",""time""
""fullscreenexit"",""3"",""13000""
","","","-1","","","20","9814","4586","e","elianto","#f73b6a7A","-1","-1","1","-10","[]","0","2","","","9814","82","7","4","lose","no-go","1"
"pit-trial","204","1367557","0.0-87.0","battery-v0.2","","""event"",""trial"",""time""
""fullscreenenter"",""1"",""1579""
""fullscreenexit"",""3"",""13000""
","
","
","""event"",""trial"",""time""
""fullscreenenter"",""1"",""1579""
","""event"",""trial"",""time""
""fullscreenexit"",""3"",""13000""
","","","-1","","","20","9814","4586","g","elianto","#f73b6a7A","-1","-1","1","0","[]","0","2","","","9814","83","3","4","lose","no-go","0"
"pit-trial","205","1371539","0.0-88.0","battery-v0.2","","""event"",""trial"",""time""
""fullscreenenter"",""1"",""1579""
""fullscreenexit"",""3"",""13000""
","
","
","""event"",""trial"",""time""
""fullscreenenter"",""1"",""1579""
","""event"",""trial"",""time""
""fullscreenexit"",""3"",""13000""
","","","1113.1000000000931","","","20","9814","4586","s","elianto","#3366ff99","-1"," ","0","0","[1967.1999999997206]","1","2","","","9814","84","5","2","win","no-go","0"
"pit-trial","206","1376414","0.0-89.0","battery-v0.2","","""event"",""trial"",""time""
""fullscreenenter"",""1"",""1579""
""fullscreenexit"",""3"",""13000""
","
","
","""event"",""trial"",""time""
""fullscreenenter"",""1"",""1579""
","""event"",""trial"",""time""
""fullscreenexit"",""3"",""13000""
","","","-1","","","20","9814","4586","w","elianto","#f73b6a7A"," ","-1","0","-10","[]","0","2","","","9814","85","6","3","lose","go","0"
"pit-trial","207","1381285","0.0-90.0","battery-v0.2","","""event"",""trial"",""time""
""fullscreenenter"",""1"",""1579""
""fullscreenexit"",""3"",""13000""
","
","
","""event"",""trial"",""time""
""fullscreenenter"",""1"",""1579""
","""event"",""trial"",""time""
""fullscreenexit"",""3"",""13000""
","","","-1","","","20","9814","4586","e","elianto","#f73b6a7A","-1","-1","1","0","[]","0","2","","","9814","86","7","4","lose","no-go","0"
"pit-trial","208","1385445","0.0-91.0","battery-v0.2","","""event"",""trial"",""time""
""fullscreenenter"",""1"",""1579""
""fullscreenexit"",""3"",""13000""
","
","
","""event"",""trial"",""time""
""fullscreenenter"",""1"",""1579""
","""event"",""trial"",""time""
""fullscreenexit"",""3"",""13000""
","","","1290","","","20","9814","4586","p","elianto","#3366ff99"," "," ","1","+10","[2148.399999999907]","1","2","","","9814","87","4","1","win","go","0"
"pit-trial","209","1388905","0.0-92.0","battery-v0.2","","""event"",""trial"",""time""
""fullscreenenter"",""1"",""1579""
""fullscreenexit"",""3"",""13000""
","
","
","""event"",""trial"",""time""
""fullscreenenter"",""1"",""1579""
","""event"",""trial"",""time""
""fullscreenexit"",""3"",""13000""
","","","594.1000000000931","","","20","9814","4586","s","elianto","#3366ff99","-1"," ","0","0","[1451.1000000000931]","1","2","","","9814","88","5","2","win","no-go","0"
"pit-trial","210","1393773","0.0-93.0","battery-v0.2","","""event"",""trial"",""time""
""fullscreenenter"",""1"",""1579""
""fullscreenexit"",""3"",""13000""
","
","
","""event"",""trial"",""time""
""fullscreenenter"",""1"",""1579""
","""event"",""trial"",""time""
""fullscreenexit"",""3"",""13000""
","","","-1","","","20","9814","4586","w","elianto","#f73b6a7A"," ","-1","0","-10","[]","0","2","","","9814","89","6","3","lose","go","0"
"pit-trial","211","1397645","0.0-94.0","battery-v0.2","","""event"",""trial"",""time""
""fullscreenenter"",""1"",""1579""
""fullscreenexit"",""3"",""13000""
","
","
","""event"",""trial"",""time""
""fullscreenenter"",""1"",""1579""
","""event"",""trial"",""time""
""fullscreenexit"",""3"",""13000""
