"trial_type","trial_index","time_elapsed","internal_node_id","task_version","subject_id","interactions","blur_events","focus_events","fullscreenenter_events","fullscreenexit_events","success","view_history","rt","responses","num_errors","age","subject","participantId","rune","rune_set","hex","correct","choice","accuracy","outcome","keys","total_keys","block","practice","value","sub","trial","stimulus","robot","valence","action","sham"
"pavlovia","0","19","0.0-0.0","battery-v0.2","","""event"",""trial"",""time""
""fullscreenenter"",""1"",""2547""
","
","
","""event"",""trial"",""time""
""fullscreenenter"",""1"",""2547""
","
","","","","","","","","","","","","","","","","","","","","","","","","","","",""
"fullscreen","1","3532","0.0-1.0","battery-v0.2","","""event"",""trial"",""time""
""fullscreenenter"",""1"",""2547""
","
","
","""event"",""trial"",""time""
""fullscreenenter"",""1"",""2547""
","
","true","","","","","","","","","","","","","","","","","","","","","","","","","",""
"pit-instructions","2","11852","0.0-2.0-0.0","battery-v0.2","","""event"",""trial"",""time""
""fullscreenenter"",""1"",""2547""
","
","
","""event"",""trial"",""time""
""fullscreenenter"",""1"",""2547""
","
","","[{""page_index"":0,""viewing_time"":8315}]","8315","","","","","","","","","","","","","","","","","","","","","","","",""
"pit-comprehension","3","25550","0.0-2.0-1.0-0.0","battery-v0.2","","""event"",""trial"",""time""
""fullscreenenter"",""1"",""2547""
","
","
","""event"",""trial"",""time""
""fullscreenenter"",""1"",""2547""
","
","","","13690","[""shark""]","0","12","3178","2335","","","","","","","","","","","","","","","","","","",""
"pit-instructions","4","26659","0.0-2.0-1.0-1.0","battery-v0.2","","""event"",""trial"",""time""
""fullscreenenter"",""1"",""2547""
","
","
","""event"",""trial"",""time""
""fullscreenenter"",""1"",""2547""
","
","","[{""page_index"":0,""viewing_time"":1101}]","1101","","","","","","","","","","","","","","","","","","","","","","","",""
"pit-comprehension","5","31542","0.0-2.0-2.0-0.0","battery-v0.2","","""event"",""trial"",""time""
""fullscreenenter"",""1"",""2547""
","
","
","""event"",""trial"",""time""
""fullscreenenter"",""1"",""2547""
","
","","","4876","[""tiger""]","0","12","3178","2335","","","","","","","","","","","","","","","","","","",""
"pit-instructions","6","32595","0.0-2.0-2.0-1.0","battery-v0.2","","""event"",""trial"",""time""
""fullscreenenter"",""1"",""2547""
","
","
","""event"",""trial"",""time""
""fullscreenenter"",""1"",""2547""
","
","","[{""page_index"":0,""viewing_time"":1047}]","1047","","","","","","","","","","","","","","","","","","","","","","","",""
"pit-instructions","7","127649","0.0-2.0-3.0","battery-v0.2","","""event"",""trial"",""time""
""fullscreenenter"",""1"",""2547""
","
","
","""event"",""trial"",""time""
""fullscreenenter"",""1"",""2547""
","
","","[{""page_index"":0,""viewing_time"":13715},{""page_index"":1,""viewing_time"":6632},{""page_index"":2,""viewing_time"":6303},{""page_index"":3,""viewing_time"":5976},{""page_index"":4,""viewing_time"":8904},{""page_index"":5,""viewing_time"":8025},{""page_index"":6,""viewing_time"":5438},{""page_index"":7,""viewing_time"":6056},{""page_index"":8,""viewing_time"":6048},{""page_index"":9,""viewing_time"":5144},{""page_index"":10,""viewing_time"":7015},{""page_index"":11,""viewing_time"":4465},{""page_index"":12,""viewing_time"":6288},{""page_index"":13,""viewing_time"":5039}]","95049","","","","","","","","","","","","","","","","","","","","","","","",""
"pit-trial","8","130591","0.0-2.0-4.0-0.0","battery-v0.2","","""event"",""trial"",""time""
""fullscreenenter"",""1"",""2547""
","
","
","""event"",""trial"",""time""
""fullscreenenter"",""1"",""2547""
","
","","","83","","","12","3178","2335","&#9784;","elianto","#FFFFF080"," "," ","1","&#10004","[938]","1","0","0","","","","","","","",""
"pit-trial","9","135447","0.0-2.0-4.1-0.1","battery-v0.2","","""event"",""trial"",""time""
""fullscreenenter"",""1"",""2547""
","
","
","""event"",""trial"",""time""
""fullscreenenter"",""1"",""2547""
","
","","","-1","","","12","3178","2335","&#9784;","elianto","#FFFFF080"," ","-1","0","&#10060","[779]","1","0","0","","","","","","","",""
"pit-trial","10","138753","0.0-2.0-4.2-0.2","battery-v0.2","","""event"",""trial"",""time""
""fullscreenenter"",""1"",""2547""
","
","
","""event"",""trial"",""time""
""fullscreenenter"",""1"",""2547""
","
","","","450","","","12","3178","2335","&#9784;","elianto","#FFFFF080"," "," ","1","&#10004","[1300]","1","0","0","","","","","","","",""
"pit-trial","11","142168","0.0-2.0-4.3-0.3","battery-v0.2","","""event"",""trial"",""time""
""fullscreenenter"",""1"",""2547""
","
","
","""event"",""trial"",""time""
""fullscreenenter"",""1"",""2547""
","
","","","561","","","12","3178","2335","&#9784;","elianto","#FFFFF080"," "," ","1","&#10004","[1411]","1","0","0","","","","","","","",""
"pit-trial","12","145582","0.0-2.0-4.4-0.4","battery-v0.2","","""event"",""trial"",""time""
""fullscreenenter"",""1"",""2547""
","
","
","""event"",""trial"",""time""
""fullscreenenter"",""1"",""2547""
","
","","","561","","","12","3178","2335","&#9784;","elianto","#FFFFF080"," "," ","1","&#10004","[1412]","1","0","0","","","","","","","",""
"pit-instructions","13","173320","0.0-2.0-5.0","battery-v0.2","","""event"",""trial"",""time""
""fullscreenenter"",""1"",""2547""
","
","
","""event"",""trial"",""time""
""fullscreenenter"",""1"",""2547""
","
","","[{""page_index"":0,""viewing_time"":12756},{""page_index"":1,""viewing_time"":5121},{""page_index"":2,""viewing_time"":4207},{""page_index"":3,""viewing_time"":5649}]","27734","","","","","","","","","","","","","","","","","","","","","","","",""
"pit-trial","14","177029","0.0-2.0-6.0-0.0","battery-v0.2","","""event"",""trial"",""time""
""fullscreenenter"",""1"",""2547""
","
","
","""event"",""trial"",""time""
""fullscreenenter"",""1"",""2547""
","
","","","842","","","12","3178","2335","&#9854;","elianto","#FFFFF080","-1"," ","0","&#10060","[1695,3400]","2","0","1","","","","","","","",""
"pit-trial","15","180399","0.0-2.0-6.1-0.1","battery-v0.2","","""event"",""trial"",""time""
""fullscreenenter"",""1"",""2547""
","
","
","""event"",""trial"",""time""
""fullscreenenter"",""1"",""2547""
","
","","","498","","","12","3178","2335","&#9854;","elianto","#FFFFF080","-1"," ","0","&#10060","[1357]","1","0","1","","","","","","","",""
"pit-trial","16","183809","0.0-2.0-6.2-0.2","battery-v0.2","","""event"",""trial"",""time""
""fullscreenenter"",""1"",""2547""
","
","
","""event"",""trial"",""time""
""fullscreenenter"",""1"",""2547""
","
","","","546","","","12","3178","2335","&#9854;","elianto","#FFFFF080","-1"," ","0","&#10060","[851,1402]","2","0","1","","","","","","","",""
"pit-trial","17","187589","0.0-2.0-6.3-0.3","battery-v0.2","","""event"",""trial"",""time""
""fullscreenenter"",""1"",""2547""
","
","
","""event"",""trial"",""time""
""fullscreenenter"",""1"",""2547""
","
","","","911","","","12","3178","2335","&#9854;","elianto","#FFFFF080","-1"," ","0","&#10060","[1769]","1","0","1","","","","","","","",""
"pit-trial","18","191299","0.0-2.0-6.4-0.4","battery-v0.2","","""event"",""trial"",""time""
""fullscreenenter"",""1"",""2547""
","
","
","""event"",""trial"",""time""
""fullscreenenter"",""1"",""2547""
","
","","","844","","","12","3178","2335","&#9854;","elianto","#FFFFF080","-1"," ","0","&#10060","[1701]","1","0","1","","","","","","","",""
"pit-trial","19","194898","0.0-2.0-6.5-0.5","battery-v0.2","","""event"",""trial"",""time""
""fullscreenenter"",""1"",""2547""
","
","
","""event"",""trial"",""time""
""fullscreenenter"",""1"",""2547""
","
","","","734","","","12","3178","2335","&#9854;","elianto","#FFFFF080","-1"," ","0","&#10060","[1591]","1","0","1","","","","","","","",""
"pit-trial","20","198129","0.0-2.0-6.6-0.6","battery-v0.2","","""event"",""trial"",""time""
""fullscreenenter"",""1"",""2547""
","
","
","""event"",""trial"",""time""
""fullscreenenter"",""1"",""2547""
","
","","","366","","","12","3178","2335","&#9854;","elianto","#FFFFF080","-1"," ","0","&#10060","[1223]","1","0","1","","","","","","","",""
"pit-instructions","21","212871","0.0-2.0-6.6-1.6-0.6","battery-v0.2","","""event"",""trial"",""time""
""fullscreenenter"",""1"",""2547""
","
","
","""event"",""trial"",""time""
""fullscreenenter"",""1"",""2547""
","
","","[{""page_index"":0,""viewing_time"":6211},{""page_index"":1,""viewing_time"":8528}]","14739","","","","","","","","","","","","","","","","","","","","","","","",""
"pit-trial","22","217731","0.0-2.0-6.7-0.7","battery-v0.2","","""event"",""trial"",""time""
""fullscreenenter"",""1"",""2547""
","
","
","""event"",""trial"",""time""
""fullscreenenter"",""1"",""2547""
","
","","","-1","","","12","3178","2335","&#9854;","elianto","#FFFFF080","-1","-1","1","&#10004","[]","0","0","1","","","","","","","",""
"pit-trial","23","222602","0.0-2.0-6.8-0.8","battery-v0.2","","""event"",""trial"",""time""
""fullscreenenter"",""1"",""2547""
","
","
","""event"",""trial"",""time""
""fullscreenenter"",""1"",""2547""
","
","","","-1","","","12","3178","2335","&#9854;","elianto","#FFFFF080","-1","-1","1","&#10004","[]","0","0","1","","","","","","","",""
"pit-trial","24","227473","0.0-2.0-6.9-0.9","battery-v0.2","","""event"",""trial"",""time""
""fullscreenenter"",""1"",""2547""
","
","
","""event"",""trial"",""time""
""fullscreenenter"",""1"",""2547""
","
","","","-1","","","12","3178","2335","&#9854;","elianto","#FFFFF080","-1","-1","1","&#10004","[]","0","0","1","","","","","","","",""
"pit-instructions","25","329475","0.0-2.0-7.0","battery-v0.2","","""event"",""trial"",""time""
""fullscreenenter"",""1"",""2547""
","
","
","""event"",""trial"",""time""
""fullscreenenter"",""1"",""2547""
","
","","[{""page_index"":0,""viewing_time"":5375},{""page_index"":1,""viewing_time"":6016},{""page_index"":2,""viewing_time"":5472},{""page_index"":3,""viewing_time"":5159},{""page_index"":4,""viewing_time"":5008},{""page_index"":5,""viewing_time"":5064},{""page_index"":6,""viewing_time"":4184},{""page_index"":7,""viewing_time"":7135},{""page_index"":8,""viewing_time"":6256},{""page_index"":9,""viewing_time"":5160},{""page_index"":10,""viewing_time"":6072},{""page_index"":11,""viewing_time"":4480},{""page_index"":12,""viewing_time"":6047},{""page_index"":13,""viewing_time"":6089},{""page_index"":14,""viewing_time"":6111},{""page_index"":15,""viewing_time"":6137},{""page_index"":16,""viewing_time"":6167},{""page_index"":17,""viewing_time"":6064}]","101996","","","","","","","","","","","","","","","","","","","","","","","",""
"pit-trial","26","333402","0.0-2.0-8.0-0.0","battery-v0.2","","""event"",""trial"",""time""
""fullscreenenter"",""1"",""2547""
","
","
","""event"",""trial"",""time""
""fullscreenenter"",""1"",""2547""
","
","","","1066","","","12","3178","2335","&#9776;","elianto","#3366ff99"," "," ","1","+10","[1922]","1","0","1","","","","","","","",""
"pit-trial","27","336772","0.0-2.0-8.0-1.0","battery-v0.2","","""event"",""trial"",""time""
""fullscreenenter"",""1"",""2547""
","
","
","""event"",""trial"",""time""
""fullscreenenter"",""1"",""2547""
","
","","","504","","","12","3178","2335","&#9776;","elianto","#3366ff99"," "," ","1","+10","[1363,2428]","2","0","1","","","","","","","",""
"pit-trial","28","340113","0.0-2.0-8.0-2.0","battery-v0.2","","""event"",""trial"",""time""
""fullscreenenter"",""1"",""2547""
","
","
","""event"",""trial"",""time""
""fullscreenenter"",""1"",""2547""
","
","","","481","","","12","3178","2335","&#9776;","elianto","#3366ff99"," "," ","1","+10","[1339]","1","0","1","","","","","","","",""
"pit-trial","29","343412","0.0-2.0-8.0-3.0","battery-v0.2","","""event"",""trial"",""time""
""fullscreenenter"",""1"",""2547""
","
","
","""event"",""trial"",""time""
""fullscreenenter"",""1"",""2547""
","
","","","435","","","12","3178","2335","&#9776;","elianto","#3366ff99"," "," ","1","0","[1293]","1","0","1","","","","","","","",""
"pit-trial","30","346792","0.0-2.0-8.0-4.0","battery-v0.2","","""event"",""trial"",""time""
""fullscreenenter"",""1"",""2547""
","
","
","""event"",""trial"",""time""
""fullscreenenter"",""1"",""2547""
","
","","","511","","","12","3178","2335","&#9776;","elianto","#3366ff99"," "," ","1","+10","[1370]","1","0","1","","","","","","","",""
"call-function","31","346794","0.0-2.0-9.0","battery-v0.2","","""event"",""trial"",""time""
""fullscreenenter"",""1"",""2547""
","
","
","""event"",""trial"",""time""
""fullscreenenter"",""1"",""2547""
","
","","","","","","","","","","","","","","","","","","","","","","","","","","",""
"pit-instructions","32","384682","0.0-2.0-10.0","battery-v0.2","","""event"",""trial"",""time""
""fullscreenenter"",""1"",""2547""
","
","
","""event"",""trial"",""time""
""fullscreenenter"",""1"",""2547""
","
","","[{""page_index"":0,""viewing_time"":7471},{""page_index"":1,""viewing_time"":6087},{""page_index"":2,""viewing_time"":9216},{""page_index"":3,""viewing_time"":8071},{""page_index"":4,""viewing_time"":7041}]","37886","","","","","","","","","","","","","","","","","","","","","","","",""
"pit-trial","33","388608","0.0-2.0-11.0-0.0","battery-v0.2","","""event"",""trial"",""time""
""fullscreenenter"",""1"",""2547""
","
","
","""event"",""trial"",""time""
""fullscreenenter"",""1"",""2547""
","
","","","1069","","","12","3178","2335","&#9761;","elianto","#3366ff99","-1"," ","0","0","[1921]","1","0","2","","","","","","","",""
"pit-trial","34","392114","0.0-2.0-11.0-1.0","battery-v0.2","","""event"",""trial"",""time""
""fullscreenenter"",""1"",""2547""
","
","
","""event"",""trial"",""time""
""fullscreenenter"",""1"",""2547""
","
","","","650","","","12","3178","2335","&#9761;","elianto","#3366ff99","-1"," ","0","0","[1501]","1","0","2","","","","","","","",""
"pit-trial","35","395376","0.0-2.0-11.0-2.0","battery-v0.2","","""event"",""trial"",""time""
""fullscreenenter"",""1"",""2547""
","
","
","""event"",""trial"",""time""
""fullscreenenter"",""1"",""2547""
","
","","","408","","","12","3178","2335","&#9761;","elianto","#3366ff99","-1"," ","0","0","[1259]","1","0","2","","","","","","","",""
"pit-trial","36","400228","0.0-2.0-11.0-3.0","battery-v0.2","","""event"",""trial"",""time""
""fullscreenenter"",""1"",""2547""
","
","
","""event"",""trial"",""time""
""fullscreenenter"",""1"",""2547""
","
","","","-1","","","12","3178","2335","&#9761;","elianto","#3366ff99","-1","-1","1","0","[]","0","0","2","","","","","","","",""
"pit-trial","37","405040","0.0-2.0-11.0-4.0","battery-v0.2","","""event"",""trial"",""time""
""fullscreenenter"",""1"",""2547""
","
","
","""event"",""trial"",""time""
""fullscreenenter"",""1"",""2547""
","
","","","1958","","","12","3178","2335","&#9761;","elianto","#3366ff99","-1"," ","0","0","[2809,4249]","2","0","2","","","","","","","",""
"pit-trial","38","409901","0.0-2.0-11.1-0.1","battery-v0.2","","""event"",""trial"",""time""
""fullscreenenter"",""1"",""2547""
","
","
","""event"",""trial"",""time""
""fullscreenenter"",""1"",""2547""
","
","","","-1","","","12","3178","2335","&#9761;","elianto","#3366ff99","-1","-1","1","+10","[]","0","0","2","","","","","","","",""
"pit-trial","39","413260","0.0-2.0-11.1-1.1","battery-v0.2","","""event"",""trial"",""time""
""fullscreenenter"",""1"",""2547""
","
","
","""event"",""trial"",""time""
""fullscreenenter"",""1"",""2547""
","
","","","494","","","12","3178","2335","&#9761;","elianto","#3366ff99","-1"," ","0","0","[79,1351]","2","0","2","","","","","","","",""
"pit-trial","40","418120","0.0-2.0-11.1-2.1","battery-v0.2","","""event"",""trial"",""time""
""fullscreenenter"",""1"",""2547""
","
","
","""event"",""trial"",""time""
""fullscreenenter"",""1"",""2547""
","
","","","-1","","","12","3178","2335","&#9761;","elianto","#3366ff99","-1","-1","1","+10","[]","0","0","2","","","","","","","",""
"pit-trial","41","421000","0.0-2.0-11.1-3.1","battery-v0.2","","""event"",""trial"",""time""
""fullscreenenter"",""1"",""2547""
","
","
","""event"",""trial"",""time""
""fullscreenenter"",""1"",""2547""
","
","","","19","","","12","3178","2335","&#9761;","elianto","#3366ff99","-1"," ","0","+10","[876,1731,2027]","3","0","2","","","","","","","",""
"pit-trial","42","424380","0.0-2.0-11.1-4.1","battery-v0.2","","""event"",""trial"",""time""
""fullscreenenter"",""1"",""2547""
","
","
","""event"",""trial"",""time""
""fullscreenenter"",""1"",""2547""
","
","","","514","","","12","3178","2335","&#9761;","elianto","#3366ff99","-1"," ","0","0","[1372]","1","0","2","","","","","","","",""
"pit-trial","43","427789","0.0-2.0-11.2-0.2","battery-v0.2","","""event"",""trial"",""time""
""fullscreenenter"",""1"",""2547""
","
","
","""event"",""trial"",""time""
""fullscreenenter"",""1"",""2547""
","
","","","549","","","12","3178","2335","&#9761;","elianto","#3366ff99","-1"," ","0","0","[1407]","1","0","2","","","","","","","",""
"pit-trial","44","430700","0.0-2.0-11.2-1.2","battery-v0.2","","""event"",""trial"",""time""
""fullscreenenter"",""1"",""2547""
","
","
","""event"",""trial"",""time""
""fullscreenenter"",""1"",""2547""
","
","","","46","","","12","3178","2335","&#9761;","elianto","#3366ff99","-1"," ","0","0","[904,1157]","2","0","2","","","","","","","",""
"pit-trial","45","433600","0.0-2.0-11.2-2.2","battery-v0.2","","""event"",""trial"",""time""
""fullscreenenter"",""1"",""2547""
","
","
","""event"",""trial"",""time""
""fullscreenenter"",""1"",""2547""
","
","","","34","","","12","3178","2335","&#9761;","elianto","#3366ff99","-1"," ","0","0","[896,1271]","2","0","2","","","","","","","",""
"pit-trial","46","437550","0.0-2.0-11.2-3.2","battery-v0.2","","""event"",""trial"",""time""
""fullscreenenter"",""1"",""2547""
","
","
","""event"",""trial"",""time""
""fullscreenenter"",""1"",""2547""
","
","","","1081","","","12","3178","2335","&#9761;","elianto","#3366ff99","-1"," ","0","+10","[1940,2203,2435,3588]","4","0","2","","","","","","","",""
"pit-trial","47","440869","0.0-2.0-11.2-4.2","battery-v0.2","","""event"",""trial"",""time""
""fullscreenenter"",""1"",""2547""
","
","
","""event"",""trial"",""time""
""fullscreenenter"",""1"",""2547""
","
","","","451","","","12","3178","2335","&#9761;","elianto","#3366ff99","-1"," ","0","0","[238,591,1309]","3","0","2","","","","","","","",""
"pit-trial","48","444139","0.0-2.0-11.3-0.3","battery-v0.2","","""event"",""trial"",""time""
""fullscreenenter"",""1"",""2547""
","
","
","""event"",""trial"",""time""
""fullscreenenter"",""1"",""2547""
","
","","","403","","","12","3178","2335","&#9761;","elianto","#3366ff99","-1"," ","0","0","[1261]","1","0","2","","","","","","","",""
"pit-trial","49","447749","0.0-2.0-11.3-1.3","battery-v0.2","","""event"",""trial"",""time""
""fullscreenenter"",""1"",""2547""
","
","
","""event"",""trial"",""time""
""fullscreenenter"",""1"",""2547""
","
","","","742","","","12","3178","2335","&#9761;","elianto","#3366ff99","-1"," ","0","0","[1600,3544]","2","0","2","","","","","","","",""
"pit-trial","50","450679","0.0-2.0-11.3-2.3","battery-v0.2","","""event"",""trial"",""time""
""fullscreenenter"",""1"",""2547""
","
","
","""event"",""trial"",""time""
""fullscreenenter"",""1"",""2547""
","
","","","67","","","12","3178","2335","&#9761;","elianto","#3366ff99","-1"," ","0","0","[326,677,925,1189,1405,1589,1789,1941,2125,2292,2453,2637]","12","0","2","","","","","","","",""
"pit-trial","51","453949","0.0-2.0-11.3-3.3","battery-v0.2","","""event"",""trial"",""time""
""fullscreenenter"",""1"",""2547""
","
","
","""event"",""trial"",""time""
""fullscreenenter"",""1"",""2547""
","
","","","409","","","12","3178","2335","&#9761;","elianto","#3366ff99","-1"," ","0","+10","[1267]","1","0","2","","","","","","","",""
"pit-trial","52","457029","0.0-2.0-11.3-4.3","battery-v0.2","","""event"",""trial"",""time""
""fullscreenenter"",""1"",""2547""
","
","
","""event"",""trial"",""time""
""fullscreenenter"",""1"",""2547""
","
","","","212","","","12","3178","2335","&#9761;","elianto","#3366ff99","-1"," ","0","0","[663,1070,2358,2654,2894]","5","0","2","","","","","","","",""
"pit-trial","53","460059","0.0-2.0-11.4-0.4","battery-v0.2","","""event"",""trial"",""time""
""fullscreenenter"",""1"",""2547""
","
","
","""event"",""trial"",""time""
""fullscreenenter"",""1"",""2547""
","
","","","165","","","12","3178","2335","&#9761;","elianto","#3366ff99","-1"," ","0","0","[38,301,525,772,1022,1213,1413]","7","0","2","","","","","","","",""
"pit-trial","54","463289","0.0-2.0-11.4-1.4","battery-v0.2","","""event"",""trial"",""time""
""fullscreenenter"",""1"",""2547""
","
","
","""event"",""trial"",""time""
""fullscreenenter"",""1"",""2547""
","
","","","366","","","12","3178","2335","&#9761;","elianto","#3366ff99","-1"," ","0","0","[1224]","1","0","2","","","","","","","",""
"pit-trial","55","467279","0.0-2.0-11.4-2.4","battery-v0.2","","""event"",""trial"",""time""
""fullscreenenter"",""1"",""2547""
","
","
","""event"",""trial"",""time""
""fullscreenenter"",""1"",""2547""
","
","","","1128","","","12","3178","2335","&#9761;","elianto","#3366ff99","-1"," ","0","0","[1986,2674]","2","0","2","","","","","","","",""
"pit-trial","56","470958","0.0-2.0-11.4-3.4","battery-v0.2","","""event"",""trial"",""time""
""fullscreenenter"",""1"",""2547""
","
","
","""event"",""trial"",""time""
""fullscreenenter"",""1"",""2547""
","
","","","818","","","12","3178","2335","&#9761;","elianto","#3366ff99","-1"," ","0","+10","[1676]","1","0","2","","","","","","","",""
"pit-trial","57","474309","0.0-2.0-11.4-4.4","battery-v0.2","","""event"",""trial"",""time""
""fullscreenenter"",""1"",""2547""
","
","
","""event"",""trial"",""time""
""fullscreenenter"",""1"",""2547""
","
","","","490","","","12","3178","2335","&#9761;","elianto","#3366ff99","-1"," ","0","0","[1348]","1","0","2","","","","","","","",""
"pit-instructions","58","497365","0.0-2.0-11.4-5.4-0.4","battery-v0.2","","""event"",""trial"",""time""
""fullscreenenter"",""1"",""2547""
","
","
","""event"",""trial"",""time""
""fullscreenenter"",""1"",""2547""
","
","","[{""page_index"":0,""viewing_time"":6097},{""page_index"":1,""viewing_time"":5503},{""page_index"":2,""viewing_time"":11456}]","23056","","","","","","","","","","","","","","","","","","","","","","","",""
"pit-trial","59","502237","0.0-2.0-11.5-0.5","battery-v0.2","","""event"",""trial"",""time""
""fullscreenenter"",""1"",""2547""
","
","
","""event"",""trial"",""time""
""fullscreenenter"",""1"",""2547""
","
","","","-1","","","12","3178","2335","&#9761;","elianto","#3366ff99","-1","-1","1","+10","[]","0","0","2","","","","","","","",""
"pit-trial","60","507097","0.0-2.0-11.5-1.5","battery-v0.2","","""event"",""trial"",""time""
""fullscreenenter"",""1"",""2547""
","
","
","""event"",""trial"",""time""
""fullscreenenter"",""1"",""2547""
","
","","","-1","","","12","3178","2335","&#9761;","elianto","#3366ff99","-1","-1","1","+10","[]","0","0","2","","","","","","","",""
"pit-trial","61","510198","0.0-2.0-11.5-2.5","battery-v0.2","","""event"",""trial"",""time""
""fullscreenenter"",""1"",""2547""
","
","
","""event"",""trial"",""time""
""fullscreenenter"",""1"",""2547""
","
","","","238","","","12","3178","2335","&#9761;","elianto","#3366ff99","-1"," ","0","0","[1096]","1","0","2","","","","","","","",""
"pit-trial","62","513237","0.0-2.0-11.5-3.5","battery-v0.2","","""event"",""trial"",""time""
""fullscreenenter"",""1"",""2547""
","
","
","""event"",""trial"",""time""
""fullscreenenter"",""1"",""2547""
","
","","","179","","","12","3178","2335","&#9761;","elianto","#3366ff99","-1"," ","0","+10","[1036]","1","0","2","","","","","","","",""
"pit-trial","63","516278","0.0-2.0-11.5-4.5","battery-v0.2","","""event"",""trial"",""time""
""fullscreenenter"",""1"",""2547""
","
","
","""event"",""trial"",""time""
""fullscreenenter"",""1"",""2547""
","
","","","178","","","12","3178","2335","&#9761;","elianto","#3366ff99","-1"," ","0","0","[1036]","1","0","2","","","","","","","",""
"pit-trial","64","519317","0.0-2.0-11.6-0.6","battery-v0.2","","""event"",""trial"",""time""
""fullscreenenter"",""1"",""2547""
","
","
","""event"",""trial"",""time""
""fullscreenenter"",""1"",""2547""
","
","","","179","","","12","3178","2335","&#9761;","elianto","#3366ff99","-1"," ","0","0","[1036]","1","0","2","","","","","","","",""
"pit-trial","65","522227","0.0-2.0-11.6-1.6","battery-v0.2","","""event"",""trial"",""time""
""fullscreenenter"",""1"",""2547""
","
","
","""event"",""trial"",""time""
""fullscreenenter"",""1"",""2547""
","
","","","44","","","12","3178","2335","&#9761;","elianto","#3366ff99","-1"," ","0","0","[901]","1","0","2","","","","","","","",""
"pit-trial","66","525277","0.0-2.0-11.6-2.6","battery-v0.2","","""event"",""trial"",""time""
""fullscreenenter"",""1"",""2547""
","
","
","""event"",""trial"",""time""
""fullscreenenter"",""1"",""2547""
","
","","","188","","","12","3178","2335","&#9761;","elianto","#3366ff99","-1"," ","0","0","[1045]","1","0","2","","","","","","","",""
"pit-trial","67","530147","0.0-2.0-11.6-3.6","battery-v0.2","","""event"",""trial"",""time""
""fullscreenenter"",""1"",""2547""
","
","
","""event"",""trial"",""time""
""fullscreenenter"",""1"",""2547""
","
","","","-1","","","12","3178","2335","&#9761;","elianto","#3366ff99","-1","-1","1","0","[]","0","0","2","","","","","","","",""
"pit-trial","68","535007","0.0-2.0-11.6-4.6","battery-v0.2","","""event"",""trial"",""time""
""fullscreenenter"",""1"",""2547""
","
","
","""event"",""trial"",""time""
""fullscreenenter"",""1"",""2547""
","
","","","-1","","","12","3178","2335","&#9761;","elianto","#3366ff99","-1","-1","1","+10","[4421]","1","0","2","","","","","","","",""
"pit-trial","69","539867","0.0-2.0-11.7-0.7","battery-v0.2","","""event"",""trial"",""time""
""fullscreenenter"",""1"",""2547""
","
","
","""event"",""trial"",""time""
""fullscreenenter"",""1"",""2547""
","
","","","-1","","","12","3178","2335","&#9761;","elianto","#3366ff99","-1","-1","1","+10","[]","0","0","2","","","","","","","",""
"pit-trial","70","542917","0.0-2.0-11.7-1.7","battery-v0.2","","""event"",""trial"",""time""
""fullscreenenter"",""1"",""2547""
","
","
","""event"",""trial"",""time""
""fullscreenenter"",""1"",""2547""
","
","","","188","","","12","3178","2335","&#9761;","elianto","#3366ff99","-1"," ","0","0","[1046]","1","0","2","","","","","","","",""
"pit-trial","71","547777","0.0-2.0-11.7-2.7","battery-v0.2","","""event"",""trial"",""time""
""fullscreenenter"",""1"",""2547""
","
","
","""event"",""trial"",""time""
""fullscreenenter"",""1"",""2547""
","
","","","-1","","","12","3178","2335","&#9761;","elianto","#3366ff99","-1","-1","1","+10","[]","0","0","2","","","","","","","",""
"pit-trial","72","550866","0.0-2.0-11.7-3.7","battery-v0.2","","""event"",""trial"",""time""
""fullscreenenter"",""1"",""2547""
","
","
","""event"",""trial"",""time""
""fullscreenenter"",""1"",""2547""
","
","","","230","","","12","3178","2335","&#9761;","elianto","#3366ff99","-1"," ","0","+10","[1089]","1","0","2","","","","","","","",""
"pit-trial","73","554186","0.0-2.0-11.7-4.7","battery-v0.2","","""event"",""trial"",""time""
""fullscreenenter"",""1"",""2547""
","
","
","""event"",""trial"",""time""
""fullscreenenter"",""1"",""2547""
","
","","","452","","","12","3178","2335","&#9761;","elianto","#3366ff99","-1"," ","0","0","[1309]","1","0","2","","","","","","","",""
"pit-trial","74","559046","0.0-2.0-11.8-0.8","battery-v0.2","","""event"",""trial"",""time""
""fullscreenenter"",""1"",""2547""
","
","
","""event"",""trial"",""time""
""fullscreenenter"",""1"",""2547""
","
","","","-1","","","12","3178","2335","&#9761;","elianto","#3366ff99","-1","-1","1","+10","[]","0","0","2","","","","","","","",""
"pit-trial","75","562166","0.0-2.0-11.8-1.8","battery-v0.2","","""event"",""trial"",""time""
""fullscreenenter"",""1"",""2547""
","
","
","""event"",""trial"",""time""
""fullscreenenter"",""1"",""2547""
","
","","","256","","","12","3178","2335","&#9761;","elianto","#3366ff99","-1"," ","0","0","[1114]","1","0","2","","","","","","","",""
"pit-trial","76","567029","0.0-2.0-11.8-2.8","battery-v0.2","","""event"",""trial"",""time""
""fullscreenenter"",""1"",""2547""
","
","
","""event"",""trial"",""time""
""fullscreenenter"",""1"",""2547""
","
","","","-1","","","12","3178","2335","&#9761;","elianto","#3366ff99","-1","-1","1","+10","[]","0","0","2","","","","","","","",""
"pit-trial","77","570550","0.0-2.0-11.8-3.8","battery-v0.2","","""event"",""trial"",""time""
""fullscreenenter"",""1"",""2547""
","
","
","""event"",""trial"",""time""
""fullscreenenter"",""1"",""2547""
","
","","","654","","","12","3178","2335","&#9761;","elianto","#3366ff99","-1"," ","0","+10","[495,1515]","2","0","2","","","","","","","",""
"pit-trial","78","575401","0.0-2.0-11.8-4.8","battery-v0.2","","""event"",""trial"",""time""
""fullscreenenter"",""1"",""2547""
","
","
","""event"",""trial"",""time""
""fullscreenenter"",""1"",""2547""
","
","","","-1","","","12","3178","2335","&#9761;","elianto","#3366ff99","-1","-1","1","+10","[]","0","0","2","","","","","","","",""
"pit-trial","79","580262","0.0-2.0-11.9-0.9","battery-v0.2","","""event"",""trial"",""time""
""fullscreenenter"",""1"",""2547""
","
","
","""event"",""trial"",""time""
""fullscreenenter"",""1"",""2547""
","
","","","-1","","","12","3178","2335","&#9761;","elianto","#3366ff99","-1","-1","1","+10","[]","0","0","2","","","","","","","",""
"pit-trial","80","585121","0.0-2.0-11.9-1.9","battery-v0.2","","""event"",""trial"",""time""
""fullscreenenter"",""1"",""2547""
","
","
","""event"",""trial"",""time""
""fullscreenenter"",""1"",""2547""
","
","","","-1","","","12","3178","2335","&#9761;","elianto","#3366ff99","-1","-1","1","+10","[]","0","0","2","","","","","","","",""
"pit-trial","81","588251","0.0-2.0-11.9-2.9","battery-v0.2","","""event"",""trial"",""time""
""fullscreenenter"",""1"",""2547""
","
","
","""event"",""trial"",""time""
""fullscreenenter"",""1"",""2547""
","
","","","268","","","12","3178","2335","&#9761;","elianto","#3366ff99","-1"," ","0","0","[1126]","1","0","2","","","","","","","",""
"pit-trial","82","591171","0.0-2.0-11.9-3.9","battery-v0.2","","""event"",""trial"",""time""
""fullscreenenter"",""1"",""2547""
","
","
","""event"",""trial"",""time""
""fullscreenenter"",""1"",""2547""
","
","","","58","","","12","3178","2335","&#9761;","elianto","#3366ff99","-1"," ","0","+10","[916]","1","0","2","","","","","","","",""
"pit-trial","83","594041","0.0-2.0-11.9-4.9","battery-v0.2","","""event"",""trial"",""time""
""fullscreenenter"",""1"",""2547""
","
","
","""event"",""trial"",""time""
""fullscreenenter"",""1"",""2547""
","
","","","1","","","12","3178","2335","&#9761;","elianto","#3366ff99","-1"," ","0","0","[860]","1","0","2","","","","","","","",""
"pit-trial","84","598901","0.0-2.0-11.10-0.10","battery-v0.2","","""event"",""trial"",""time""
""fullscreenenter"",""1"",""2547""
","
","
","""event"",""trial"",""time""
""fullscreenenter"",""1"",""2547""
","
","","","-1","","","12","3178","2335","&#9761;","elianto","#3366ff99","-1","-1","1","+10","[]","0","0","2","","","","","","","",""
"pit-trial","85","603771","0.0-2.0-11.10-1.10","battery-v0.2","","""event"",""trial"",""time""
""fullscreenenter"",""1"",""2547""
","
","
","""event"",""trial"",""time""
""fullscreenenter"",""1"",""2547""
","
","","","-1","","","12","3178","2335","&#9761;","elianto","#3366ff99","-1","-1","1","+10","[]","0","0","2","","","","","","","",""
"pit-trial","86","608631","0.0-2.0-11.10-2.10","battery-v0.2","","""event"",""trial"",""time""
""fullscreenenter"",""1"",""2547""
","
","
","""event"",""trial"",""time""
""fullscreenenter"",""1"",""2547""
","
","","","-1","","","12","3178","2335","&#9761;","elianto","#3366ff99","-1","-1","1","+10","[]","0","0","2","","","","","","","",""
"pit-trial","87","613501","0.0-2.0-11.10-3.10","battery-v0.2","","""event"",""trial"",""time""
""fullscreenenter"",""1"",""2547""
","
","
","""event"",""trial"",""time""
""fullscreenenter"",""1"",""2547""
","
","","","-1","","","12","3178","2335","&#9761;","elianto","#3366ff99","-1","-1","1","0","[]","0","0","2","","","","","","","",""
"pit-trial","88","618371","0.0-2.0-11.10-4.10","battery-v0.2","","""event"",""trial"",""time""
""fullscreenenter"",""1"",""2547""
","
","
","""event"",""trial"",""time""
""fullscreenenter"",""1"",""2547""
","
","","","-1","","","12","3178","2335","&#9761;","elianto","#3366ff99","-1","-1","1","+10","[]","0","0","2","","","","","","","",""
"call-function","89","618372","0.0-2.0-12.0","battery-v0.2","","""event"",""trial"",""time""
""fullscreenenter"",""1"",""2547""
","
","
","""event"",""trial"",""time""
""fullscreenenter"",""1"",""2547""
","
","","","","","","","","","","","","","","","","","","","","","","","","","","",""
"pit-instructions","90","650850","0.0-2.0-13.0","battery-v0.2","","""event"",""trial"",""time""
""fullscreenenter"",""1"",""2547""
","
","
","""event"",""trial"",""time""
""fullscreenenter"",""1"",""2547""
","
","","[{""page_index"":0,""viewing_time"":5742},{""page_index"":1,""viewing_time"":8959},{""page_index"":2,""viewing_time"":3641},{""page_index"":3,""viewing_time"":10007},{""page_index"":4,""viewing_time"":4128}]","32477","","","","","","","","","","","","","","","","","","","","","","","",""
"pit-trial","91","654340","0.0-2.0-14.0-0.0","battery-v0.2","","""event"",""trial"",""time""
""fullscreenenter"",""1"",""2547""
","
","
","""event"",""trial"",""time""
""fullscreenenter"",""1"",""2547""
","
","","","625","","","12","3178","2335","&#9826;","elianto","#f73b6a7A","-1"," ","0","-10","[1483,1988]","2","0","3","","","","","","","",""
"pit-trial","92","657209","0.0-2.0-14.0-1.0","battery-v0.2","","""event"",""trial"",""time""
""fullscreenenter"",""1"",""2547""
","
","
","""event"",""trial"",""time""
""fullscreenenter"",""1"",""2547""
","
","","","7","","","12","3178","2335","&#9826;","elianto","#f73b6a7A","-1"," ","0","-10","[865]","1","0","3","","","","","","","",""
"pit-trial","93","662064","0.0-2.0-14.0-2.0","battery-v0.2","","""event"",""trial"",""time""
""fullscreenenter"",""1"",""2547""
","
","
","""event"",""trial"",""time""
""fullscreenenter"",""1"",""2547""
","
","","","-1","","","12","3178","2335","&#9826;","elianto","#f73b6a7A","-1","-1","1","0","[]","0","0","3","","","","","","","",""
"pit-trial","94","666934","0.0-2.0-14.0-3.0","battery-v0.2","","""event"",""trial"",""time""
""fullscreenenter"",""1"",""2547""
","
","
","""event"",""trial"",""time""
""fullscreenenter"",""1"",""2547""
","
","","","-1","","","12","3178","2335","&#9826;","elianto","#f73b6a7A","-1","-1","1","-10","[]","0","0","3","","","","","","","",""
"pit-trial","95","670344","0.0-2.0-14.0-4.0","battery-v0.2","","""event"",""trial"",""time""
""fullscreenenter"",""1"",""2547""
","
","
","""event"",""trial"",""time""
""fullscreenenter"",""1"",""2547""
","
","","","549","","","12","3178","2335","&#9826;","elianto","#f73b6a7A","-1"," ","0","-10","[1407]","1","0","3","","","","","","","",""
"pit-trial","96","675204","0.0-2.0-14.1-0.1","battery-v0.2","","""event"",""trial"",""time""
""fullscreenenter"",""1"",""2547""
","
","
","""event"",""trial"",""time""
""fullscreenenter"",""1"",""2547""
","
","","","-1","","","12","3178","2335","&#9826;","elianto","#f73b6a7A","-1","-1","1","0","[124]","1","0","3","","","","","","","",""
"pit-trial","97","680065","0.0-2.0-14.1-1.1","battery-v0.2","","""event"",""trial"",""time""
""fullscreenenter"",""1"",""2547""
","
","
","""event"",""trial"",""time""
""fullscreenenter"",""1"",""2547""
","
","","","-1","","","12","3178","2335","&#9826;","elianto","#f73b6a7A","-1","-1","1","0","[]","0","0","3","","","","","","","",""
"pit-trial","98","684917","0.0-2.0-14.1-2.1","battery-v0.2","","""event"",""trial"",""time""
""fullscreenenter"",""1"",""2547""
","
","
","""event"",""trial"",""time""
""fullscreenenter"",""1"",""2547""
","
","","","-1","","","12","3178","2335","&#9826;","elianto","#f73b6a7A","-1","-1","1","0","[]","0","0","3","","","","","","","",""
"pit-trial","99","689770","0.0-2.0-14.1-3.1","battery-v0.2","","""event"",""trial"",""time""
""fullscreenenter"",""1"",""2547""
","
","
","""event"",""trial"",""time""
""fullscreenenter"",""1"",""2547""
","
","","","-1","","","12","3178","2335","&#9826;","elianto","#f73b6a7A","-1","-1","1","-10","[]","0","0","3","","","","","","","",""
"pit-trial","100","694623","0.0-2.0-14.1-4.1","battery-v0.2","","""event"",""trial"",""time""
""fullscreenenter"",""1"",""2547""
","
","
","""event"",""trial"",""time""
""fullscreenenter"",""1"",""2547""
","
","","","-1","","","12","3178","2335","&#9826;","elianto","#f73b6a7A","-1","-1","1","0","[]","0","0","3","","","","","","","",""
"call-function","101","694624","0.0-2.0-15.0","battery-v0.2","","""event"",""trial"",""time""
""fullscreenenter"",""1"",""2547""
","
","
","""event"",""trial"",""time""
""fullscreenenter"",""1"",""2547""
","
","","","","","","","","","","","","","","","","","","","","","","","","","","",""
"pit-instructions","102","732591","0.0-2.0-16.0","battery-v0.2","","""event"",""trial"",""time""
""fullscreenenter"",""1"",""2547""
","
","
","""event"",""trial"",""time""
""fullscreenenter"",""1"",""2547""
","
","","[{""page_index"":0,""viewing_time"":6054},{""page_index"":1,""viewing_time"":3360},{""page_index"":0,""viewing_time"":4849},{""page_index"":1,""viewing_time"":2551},{""page_index"":2,""viewing_time"":1112},{""page_index"":1,""viewing_time"":225},{""page_index"":0,""viewing_time"":2767},{""page_index"":1,""viewing_time"":1472},{""page_index"":2,""viewing_time"":6783},{""page_index"":3,""viewing_time"":8793}]","37966","","","","","","","","","","","","","","","","","","","","","","","",""
"pit-trial","103","737285","0.0-2.0-17.0-0.0","battery-v0.2","","""event"",""trial"",""time""
""fullscreenenter"",""1"",""2547""
","
","
","""event"",""trial"",""time""
""fullscreenenter"",""1"",""2547""
","
","","","1832","","","12","3178","2335","&#9789;","elianto","#f73b6a7A"," "," ","1","0","[2683,4123]","2","0","4","","","","","","","",""
"pit-trial","104","740415","0.0-2.0-17.0-1.0","battery-v0.2","","""event"",""trial"",""time""
""fullscreenenter"",""1"",""2547""
","
","
","""event"",""trial"",""time""
""fullscreenenter"",""1"",""2547""
","
","","","261","","","12","3178","2335","&#9789;","elianto","#f73b6a7A"," "," ","1","0","[248,1119,1870]","3","0","4","","","","","","","",""
"pit-trial","105","743454","0.0-2.0-17.0-2.0","battery-v0.2","","""event"",""trial"",""time""
""fullscreenenter"",""1"",""2547""
","
","
","""event"",""trial"",""time""
""fullscreenenter"",""1"",""2547""
","
","","","169","","","12","3178","2335","&#9789;","elianto","#f73b6a7A"," "," ","1","0","[1028,2796,2932]","3","0","4","","","","","","","",""
"pit-trial","106","746584","0.0-2.0-17.0-3.0","battery-v0.2","","""event"",""trial"",""time""
""fullscreenenter"",""1"",""2547""
","
","
","""event"",""trial"",""time""
""fullscreenenter"",""1"",""2547""
","
","","","266","","","12","3178","2335","&#9789;","elianto","#f73b6a7A"," "," ","1","-10","[237,653,1124]","3","0","4","","","","","","","",""
"pit-trial","107","749574","0.0-2.0-17.0-4.0","battery-v0.2","","""event"",""trial"",""time""
""fullscreenenter"",""1"",""2547""
","
","
","""event"",""trial"",""time""
""fullscreenenter"",""1"",""2547""
","
","","","128","","","12","3178","2335","&#9789;","elianto","#f73b6a7A"," "," ","1","0","[985,2250,2498,2650,2793,2929]","6","0","4","","","","","","","",""
"call-function","108","749575","0.0-2.0-18.0","battery-v0.2","","""event"",""trial"",""time""
""fullscreenenter"",""1"",""2547""
","
","
","""event"",""trial"",""time""
""fullscreenenter"",""1"",""2547""
","
","","","","","","","","","","","","","","","","","","","","","","","","","","",""
"pit-instructions","109","845476","0.0-2.0-19.0","battery-v0.2","","""event"",""trial"",""time""
""fullscreenenter"",""1"",""2547""
","
","
","""event"",""trial"",""time""
""fullscreenenter"",""1"",""2547""
","
","","[{""page_index"":0,""viewing_time"":6047},{""page_index"":1,""viewing_time"":808},{""page_index"":0,""viewing_time"":3208},{""page_index"":1,""viewing_time"":2871},{""page_index"":2,""viewing_time"":1993},{""page_index"":1,""viewing_time"":200},{""page_index"":0,""viewing_time"":695},{""page_index"":1,""viewing_time"":3112},{""page_index"":2,""viewing_time"":785},{""page_index"":1,""viewing_time"":184},{""page_index"":0,""viewing_time"":400},{""page_index"":1,""viewing_time"":816},{""page_index"":2,""viewing_time"":185},{""page_index"":3,""viewing_time"":13735},{""page_index"":4,""viewing_time"":7142},{""page_index"":3,""viewing_time"":1216},{""page_index"":4,""viewing_time"":2257},{""page_index"":3,""viewing_time"":208},{""page_index"":2,""viewing_time"":199},{""page_index"":1,""viewing_time"":249},{""page_index"":0,""viewing_time"":1040},{""page_index"":1,""viewing_time"":2456},{""page_index"":2,""viewing_time"":583},{""page_index"":3,""viewing_time"":1312},{""page_index"":4,""viewing_time"":1129},{""page_index"":5,""viewing_time"":26992},{""page_index"":6,""viewing_time"":8767},{""page_index"":7,""viewing_time"":4207},{""page_index"":8,""viewing_time"":3104}]","95900","","","","","","","","","","","","","","","","","","","","","","","",""
"pit-comprehension","110","850422","0.0-2.0-20.0-0.0","battery-v0.2","","""event"",""trial"",""time""
""fullscreenenter"",""1"",""2547""
","
","
","""event"",""trial"",""time""
""fullscreenenter"",""1"",""2547""
","
","","","4941","[""SPACE""]","0","12","3178","2335","","","","","","","","","","","","","","","","","","",""
"pit-instructions","111","852732","0.0-2.0-20.0-1.0","battery-v0.2","","""event"",""trial"",""time""
""fullscreenenter"",""1"",""2547""
","
","
","""event"",""trial"",""time""
""fullscreenenter"",""1"",""2547""
","
","","[{""page_index"":0,""viewing_time"":2219}]","2219","","","","","","","","","","","","","","","","","","","","","","","",""
"pit-comprehension","112","859422","0.0-2.0-21.0-0.0","battery-v0.2","","""event"",""trial"",""time""
""fullscreenenter"",""1"",""2547""
","
","
","""event"",""trial"",""time""
""fullscreenenter"",""1"",""2547""
","
","","","6685","[""10""]","0","12","3178","2335","","","","","","","","","","","","","","","","","","",""
"pit-instructions","113","875179","0.0-2.0-21.0-1.0","battery-v0.2","","""event"",""trial"",""time""
""fullscreenenter"",""1"",""2547""
","
","
","""event"",""trial"",""time""
""fullscreenenter"",""1"",""2547""
","
","","[{""page_index"":0,""viewing_time"":15665}]","15665","","","","","","","","","","","","","","","","","","","","","","","",""
"pit-comprehension","114","882429","0.0-2.0-22.0-0.0","battery-v0.2","","""event"",""trial"",""time""
""fullscreenenter"",""1"",""2547""
","
","
","""event"",""trial"",""time""
""fullscreenenter"",""1"",""2547""
","
","","","7243","[""0""]","0","12","3178","2335","","","","","","","","","","","","","","","","","","",""
"pit-instructions","115","888340","0.0-2.0-22.0-1.0","battery-v0.2","","""event"",""trial"",""time""
""fullscreenenter"",""1"",""2547""
","
","
","""event"",""trial"",""time""
""fullscreenenter"",""1"",""2547""
","
","","[{""page_index"":0,""viewing_time"":5817}]","5817","","","","","","","","","","","","","","","","","","","","","","","",""
"pit-comprehension","116","903292","0.0-2.0-23.0-0.0","battery-v0.2","","""event"",""trial"",""time""
""fullscreenenter"",""1"",""2547""
","
","
","""event"",""trial"",""time""
""fullscreenenter"",""1"",""2547""
","
","","","14946","[""False""]","1","12","3178","2335","","","","","","","","","","","","","","","","","","",""
"pit-instructions","117","907042","0.0-2.0-23.0-1.0","battery-v0.2","","""event"",""trial"",""time""
""fullscreenenter"",""1"",""2547""
","
","
","""event"",""trial"",""time""
""fullscreenenter"",""1"",""2547""
","
","","[{""page_index"":0,""viewing_time"":3652}]","3653","","","","","","","","","","","","","","","","","","","","","","","",""
"pit-instructions","118","908714","0.0-2.0-23.0-2.0-0.0","battery-v0.2","","""event"",""trial"",""time""
""fullscreenenter"",""1"",""2547""
","
","
","""event"",""trial"",""time""
""fullscreenenter"",""1"",""2547""
","
","","[{""page_index"":0,""viewing_time"":1670}]","1670","","","","","","","","","","","","","","","","","","","","","","","",""
"pit-comprehension","119","916811","0.0-2.0-23.1-0.1","battery-v0.2","","""event"",""trial"",""time""
""fullscreenenter"",""1"",""2547""
","
","
","""event"",""trial"",""time""
""fullscreenenter"",""1"",""2547""
","
","","","8092","[""True""]","0","12","3178","2335","","","","","","","","","","","","","","","","","","",""
"pit-instructions","120","918291","0.0-2.0-23.1-1.1","battery-v0.2","","""event"",""trial"",""time""
""fullscreenenter"",""1"",""2547""
","
","
","""event"",""trial"",""time""
""fullscreenenter"",""1"",""2547""
","
","","[{""page_index"":0,""viewing_time"":1381}]","1382","","","","","","","","","","","","","","","","","","","","","","","",""
"pit-comprehension","121","925379","0.0-2.0-24.0-0.0","battery-v0.2","","""event"",""trial"",""time""
""fullscreenenter"",""1"",""2547""
","
","
","""event"",""trial"",""time""
""fullscreenenter"",""1"",""2547""
","
","","","7083","[""True""]","0","12","3178","2335","","","","","","","","","","","","","","","","","","",""
"pit-instructions","122","926402","0.0-2.0-24.0-1.0","battery-v0.2","","""event"",""trial"",""time""
""fullscreenenter"",""1"",""2547""
","
","
","""event"",""trial"",""time""
""fullscreenenter"",""1"",""2547""
","
","","[{""page_index"":0,""viewing_time"":1019}]","1019","","","","","","","","","","","","","","","","","","","","","","","",""
"pit-comprehension","123","934307","0.0-2.0-25.0-0.0","battery-v0.2","","""event"",""trial"",""time""
""fullscreenenter"",""1"",""2547""
","
","
","""event"",""trial"",""time""
""fullscreenenter"",""1"",""2547""
","
","","","7902","[""True""]","0","12","3178","2335","","","","","","","","","","","","","","","","","","",""
"pit-instructions","124","935442","0.0-2.0-25.0-1.0","battery-v0.2","","""event"",""trial"",""time""
""fullscreenenter"",""1"",""2547""
","
","
","""event"",""trial"",""time""
""fullscreenenter"",""1"",""2547""
","
","","[{""page_index"":0,""viewing_time"":1037}]","1037","","","","","","","","","","","","","","","","","","","","","","","",""
"pit-comprehension","125","941610","0.0-2.0-26.0-0.0","battery-v0.2","","""event"",""trial"",""time""
""fullscreenenter"",""1"",""2547""
","
","
","""event"",""trial"",""time""
""fullscreenenter"",""1"",""2547""
","
","","","6167","[""True""]","1","12","3178","2335","","","","","","","","","","","","","","","","","","",""
"pit-instructions","126","946297","0.0-2.0-26.0-1.0","battery-v0.2","","""event"",""trial"",""time""
""fullscreenenter"",""1"",""2547""
","
","
","""event"",""trial"",""time""
""fullscreenenter"",""1"",""2547""
","
","","[{""page_index"":0,""viewing_time"":4587}]","4587","","","","","","","","","","","","","","","","","","","","","","","",""
"pit-instructions","127","946898","0.0-2.0-26.0-2.0-0.0","battery-v0.2","","""event"",""trial"",""time""
""fullscreenenter"",""1"",""2547""
","
","
","""event"",""trial"",""time""
""fullscreenenter"",""1"",""2547""
","
","","[{""page_index"":0,""viewing_time"":598}]","599","","","","","","","","","","","","","","","","","","","","","","","",""
"pit-comprehension","128","950986","0.0-2.0-26.1-0.1","battery-v0.2","","""event"",""trial"",""time""
""fullscreenenter"",""1"",""2547""
","
","
","""event"",""trial"",""time""
""fullscreenenter"",""1"",""2547""
","
","","","4085","[""False""]","0","12","3178","2335","","","","","","","","","","","","","","","","","","",""
"pit-instructions","129","952033","0.0-2.0-26.1-1.1","battery-v0.2","","""event"",""trial"",""time""
""fullscreenenter"",""1"",""2547""
","
","
","""event"",""trial"",""time""
""fullscreenenter"",""1"",""2547""
","
","","[{""page_index"":0,""viewing_time"":1043}]","1044","","","","","","","","","","","","","","","","","","","","","","","",""
"pit-instructions","130","966305","0.0-3.0","battery-v0.2","","""event"",""trial"",""time""
""fullscreenenter"",""1"",""2547""
","
","
","""event"",""trial"",""time""
""fullscreenenter"",""1"",""2547""
","
","","[{""page_index"":0,""viewing_time"":3103},{""page_index"":1,""viewing_time"":5135},{""page_index"":2,""viewing_time"":6032}]","14270","","","","","","","","","","","","","","","","","","","","","","","",""
"pit-trial","131","969744","0.0-4.0","battery-v0.2","","""event"",""trial"",""time""
""fullscreenenter"",""1"",""2547""
","
","
","""event"",""trial"",""time""
""fullscreenenter"",""1"",""2547""
","
","","","578","","","12","3178","2335","&#9730;","elianto","#3366ff99"," "," ","1","+10","[1430,2845]","2","1","","","3178","1","1","1","win","go","0"
"pit-trial","132","974094","0.0-5.0","battery-v0.2","","""event"",""trial"",""time""
""fullscreenenter"",""1"",""2547""
","
","
","""event"",""trial"",""time""
""fullscreenenter"",""1"",""2547""
","
","","","1490","","","12","3178","2335","&#9728;","elianto","#f73b6a7A","-1"," ","0","0","[261,2347,4275]","3","1","","","3178","2","0","4","lose","no-go","1"
"pit-trial","133","977974","0.0-6.0","battery-v0.2","","""event"",""trial"",""time""
""fullscreenenter"",""1"",""2547""
","
","
","""event"",""trial"",""time""
""fullscreenenter"",""1"",""2547""
","
","","","1012","","","12","3178","2335","&#9733;","elianto","#3366ff99","-1"," ","0","+10","[1869]","1","1","","","3178","3","2","2","win","no-go","1"
"pit-trial","134","981544","0.0-7.0","battery-v0.2","","""event"",""trial"",""time""
""fullscreenenter"",""1"",""2547""
","
","
","""event"",""trial"",""time""
""fullscreenenter"",""1"",""2547""
","
","","","715","","","12","3178","2335","&#9752;","elianto","#f73b6a7A"," "," ","1","0","[1566]","1","1","","","3178","4","3","3","lose","go","0"
"pit-trial","135","984799","0.0-8.0","battery-v0.2","","""event"",""trial"",""time""
""fullscreenenter"",""1"",""2547""
","
","
","""event"",""trial"",""time""
""fullscreenenter"",""1"",""2547""
","
","","","401","","","12","3178","2335","&#9733;","elianto","#3366ff99","-1"," ","0","0","[1252]","1","1","","","3178","5","2","2","win","no-go","0"
"pit-trial","136","988039","0.0-9.0","battery-v0.2","","""event"",""trial"",""time""
""fullscreenenter"",""1"",""2547""
","
","
","""event"",""trial"",""time""
""fullscreenenter"",""1"",""2547""
","
","","","385","","","12","3178","2335","&#9728;","elianto","#f73b6a7A","-1"," ","0","-10","[1237]","1","1","","","3178","6","0","4","lose","no-go","0"
"pit-trial","137","991056","0.0-10.0","battery-v0.2","","""event"",""trial"",""time""
""fullscreenenter"",""1"",""2547""
","
","
","""event"",""trial"",""time""
""fullscreenenter"",""1"",""2547""
","
","","","163","","","12","3178","2335","&#9752;","elianto","#f73b6a7A"," "," ","1","0","[1013]","1","1","","","3178","7","3","3","lose","go","0"
"pit-trial","138","994278","0.0-11.0","battery-v0.2","","""event"",""trial"",""time""
""fullscreenenter"",""1"",""2547""
","
","
","""event"",""trial"",""time""
""fullscreenenter"",""1"",""2547""
","
","","","368","","","12","3178","2335","&#9730;","elianto","#3366ff99"," "," ","1","+10","[1220]","1","1","","","3178","8","1","1","win","go","0"
"pit-trial","139","997526","0.0-12.0","battery-v0.2","","""event"",""trial"",""time""
""fullscreenenter"",""1"",""2547""
","
","
","""event"",""trial"",""time""
""fullscreenenter"",""1"",""2547""
","
","","","394","","","12","3178","2335","&#9728;","elianto","#f73b6a7A","-1"," ","0","-10","[1244]","1","1","","","3178","9","0","4","lose","no-go","0"
"pit-trial","140","1001495","0.0-13.0","battery-v0.2","","""event"",""trial"",""time""
""fullscreenenter"",""1"",""2547""
","
","
","""event"",""trial"",""time""
""fullscreenenter"",""1"",""2547""
","
","","","1114","","","12","3178","2335","&#9752;","elianto","#f73b6a7A"," "," ","1","0","[1966]","1","1","","","3178","10","3","3","lose","go","0"
"pit-trial","141","1004926","0.0-14.0","battery-v0.2","","""event"",""trial"",""time""
""fullscreenenter"",""1"",""2547""
","
","
","""event"",""trial"",""time""
""fullscreenenter"",""1"",""2547""
","
","","","579","","","12","3178","2335","&#9730;","elianto","#3366ff99"," "," ","1","0","[1429]","1","1","","","3178","11","1","1","win","go","1"
"pit-trial","142","1008007","0.0-15.0","battery-v0.2","","""event"",""trial"",""time""
""fullscreenenter"",""1"",""2547""
","
","
","""event"",""trial"",""time""
""fullscreenenter"",""1"",""2547""
","
","","","226","","","12","3178","2335","&#9733;","elianto","#3366ff99","-1"," ","0","0","[1077]","1","1","","","3178","12","2","2","win","no-go","0"
"pit-trial","143","1012867","0.0-16.0","battery-v0.2","","""event"",""trial"",""time""
""fullscreenenter"",""1"",""2547""
","
","
","""event"",""trial"",""time""
""fullscreenenter"",""1"",""2547""
","
","","","-1","","","12","3178","2335","&#9728;","elianto","#f73b6a7A","-1","-1","1","-10","[]","0","1","","","3178","13","0","4","lose","no-go","1"
"pit-trial","144","1016107","0.0-17.0","battery-v0.2","","""event"",""trial"",""time""
""fullscreenenter"",""1"",""2547""
","
","
","""event"",""trial"",""time""
""fullscreenenter"",""1"",""2547""
","
","","","374","","","12","3178","2335","&#9752;","elianto","#f73b6a7A"," "," ","1","0","[1232]","1","1","","","3178","14","3","3","lose","go","0"
"pit-trial","145","1019246","0.0-18.0","battery-v0.2","","""event"",""trial"",""time""
""fullscreenenter"",""1"",""2547""
","
","
","""event"",""trial"",""time""
""fullscreenenter"",""1"",""2547""
","
","","","278","","","12","3178","2335","&#9730;","elianto","#3366ff99"," "," ","1","+10","[1136]","1","1","","","3178","15","1","1","win","go","0"
"pit-trial","146","1022587","0.0-19.0","battery-v0.2","","""event"",""trial"",""time""
""fullscreenenter"",""1"",""2547""
","
","
","""event"",""trial"",""time""
""fullscreenenter"",""1"",""2547""
","
","","","474","","","12","3178","2335","&#9733;","elianto","#3366ff99","-1"," ","0","+10","[1331]","1","1","","","3178","16","2","2","win","no-go","1"
"pit-trial","147","1026137","0.0-20.0","battery-v0.2","","""event"",""trial"",""time""
""fullscreenenter"",""1"",""2547""
","
","
","""event"",""trial"",""time""
""fullscreenenter"",""1"",""2547""
","
","","","686","","","12","3178","2335","&#9730;","elianto","#3366ff99"," "," ","1","+10","[1545,2121]","2","1","","","3178","17","1","1","win","go","0"
"pit-trial","148","1030527","0.0-21.0","battery-v0.2","","""event"",""trial"",""time""
""fullscreenenter"",""1"",""2547""
","
","
","""event"",""trial"",""time""
""fullscreenenter"",""1"",""2547""
","
","","","1521","","","12","3178","2335","&#9752;","elianto","#f73b6a7A"," "," ","1","0","[2378]","1","1","","","3178","18","3","3","lose","go","0"
"pit-trial","149","1034236","0.0-22.0","battery-v0.2","","""event"",""trial"",""time""
""fullscreenenter"",""1"",""2547""
","
","
","""event"",""trial"",""time""
""fullscreenenter"",""1"",""2547""
","
","","","842","","","12","3178","2335","&#9733;","elianto","#3366ff99","-1"," ","0","0","[1699]","1","1","","","3178","19","2","2","win","no-go","0"
"pit-trial","150","1039096","0.0-23.0","battery-v0.2","","""event"",""trial"",""time""
""fullscreenenter"",""1"",""2547""
","
","
","""event"",""trial"",""time""
""fullscreenenter"",""1"",""2547""
","
","","","-1","","","12","3178","2335","&#9728;","elianto","#f73b6a7A","-1","-1","1","0","[]","0","1","","","3178","20","0","4","lose","no-go","0"
"pit-instructions","151","1115382","0.0-24.0","battery-v0.2","","""event"",""trial"",""time""
""fullscreenenter"",""1"",""2547""
","
","
","""event"",""trial"",""time""
""fullscreenenter"",""1"",""2547""
","
","","[{""page_index"":0,""viewing_time"":7196},{""page_index"":1,""viewing_time"":69055}]","76251","","","","","","","","","","","","","","","","","","","","","","","",""
"pit-trial","152","1120236","0.0-25.0","battery-v0.2","","""event"",""trial"",""time""
""fullscreenenter"",""1"",""2547""
","
","
","""event"",""trial"",""time""
""fullscreenenter"",""1"",""2547""
","
","","","-1","","","12","3178","2335","t","elianto","#f73b6a7A"," ","-1","0","-10","[]","0","2","","","3178","21","2","3","lose","go","0"
"pit-trial","153","1125088","0.0-26.0","battery-v0.2","","""event"",""trial"",""time""
""fullscreenenter"",""1"",""2547""
","
","
","""event"",""trial"",""time""
""fullscreenenter"",""1"",""2547""
","
","","","-1","","","12","3178","2335","n","elianto","#f73b6a7A"," ","-1","0","-10","[]","0","2","","","3178","22","0","3","lose","go","0"
"pit-trial","154","1129643","0.0-27.0","battery-v0.2","","""event"",""trial"",""time""
""fullscreenenter"",""1"",""2547""
","
","
","""event"",""trial"",""time""
""fullscreenenter"",""1"",""2547""
","
","","","1700","","","12","3178","2335","f","elianto","#3366ff99","-1"," ","0","0","[2551]","1","2","","","3178","23","1","2","win","no-go","0"
"pit-trial","155","1134495","0.0-28.0","battery-v0.2","","""event"",""trial"",""time""
""fullscreenenter"",""1"",""2547""
","
","
","""event"",""trial"",""time""
""fullscreenenter"",""1"",""2547""
","
","","","-1","","","12","3178","2335","b","elianto","#f73b6a7A","-1","-1","1","0","[]","0","2","","","3178","24","3","4","lose","no-go","0"
"pit-trial","156","1139350","0.0-29.0","battery-v0.2","","""event"",""trial"",""time""
""fullscreenenter"",""1"",""2547""
","
","
","""event"",""trial"",""time""
""fullscreenenter"",""1"",""2547""
","
","","","-1","","","12","3178","2335","n","elianto","#f73b6a7A"," ","-1","0","0","[]","0","2","","","3178","25","0","3","lose","go","1"
"pit-trial","157","1144210","0.0-30.0","battery-v0.2","","""event"",""trial"",""time""
""fullscreenenter"",""1"",""2547""
","
","
","""event"",""trial"",""time""
""fullscreenenter"",""1"",""2547""
","
","","","-1","","","12","3178","2335","b","elianto","#f73b6a7A","-1","-1","1","-10","[]","0","2","","","3178","26","3","4","lose","no-go","1"
"pit-trial","158","1148890","0.0-31.0","battery-v0.2","","""event"",""trial"",""time""
""fullscreenenter"",""1"",""2547""
","
","
","""event"",""trial"",""time""
""fullscreenenter"",""1"",""2547""
","
","","","1811","","","12","3178","2335","f","elianto","#3366ff99","-1"," ","0","+10","[2669]","1","2","","","3178","27","1","2","win","no-go","1"
"pit-trial","159","1153749","0.0-32.0","battery-v0.2","","""event"",""trial"",""time""
""fullscreenenter"",""1"",""2547""
","
","
","""event"",""trial"",""time""
""fullscreenenter"",""1"",""2547""
","
","","","-1","","","12","3178","2335","t","elianto","#f73b6a7A"," ","-1","0","0","[]","0","2","","","3178","28","2","3","lose","go","1"
"pit-trial","160","1158620","0.0-33.0","battery-v0.2","","""event"",""trial"",""time""
""fullscreenenter"",""1"",""2547""
","
","
","""event"",""trial"",""time""
""fullscreenenter"",""1"",""2547""
","
","","","-1","","","12","3178","2335","n","elianto","#f73b6a7A"," ","-1","0","-10","[]","0","2","","","3178","29","0","3","lose","go","0"
"pit-trial","161","1161949","0.0-34.0","battery-v0.2","","""event"",""trial"",""time""
""fullscreenenter"",""1"",""2547""
","
","
","""event"",""trial"",""time""
""fullscreenenter"",""1"",""2547""
","
","","","465","","","12","3178","2335","f","elianto","#3366ff99","-1"," ","0","0","[1324]","1","2","","","3178","30","1","2","win","no-go","0"
"pit-trial","162","1166810","0.0-35.0","battery-v0.2","","""event"",""trial"",""time""
""fullscreenenter"",""1"",""2547""
","
","
","""event"",""trial"",""time""
""fullscreenenter"",""1"",""2547""
","
","","","-1","","","12","3178","2335","t","elianto","#f73b6a7A"," ","-1","0","-10","[]","0","2","","","3178","31","2","3","lose","go","0"
"pit-trial","163","1171669","0.0-36.0","battery-v0.2","","""event"",""trial"",""time""
""fullscreenenter"",""1"",""2547""
","
","
","""event"",""trial"",""time""
""fullscreenenter"",""1"",""2547""
","
","","","-1","","","12","3178","2335","b","elianto","#f73b6a7A","-1","-1","1","0","[]","0","2","","","3178","32","3","4","lose","no-go","0"
"pit-trial","164","1176529","0.0-37.0","battery-v0.2","","""event"",""trial"",""time""
""fullscreenenter"",""1"",""2547""
","
","
","""event"",""trial"",""time""
""fullscreenenter"",""1"",""2547""
","
","","","-1","","","12","3178","2335","t","elianto","#f73b6a7A"," ","-1","0","-10","[]","0","2","","","3178","33","2","3","lose","go","0"
"pit-trial","165","1181389","0.0-38.0","battery-v0.2","","""event"",""trial"",""time""
""fullscreenenter"",""1"",""2547""
","
","
","""event"",""trial"",""time""
""fullscreenenter"",""1"",""2547""
","
","","","-1","","","12","3178","2335","n","elianto","#f73b6a7A"," ","-1","0","-10","[]","0","2","","","3178","34","0","3","lose","go","0"
"pit-trial","166","1185129","0.0-39.0","battery-v0.2","","""event"",""trial"",""time""
""fullscreenenter"",""1"",""2547""
","
","
","""event"",""trial"",""time""
""fullscreenenter"",""1"",""2547""
","
","","","872","","","12","3178","2335","f","elianto","#3366ff99","-1"," ","0","0","[1730]","1","2","","","3178","35","1","2","win","no-go","0"
"pit-trial","167","1189988","0.0-40.0","battery-v0.2","","""event"",""trial"",""time""
""fullscreenenter"",""1"",""2547""
","
","
","""event"",""trial"",""time""
""fullscreenenter"",""1"",""2547""
","
","","","-1","","","12","3178","2335","b","elianto","#f73b6a7A","-1","-1","1","0","[]","0","2","","","3178","36","3","4","lose","no-go","0"
"pit-trial","168","1194848","0.0-41.0","battery-v0.2","","""event"",""trial"",""time""
""fullscreenenter"",""1"",""2547""
","
","
","""event"",""trial"",""time""
""fullscreenenter"",""1"",""2547""
","
","","","-1","","","12","3178","2335","b","elianto","#f73b6a7A","-1","-1","1","0","[]","0","2","","","3178","37","3","4","lose","no-go","0"
"pit-trial","169","1199709","0.0-42.0","battery-v0.2","","""event"",""trial"",""time""
""fullscreenenter"",""1"",""2547""
","
","
","""event"",""trial"",""time""
""fullscreenenter"",""1"",""2547""
","
","","","-1","","","12","3178","2335","t","elianto","#f73b6a7A"," ","-1","0","-10","[]","0","2","","","3178","38","2","3","lose","go","0"
"pit-trial","170","1204579","0.0-43.0","battery-v0.2","","""event"",""trial"",""time""
""fullscreenenter"",""1"",""2547""
","
","
","""event"",""trial"",""time""
""fullscreenenter"",""1"",""2547""
","
","","","-1","","","12","3178","2335","n","elianto","#f73b6a7A"," ","-1","0","-10","[]","0","2","","","3178","39","0","3","lose","go","0"
"pit-trial","171","1208359","0.0-44.0","battery-v0.2","","""event"",""trial"",""time""
""fullscreenenter"",""1"",""2547""
","
","
","""event"",""trial"",""time""
""fullscreenenter"",""1"",""2547""
","
","","","914","","","12","3178","2335","f","elianto","#3366ff99","-1"," ","0","0","[1772,2459]","2","2","","","3178","40","1","2","win","no-go","0"
"pit-trial","172","1213218","0.0-45.0","battery-v0.2","","""event"",""trial"",""time""
""fullscreenenter"",""1"",""2547""
","
","
","""event"",""trial"",""time""
""fullscreenenter"",""1"",""2547""
","
","","","-1","","","12","3178","2335","f","elianto","#3366ff99","-1","-1","1","+10","[]","0","2","","","3178","41","1","2","win","no-go","0"
"pit-trial","173","1218078","0.0-46.0","battery-v0.2","","""event"",""trial"",""time""
""fullscreenenter"",""1"",""2547""
","
","
","""event"",""trial"",""time""
""fullscreenenter"",""1"",""2547""
","
","","","-1","","","12","3178","2335","n","elianto","#f73b6a7A"," ","-1","0","0","[]","0","2","","","3178","42","0","3","lose","go","1"
"pit-trial","174","1222948","0.0-47.0","battery-v0.2","","""event"",""trial"",""time""
""fullscreenenter"",""1"",""2547""
","
","
","""event"",""trial"",""time""
""fullscreenenter"",""1"",""2547""
","
","","","-1","","","12","3178","2335","b","elianto","#f73b6a7A","-1","-1","1","0","[]","0","2","","","3178","43","3","4","lose","no-go","0"
"pit-trial","175","1227808","0.0-48.0","battery-v0.2","","""event"",""trial"",""time""
""fullscreenenter"",""1"",""2547""
","
","
","""event"",""trial"",""time""
""fullscreenenter"",""1"",""2547""
","
","","","-1","","","12","3178","2335","t","elianto","#f73b6a7A"," ","-1","0","-10","[]","0","2","","","3178","44","2","3","lose","go","0"
"pit-trial","176","1232667","0.0-49.0","battery-v0.2","","""event"",""trial"",""time""
""fullscreenenter"",""1"",""2547""
","
","
","""event"",""trial"",""time""
""fullscreenenter"",""1"",""2547""
","
","","","-1","","","12","3178","2335","t","elianto","#f73b6a7A"," ","-1","0","-10","[]","0","2","","","3178","45","2","3","lose","go","0"
"pit-trial","177","1237528","0.0-50.0","battery-v0.2","","""event"",""trial"",""time""
""fullscreenenter"",""1"",""2547""
","
","
","""event"",""trial"",""time""
""fullscreenenter"",""1"",""2547""
","
","","","-1","","","12","3178","2335","b","elianto","#f73b6a7A","-1","-1","1","0","[]","0","2","","","3178","46","3","4","lose","no-go","0"
"pit-trial","178","1242088","0.0-51.0","battery-v0.2","","""event"",""trial"",""time""
""fullscreenenter"",""1"",""2547""
","
","
","""event"",""trial"",""time""
""fullscreenenter"",""1"",""2547""
","
","","","1691","","","12","3178","2335","f","elianto","#3366ff99","-1"," ","0","0","[2549]","1","2","","","3178","47","1","2","win","no-go","0"
"pit-trial","179","1246947","0.0-52.0","battery-v0.2","","""event"",""trial"",""time""
""fullscreenenter"",""1"",""2547""
","
","
","""event"",""trial"",""time""
""fullscreenenter"",""1"",""2547""
","
","","","-1","","","12","3178","2335","n","elianto","#f73b6a7A"," ","-1","0","-10","[]","0","2","","","3178","48","0","3","lose","go","0"
"pit-trial","180","1251808","0.0-53.0","battery-v0.2","","""event"",""trial"",""time""
""fullscreenenter"",""1"",""2547""
","
","
","""event"",""trial"",""time""
""fullscreenenter"",""1"",""2547""
","
","","","-1","","","12","3178","2335","b","elianto","#f73b6a7A","-1","-1","1","0","[]","0","2","","","3178","49","3","4","lose","no-go","0"
"pit-trial","181","1256666","0.0-54.0","battery-v0.2","","""event"",""trial"",""time""
""fullscreenenter"",""1"",""2547""
","
","
","""event"",""trial"",""time""
""fullscreenenter"",""1"",""2547""
","
","","","-1","","","12","3178","2335","n","elianto","#f73b6a7A"," ","-1","0","-10","[]","0","2","","","3178","50","0","3","lose","go","0"
"pit-trial","182","1260657","0.0-55.0","battery-v0.2","","""event"",""trial"",""time""
""fullscreenenter"",""1"",""2547""
","
","
","""event"",""trial"",""time""
""fullscreenenter"",""1"",""2547""
","
","","","1128","","","12","3178","2335","f","elianto","#3366ff99","-1"," ","0","0","[1986,3897]","2","2","","","3178","51","1","2","win","no-go","0"
"pit-trial","183","1265517","0.0-56.0","battery-v0.2","","""event"",""trial"",""time""
""fullscreenenter"",""1"",""2547""
","
","
","""event"",""trial"",""time""
""fullscreenenter"",""1"",""2547""
","
","","","-1","","","12","3178","2335","t","elianto","#f73b6a7A"," ","-1","0","-10","[]","0","2","","","3178","52","2","3","lose","go","0"
"pit-trial","184","1270376","0.0-57.0","battery-v0.2","","""event"",""trial"",""time""
""fullscreenenter"",""1"",""2547""
","
","
","""event"",""trial"",""time""
""fullscreenenter"",""1"",""2547""
","
","","","-1","","","12","3178","2335","b","elianto","#f73b6a7A","-1","-1","1","0","[]","0","2","","","3178","53","3","4","lose","no-go","0"
"pit-trial","185","1274167","0.0-58.0","battery-v0.2","","""event"",""trial"",""time""
""fullscreenenter"",""1"",""2547""
","
","
","""event"",""trial"",""time""
""fullscreenenter"",""1"",""2547""
","
","","","930","","","12","3178","2335","f","elianto","#3366ff99","-1"," ","0","0","[1787]","1","2","","","3178","54","1","2","win","no-go","0"
"pit-trial","186","1279026","0.0-59.0","battery-v0.2","","""event"",""trial"",""time""
""fullscreenenter"",""1"",""2547""
","
","
","""event"",""trial"",""time""
""fullscreenenter"",""1"",""2547""
","
","","","-1","","","12","3178","2335","n","elianto","#f73b6a7A"," ","-1","0","0","[]","0","2","","","3178","55","0","3","lose","go","1"
"pit-trial","187","1283883","0.0-60.0","battery-v0.2","","""event"",""trial"",""time""
""fullscreenenter"",""1"",""2547""
","
","
","""event"",""trial"",""time""
""fullscreenenter"",""1"",""2547""
","
","","","-1","","","12","3178","2335","t","elianto","#f73b6a7A"," ","-1","0","-10","[]","0","2","","","3178","56","2","3","lose","go","0"
"pit-trial","188","1288735","0.0-61.0","battery-v0.2","","""event"",""trial"",""time""
""fullscreenenter"",""1"",""2547""
","
","
","""event"",""trial"",""time""
""fullscreenenter"",""1"",""2547""
","
","","","-1","","","12","3178","2335","n","elianto","#f73b6a7A"," ","-1","0","-10","[]","0","2","","","3178","57","0","3","lose","go","0"
"pit-trial","189","1292647","0.0-62.0","battery-v0.2","","""event"",""trial"",""time""
""fullscreenenter"",""1"",""2547""
","
","
","""event"",""trial"",""time""
""fullscreenenter"",""1"",""2547""
","
","","","1058","","","12","3178","2335","c","elianto","#3366ff99"," "," ","1","+10","[1909]","1","2","","","3178","58","4","1","win","go","0"
"pit-trial","190","1297500","0.0-63.0","battery-v0.2","","""event"",""trial"",""time""
""fullscreenenter"",""1"",""2547""
","
","
","""event"",""trial"",""time""
""fullscreenenter"",""1"",""2547""
","
","","","-1","","","12","3178","2335","b","elianto","#f73b6a7A","-1","-1","1","0","[]","0","2","","","3178","59","3","4","lose","no-go","0"
"pit-trial","191","1302353","0.0-64.0","battery-v0.2","","""event"",""trial"",""time""
""fullscreenenter"",""1"",""2547""
","
","
","""event"",""trial"",""time""
""fullscreenenter"",""1"",""2547""
","
","","","-1","","","12","3178","2335","t","elianto","#f73b6a7A"," ","-1","0","-10","[]","0","2","","","3178","60","2","3","lose","go","0"
"pit-trial","192","1307206","0.0-65.0","battery-v0.2","","""event"",""trial"",""time""
""fullscreenenter"",""1"",""2547""
","
","
","""event"",""trial"",""time""
""fullscreenenter"",""1"",""2547""
","
","","","-1","","","12","3178","2335","t","elianto","#f73b6a7A"," ","-1","0","0","[]","0","2","","","3178","61","2","3","lose","go","1"
"pit-trial","193","1312060","0.0-66.0","battery-v0.2","","""event"",""trial"",""time""
""fullscreenenter"",""1"",""2547""
","
","
","""event"",""trial"",""time""
""fullscreenenter"",""1"",""2547""
","
","","","-1","","","12","3178","2335","b","elianto","#f73b6a7A","-1","-1","1","0","[]","0","2","","","3178","62","3","4","lose","no-go","0"
"pit-trial","194","1316070","0.0-67.0","battery-v0.2","","""event"",""trial"",""time""
""fullscreenenter"",""1"",""2547""
","
","
","""event"",""trial"",""time""
""fullscreenenter"",""1"",""2547""
","
","","","1149","","","12","3178","2335","c","elianto","#3366ff99"," "," ","1","+10","[2008]","1","2","","","3178","63","4","1","win","go","0"
"pit-trial","195","1320930","0.0-68.0","battery-v0.2","","""event"",""trial"",""time""
""fullscreenenter"",""1"",""2547""
","
","
","""event"",""trial"",""time""
""fullscreenenter"",""1"",""2547""
","
","","","-1","","","12","3178","2335","f","elianto","#3366ff99","-1","-1","1","+10","[]","0","2","","","3178","64","1","2","win","no-go","0"
"pit-trial","196","1325149","0.0-69.0","battery-v0.2","","""event"",""trial"",""time""
""fullscreenenter"",""1"",""2547""
","
","
","""event"",""trial"",""time""
""fullscreenenter"",""1"",""2547""
","
","","","1358","","","12","3178","2335","f","elianto","#3366ff99","-1"," ","0","0","[2217]","1","2","","","3178","65","1","2","win","no-go","0"
"pit-trial","197","1328950","0.0-70.0","battery-v0.2","","""event"",""trial"",""time""
""fullscreenenter"",""1"",""2547""
","
","
","""event"",""trial"",""time""
""fullscreenenter"",""1"",""2547""
","
","","","932","","","12","3178","2335","c","elianto","#3366ff99"," "," ","1","+10","[1790]","1","2","","","3178","66","4","1","win","go","0"
"pit-trial","198","1333810","0.0-71.0","battery-v0.2","","""event"",""trial"",""time""
""fullscreenenter"",""1"",""2547""
","
","
","""event"",""trial"",""time""
""fullscreenenter"",""1"",""2547""
","
","","","-1","","","12","3178","2335","b","elianto","#f73b6a7A","-1","-1","1","0","[]","0","2","","","3178","67","3","4","lose","no-go","0"
"pit-trial","199","1338669","0.0-72.0","battery-v0.2","","""event"",""trial"",""time""
""fullscreenenter"",""1"",""2547""
","
","
","""event"",""trial"",""time""
""fullscreenenter"",""1"",""2547""
","
","","","-1","","","12","3178","2335","z","elianto","#3366ff99","-1","-1","1","+10","[]","0","2","","","3178","68","5","2","win","no-go","0"
"pit-trial","200","1343539","0.0-73.0","battery-v0.2","","""event"",""trial"",""time""
""fullscreenenter"",""1"",""2547""
","
","
","""event"",""trial"",""time""
""fullscreenenter"",""1"",""2547""
","
","","","-1","","","12","3178","2335","t","elianto","#f73b6a7A"," ","-1","0","-10","[]","0","2","","","3178","69","2","3","lose","go","0"
"pit-trial","201","1347899","0.0-74.0","battery-v0.2","","""event"",""trial"",""time""
""fullscreenenter"",""1"",""2547""
","
","
","""event"",""trial"",""time""
""fullscreenenter"",""1"",""2547""
","
","","","1494","","","12","3178","2335","f","elianto","#3366ff99","-1"," ","0","0","[2352]","1","2","","","3178","70","1","2","win","no-go","0"
"pit-trial","202","1352470","0.0-75.0","battery-v0.2","","""event"",""trial"",""time""
""fullscreenenter"",""1"",""2547""
","
","
","""event"",""trial"",""time""
""fullscreenenter"",""1"",""2547""
","
","","","1707","","","12","3178","2335","c","elianto","#3366ff99"," "," ","1","+10","[2566]","1","2","","","3178","71","4","1","win","go","0"
"pit-trial","203","1356649","0.0-76.0","battery-v0.2","","""event"",""trial"",""time""
""fullscreenenter"",""1"",""2547""
","
","
","""event"",""trial"",""time""
""fullscreenenter"",""1"",""2547""
","
","","","1313","","","12","3178","2335","z","elianto","#3366ff99","-1"," ","0","0","[2172]","1","2","","","3178","72","5","2","win","no-go","0"
"pit-trial","204","1361509","0.0-77.0","battery-v0.2","","""event"",""trial"",""time""
""fullscreenenter"",""1"",""2547""
","
","
","""event"",""trial"",""time""
""fullscreenenter"",""1"",""2547""
","
","","","-1","","","12","3178","2335","c","elianto","#3366ff99"," ","-1","0","+10","[]","0","2","","","3178","73","4","1","win","go","1"
"pit-trial","205","1366378","0.0-78.0","battery-v0.2","","""event"",""trial"",""time""
""fullscreenenter"",""1"",""2547""
","
","
","""event"",""trial"",""time""
""fullscreenenter"",""1"",""2547""
","
","","","-1","","","12","3178","2335","b","elianto","#f73b6a7A","-1","-1","1","0","[]","0","2","","","3178","74","3","4","lose","no-go","0"
"pit-trial","206","1370048","0.0-79.0","battery-v0.2","","""event"",""trial"",""time""
""fullscreenenter"",""1"",""2547""
","
","
","""event"",""trial"",""time""
""fullscreenenter"",""1"",""2547""
","
","","","804","","","12","3178","2335","z","elianto","#3366ff99","-1"," ","0","0","[1662]","1","2","","","3178","75","5","2","win","no-go","0"
"pit-trial","207","1373989","0.0-80.0","battery-v0.2","","""event"",""trial"",""time""
""fullscreenenter"",""1"",""2547""
","
","
","""event"",""trial"",""time""
""fullscreenenter"",""1"",""2547""
","
","","","1078","","","12","3178","2335","f","elianto","#3366ff99","-1"," ","0","0","[1937]","1","2","","","3178","76","1","2","win","no-go","0"
"pit-trial","208","1378848","0.0-81.0","battery-v0.2","","""event"",""trial"",""time""
""fullscreenenter"",""1"",""2547""
","
","
","""event"",""trial"",""time""
""fullscreenenter"",""1"",""2547""
","
","","","-1","","","12","3178","2335","b","elianto","#f73b6a7A","-1","-1","1","0","[]","0","2","","","3178","77","3","4","lose","no-go","0"
"pit-trial","209","1383138","0.0-82.0","battery-v0.2","","""event"",""trial"",""time""
""fullscreenenter"",""1"",""2547""
","
","
","""event"",""trial"",""time""
""fullscreenenter"",""1"",""2547""
","
","","","1423","","","12","3178","2335","z","elianto","#3366ff99","-1"," ","0","0","[2281]","1","2","","","3178","78","5","2","win","no-go","0"
"pit-trial","210","1387548","0.0-83.0","battery-v0.2","","""event"",""trial"",""time""
""fullscreenenter"",""1"",""2547""
","
","
","""event"",""trial"",""time""
""fullscreenenter"",""1"",""2547""
","
","","","1541","","","12","3178","2335","c","elianto","#3366ff99"," "," ","1","+10","[2399]","1","2","","","3178","79","4","1","win","go","0"
"pit-trial","211","1391608","0.0-84.0","battery-v0.2","","""event"",""trial"",""time""
""fullscreenenter"",""1"",""2547""
","
","
","""event"",""trial"",""time""
""fullscreenenter"",""1"",""2547""
","
","","","1194","","","12","3178","2335","c","elianto","#3366ff99"," "," ","1","0","[2052,2716]","2","2","","","3178","80","4","1","win","go","1"
"pit-trial","212","1395988","0.0-85.0","battery-v0.2","","""event"",""trial"",""time""
""fullscreenenter"",""1"",""2547""
","
","
","""event"",""trial"",""time""
""fullscreenenter"",""1"",""2547""
","
","","","1510","","","12","3178","2335","c","elianto","#3366ff99"," "," ","1","+10","[2368,3737]","2","2","","","3178","81","4","1","win","go","0"
"pit-trial","213","1400848","0.0-86.0","battery-v0.2","","""event"",""trial"",""time""
""fullscreenenter"",""1"",""2547""
","
","
","""event"",""trial"",""time""
""fullscreenenter"",""1"",""2547""
","
","","","-1","","","12","3178","2335","b","elianto","#f73b6a7A","-1","-1","1","0","[]","0","2","","","3178","82","3","4","lose","no-go","0"
"pit-trial","214","1405707","0.0-87.0","battery-v0.2","","""event"",""trial"",""time""
""fullscreenenter"",""1"",""2547""
","
","
","""event"",""trial"",""time""
""fullscreenenter"",""1"",""2547""
","
","","","-1","","","12","3178","2335","z","elianto","#3366ff99","-1","-1","1","+10","[]","0","2","","","3178","83","5","2","win","no-go","0"
"pit-trial","215","1410568","0.0-88.0","battery-v0.2","","""event"",""trial"",""time""
""fullscreenenter"",""1"",""2547""
","
","
","""event"",""trial"",""time""
""fullscreenenter"",""1"",""2547""
","
","","","-1","","","12","3178","2335","y","elianto","#f73b6a7A","-1","-1","1","0","[]","0","2","","","3178","84","7","4","lose","no-go","0"
"pit-trial","216","1415437","0.0-89.0","battery-v0.2","","""event"",""trial"",""time""
""fullscreenenter"",""1"",""2547""
","
","
","""event"",""trial"",""time""
""fullscreenenter"",""1"",""2547""
","
","","","-1","","","12","3178","2335","y","elianto","#f73b6a7A","-1","-1","1","0","[]","0","2","","","3178","85","7","4","lose","no-go","0"
"pit-trial","217","1420297","0.0-90.0","battery-v0.2","","""event"",""trial"",""time""
""fullscreenenter"",""1"",""2547""
","
","
","""event"",""trial"",""time""
""fullscreenenter"",""1"",""2547""
","
","","","-1","","","12","3178","2335","h","elianto","#f73b6a7A"," ","-1","0","-10","[]","0","2","","","3178","86","6","3","lose","go","0"
"pit-trial","218","1424127","0.0-91.0","battery-v0.2","","""event"",""trial"",""time""
""fullscreenenter"",""1"",""2547""
","
","
","""event"",""trial"",""time""
""fullscreenenter"",""1"",""2547""
","
","","","964","","","12","3178","2335","c","elianto","#3366ff99"," "," ","1","+10","[1822,2982]","2","2","","","3178","87","4","1","win","go","0"
"pit-trial","219","1427497","0.0-92.0","battery-v0.2","","""event"",""trial"",""time""
""fullscreenenter"",""1"",""2547""
","
","
","""event"",""trial"",""time""
""fullscreenenter"",""1"",""2547""
","
","","","503","","","12","3178","2335","z","elianto","#3366ff99","-1"," ","0","+10","[1360]","1","2","","","3178","88","5","2","win","no-go","1"
"pit-trial","220","1430807","0.0-93.0","battery-v0.2","","""event"",""trial"",""time""
""fullscreenenter"",""1"",""2547""
","
","
","""event"",""trial"",""time""
""fullscreenenter"",""1"",""2547""
","
","","","444","","","12","3178","2335","z","elianto","#3366ff99","-1"," ","0","+10","[1302]","1","2","","","3178","89","5","2","win","no-go","1"
"pit-trial","221","1435667","0.0-94.0","battery-v0.2","","""event"",""trial"",""time""
""fullscreenenter"",""1"",""2547""
","
","
","""event"",""trial"",""time""
""fullscreenenter"",""1"",""2547""
","
","","","-1","","","12","3178","2335","y","elianto","#f73b6a7A","-1","-1","1","0","[]","0","2","","","3178","90","7","4","lose","no-go","0"
"pit-trial","222","1440527","0.0-95.0","battery-v0.2","","""event"",""trial"",""time""
""fullscreenenter"",""1"",""2547""
","
","
","""event"",""trial"",""time""
""fullscreenenter"",""1"",""2547""
","
","","","-1","","","12","3178","2335","h","elianto","#f73b6a7A"," ","-1","0","-10","[]","0","2","","","3178","91","6","3","lose","go","0"
"pit-trial","223","1443867","0.0-96.0","battery-v0.2","","""event"",""trial"",""time""
""fullscreenenter"",""1"",""2547""
","
","
","""event"",""trial"",""time""
""fullscreenenter"",""1"",""2547""
","
","","","480","","","12","3178","2335","c","elianto","#3366ff99"," "," ","1","+10","[1338]","1","2","","","3178","92","4","1","win","go","0"
"pit-trial","224","1447246","0.0-97.0","battery-v0.2","","""event"",""trial"",""time""
""fullscreenenter"",""1"",""2547""
","
","
","""event"",""trial"",""time""
""fullscreenenter"",""1"",""2547""
","
","","","515","","","12","3178","2335","z","elianto","#3366ff99","-1"," ","0","0","[1373,2629]","2","2","","","3178","93","5","2","win","no-go","0"
"pit-trial","225","1450576","0.0-98.0","battery-v0.2","","""event"",""trial"",""time""
""fullscreenenter"",""1"",""2547""
","
","
","""event"",""trial"",""time""
""fullscreenenter"",""1"",""2547""
","
","","","463","","","12","3178","2335","r","elianto","#3366ff99"," "," ","1","+10","[1321]","1","2","","","3178","94","8","1","win","go","0"
"pit-trial","226","1455436","0.0-99.0","battery-v0.2","","""event"",""trial"",""time""
""fullscreenenter"",""1"",""2547""
","
","
","""event"",""trial"",""time""
""fullscreenenter"",""1"",""2547""
","
","","","-1","","","12","3178","2335","h","elianto","#f73b6a7A"," ","-1","0","-10","[]","0","2","","","3178","95","6","3","lose","go","0"
"pit-trial","227","1460295","0.0-100.0","battery-v0.2","","""event"",""trial"",""time""
""fullscreenenter"",""1"",""2547""
","
","
","""event"",""trial"",""time""
""fullscreenenter"",""1"",""2547""
","
","","","-1","","","12","3178","2335","y","elianto","#f73b6a7A","-1","-1","1","-10","[]","0","2","","","3178","96","7","4","lose","no-go","1"
"pit-trial","228","1464156","0.0-101.0","battery-v0.2","","""event"",""trial"",""time""
""fullscreenenter"",""1"",""2547""
","
","
","""event"",""trial"",""time""
""fullscreenenter"",""1"",""2547""
","
","","","997","","","12","3178","2335","h","elianto","#f73b6a7A"," "," ","1","0","[1855]","1","2","","","3178","97","6","3","lose","go","0"
"pit-trial","229","1467578","0.0-102.0","battery-v0.2","","""event"",""trial"",""time""
""fullscreenenter"",""1"",""2547""
","
","
","""event"",""trial"",""time""
""fullscreenenter"",""1"",""2547""
","
","","","553","","","12","3178","2335","r","elianto","#3366ff99"," "," ","1","0","[1412]","1","2","","","3178","98","8","1","win","go","1"
"pit-trial","230","1471660","0.0-103.0","battery-v0.2","","""event"",""trial"",""time""
""fullscreenenter"",""1"",""2547""
","
","
","""event"",""trial"",""time""
""fullscreenenter"",""1"",""2547""
","
","","","1219","","","12","3178","2335","z","elianto","#3366ff99","-1"," ","0","0","[2078]","1","2","","","3178","99","5","2","win","no-go","0"
"pit-trial","231","1476520","0.0-104.0","battery-v0.2","","""event"",""trial"",""time""
""fullscreenenter"",""1"",""2547""
","
","
","""event"",""trial"",""time""
""fullscreenenter"",""1"",""2547""
","
","","","-1","","","12","3178","2335","y","elianto","#f73b6a7A","-1","-1","1","-10","[]","0","2","","","3178","100","7","4","lose","no-go","1"
"pit-trial","232","1480029","0.0-105.0","battery-v0.2","","""event"",""trial"",""time""
""fullscreenenter"",""1"",""2547""
","
","
","""event"",""trial"",""time""
""fullscreenenter"",""1"",""2547""
","
","","","645","","","12","3178","2335","r","elianto","#3366ff99"," "," ","1","+10","[1504]","1","2","","","3178","101","8","1","win","go","0"
"pit-trial","233","1484892","0.0-106.0","battery-v0.2","","""event"",""trial"",""time""
""fullscreenenter"",""1"",""2547""
","
","
","""event"",""trial"",""time""
""fullscreenenter"",""1"",""2547""
","
","","","-1","","","12","3178","2335","y","elianto","#f73b6a7A","-1","-1","1","0","[]","0","2","","","3178","102","7","4","lose","no-go","0"
"pit-trial","234","1488682","0.0-107.0","battery-v0.2","","""event"",""trial"",""time""
""fullscreenenter"",""1"",""2547""
","
","
","""event"",""trial"",""time""
""fullscreenenter"",""1"",""2547""
","
","","","926","","","12","3178","2335","m","elianto","#3366ff99"," "," ","1","0","[1787]","1","2","","","3178","103","9","1","win","go","1"
"pit-trial","235","1492540","0.0-108.0","battery-v0.2","","""event"",""trial"",""time""
""fullscreenenter"",""1"",""2547""
","
","
","""event"",""trial"",""time""
""fullscreenenter"",""1"",""2547""
","
","","","995","","","12","3178","2335","z","elianto","#3366ff99","-1"," ","0","0","[1853,3405]","2","2","","","3178","104","5","2","win","no-go","0"
"pit-trial","236","1497411","0.0-109.0","battery-v0.2","","""event"",""trial"",""time""
""fullscreenenter"",""1"",""2547""
","
","
","""event"",""trial"",""time""
""fullscreenenter"",""1"",""2547""
","
","","","-1","","","12","3178","2335","h","elianto","#f73b6a7A"," ","-1","0","-10","[177]","1","2","","","3178","105","6","3","lose","go","0"
"pit-trial","237","1500821","0.0-110.0","battery-v0.2","","""event"",""trial"",""time""
""fullscreenenter"",""1"",""2547""
","
","
","""event"",""trial"",""time""
""fullscreenenter"",""1"",""2547""
","
","","","545","","","12","3178","2335","c","elianto","#3366ff99"," "," ","1","+10","[804,1403]","2","2","","","3178","106","4","1","win","go","0"
"pit-trial","238","1504171","0.0-111.0","battery-v0.2","","""event"",""trial"",""time""
""fullscreenenter"",""1"",""2547""
","
","
","""event"",""trial"",""time""
""fullscreenenter"",""1"",""2547""
","
","","","486","","","12","3178","2335","m","elianto","#3366ff99"," "," ","1","0","[1345]","1","2","","","3178","107","9","1","win","go","1"
"pit-trial","239","1507520","0.0-112.0","battery-v0.2","","""event"",""trial"",""time""
""fullscreenenter"",""1"",""2547""
","
","
","""event"",""trial"",""time""
""fullscreenenter"",""1"",""2547""
","
","","","480","","","12","3178","2335","r","elianto","#3366ff99"," "," ","1","+10","[1338]","1","2","","","3178","108","8","1","win","go","0"
"pit-trial","240","1511721","0.0-113.0","battery-v0.2","","""event"",""trial"",""time""
""fullscreenenter"",""1"",""2547""
","
","
","""event"",""trial"",""time""
""fullscreenenter"",""1"",""2547""
","
","","","1330","","","12","3178","2335","m","elianto","#3366ff99"," "," ","1","+10","[2188]","1","2","","","3178","109","9","1","win","go","0"
"pit-trial","241","1515020","0.0-114.0","battery-v0.2","","""event"",""trial"",""time""
""fullscreenenter"",""1"",""2547""
","
","
","""event"",""trial"",""time""
""fullscreenenter"",""1"",""2547""
","
","","","434","","","12","3178","2335","r","elianto","#3366ff99"," "," ","1","+10","[1293]","1","2","","","3178","110","8","1","win","go","0"
"pit-trial","242","1519880","0.0-115.0","battery-v0.2","","""event"",""trial"",""time""
""fullscreenenter"",""1"",""2547""
","
","
","""event"",""trial"",""time""
""fullscreenenter"",""1"",""2547""
","
","","","-1","","","12","3178","2335","h","elianto","#f73b6a7A"," ","-1","0","-10","[]","0","2","","","3178","111","6","3","lose","go","0"
"pit-trial","243","1523850","0.0-116.0","battery-v0.2","","""event"",""trial"",""time""
""fullscreenenter"",""1"",""2547""
","
","
","""event"",""trial"",""time""
""fullscreenenter"",""1"",""2547""
","
","","","1107","","","12","3178","2335","z","elianto","#3366ff99","-1"," ","0","0","[1965]","1","2","","","3178","112","5","2","win","no-go","0"
"pit-trial","244","1527280","0.0-117.0","battery-v0.2","","""event"",""trial"",""time""
""fullscreenenter"",""1"",""2547""
","
","
","""event"",""trial"",""time""
""fullscreenenter"",""1"",""2547""
","
","","","568","","","12","3178","2335","m","elianto","#3366ff99"," "," ","1","+10","[1427]","1","2","","","3178","113","9","1","win","go","0"
"pit-trial","245","1532140","0.0-118.0","battery-v0.2","","""event"",""trial"",""time""
""fullscreenenter"",""1"",""2547""
","
","
","""event"",""trial"",""time""
""fullscreenenter"",""1"",""2547""
","
","","","-1","","","12","3178","2335","h","elianto","#f73b6a7A"," ","-1","0","-10","[]","0","2","","","3178","114","6","3","lose","go","0"
"pit-trial","246","1535630","0.0-119.0","battery-v0.2","","""event"",""trial"",""time""
""fullscreenenter"",""1"",""2547""
","
","
","""event"",""trial"",""time""
""fullscreenenter"",""1"",""2547""
","
","","","622","","","12","3178","2335","z","elianto","#3366ff99","-1"," ","0","0","[1480]","1","2","","","3178","115","5","2","win","no-go","0"
"pit-trial","247","1539019","0.0-120.0","battery-v0.2","","""event"",""trial"",""time""
""fullscreenenter"",""1"",""2547""
","
","
","""event"",""trial"",""time""
""fullscreenenter"",""1"",""2547""
","
","","","525","","","12","3178","2335","r","elianto","#3366ff99"," "," ","1","+10","[1383]","1","2","","","3178","116","8","1","win","go","0"
"pit-trial","248","1542399","0.0-121.0","battery-v0.2","","""event"",""trial"",""time""
""fullscreenenter"",""1"",""2547""
","
","
","""event"",""trial"",""time""
""fullscreenenter"",""1"",""2547""
","
","","","518","","","12","3178","2335","z","elianto","#3366ff99","-1"," ","0","0","[1376]","1","2","","","3178","117","5","2","win","no-go","0"
"pit-trial","249","1546080","0.0-122.0","battery-v0.2","","""event"",""trial"",""time""
""fullscreenenter"",""1"",""2547""
","
","
","""event"",""trial"",""time""
""fullscreenenter"",""1"",""2547""
","
","","","819","","","12","3178","2335","m","elianto","#3366ff99"," "," ","1","0","[1678]","1","2","","","3178","118","9","1","win","go","1"
"pit-trial","250","1550940","0.0-123.0","battery-v0.2","","""event"",""trial"",""time""
""fullscreenenter"",""1"",""2547""
","
","
","""event"",""trial"",""time""
""fullscreenenter"",""1"",""2547""
","
","","","-1","","","12","3178","2335","h","elianto","#f73b6a7A"," ","-1","0","-10","[]","0","2","","","3178","119","6","3","lose","go","0"
"pit-trial","251","1554480","0.0-124.0","battery-v0.2","","""event"",""trial"",""time""
""fullscreenenter"",""1"",""2547""
","
","
","""event"",""trial"",""time""
""fullscreenenter"",""1"",""2547""
","
","","","670","","","12","3178","2335","r","elianto","#3366ff99"," "," ","1","+10","[1528,2792]","2","2","","","3178","120","8","1","win","go","0"
"pit-trial","252","1559340","0.0-125.0","battery-v0.2","","""event"",""trial"",""time""
""fullscreenenter"",""1"",""2547""
","
","
","""event"",""trial"",""time""
""fullscreenenter"",""1"",""2547""
","
","","","-1","","","12","3178","2335","y","elianto","#f73b6a7A","-1","-1","1","0","[]","0","2","","","3178","121","7","4","lose","no-go","0"
"pit-trial","253","1562903","0.0-126.0","battery-v0.2","","""event"",""trial"",""time""
""fullscreenenter"",""1"",""2547""
","
","
","""event"",""trial"",""time""
""fullscreenenter"",""1"",""2547""
","
","","","700","","","12","3178","2335","m","elianto","#3366ff99"," "," ","1","+10","[1552]","1","2","","","3178","122","9","1","win","go","0"
"pit-trial","254","1567762","0.0-127.0","battery-v0.2","","""event"",""trial"",""time""
""fullscreenenter"",""1"",""2547""
","
","
","""event"",""trial"",""time""
""fullscreenenter"",""1"",""2547""
","
","","","-1","","","12","3178","2335","h","elianto","#f73b6a7A"," ","-1","0","-10","[]","0","2","","","3178","123","6","3","lose","go","0"
"pit-trial","255","1571072","0.0-128.0","battery-v0.2","","""event"",""trial"",""time""
""fullscreenenter"",""1"",""2547""
","
","
","""event"",""trial"",""time""
""fullscreenenter"",""1"",""2547""
","
","","","440","","","12","3178","2335","r","elianto","#3366ff99"," "," ","1","+10","[1298]","1","2","","","3178","124","8","1","win","go","0"
"pit-trial","256","1574912","0.0-129.0","battery-v0.2","","""event"",""trial"",""time""
""fullscreenenter"",""1"",""2547""
","
","
","""event"",""trial"",""time""
""fullscreenenter"",""1"",""2547""
","
","","","970","","","12","3178","2335","m","elianto","#3366ff99"," "," ","1","+10","[1828]","1","2","","","3178","125","9","1","win","go","0"
"pit-trial","257","1579772","0.0-130.0","battery-v0.2","","""event"",""trial"",""time""
""fullscreenenter"",""1"",""2547""
","
","
","""event"",""trial"",""time""
""fullscreenenter"",""1"",""2547""
","
","","","-1","","","12","3178","2335","h","elianto","#f73b6a7A"," ","-1","0","-10","[]","0","2","","","3178","126","6","3","lose","go","0"
"pit-trial","258","1584326","0.0-131.0","battery-v0.2","","""event"",""trial"",""time""
""fullscreenenter"",""1"",""2547""
","
","
","""event"",""trial"",""time""
""fullscreenenter"",""1"",""2547""
","
","","","1702","","","12","3178","2335","r","elianto","#3366ff99"," "," ","1","+10","[2552]","1","2","","","3178","127","8","1","win","go","0"
"pit-trial","259","1589178","0.0-132.0","battery-v0.2","","""event"",""trial"",""time""
""fullscreenenter"",""1"",""2547""
","
","
","""event"",""trial"",""time""
""fullscreenenter"",""1"",""2547""
","
","","","-1","","","12","3178","2335","y","elianto","#f73b6a7A","-1","-1","1","0","[]","0","2","","","3178","128","7","4","lose","no-go","0"
"pit-trial","260","1593277","0.0-133.0","battery-v0.2","","""event"",""trial"",""time""
""fullscreenenter"",""1"",""2547""
","
","
","""event"",""trial"",""time""
""fullscreenenter"",""1"",""2547""
","
","","","1247","","","12","3178","2335","m","elianto","#3366ff99"," "," ","1","+10","[2097]","1","2","","","3178","129","9","1","win","go","0"
"pit-trial","261","1596583","0.0-134.0","battery-v0.2","","""event"",""trial"",""time""
""fullscreenenter"",""1"",""2547""
","
","
","""event"",""trial"",""time""
""fullscreenenter"",""1"",""2547""
","
","","","451","","","12","3178","2335","h","elianto","#f73b6a7A"," "," ","1","0","[1301,1630,2294]","3","2","","","3178","130","6","3","lose","go","0"
"pit-trial","262","1600062","0.0-135.0","battery-v0.2","","""event"",""trial"",""time""
""fullscreenenter"",""1"",""2547""
","
","
","""event"",""trial"",""time""
""fullscreenenter"",""1"",""2547""
","
","","","627","","","12","3178","2335","r","elianto","#3366ff99"," "," ","1","0","[1477]","1","2","","","3178","131","8","1","win","go","1"
"pit-trial","263","1603957","0.0-136.0","battery-v0.2","","""event"",""trial"",""time""
""fullscreenenter"",""1"",""2547""
","
","
","""event"",""trial"",""time""
""fullscreenenter"",""1"",""2547""
","
","","","1044","","","12","3178","2335","y","elianto","#f73b6a7A","-1"," ","0","-10","[1894]","1","2","","","3178","132","7","4","lose","no-go","0"
"pit-trial","264","1608810","0.0-137.0","battery-v0.2","","""event"",""trial"",""time""
""fullscreenenter"",""1"",""2547""
","
","
","""event"",""trial"",""time""
""fullscreenenter"",""1"",""2547""
","
","","","-1","","","12","3178","2335","h","elianto","#f73b6a7A"," ","-1","0","-10","[]","0","2","","","3178","133","6","3","lose","go","0"
"pit-trial","265","1612491","0.0-138.0","battery-v0.2","","""event"",""trial"",""time""
""fullscreenenter"",""1"",""2547""
","
","
","""event"",""trial"",""time""
""fullscreenenter"",""1"",""2547""
","
","","","822","","","12","3178","2335","m","elianto","#3366ff99"," "," ","1","+10","[1672]","1","2","","","3178","134","9","1","win","go","0"
"pit-trial","266","1617362","0.0-139.0","battery-v0.2","","""event"",""trial"",""time""
""fullscreenenter"",""1"",""2547""
","
","
","""event"",""trial"",""time""
""fullscreenenter"",""1"",""2547""
","
","","","-1","","","12","3178","2335","y","elianto","#f73b6a7A","-1","-1","1","0","[]","0","2","","","3178","135","7","4","lose","no-go","0"
"pit-trial","267","1620752","0.0-140.0","battery-v0.2","","""event"",""trial"",""time""
""fullscreenenter"",""1"",""2547""
","
","
","""event"",""trial"",""time""
""fullscreenenter"",""1"",""2547""
","
","","","527","","","12","3178","2335","r","elianto","#3366ff99"," "," ","1","+10","[1385]","1","2","","","3178","136","8","1","win","go","0"
"pit-trial","268","1624081","0.0-141.0","battery-v0.2","","""event"",""trial"",""time""
""fullscreenenter"",""1"",""2547""
","
","
","""event"",""trial"",""time""
""fullscreenenter"",""1"",""2547""
","
","","","464","","","12","3178","2335","r","elianto","#3366ff99"," "," ","1","+10","[1322]","1","2","","","3178","137","8","1","win","go","0"
"pit-trial","269","1627741","0.0-142.0","battery-v0.2","","""event"",""trial"",""time""
""fullscreenenter"",""1"",""2547""
","
","
","""event"",""trial"",""time""
""fullscreenenter"",""1"",""2547""
","
","","","790","","","12","3178","2335","m","elianto","#3366ff99"," "," ","1","+10","[1649]","1","2","","","3178","138","9","1","win","go","0"
"pit-trial","270","1632611","0.0-143.0","battery-v0.2","","""event"",""trial"",""time""
""fullscreenenter"",""1"",""2547""
","
","
","""event"",""trial"",""time""
""fullscreenenter"",""1"",""2547""
","
","","","-1","","","12","3178","2335","y","elianto","#f73b6a7A","-1","-1","1","0","[]","0","2","","","3178","139","7","4","lose","no-go","0"
"pit-trial","271","1637470","0.0-144.0","battery-v0.2","","""event"",""trial"",""time""
""fullscreenenter"",""1"",""2547""
","
","
","""event"",""trial"",""time""
""fullscreenenter"",""1"",""2547""
","
","","","-1","","","12","3178","2335","h","elianto","#f73b6a7A"," ","-1","0","-10","[]","0","2","","","3178","140","6","3","lose","go","0"
"pit-instructions","272","1727315","0.0-145.0","battery-v0.2","","""event"",""trial"",""time""
""fullscreenenter"",""1"",""2547""
","
","
","""event"",""trial"",""time""
""fullscreenenter"",""1"",""2547""
","
","","[{""page_index"":0,""viewing_time"":81699},{""page_index"":1,""viewing_time"":8144}]","89843","","","","","","","","","","","","","","","","","","","","","","","",""
"pit-trial","273","1732188","0.0-146.0","battery-v0.2","","""event"",""trial"",""time""
""fullscreenenter"",""1"",""2547""
","
","
","""event"",""trial"",""time""
""fullscreenenter"",""1"",""2547""
","
","","","-1","","","12","3178","2335","j","elianto","#f73b6a7A","-1","-1","1","0","[]","0","3","","","3178","141","0","4","lose","no-go","0"
"pit-trial","274","1737051","0.0-147.0","battery-v0.2","","""event"",""trial"",""time""
""fullscreenenter"",""1"",""2547""
","
","
","""event"",""trial"",""time""
""fullscreenenter"",""1"",""2547""
","
","","","-1","","","12","3178","2335","e","elianto","#f73b6a7A","-1","-1","1","0","[]","0","3","","","3178","142","2","4","lose","no-go","0"
