"trial_type","trial_index","time_elapsed","internal_node_id","task_version","subject_id","interactions","blur_events","focus_events","fullscreenenter_events","fullscreenexit_events","success","view_history","rt","responses","num_errors","age","subject","participantId","rune","rune_set","hex","correct","choice","accuracy","outcome","keys","total_keys","block","practice","value","sub","trial","stimulus","robot","valence","action","sham"
"pavlovia","0","13","0.0-0.0","battery-v0.2","","""event"",""trial"",""time""
""fullscreenenter"",""1"",""1678""
","
","
","""event"",""trial"",""time""
""fullscreenenter"",""1"",""1678""
","
","","","","","","","","","","","","","","","","","","","","","","","","","","",""
"fullscreen","1","2652","0.0-1.0","battery-v0.2","","""event"",""trial"",""time""
""fullscreenenter"",""1"",""1678""
","
","
","""event"",""trial"",""time""
""fullscreenenter"",""1"",""1678""
","
","true","","","","","","","","","","","","","","","","","","","","","","","","","",""
"pit-instructions","2","6883","0.0-2.0-0.0","battery-v0.2","","""event"",""trial"",""time""
""fullscreenenter"",""1"",""1678""
","
","
","""event"",""trial"",""time""
""fullscreenenter"",""1"",""1678""
","
","","[{""page_index"":0,""viewing_time"":4227.700000047684}]","4228.300000190735","","","","","","","","","","","","","","","","","","","","","","","",""
"pit-comprehension","3","21682","0.0-2.0-1.0-0.0","battery-v0.2","","""event"",""trial"",""time""
""fullscreenenter"",""1"",""1678""
","
","
","""event"",""trial"",""time""
""fullscreenenter"",""1"",""1678""
","
","","","14794.299999952316","[""tiger""]","1","18","14403","5946","","","","","","","","","","","","","","","","","","",""
"pit-instructions","4","27480","0.0-2.0-1.0-1.0","battery-v0.2","","""event"",""trial"",""time""
""fullscreenenter"",""1"",""1678""
","
","
","""event"",""trial"",""time""
""fullscreenenter"",""1"",""1678""
","
","","[{""page_index"":0,""viewing_time"":5785.900000095367}]","5786.200000047684","","","","","","","","","","","","","","","","","","","","","","","",""
"pit-instructions","5","28423","0.0-2.0-1.0-2.0-0.0","battery-v0.2","","""event"",""trial"",""time""
""fullscreenenter"",""1"",""1678""
","
","
","""event"",""trial"",""time""
""fullscreenenter"",""1"",""1678""
","
","","[{""page_index"":0,""viewing_time"":940.4000000953674}]","940.8000001907349","","","","","","","","","","","","","","","","","","","","","","","",""
"pit-comprehension","6","30745","0.0-2.0-1.1-0.1","battery-v0.2","","""event"",""trial"",""time""
""fullscreenenter"",""1"",""1678""
","
","
","""event"",""trial"",""time""
""fullscreenenter"",""1"",""1678""
","
","","","2318.5","[""shark""]","0","18","14403","5946","","","","","","","","","","","","","","","","","","",""
"pit-instructions","7","31662","0.0-2.0-1.1-1.1","battery-v0.2","","""event"",""trial"",""time""
""fullscreenenter"",""1"",""1678""
","
","
","""event"",""trial"",""time""
""fullscreenenter"",""1"",""1678""
","
","","[{""page_index"":0,""viewing_time"":914.6000001430511}]","915.1000001430511","","","","","","","","","","","","","","","","","","","","","","","",""
"pit-comprehension","8","34888","0.0-2.0-2.0-0.0","battery-v0.2","","""event"",""trial"",""time""
""fullscreenenter"",""1"",""1678""
","
","
","""event"",""trial"",""time""
""fullscreenenter"",""1"",""1678""
","
","","","3221.7000000476837","[""tiger""]","0","18","14403","5946","","","","","","","","","","","","","","","","","","",""
"pit-instructions","9","36745","0.0-2.0-2.0-1.0","battery-v0.2","","""event"",""trial"",""time""
""fullscreenenter"",""1"",""1678""
","
","
","""event"",""trial"",""time""
""fullscreenenter"",""1"",""1678""
","
","","[{""page_index"":0,""viewing_time"":1853.3999998569489}]","1853.5999999046326","","","","","","","","","","","","","","","","","","","","","","","",""
"pit-instructions","10","142325","0.0-2.0-3.0","battery-v0.2","","""event"",""trial"",""time""
""fullscreenenter"",""1"",""1678""
","
","
","""event"",""trial"",""time""
""fullscreenenter"",""1"",""1678""
","
","","[{""page_index"":0,""viewing_time"":8557.5},{""page_index"":1,""viewing_time"":9786.899999856949},{""page_index"":2,""viewing_time"":7842.799999952316},{""page_index"":3,""viewing_time"":6426.200000047684},{""page_index"":4,""viewing_time"":6593.5},{""page_index"":5,""viewing_time"":6286.700000047684},{""page_index"":6,""viewing_time"":7722},{""page_index"":7,""viewing_time"":7521},{""page_index"":8,""viewing_time"":6083.099999904633},{""page_index"":9,""viewing_time"":9527.5},{""page_index"":10,""viewing_time"":8251.5},{""page_index"":11,""viewing_time"":9102.700000047684},{""page_index"":12,""viewing_time"":7070.700000047684},{""page_index"":13,""viewing_time"":4805.700000047684}]","105578.59999990463","","","","","","","","","","","","","","","","","","","","","","","",""
"pit-trial","11","145236","0.0-2.0-4.0-0.0","battery-v0.2","","""event"",""trial"",""time""
""fullscreenenter"",""1"",""1678""
","
","
","""event"",""trial"",""time""
""fullscreenenter"",""1"",""1678""
","
","","","55.19999980926514","","","18","14403","5946","&#9784;","elianto","#FFFFF080"," "," ","1","&#10004","[905.5]","1","0","0","","","","","","","",""
"pit-trial","12","148658","0.0-2.0-4.1-0.1","battery-v0.2","","""event"",""trial"",""time""
""fullscreenenter"",""1"",""1678""
","
","
","""event"",""trial"",""time""
""fullscreenenter"",""1"",""1678""
","
","","","564.1000001430511","","","18","14403","5946","&#9784;","elianto","#FFFFF080"," "," ","1","&#10004","[1415.3999998569489]","1","0","0","","","","","","","",""
"pit-trial","13","152204","0.0-2.0-4.2-0.2","battery-v0.2","","""event"",""trial"",""time""
""fullscreenenter"",""1"",""1678""
","
","
","""event"",""trial"",""time""
""fullscreenenter"",""1"",""1678""
","
","","","690.7000000476837","","","18","14403","5946","&#9784;","elianto","#FFFFF080"," "," ","1","&#10004","[1540.9000000953674]","1","0","0","","","","","","","",""
"pit-trial","14","155609","0.0-2.0-4.3-0.3","battery-v0.2","","""event"",""trial"",""time""
""fullscreenenter"",""1"",""1678""
","
","
","""event"",""trial"",""time""
""fullscreenenter"",""1"",""1678""
","
","","","548.2000000476837","","","18","14403","5946","&#9784;","elianto","#FFFFF080"," "," ","1","&#10004","[1400]","1","0","0","","","","","","","",""
"pit-trial","15","158873","0.0-2.0-4.4-0.4","battery-v0.2","","""event"",""trial"",""time""
""fullscreenenter"",""1"",""1678""
","
","
","""event"",""trial"",""time""
""fullscreenenter"",""1"",""1678""
","
","","","407.40000009536743","","","18","14403","5946","&#9784;","elianto","#FFFFF080"," "," ","1","&#10004","[1257.5999999046326]","1","0","0","","","","","","","",""
"pit-instructions","16","184812","0.0-2.0-5.0","battery-v0.2","","""event"",""trial"",""time""
""fullscreenenter"",""1"",""1678""
","
","
","""event"",""trial"",""time""
""fullscreenenter"",""1"",""1678""
","
","","[{""page_index"":0,""viewing_time"":6717.299999952316},{""page_index"":1,""viewing_time"":6338.099999904633},{""page_index"":2,""viewing_time"":6604.400000095367},{""page_index"":3,""viewing_time"":6275.599999904633}]","25935.89999985695","","","","","","","","","","","","","","","","","","","","","","","",""
"pit-trial","17","189669","0.0-2.0-6.0-0.0","battery-v0.2","","""event"",""trial"",""time""
""fullscreenenter"",""1"",""1678""
","
","
","""event"",""trial"",""time""
""fullscreenenter"",""1"",""1678""
","
","","","-1","","","18","14403","5946","&#9854;","elianto","#FFFFF080","-1","-1","1","&#10004","[]","0","0","1","","","","","","","",""
"pit-trial","18","194526","0.0-2.0-6.1-0.1","battery-v0.2","","""event"",""trial"",""time""
""fullscreenenter"",""1"",""1678""
","
","
","""event"",""trial"",""time""
""fullscreenenter"",""1"",""1678""
","
","","","-1","","","18","14403","5946","&#9854;","elianto","#FFFFF080","-1","-1","1","&#10004","[]","0","0","1","","","","","","","",""
"pit-trial","19","199382","0.0-2.0-6.2-0.2","battery-v0.2","","""event"",""trial"",""time""
""fullscreenenter"",""1"",""1678""
","
","
","""event"",""trial"",""time""
""fullscreenenter"",""1"",""1678""
","
","","","-1","","","18","14403","5946","&#9854;","elianto","#FFFFF080","-1","-1","1","&#10004","[]","0","0","1","","","","","","","",""
"pit-trial","20","204239","0.0-2.0-6.3-0.3","battery-v0.2","","""event"",""trial"",""time""
""fullscreenenter"",""1"",""1678""
","
","
","""event"",""trial"",""time""
""fullscreenenter"",""1"",""1678""
","
","","","-1","","","18","14403","5946","&#9854;","elianto","#FFFFF080","-1","-1","1","&#10004","[]","0","0","1","","","","","","","",""
"pit-trial","21","209094","0.0-2.0-6.4-0.4","battery-v0.2","","""event"",""trial"",""time""
""fullscreenenter"",""1"",""1678""
","
","
","""event"",""trial"",""time""
""fullscreenenter"",""1"",""1678""
","
","","","-1","","","18","14403","5946","&#9854;","elianto","#FFFFF080","-1","-1","1","&#10004","[]","0","0","1","","","","","","","",""
"pit-instructions","22","351671","0.0-2.0-7.0","battery-v0.2","","""event"",""trial"",""time""
""fullscreenenter"",""1"",""1678""
","
","
","""event"",""trial"",""time""
""fullscreenenter"",""1"",""1678""
","
","","[{""page_index"":0,""viewing_time"":9075.900000095367},{""page_index"":1,""viewing_time"":9222.199999809265},{""page_index"":2,""viewing_time"":9054.200000047684},{""page_index"":3,""viewing_time"":12181.799999952316},{""page_index"":4,""viewing_time"":7955.300000190735},{""page_index"":5,""viewing_time"":7298.799999952316},{""page_index"":6,""viewing_time"":5514.899999856949},{""page_index"":7,""viewing_time"":7739.700000047684},{""page_index"":8,""viewing_time"":6671.700000047684},{""page_index"":9,""viewing_time"":6178.799999952316},{""page_index"":10,""viewing_time"":6565.799999952316},{""page_index"":11,""viewing_time"":5943.400000095367},{""page_index"":12,""viewing_time"":9347.400000095367},{""page_index"":13,""viewing_time"":7610.399999856949},{""page_index"":14,""viewing_time"":9922.5},{""page_index"":15,""viewing_time"":7602.600000143051},{""page_index"":16,""viewing_time"":7070},{""page_index"":17,""viewing_time"":7616.599999904633}]","142573","","","","","","","","","","","","","","","","","","","","","","","",""
"pit-trial","23","355674","0.0-2.0-8.0-0.0","battery-v0.2","","""event"",""trial"",""time""
""fullscreenenter"",""1"",""1678""
","
","
","""event"",""trial"",""time""
""fullscreenenter"",""1"",""1678""
","
","","","1145.7000000476837","","","18","14403","5946","&#9776;","elianto","#3366ff99"," "," ","1","+10","[1997.1999998092651]","1","0","1","","","","","","","",""
"pit-trial","24","359134","0.0-2.0-8.0-1.0","battery-v0.2","","""event"",""trial"",""time""
""fullscreenenter"",""1"",""1678""
","
","
","""event"",""trial"",""time""
""fullscreenenter"",""1"",""1678""
","
","","","605.5999999046326","","","18","14403","5946","&#9776;","elianto","#3366ff99"," "," ","1","+10","[1455.7000000476837]","1","0","1","","","","","","","",""
"pit-trial","25","362612","0.0-2.0-8.0-2.0","battery-v0.2","","""event"",""trial"",""time""
""fullscreenenter"",""1"",""1678""
","
","
","""event"",""trial"",""time""
""fullscreenenter"",""1"",""1678""
","
","","","621.9000000953674","","","18","14403","5946","&#9776;","elianto","#3366ff99"," "," ","1","+10","[1472.8000001907349]","1","0","1","","","","","","","",""
"pit-trial","26","365633","0.0-2.0-8.0-3.0","battery-v0.2","","""event"",""trial"",""time""
""fullscreenenter"",""1"",""1678""
","
","
","""event"",""trial"",""time""
""fullscreenenter"",""1"",""1678""
","
","","","167.90000009536743","","","18","14403","5946","&#9776;","elianto","#3366ff99"," "," ","1","0","[1018.1000001430511]","1","0","1","","","","","","","",""
"pit-trial","27","368902","0.0-2.0-8.0-4.0","battery-v0.2","","""event"",""trial"",""time""
""fullscreenenter"",""1"",""1678""
","
","
","""event"",""trial"",""time""
""fullscreenenter"",""1"",""1678""
","
","","","413.89999985694885","","","18","14403","5946","&#9776;","elianto","#3366ff99"," "," ","1","+10","[1265.1000001430511]","1","0","1","","","","","","","",""
"pit-trial","28","372062","0.0-2.0-8.1-0.1","battery-v0.2","","""event"",""trial"",""time""
""fullscreenenter"",""1"",""1678""
","
","
","""event"",""trial"",""time""
""fullscreenenter"",""1"",""1678""
","
","","","303.59999990463257","","","18","14403","5946","&#9776;","elianto","#3366ff99"," "," ","1","+10","[391.59999990463257,743.2999999523163,1155.0999999046326]","3","0","1","","","","","","","",""
"pit-trial","29","374994","0.0-2.0-8.1-1.1","battery-v0.2","","""event"",""trial"",""time""
""fullscreenenter"",""1"",""1678""
","
","
","""event"",""trial"",""time""
""fullscreenenter"",""1"",""1678""
","
","","","77.59999990463257","","","18","14403","5946","&#9776;","elianto","#3366ff99"," "," ","1","+10","[265.60000014305115,534.1000001430511,752.7999999523163,928,1142.7999999523163]","5","0","1","","","","","","","",""
"pit-trial","30","378239","0.0-2.0-8.1-2.1","battery-v0.2","","""event"",""trial"",""time""
""fullscreenenter"",""1"",""1678""
","
","
","""event"",""trial"",""time""
""fullscreenenter"",""1"",""1678""
","
","","","388.40000009536743","","","18","14403","5946","&#9776;","elianto","#3366ff99"," "," ","1","+10","[830.7999999523163,1239.6000001430511]","2","0","1","","","","","","","",""
"pit-trial","31","381251","0.0-2.0-8.1-3.1","battery-v0.2","","""event"",""trial"",""time""
""fullscreenenter"",""1"",""1678""
","
","
","""event"",""trial"",""time""
""fullscreenenter"",""1"",""1678""
","
","","","155.90000009536743","","","18","14403","5946","&#9776;","elianto","#3366ff99"," "," ","1","0","[1007.5]","1","0","1","","","","","","","",""
"pit-trial","32","384229","0.0-2.0-8.1-4.1","battery-v0.2","","""event"",""trial"",""time""
""fullscreenenter"",""1"",""1678""
","
","
","""event"",""trial"",""time""
""fullscreenenter"",""1"",""1678""
","
","","","122.29999995231628","","","18","14403","5946","&#9776;","elianto","#3366ff99"," "," ","1","+10","[973.5999999046326]","1","0","1","","","","","","","",""
"pit-trial","33","387444","0.0-2.0-8.2-0.2","battery-v0.2","","""event"",""trial"",""time""
""fullscreenenter"",""1"",""1678""
","
","
","""event"",""trial"",""time""
""fullscreenenter"",""1"",""1678""
","
","","","361.2000000476837","","","18","14403","5946","&#9776;","elianto","#3366ff99"," "," ","1","+10","[815,1211.2999999523163]","2","0","1","","","","","","","",""
"pit-trial","34","390572","0.0-2.0-8.2-1.2","battery-v0.2","","""event"",""trial"",""time""
""fullscreenenter"",""1"",""1678""
","
","
","""event"",""trial"",""time""
""fullscreenenter"",""1"",""1678""
","
","","","273.60000014305115","","","18","14403","5946","&#9776;","elianto","#3366ff99"," "," ","1","+10","[1123.8000001907349]","1","0","1","","","","","","","",""
"pit-trial","35","393570","0.0-2.0-8.2-2.2","battery-v0.2","","""event"",""trial"",""time""
""fullscreenenter"",""1"",""1678""
","
","
","""event"",""trial"",""time""
""fullscreenenter"",""1"",""1678""
","
","","","142.90000009536743","","","18","14403","5946","&#9776;","elianto","#3366ff99"," "," ","1","+10","[994.3999998569489]","1","0","1","","","","","","","",""
"pit-trial","36","398426","0.0-2.0-8.2-3.2","battery-v0.2","","""event"",""trial"",""time""
""fullscreenenter"",""1"",""1678""
","
","
","""event"",""trial"",""time""
""fullscreenenter"",""1"",""1678""
","
","","","-1","","","18","14403","5946","&#9776;","elianto","#3366ff99"," ","-1","0","+10","[2957.4000000953674]","1","0","1","","","","","","","",""
"pit-trial","37","401758","0.0-2.0-8.2-4.2","battery-v0.2","","""event"",""trial"",""time""
""fullscreenenter"",""1"",""1678""
","
","
","""event"",""trial"",""time""
""fullscreenenter"",""1"",""1678""
","
","","","477","","","18","14403","5946","&#9776;","elianto","#3366ff99"," "," ","1","+10","[1327.4000000953674]","1","0","1","","","","","","","",""
"call-function","38","401759","0.0-2.0-9.0","battery-v0.2","","""event"",""trial"",""time""
""fullscreenenter"",""1"",""1678""
","
","
","""event"",""trial"",""time""
""fullscreenenter"",""1"",""1678""
","
","","","","","","","","","","","","","","","","","","","","","","","","","","",""
"pit-instructions","39","447708","0.0-2.0-10.0","battery-v0.2","","""event"",""trial"",""time""
""fullscreenenter"",""1"",""1678""
","
","
","""event"",""trial"",""time""
""fullscreenenter"",""1"",""1678""
","
","","[{""page_index"":0,""viewing_time"":8987},{""page_index"":1,""viewing_time"":7718.799999952316},{""page_index"":2,""viewing_time"":9403.5},{""page_index"":3,""viewing_time"":11072.400000095367},{""page_index"":4,""viewing_time"":8766.399999856949}]","45948.700000047684","","","","","","","","","","","","","","","","","","","","","","","",""
"pit-trial","40","452565","0.0-2.0-11.0-0.0","battery-v0.2","","""event"",""trial"",""time""
""fullscreenenter"",""1"",""1678""
","
","
","""event"",""trial"",""time""
""fullscreenenter"",""1"",""1678""
","
","","","-1","","","18","14403","5946","&#9761;","elianto","#3366ff99","-1","-1","1","+10","[]","0","0","2","","","","","","","",""
"pit-trial","41","457421","0.0-2.0-11.0-1.0","battery-v0.2","","""event"",""trial"",""time""
""fullscreenenter"",""1"",""1678""
","
","
","""event"",""trial"",""time""
""fullscreenenter"",""1"",""1678""
","
","","","-1","","","18","14403","5946","&#9761;","elianto","#3366ff99","-1","-1","1","+10","[]","0","0","2","","","","","","","",""
"pit-trial","42","462277","0.0-2.0-11.0-2.0","battery-v0.2","","""event"",""trial"",""time""
""fullscreenenter"",""1"",""1678""
","
","
","""event"",""trial"",""time""
""fullscreenenter"",""1"",""1678""
","
","","","-1","","","18","14403","5946","&#9761;","elianto","#3366ff99","-1","-1","1","+10","[]","0","0","2","","","","","","","",""
"pit-trial","43","467133","0.0-2.0-11.0-3.0","battery-v0.2","","""event"",""trial"",""time""
""fullscreenenter"",""1"",""1678""
","
","
","""event"",""trial"",""time""
""fullscreenenter"",""1"",""1678""
","
","","","-1","","","18","14403","5946","&#9761;","elianto","#3366ff99","-1","-1","1","0","[]","0","0","2","","","","","","","",""
"pit-trial","44","471989","0.0-2.0-11.0-4.0","battery-v0.2","","""event"",""trial"",""time""
""fullscreenenter"",""1"",""1678""
","
","
","""event"",""trial"",""time""
""fullscreenenter"",""1"",""1678""
","
","","","-1","","","18","14403","5946","&#9761;","elianto","#3366ff99","-1","-1","1","+10","[]","0","0","2","","","","","","","",""
"pit-trial","45","476846","0.0-2.0-11.1-0.1","battery-v0.2","","""event"",""trial"",""time""
""fullscreenenter"",""1"",""1678""
","
","
","""event"",""trial"",""time""
""fullscreenenter"",""1"",""1678""
","
","","","-1","","","18","14403","5946","&#9761;","elianto","#3366ff99","-1","-1","1","+10","[]","0","0","2","","","","","","","",""
"pit-trial","46","481702","0.0-2.0-11.1-1.1","battery-v0.2","","""event"",""trial"",""time""
""fullscreenenter"",""1"",""1678""
","
","
","""event"",""trial"",""time""
""fullscreenenter"",""1"",""1678""
","
","","","-1","","","18","14403","5946","&#9761;","elianto","#3366ff99","-1","-1","1","+10","[]","0","0","2","","","","","","","",""
"pit-trial","47","486558","0.0-2.0-11.1-2.1","battery-v0.2","","""event"",""trial"",""time""
""fullscreenenter"",""1"",""1678""
","
","
","""event"",""trial"",""time""
""fullscreenenter"",""1"",""1678""
","
","","","-1","","","18","14403","5946","&#9761;","elianto","#3366ff99","-1","-1","1","+10","[]","0","0","2","","","","","","","",""
"pit-trial","48","491413","0.0-2.0-11.1-3.1","battery-v0.2","","""event"",""trial"",""time""
""fullscreenenter"",""1"",""1678""
","
","
","""event"",""trial"",""time""
""fullscreenenter"",""1"",""1678""
","
","","","-1","","","18","14403","5946","&#9761;","elianto","#3366ff99","-1","-1","1","0","[]","0","0","2","","","","","","","",""
"pit-trial","49","496269","0.0-2.0-11.1-4.1","battery-v0.2","","""event"",""trial"",""time""
""fullscreenenter"",""1"",""1678""
","
","
","""event"",""trial"",""time""
""fullscreenenter"",""1"",""1678""
","
","","","-1","","","18","14403","5946","&#9761;","elianto","#3366ff99","-1","-1","1","+10","[]","0","0","2","","","","","","","",""
"pit-trial","50","501127","0.0-2.0-11.2-0.2","battery-v0.2","","""event"",""trial"",""time""
""fullscreenenter"",""1"",""1678""
","
","
","""event"",""trial"",""time""
""fullscreenenter"",""1"",""1678""
","
","","","-1","","","18","14403","5946","&#9761;","elianto","#3366ff99","-1","-1","1","+10","[]","0","0","2","","","","","","","",""
"pit-trial","51","505983","0.0-2.0-11.2-1.2","battery-v0.2","","""event"",""trial"",""time""
""fullscreenenter"",""1"",""1678""
","
","
","""event"",""trial"",""time""
""fullscreenenter"",""1"",""1678""
","
","","","-1","","","18","14403","5946","&#9761;","elianto","#3366ff99","-1","-1","1","+10","[]","0","0","2","","","","","","","",""
"pit-trial","52","510840","0.0-2.0-11.2-2.2","battery-v0.2","","""event"",""trial"",""time""
""fullscreenenter"",""1"",""1678""
","
","
","""event"",""trial"",""time""
""fullscreenenter"",""1"",""1678""
","
","","","-1","","","18","14403","5946","&#9761;","elianto","#3366ff99","-1","-1","1","+10","[]","0","0","2","","","","","","","",""
"pit-trial","53","515695","0.0-2.0-11.2-3.2","battery-v0.2","","""event"",""trial"",""time""
""fullscreenenter"",""1"",""1678""
","
","
","""event"",""trial"",""time""
""fullscreenenter"",""1"",""1678""
","
","","","-1","","","18","14403","5946","&#9761;","elianto","#3366ff99","-1","-1","1","0","[]","0","0","2","","","","","","","",""
"pit-trial","54","520551","0.0-2.0-11.2-4.2","battery-v0.2","","""event"",""trial"",""time""
""fullscreenenter"",""1"",""1678""
","
","
","""event"",""trial"",""time""
""fullscreenenter"",""1"",""1678""
","
","","","-1","","","18","14403","5946","&#9761;","elianto","#3366ff99","-1","-1","1","+10","[]","0","0","2","","","","","","","",""
"pit-trial","55","525408","0.0-2.0-11.3-0.3","battery-v0.2","","""event"",""trial"",""time""
""fullscreenenter"",""1"",""1678""
","
","
","""event"",""trial"",""time""
""fullscreenenter"",""1"",""1678""
","
","","","-1","","","18","14403","5946","&#9761;","elianto","#3366ff99","-1","-1","1","+10","[]","0","0","2","","","","","","","",""
"pit-trial","56","530264","0.0-2.0-11.3-1.3","battery-v0.2","","""event"",""trial"",""time""
""fullscreenenter"",""1"",""1678""
","
","
","""event"",""trial"",""time""
""fullscreenenter"",""1"",""1678""
","
","","","-1","","","18","14403","5946","&#9761;","elianto","#3366ff99","-1","-1","1","+10","[]","0","0","2","","","","","","","",""
"pit-trial","57","535120","0.0-2.0-11.3-2.3","battery-v0.2","","""event"",""trial"",""time""
""fullscreenenter"",""1"",""1678""
","
","
","""event"",""trial"",""time""
""fullscreenenter"",""1"",""1678""
","
","","","-1","","","18","14403","5946","&#9761;","elianto","#3366ff99","-1","-1","1","+10","[]","0","0","2","","","","","","","",""
"pit-trial","58","539977","0.0-2.0-11.3-3.3","battery-v0.2","","""event"",""trial"",""time""
""fullscreenenter"",""1"",""1678""
","
","
","""event"",""trial"",""time""
""fullscreenenter"",""1"",""1678""
","
","","","-1","","","18","14403","5946","&#9761;","elianto","#3366ff99","-1","-1","1","0","[]","0","0","2","","","","","","","",""
"pit-trial","59","544832","0.0-2.0-11.3-4.3","battery-v0.2","","""event"",""trial"",""time""
""fullscreenenter"",""1"",""1678""
","
","
","""event"",""trial"",""time""
""fullscreenenter"",""1"",""1678""
","
","","","-1","","","18","14403","5946","&#9761;","elianto","#3366ff99","-1","-1","1","+10","[]","0","0","2","","","","","","","",""
"call-function","60","544835","0.0-2.0-12.0","battery-v0.2","","""event"",""trial"",""time""
""fullscreenenter"",""1"",""1678""
","
","
","""event"",""trial"",""time""
""fullscreenenter"",""1"",""1678""
","
","","","","","","","","","","","","","","","","","","","","","","","","","","",""
"pit-instructions","61","583795","0.0-2.0-13.0","battery-v0.2","","""event"",""trial"",""time""
""fullscreenenter"",""1"",""1678""
","
","
","""event"",""trial"",""time""
""fullscreenenter"",""1"",""1678""
","
","","[{""page_index"":0,""viewing_time"":9080.700000047684},{""page_index"":1,""viewing_time"":6115.700000047684},{""page_index"":2,""viewing_time"":5965.599999904633},{""page_index"":3,""viewing_time"":10538.099999904633},{""page_index"":4,""viewing_time"":7259.100000143051}]","38959.5","","","","","","","","","","","","","","","","","","","","","","","",""
"pit-trial","62","588650","0.0-2.0-14.0-0.0","battery-v0.2","","""event"",""trial"",""time""
""fullscreenenter"",""1"",""1678""
","
","
","""event"",""trial"",""time""
""fullscreenenter"",""1"",""1678""
","
","","","-1","","","18","14403","5946","&#9826;","elianto","#f73b6a7A","-1","-1","1","0","[3029.7999999523163]","1","0","3","","","","","","","",""
"pit-trial","63","592185","0.0-2.0-14.0-1.0","battery-v0.2","","""event"",""trial"",""time""
""fullscreenenter"",""1"",""1678""
","
","
","""event"",""trial"",""time""
""fullscreenenter"",""1"",""1678""
","
","","","679.1999998092651","","","18","14403","5946","&#9826;","elianto","#f73b6a7A","-1"," ","0","-10","[1529.8000001907349]","1","0","3","","","","","","","",""
"pit-trial","64","597041","0.0-2.0-14.0-2.0","battery-v0.2","","""event"",""trial"",""time""
""fullscreenenter"",""1"",""1678""
","
","
","""event"",""trial"",""time""
""fullscreenenter"",""1"",""1678""
","
","","","-1","","","18","14403","5946","&#9826;","elianto","#f73b6a7A","-1","-1","1","0","[]","0","0","3","","","","","","","",""
"pit-trial","65","601897","0.0-2.0-14.0-3.0","battery-v0.2","","""event"",""trial"",""time""
""fullscreenenter"",""1"",""1678""
","
","
","""event"",""trial"",""time""
""fullscreenenter"",""1"",""1678""
","
","","","-1","","","18","14403","5946","&#9826;","elianto","#f73b6a7A","-1","-1","1","-10","[]","0","0","3","","","","","","","",""
"pit-trial","66","606754","0.0-2.0-14.0-4.0","battery-v0.2","","""event"",""trial"",""time""
""fullscreenenter"",""1"",""1678""
","
","
","""event"",""trial"",""time""
""fullscreenenter"",""1"",""1678""
","
","","","-1","","","18","14403","5946","&#9826;","elianto","#f73b6a7A","-1","-1","1","0","[]","0","0","3","","","","","","","",""
"pit-trial","67","611612","0.0-2.0-14.1-0.1","battery-v0.2","","""event"",""trial"",""time""
""fullscreenenter"",""1"",""1678""
","
","
","""event"",""trial"",""time""
""fullscreenenter"",""1"",""1678""
","
","","","-1","","","18","14403","5946","&#9826;","elianto","#f73b6a7A","-1","-1","1","0","[]","0","0","3","","","","","","","",""
"pit-trial","68","616467","0.0-2.0-14.1-1.1","battery-v0.2","","""event"",""trial"",""time""
""fullscreenenter"",""1"",""1678""
","
","
","""event"",""trial"",""time""
""fullscreenenter"",""1"",""1678""
","
","","","-1","","","18","14403","5946","&#9826;","elianto","#f73b6a7A","-1","-1","1","0","[]","0","0","3","","","","","","","",""
"pit-trial","69","621323","0.0-2.0-14.1-2.1","battery-v0.2","","""event"",""trial"",""time""
""fullscreenenter"",""1"",""1678""
","
","
","""event"",""trial"",""time""
""fullscreenenter"",""1"",""1678""
","
","","","-1","","","18","14403","5946","&#9826;","elianto","#f73b6a7A","-1","-1","1","0","[]","0","0","3","","","","","","","",""
"pit-trial","70","626179","0.0-2.0-14.1-3.1","battery-v0.2","","""event"",""trial"",""time""
""fullscreenenter"",""1"",""1678""
","
","
","""event"",""trial"",""time""
""fullscreenenter"",""1"",""1678""
","
","","","-1","","","18","14403","5946","&#9826;","elianto","#f73b6a7A","-1","-1","1","-10","[]","0","0","3","","","","","","","",""
"pit-trial","71","631035","0.0-2.0-14.1-4.1","battery-v0.2","","""event"",""trial"",""time""
""fullscreenenter"",""1"",""1678""
","
","
","""event"",""trial"",""time""
""fullscreenenter"",""1"",""1678""
","
","","","-1","","","18","14403","5946","&#9826;","elianto","#f73b6a7A","-1","-1","1","0","[]","0","0","3","","","","","","","",""
"pit-trial","72","635891","0.0-2.0-14.2-0.2","battery-v0.2","","""event"",""trial"",""time""
""fullscreenenter"",""1"",""1678""
","
","
","""event"",""trial"",""time""
""fullscreenenter"",""1"",""1678""
","
","","","-1","","","18","14403","5946","&#9826;","elianto","#f73b6a7A","-1","-1","1","0","[]","0","0","3","","","","","","","",""
"pit-trial","73","640748","0.0-2.0-14.2-1.2","battery-v0.2","","""event"",""trial"",""time""
""fullscreenenter"",""1"",""1678""
","
","
","""event"",""trial"",""time""
""fullscreenenter"",""1"",""1678""
","
","","","-1","","","18","14403","5946","&#9826;","elianto","#f73b6a7A","-1","-1","1","0","[]","0","0","3","","","","","","","",""
"pit-trial","74","645605","0.0-2.0-14.2-2.2","battery-v0.2","","""event"",""trial"",""time""
""fullscreenenter"",""1"",""1678""
","
","
","""event"",""trial"",""time""
""fullscreenenter"",""1"",""1678""
","
","","","-1","","","18","14403","5946","&#9826;","elianto","#f73b6a7A","-1","-1","1","0","[]","0","0","3","","","","","","","",""
"pit-trial","75","650462","0.0-2.0-14.2-3.2","battery-v0.2","","""event"",""trial"",""time""
""fullscreenenter"",""1"",""1678""
","
","
","""event"",""trial"",""time""
""fullscreenenter"",""1"",""1678""
","
","","","-1","","","18","14403","5946","&#9826;","elianto","#f73b6a7A","-1","-1","1","-10","[]","0","0","3","","","","","","","",""
"pit-trial","76","655317","0.0-2.0-14.2-4.2","battery-v0.2","","""event"",""trial"",""time""
""fullscreenenter"",""1"",""1678""
","
","
","""event"",""trial"",""time""
""fullscreenenter"",""1"",""1678""
","
","","","-1","","","18","14403","5946","&#9826;","elianto","#f73b6a7A","-1","-1","1","0","[]","0","0","3","","","","","","","",""
"pit-trial","77","660175","0.0-2.0-14.3-0.3","battery-v0.2","","""event"",""trial"",""time""
""fullscreenenter"",""1"",""1678""
","
","
","""event"",""trial"",""time""
""fullscreenenter"",""1"",""1678""
","
","","","-1","","","18","14403","5946","&#9826;","elianto","#f73b6a7A","-1","-1","1","0","[]","0","0","3","","","","","","","",""
"pit-trial","78","665032","0.0-2.0-14.3-1.3","battery-v0.2","","""event"",""trial"",""time""
""fullscreenenter"",""1"",""1678""
","
","
","""event"",""trial"",""time""
""fullscreenenter"",""1"",""1678""
","
","","","-1","","","18","14403","5946","&#9826;","elianto","#f73b6a7A","-1","-1","1","0","[]","0","0","3","","","","","","","",""
"pit-trial","79","669887","0.0-2.0-14.3-2.3","battery-v0.2","","""event"",""trial"",""time""
""fullscreenenter"",""1"",""1678""
","
","
","""event"",""trial"",""time""
""fullscreenenter"",""1"",""1678""
","
","","","-1","","","18","14403","5946","&#9826;","elianto","#f73b6a7A","-1","-1","1","0","[]","0","0","3","","","","","","","",""
"pit-trial","80","674741","0.0-2.0-14.3-3.3","battery-v0.2","","""event"",""trial"",""time""
""fullscreenenter"",""1"",""1678""
","
","
","""event"",""trial"",""time""
""fullscreenenter"",""1"",""1678""
","
","","","-1","","","18","14403","5946","&#9826;","elianto","#f73b6a7A","-1","-1","1","-10","[]","0","0","3","","","","","","","",""
"pit-trial","81","679598","0.0-2.0-14.3-4.3","battery-v0.2","","""event"",""trial"",""time""
""fullscreenenter"",""1"",""1678""
","
","
","""event"",""trial"",""time""
""fullscreenenter"",""1"",""1678""
","
","","","-1","","","18","14403","5946","&#9826;","elianto","#f73b6a7A","-1","-1","1","0","[]","0","0","3","","","","","","","",""
"call-function","82","679601","0.0-2.0-15.0","battery-v0.2","","""event"",""trial"",""time""
""fullscreenenter"",""1"",""1678""
","
","
","""event"",""trial"",""time""
""fullscreenenter"",""1"",""1678""
","
","","","","","","","","","","","","","","","","","","","","","","","","","","",""
"pit-instructions","83","707987","0.0-2.0-16.0","battery-v0.2","","""event"",""trial"",""time""
""fullscreenenter"",""1"",""1678""
","
","
","""event"",""trial"",""time""
""fullscreenenter"",""1"",""1678""
","
","","[{""page_index"":0,""viewing_time"":6904.5},{""page_index"":1,""viewing_time"":8516.399999856949},{""page_index"":2,""viewing_time"":6996.900000095367},{""page_index"":3,""viewing_time"":5967.200000047684}]","28385.700000047684","","","","","","","","","","","","","","","","","","","","","","","",""
"pit-trial","84","711308","0.0-2.0-17.0-0.0","battery-v0.2","","""event"",""trial"",""time""
""fullscreenenter"",""1"",""1678""
","
","
","""event"",""trial"",""time""
""fullscreenenter"",""1"",""1678""
","
","","","464.5","","","18","14403","5946","&#9789;","elianto","#f73b6a7A"," "," ","1","0","[1316]","1","0","4","","","","","","","",""
"pit-trial","85","714386","0.0-2.0-17.0-1.0","battery-v0.2","","""event"",""trial"",""time""
""fullscreenenter"",""1"",""1678""
","
","
","""event"",""trial"",""time""
""fullscreenenter"",""1"",""1678""
","
","","","220.30000019073486","","","18","14403","5946","&#9789;","elianto","#f73b6a7A"," "," ","1","0","[1071.9000000953674]","1","0","4","","","","","","","",""
"pit-trial","86","717366","0.0-2.0-17.0-2.0","battery-v0.2","","""event"",""trial"",""time""
""fullscreenenter"",""1"",""1678""
","
","
","""event"",""trial"",""time""
""fullscreenenter"",""1"",""1678""
","
","","","120.10000014305115","","","18","14403","5946","&#9789;","elianto","#f73b6a7A"," "," ","1","0","[972.2000000476837]","1","0","4","","","","","","","",""
"pit-trial","87","720569","0.0-2.0-17.0-3.0","battery-v0.2","","""event"",""trial"",""time""
""fullscreenenter"",""1"",""1678""
","
","
","""event"",""trial"",""time""
""fullscreenenter"",""1"",""1678""
","
","","","347.7000000476837","","","18","14403","5946","&#9789;","elianto","#f73b6a7A"," "," ","1","-10","[1198.9000000953674]","1","0","4","","","","","","","",""
"pit-trial","88","723600","0.0-2.0-17.0-4.0","battery-v0.2","","""event"",""trial"",""time""
""fullscreenenter"",""1"",""1678""
","
","
","""event"",""trial"",""time""
""fullscreenenter"",""1"",""1678""
","
","","","175.60000014305115","","","18","14403","5946","&#9789;","elianto","#f73b6a7A"," "," ","1","0","[1026.3999998569489]","1","0","4","","","","","","","",""
"pit-trial","89","726819","0.0-2.0-17.1-0.1","battery-v0.2","","""event"",""trial"",""time""
""fullscreenenter"",""1"",""1678""
","
","
","""event"",""trial"",""time""
""fullscreenenter"",""1"",""1678""
","
","","","360.59999990463257","","","18","14403","5946","&#9789;","elianto","#f73b6a7A"," "," ","1","0","[1212.1000001430511]","1","0","4","","","","","","","",""
"pit-trial","90","729797","0.0-2.0-17.1-1.1","battery-v0.2","","""event"",""trial"",""time""
""fullscreenenter"",""1"",""1678""
","
","
","""event"",""trial"",""time""
""fullscreenenter"",""1"",""1678""
","
","","","121.90000009536743","","","18","14403","5946","&#9789;","elianto","#f73b6a7A"," "," ","1","0","[972.7999999523163]","1","0","4","","","","","","","",""
"pit-trial","91","733443","0.0-2.0-17.1-2.1","battery-v0.2","","""event"",""trial"",""time""
""fullscreenenter"",""1"",""1678""
","
","
","""event"",""trial"",""time""
""fullscreenenter"",""1"",""1678""
","
","","","788.7000000476837","","","18","14403","5946","&#9789;","elianto","#f73b6a7A"," "," ","1","0","[1639.9000000953674]","1","0","4","","","","","","","",""
"pit-trial","92","736685","0.0-2.0-17.1-3.1","battery-v0.2","","""event"",""trial"",""time""
""fullscreenenter"",""1"",""1678""
","
","
","""event"",""trial"",""time""
""fullscreenenter"",""1"",""1678""
","
","","","385.39999985694885","","","18","14403","5946","&#9789;","elianto","#f73b6a7A"," "," ","1","-10","[1236.2999999523163]","1","0","4","","","","","","","",""
"pit-trial","93","739971","0.0-2.0-17.1-4.1","battery-v0.2","","""event"",""trial"",""time""
""fullscreenenter"",""1"",""1678""
","
","
","""event"",""trial"",""time""
""fullscreenenter"",""1"",""1678""
","
","","","429.09999990463257","","","18","14403","5946","&#9789;","elianto","#f73b6a7A"," "," ","1","0","[1280.2000000476837]","1","0","4","","","","","","","",""
"pit-trial","94","743280","0.0-2.0-17.2-0.2","battery-v0.2","","""event"",""trial"",""time""
""fullscreenenter"",""1"",""1678""
","
","
","""event"",""trial"",""time""
""fullscreenenter"",""1"",""1678""
","
","","","451.60000014305115","","","18","14403","5946","&#9789;","elianto","#f73b6a7A"," "," ","1","0","[1302.2999999523163]","1","0","4","","","","","","","",""
"pit-trial","95","746663","0.0-2.0-17.2-1.2","battery-v0.2","","""event"",""trial"",""time""
""fullscreenenter"",""1"",""1678""
","
","
","""event"",""trial"",""time""
""fullscreenenter"",""1"",""1678""
","
","","","528.3999998569489","","","18","14403","5946","&#9789;","elianto","#f73b6a7A"," "," ","1","0","[1378.8999998569489]","1","0","4","","","","","","","",""
"pit-trial","96","749630","0.0-2.0-17.2-2.2","battery-v0.2","","""event"",""trial"",""time""
""fullscreenenter"",""1"",""1678""
","
","
","""event"",""trial"",""time""
""fullscreenenter"",""1"",""1678""
","
","","","112.09999990463257","","","18","14403","5946","&#9789;","elianto","#f73b6a7A"," "," ","1","0","[962.4000000953674]","1","0","4","","","","","","","",""
"pit-trial","97","753198","0.0-2.0-17.2-3.2","battery-v0.2","","""event"",""trial"",""time""
""fullscreenenter"",""1"",""1678""
","
","
","""event"",""trial"",""time""
""fullscreenenter"",""1"",""1678""
","
","","","713.5999999046326","","","18","14403","5946","&#9789;","elianto","#f73b6a7A"," "," ","1","-10","[1564.1999998092651]","1","0","4","","","","","","","",""
"pit-trial","98","758053","0.0-2.0-17.2-4.2","battery-v0.2","","""event"",""trial"",""time""
""fullscreenenter"",""1"",""1678""
","
","
","""event"",""trial"",""time""
""fullscreenenter"",""1"",""1678""
","
","","","-1","","","18","14403","5946","&#9789;","elianto","#f73b6a7A"," ","-1","0","-10","[3828.7000000476837]","1","0","4","","","","","","","",""
"pit-trial","99","762776","0.0-2.0-17.3-0.3","battery-v0.2","","""event"",""trial"",""time""
""fullscreenenter"",""1"",""1678""
","
","
","""event"",""trial"",""time""
""fullscreenenter"",""1"",""1678""
","
","","","1864.7999999523163","","","18","14403","5946","&#9789;","elianto","#f73b6a7A"," "," ","1","0","[2716.2999999523163]","1","0","4","","","","","","","",""
"pit-trial","100","766522","0.0-2.0-17.3-1.3","battery-v0.2","","""event"",""trial"",""time""
""fullscreenenter"",""1"",""1678""
","
","
","""event"",""trial"",""time""
""fullscreenenter"",""1"",""1678""
","
","","","889.7999999523163","","","18","14403","5946","&#9789;","elianto","#f73b6a7A"," "," ","1","0","[1740]","1","0","4","","","","","","","",""
"pit-trial","101","769697","0.0-2.0-17.3-2.3","battery-v0.2","","""event"",""trial"",""time""
""fullscreenenter"",""1"",""1678""
","
","
","""event"",""trial"",""time""
""fullscreenenter"",""1"",""1678""
","
","","","319","","","18","14403","5946","&#9789;","elianto","#f73b6a7A"," "," ","1","0","[1170.5]","1","0","4","","","","","","","",""
"pit-trial","102","772863","0.0-2.0-17.3-3.3","battery-v0.2","","""event"",""trial"",""time""
""fullscreenenter"",""1"",""1678""
","
","
","""event"",""trial"",""time""
""fullscreenenter"",""1"",""1678""
","
","","","311.10000014305115","","","18","14403","5946","&#9789;","elianto","#f73b6a7A"," "," ","1","-10","[1162]","1","0","4","","","","","","","",""
"pit-trial","103","776038","0.0-2.0-17.3-4.3","battery-v0.2","","""event"",""trial"",""time""
""fullscreenenter"",""1"",""1678""
","
","
","""event"",""trial"",""time""
""fullscreenenter"",""1"",""1678""
","
","","","319.09999990463257","","","18","14403","5946","&#9789;","elianto","#f73b6a7A"," "," ","1","0","[1169.7000000476837]","1","0","4","","","","","","","",""
"call-function","104","776042","0.0-2.0-18.0","battery-v0.2","","""event"",""trial"",""time""
""fullscreenenter"",""1"",""1678""
","
","
","""event"",""trial"",""time""
""fullscreenenter"",""1"",""1678""
","
","","","","","","","","","","","","","","","","","","","","","","","","","","",""
"pit-instructions","105","841600","0.0-2.0-19.0","battery-v0.2","","""event"",""trial"",""time""
""fullscreenenter"",""1"",""1678""
","
","
","""event"",""trial"",""time""
""fullscreenenter"",""1"",""1678""
","
","","[{""page_index"":0,""viewing_time"":6878.5},{""page_index"":1,""viewing_time"":5034.400000095367},{""page_index"":2,""viewing_time"":8436.200000047684},{""page_index"":3,""viewing_time"":4521.099999904633},{""page_index"":4,""viewing_time"":8535.599999904633},{""page_index"":5,""viewing_time"":8408},{""page_index"":6,""viewing_time"":9160.200000047684},{""page_index"":7,""viewing_time"":7513.5},{""page_index"":8,""viewing_time"":7069.600000143051}]","65557.79999995232","","","","","","","","","","","","","","","","","","","","","","","",""
"pit-comprehension","106","847817","0.0-2.0-20.0-0.0","battery-v0.2","","""event"",""trial"",""time""
""fullscreenenter"",""1"",""1678""
","
","
","""event"",""trial"",""time""
""fullscreenenter"",""1"",""1678""
","
","","","6211.399999856949","[""SPACE""]","0","18","14403","5946","","","","","","","","","","","","","","","","","","",""
"pit-instructions","107","850567","0.0-2.0-20.0-1.0","battery-v0.2","","""event"",""trial"",""time""
""fullscreenenter"",""1"",""1678""
","
","
","""event"",""trial"",""time""
""fullscreenenter"",""1"",""1678""
","
","","[{""page_index"":0,""viewing_time"":2726.2999999523163}]","2726.7000000476837","","","","","","","","","","","","","","","","","","","","","","","",""
"pit-comprehension","108","857400","0.0-2.0-21.0-0.0","battery-v0.2","","""event"",""trial"",""time""
""fullscreenenter"",""1"",""1678""
","
","
","""event"",""trial"",""time""
""fullscreenenter"",""1"",""1678""
","
","","","6829.200000047684","[""10""]","0","18","14403","5946","","","","","","","","","","","","","","","","","","",""
"pit-instructions","109","859445","0.0-2.0-21.0-1.0","battery-v0.2","","""event"",""trial"",""time""
""fullscreenenter"",""1"",""1678""
","
","
","""event"",""trial"",""time""
""fullscreenenter"",""1"",""1678""
","
","","[{""page_index"":0,""viewing_time"":2021.0999999046326}]","2021.3999998569489","","","","","","","","","","","","","","","","","","","","","","","",""
"pit-comprehension","110","865764","0.0-2.0-22.0-0.0","battery-v0.2","","""event"",""trial"",""time""
""fullscreenenter"",""1"",""1678""
","
","
","""event"",""trial"",""time""
""fullscreenenter"",""1"",""1678""
","
","","","6315.200000047684","[""0""]","0","18","14403","5946","","","","","","","","","","","","","","","","","","",""
"pit-instructions","111","868456","0.0-2.0-22.0-1.0","battery-v0.2","","""event"",""trial"",""time""
""fullscreenenter"",""1"",""1678""
","
","
","""event"",""trial"",""time""
""fullscreenenter"",""1"",""1678""
","
","","[{""page_index"":0,""viewing_time"":2665.7999999523163}]","2666.2000000476837","","","","","","","","","","","","","","","","","","","","","","","",""
"pit-comprehension","112","878530","0.0-2.0-23.0-0.0","battery-v0.2","","""event"",""trial"",""time""
""fullscreenenter"",""1"",""1678""
","
","
","""event"",""trial"",""time""
""fullscreenenter"",""1"",""1678""
","
","","","10071.600000143051","[""True""]","0","18","14403","5946","","","","","","","","","","","","","","","","","","",""
"pit-instructions","113","881509","0.0-2.0-23.0-1.0","battery-v0.2","","""event"",""trial"",""time""
""fullscreenenter"",""1"",""1678""
","
","
","""event"",""trial"",""time""
""fullscreenenter"",""1"",""1678""
","
","","[{""page_index"":0,""viewing_time"":2952.7000000476837}]","2953","","","","","","","","","","","","","","","","","","","","","","","",""
"pit-comprehension","114","888908","0.0-2.0-24.0-0.0","battery-v0.2","","""event"",""trial"",""time""
""fullscreenenter"",""1"",""1678""
","
","
","""event"",""trial"",""time""
""fullscreenenter"",""1"",""1678""
","
","","","7394","[""True""]","0","18","14403","5946","","","","","","","","","","","","","","","","","","",""
"pit-instructions","115","893685","0.0-2.0-24.0-1.0","battery-v0.2","","""event"",""trial"",""time""
""fullscreenenter"",""1"",""1678""
","
","
","""event"",""trial"",""time""
""fullscreenenter"",""1"",""1678""
","
","","[{""page_index"":0,""viewing_time"":4747.200000047684}]","4747.5","","","","","","","","","","","","","","","","","","","","","","","",""
"pit-comprehension","116","899988","0.0-2.0-25.0-0.0","battery-v0.2","","""event"",""trial"",""time""
""fullscreenenter"",""1"",""1678""
","
","
","""event"",""trial"",""time""
""fullscreenenter"",""1"",""1678""
","
","","","6300.599999904633","[""True""]","0","18","14403","5946","","","","","","","","","","","","","","","","","","",""
"pit-instructions","117","902410","0.0-2.0-25.0-1.0","battery-v0.2","","""event"",""trial"",""time""
""fullscreenenter"",""1"",""1678""
","
","
","""event"",""trial"",""time""
""fullscreenenter"",""1"",""1678""
","
","","[{""page_index"":0,""viewing_time"":2392.5}]","2392.7999999523163","","","","","","","","","","","","","","","","","","","","","","","",""
"pit-comprehension","118","907500","0.0-2.0-26.0-0.0","battery-v0.2","","""event"",""trial"",""time""
""fullscreenenter"",""1"",""1678""
","
","
","""event"",""trial"",""time""
""fullscreenenter"",""1"",""1678""
","
","","","5085.600000143051","[""False""]","0","18","14403","5946","","","","","","","","","","","","","","","","","","",""
"pit-instructions","119","910704","0.0-2.0-26.0-1.0","battery-v0.2","","""event"",""trial"",""time""
""fullscreenenter"",""1"",""1678""
","
","
","""event"",""trial"",""time""
""fullscreenenter"",""1"",""1678""
","
","","[{""page_index"":0,""viewing_time"":3179}]","3179.2000000476837","","","","","","","","","","","","","","","","","","","","","","","",""
"pit-instructions","120","928079","0.0-3.0","battery-v0.2","","""event"",""trial"",""time""
""fullscreenenter"",""1"",""1678""
","
","
","""event"",""trial"",""time""
""fullscreenenter"",""1"",""1678""
","
","","[{""page_index"":0,""viewing_time"":4176},{""page_index"":1,""viewing_time"":5891.900000095367},{""page_index"":2,""viewing_time"":7306.199999809265}]","17374.400000095367","","","","","","","","","","","","","","","","","","","","","","","",""
"pit-trial","121","931661","0.0-4.0","battery-v0.2","","""event"",""trial"",""time""
""fullscreenenter"",""1"",""1678""
","
","
","""event"",""trial"",""time""
""fullscreenenter"",""1"",""1678""
","
","","","721","","","18","14403","5946","&#9733;","elianto","#3366ff99","-1"," ","0","0","[1572.6000001430511]","1","1","","","14403","1","2","2","win","no-go","0"
"pit-trial","122","935701","0.0-5.0","battery-v0.2","","""event"",""trial"",""time""
""fullscreenenter"",""1"",""1678""
","
","
","""event"",""trial"",""time""
""fullscreenenter"",""1"",""1678""
","
","","","1184.7000000476837","","","18","14403","5946","&#9730;","elianto","#3366ff99"," "," ","1","+10","[2034.7999999523163]","1","1","","","14403","2","1","1","win","go","0"
"pit-trial","123","940558","0.0-6.0","battery-v0.2","","""event"",""trial"",""time""
""fullscreenenter"",""1"",""1678""
","
","
","""event"",""trial"",""time""
""fullscreenenter"",""1"",""1678""
","
","","","-1","","","18","14403","5946","&#9752;","elianto","#f73b6a7A"," ","-1","0","-10","[]","0","1","","","14403","3","3","3","lose","go","0"
"pit-trial","124","945414","0.0-7.0","battery-v0.2","","""event"",""trial"",""time""
""fullscreenenter"",""1"",""1678""
","
","
","""event"",""trial"",""time""
""fullscreenenter"",""1"",""1678""
","
","","","-1","","","18","14403","5946","&#9728;","elianto","#f73b6a7A","-1","-1","1","-10","[]","0","1","","","14403","4","0","4","lose","no-go","1"
"pit-trial","125","949116","0.0-8.0","battery-v0.2","","""event"",""trial"",""time""
""fullscreenenter"",""1"",""1678""
","
","
","""event"",""trial"",""time""
""fullscreenenter"",""1"",""1678""
","
","","","848.8999998569489","","","18","14403","5946","&#9752;","elianto","#f73b6a7A"," "," ","1","0","[1699.7000000476837]","1","1","","","14403","5","3","3","lose","go","0"
"pit-trial","126","953972","0.0-9.0","battery-v0.2","","""event"",""trial"",""time""
""fullscreenenter"",""1"",""1678""
","
","
","""event"",""trial"",""time""
""fullscreenenter"",""1"",""1678""
","
","","","-1","","","18","14403","5946","&#9733;","elianto","#3366ff99","-1","-1","1","+10","[]","0","1","","","14403","6","2","2","win","no-go","0"
"pit-trial","127","958063","0.0-10.0","battery-v0.2","","""event"",""trial"",""time""
""fullscreenenter"",""1"",""1678""
","
","
","""event"",""trial"",""time""
""fullscreenenter"",""1"",""1678""
","
","","","1235.1999998092651","","","18","14403","5946","&#9728;","elianto","#f73b6a7A","-1"," ","0","-10","[2086]","1","1","","","14403","7","0","4","lose","no-go","0"
"pit-trial","128","962919","0.0-11.0","battery-v0.2","","""event"",""trial"",""time""
""fullscreenenter"",""1"",""1678""
","
","
","""event"",""trial"",""time""
""fullscreenenter"",""1"",""1678""
","
","","","-1","","","18","14403","5946","&#9730;","elianto","#3366ff99"," ","-1","0","0","[]","0","1","","","14403","8","1","1","win","go","0"
"pit-trial","129","966263","0.0-12.0","battery-v0.2","","""event"",""trial"",""time""
""fullscreenenter"",""1"",""1678""
","
","
","""event"",""trial"",""time""
""fullscreenenter"",""1"",""1678""
","
","","","486.40000009536743","","","18","14403","5946","&#9730;","elianto","#3366ff99"," "," ","1","+10","[1338.3000001907349]","1","1","","","14403","9","1","1","win","go","0"
"pit-trial","130","969313","0.0-13.0","battery-v0.2","","""event"",""trial"",""time""
""fullscreenenter"",""1"",""1678""
","
","
","""event"",""trial"",""time""
""fullscreenenter"",""1"",""1678""
","
","","","194.5","","","18","14403","5946","&#9733;","elianto","#3366ff99","-1"," ","0","0","[1045.6000001430511]","1","1","","","14403","10","2","2","win","no-go","0"
"pit-trial","131","972611","0.0-14.0","battery-v0.2","","""event"",""trial"",""time""
""fullscreenenter"",""1"",""1678""
","
","
","""event"",""trial"",""time""
""fullscreenenter"",""1"",""1678""
","
","","","442.10000014305115","","","18","14403","5946","&#9728;","elianto","#f73b6a7A","-1"," ","0","-10","[786.6999998092651,1293]","2","1","","","14403","11","0","4","lose","no-go","0"
"pit-trial","132","975764","0.0-15.0","battery-v0.2","","""event"",""trial"",""time""
""fullscreenenter"",""1"",""1678""
","
","
","""event"",""trial"",""time""
""fullscreenenter"",""1"",""1678""
","
","","","298.60000014305115","","","18","14403","5946","&#9752;","elianto","#f73b6a7A"," "," ","1","-10","[1149.7999999523163]","1","1","","","14403","12","3","3","lose","go","1"
"pit-trial","133","980620","0.0-16.0","battery-v0.2","","""event"",""trial"",""time""
""fullscreenenter"",""1"",""1678""
","
","
","""event"",""trial"",""time""
""fullscreenenter"",""1"",""1678""
","
","","","-1","","","18","14403","5946","&#9728;","elianto","#f73b6a7A","-1","-1","1","0","[]","0","1","","","14403","13","0","4","lose","no-go","0"
"pit-trial","134","985371","0.0-17.0","battery-v0.2","","""event"",""trial"",""time""
""fullscreenenter"",""1"",""1678""
","
","
","""event"",""trial"",""time""
""fullscreenenter"",""1"",""1678""
","
","","","1894.7999999523163","","","18","14403","5946","&#9733;","elianto","#3366ff99","-1"," ","0","0","[2746.100000143051]","1","1","","","14403","14","2","2","win","no-go","0"
"pit-trial","135","990228","0.0-18.0","battery-v0.2","","""event"",""trial"",""time""
""fullscreenenter"",""1"",""1678""
","
","
","""event"",""trial"",""time""
""fullscreenenter"",""1"",""1678""
","
","","","-1","","","18","14403","5946","&#9730;","elianto","#3366ff99"," ","-1","0","0","[]","0","1","","","14403","15","1","1","win","go","0"
"pit-trial","136","995084","0.0-19.0","battery-v0.2","","""event"",""trial"",""time""
""fullscreenenter"",""1"",""1678""
","
","
","""event"",""trial"",""time""
""fullscreenenter"",""1"",""1678""
","
","","","-1","","","18","14403","5946","&#9752;","elianto","#f73b6a7A"," ","-1","0","0","[]","0","1","","","14403","16","3","3","lose","go","1"
"pit-trial","137","999941","0.0-20.0","battery-v0.2","","""event"",""trial"",""time""
""fullscreenenter"",""1"",""1678""
","
","
","""event"",""trial"",""time""
""fullscreenenter"",""1"",""1678""
","
","","","-1","","","18","14403","5946","&#9752;","elianto","#f73b6a7A"," ","-1","0","-10","[]","0","1","","","14403","17","3","3","lose","go","0"
"pit-trial","138","1004797","0.0-21.0","battery-v0.2","","""event"",""trial"",""time""
""fullscreenenter"",""1"",""1678""
","
","
","""event"",""trial"",""time""
""fullscreenenter"",""1"",""1678""
","
","","","-1","","","18","14403","5946","&#9730;","elianto","#3366ff99"," ","-1","0","0","[]","0","1","","","14403","18","1","1","win","go","0"
"pit-trial","139","1009654","0.0-22.0","battery-v0.2","","""event"",""trial"",""time""
""fullscreenenter"",""1"",""1678""
","
","
","""event"",""trial"",""time""
""fullscreenenter"",""1"",""1678""
","
","","","-1","","","18","14403","5946","&#9733;","elianto","#3366ff99","-1","-1","1","0","[]","0","1","","","14403","19","2","2","win","no-go","1"
"pit-trial","140","1014373","0.0-23.0","battery-v0.2","","""event"",""trial"",""time""
""fullscreenenter"",""1"",""1678""
","
","
","""event"",""trial"",""time""
""fullscreenenter"",""1"",""1678""
","
","","","1862.2000000476837","","","18","14403","5946","&#9728;","elianto","#f73b6a7A","-1"," ","0","0","[2713.5]","1","1","","","14403","20","0","4","lose","no-go","1"
"pit-instructions","141","1030291","0.0-24.0","battery-v0.2","","""event"",""trial"",""time""
""fullscreenenter"",""1"",""1678""
","
","
","""event"",""trial"",""time""
""fullscreenenter"",""1"",""1678""
","
","","[{""page_index"":0,""viewing_time"":9134.5},{""page_index"":1,""viewing_time"":6781}]","15915.900000095367","","","","","","","","","","","","","","","","","","","","","","","",""
"pit-trial","142","1034163","0.0-25.0","battery-v0.2","","""event"",""trial"",""time""
""fullscreenenter"",""1"",""1678""
","
","
","""event"",""trial"",""time""
""fullscreenenter"",""1"",""1678""
","
","","","1015.0999999046326","","","18","14403","5946","e","elianto","#f73b6a7A","-1"," ","0","-10","[1865.5999999046326]","1","2","","","14403","21","2","4","lose","no-go","0"
"pit-trial","143","1037443","0.0-26.0","battery-v0.2","","""event"",""trial"",""time""
""fullscreenenter"",""1"",""1678""
","
","
","""event"",""trial"",""time""
""fullscreenenter"",""1"",""1678""
","
","","","424.5","","","18","14403","5946","d","elianto","#3366ff99"," "," ","1","+10","[1275.0999999046326]","1","2","","","14403","22","1","1","win","go","0"
"pit-trial","144","1042299","0.0-27.0","battery-v0.2","","""event"",""trial"",""time""
""fullscreenenter"",""1"",""1678""
","
","
","""event"",""trial"",""time""
""fullscreenenter"",""1"",""1678""
","
","","","-1","","","18","14403","5946","w","elianto","#f73b6a7A"," ","-1","0","-10","[]","0","2","","","14403","23","3","3","lose","go","0"
"pit-trial","145","1045189","0.0-28.0","battery-v0.2","","""event"",""trial"",""time""
""fullscreenenter"",""1"",""1678""
","
","
","""event"",""trial"",""time""
""fullscreenenter"",""1"",""1678""
","
","","","34.5","","","18","14403","5946","j","elianto","#f73b6a7A","-1"," ","0","0","[885.2999999523163]","1","2","","","14403","24","0","4","lose","no-go","1"
"pit-trial","146","1048479","0.0-29.0","battery-v0.2","","""event"",""trial"",""time""
""fullscreenenter"",""1"",""1678""
","
","
","""event"",""trial"",""time""
""fullscreenenter"",""1"",""1678""
","
","","","433.89999985694885","","","18","14403","5946","j","elianto","#f73b6a7A","-1"," ","0","-10","[1285.4000000953674]","1","2","","","14403","25","0","4","lose","no-go","0"
"pit-trial","147","1051736","0.0-30.0","battery-v0.2","","""event"",""trial"",""time""
""fullscreenenter"",""1"",""1678""
","
","
","""event"",""trial"",""time""
""fullscreenenter"",""1"",""1678""
","
","","","402.7000000476837","","","18","14403","5946","e","elianto","#f73b6a7A","-1"," ","0","-10","[1252.6000001430511]","1","2","","","14403","26","2","4","lose","no-go","0"
"pit-trial","148","1054884","0.0-31.0","battery-v0.2","","""event"",""trial"",""time""
""fullscreenenter"",""1"",""1678""
","
","
","""event"",""trial"",""time""
""fullscreenenter"",""1"",""1678""
","
","","","291.7000000476837","","","18","14403","5946","w","elianto","#f73b6a7A"," "," ","1","0","[1143.2000000476837]","1","2","","","14403","27","3","3","lose","go","0"
"pit-trial","149","1058188","0.0-32.0","battery-v0.2","","""event"",""trial"",""time""
""fullscreenenter"",""1"",""1678""
","
","
","""event"",""trial"",""time""
""fullscreenenter"",""1"",""1678""
","
","","","448.09999990463257","","","18","14403","5946","d","elianto","#3366ff99"," "," ","1","+10","[1299]","1","2","","","14403","28","1","1","win","go","0"
"pit-trial","150","1061433","0.0-33.0","battery-v0.2","","""event"",""trial"",""time""
""fullscreenenter"",""1"",""1678""
","
","
","""event"",""trial"",""time""
""fullscreenenter"",""1"",""1678""
","
","","","387.80000019073486","","","18","14403","5946","w","elianto","#f73b6a7A"," "," ","1","-10","[1239.9000000953674,2253.5]","2","2","","","14403","29","3","3","lose","go","1"
"pit-trial","151","1064474","0.0-34.0","battery-v0.2","","""event"",""trial"",""time""
""fullscreenenter"",""1"",""1678""
","
","
","""event"",""trial"",""time""
""fullscreenenter"",""1"",""1678""
","
","","","184.79999995231628","","","18","14403","5946","j","elianto","#f73b6a7A","-1"," ","0","-10","[1035.8999998569489]","1","2","","","14403","30","0","4","lose","no-go","0"
"pit-trial","152","1067648","0.0-35.0","battery-v0.2","","""event"",""trial"",""time""
""fullscreenenter"",""1"",""1678""
","
","
","""event"",""trial"",""time""
""fullscreenenter"",""1"",""1678""
","
","","","318.2000000476837","","","18","14403","5946","e","elianto","#f73b6a7A","-1"," ","0","-10","[1169.6000001430511]","1","2","","","14403","31","2","4","lose","no-go","0"
"pit-trial","153","1070973","0.0-36.0","battery-v0.2","","""event"",""trial"",""time""
""fullscreenenter"",""1"",""1678""
","
","
","""event"",""trial"",""time""
""fullscreenenter"",""1"",""1678""
","
","","","469.2999999523163","","","18","14403","5946","d","elianto","#3366ff99"," "," ","1","+10","[1319.9000000953674]","1","2","","","14403","32","1","1","win","go","0"
"pit-trial","154","1075829","0.0-37.0","battery-v0.2","","""event"",""trial"",""time""
""fullscreenenter"",""1"",""1678""
","
","
","""event"",""trial"",""time""
""fullscreenenter"",""1"",""1678""
","
","","","-1","","","18","14403","5946","e","elianto","#f73b6a7A","-1","-1","1","-10","[]","0","2","","","14403","33","2","4","lose","no-go","1"
"pit-trial","155","1080685","0.0-38.0","battery-v0.2","","""event"",""trial"",""time""
""fullscreenenter"",""1"",""1678""
","
","
","""event"",""trial"",""time""
""fullscreenenter"",""1"",""1678""
","
","","","-1","","","18","14403","5946","j","elianto","#f73b6a7A","-1","-1","1","0","[]","0","2","","","14403","34","0","4","lose","no-go","0"
"pit-trial","156","1084231","0.0-39.0","battery-v0.2","","""event"",""trial"",""time""
""fullscreenenter"",""1"",""1678""
","
","
","""event"",""trial"",""time""
""fullscreenenter"",""1"",""1678""
","
","","","690.5999999046326","","","18","14403","5946","d","elianto","#3366ff99"," "," ","1","+10","[1541.5]","1","2","","","14403","35","1","1","win","go","0"
"pit-trial","157","1089088","0.0-40.0","battery-v0.2","","""event"",""trial"",""time""
""fullscreenenter"",""1"",""1678""
","
","
","""event"",""trial"",""time""
""fullscreenenter"",""1"",""1678""
","
","","","-1","","","18","14403","5946","w","elianto","#f73b6a7A"," ","-1","0","-10","[]","0","2","","","14403","36","3","3","lose","go","0"
"pit-trial","158","1092313","0.0-41.0","battery-v0.2","","""event"",""trial"",""time""
""fullscreenenter"",""1"",""1678""
","
","
","""event"",""trial"",""time""
""fullscreenenter"",""1"",""1678""
","
","","","368.90000009536743","","","18","14403","5946","j","elianto","#f73b6a7A","-1"," ","0","-10","[1220.6000001430511]","1","2","","","14403","37","0","4","lose","no-go","0"
"pit-trial","159","1095395","0.0-42.0","battery-v0.2","","""event"",""trial"",""time""
""fullscreenenter"",""1"",""1678""
","
","
","""event"",""trial"",""time""
""fullscreenenter"",""1"",""1678""
","
","","","229","","","18","14403","5946","w","elianto","#f73b6a7A"," "," ","1","0","[1079.2000000476837]","1","2","","","14403","38","3","3","lose","go","0"
"pit-trial","160","1098582","0.0-43.0","battery-v0.2","","""event"",""trial"",""time""
""fullscreenenter"",""1"",""1678""
","
","
","""event"",""trial"",""time""
""fullscreenenter"",""1"",""1678""
","
","","","331.7000000476837","","","18","14403","5946","d","elianto","#3366ff99"," "," ","1","+10","[1181.5999999046326]","1","2","","","14403","39","1","1","win","go","0"
"pit-trial","161","1101673","0.0-44.0","battery-v0.2","","""event"",""trial"",""time""
""fullscreenenter"",""1"",""1678""
","
","
","""event"",""trial"",""time""
""fullscreenenter"",""1"",""1678""
","
","","","236.70000004768372","","","18","14403","5946","e","elianto","#f73b6a7A","-1"," ","0","-10","[1087.2000000476837]","1","2","","","14403","40","2","4","lose","no-go","0"
"pit-trial","162","1104582","0.0-45.0","battery-v0.2","","""event"",""trial"",""time""
""fullscreenenter"",""1"",""1678""
","
","
","""event"",""trial"",""time""
""fullscreenenter"",""1"",""1678""
","
","","","52.299999952316284","","","18","14403","5946","j","elianto","#f73b6a7A","-1"," ","0","-10","[903.7999999523163]","1","2","","","14403","41","0","4","lose","no-go","0"
"pit-trial","163","1107668","0.0-46.0","battery-v0.2","","""event"",""trial"",""time""
""fullscreenenter"",""1"",""1678""
","
","
","""event"",""trial"",""time""
""fullscreenenter"",""1"",""1678""
","
","","","230.40000009536743","","","18","14403","5946","w","elianto","#f73b6a7A"," "," ","1","0","[1081.5999999046326]","1","2","","","14403","42","3","3","lose","go","0"
"pit-trial","164","1110551","0.0-47.0","battery-v0.2","","""event"",""trial"",""time""
""fullscreenenter"",""1"",""1678""
","
","
","""event"",""trial"",""time""
""fullscreenenter"",""1"",""1678""
","
","","","25.799999952316284","","","18","14403","5946","d","elianto","#3366ff99"," "," ","1","+10","[876.6000001430511]","1","2","","","14403","43","1","1","win","go","0"
"pit-trial","165","1113664","0.0-48.0","battery-v0.2","","""event"",""trial"",""time""
""fullscreenenter"",""1"",""1678""
","
","
","""event"",""trial"",""time""
""fullscreenenter"",""1"",""1678""
","
","","","256.2999999523163","","","18","14403","5946","e","elianto","#f73b6a7A","-1"," ","0","-10","[1107]","1","2","","","14403","44","2","4","lose","no-go","0"
"pit-trial","166","1116614","0.0-49.0","battery-v0.2","","""event"",""trial"",""time""
""fullscreenenter"",""1"",""1678""
","
","
","""event"",""trial"",""time""
""fullscreenenter"",""1"",""1678""
","
","","","93.59999990463257","","","18","14403","5946","w","elianto","#f73b6a7A"," "," ","1","0","[944.5999999046326]","1","2","","","14403","45","3","3","lose","go","0"
"pit-trial","167","1119702","0.0-50.0","battery-v0.2","","""event"",""trial"",""time""
""fullscreenenter"",""1"",""1678""
","
","
","""event"",""trial"",""time""
""fullscreenenter"",""1"",""1678""
","
","","","233.39999985694885","","","18","14403","5946","e","elianto","#f73b6a7A","-1"," ","0","-10","[1083.6999998092651]","1","2","","","14403","46","2","4","lose","no-go","0"
"pit-trial","168","1124558","0.0-51.0","battery-v0.2","","""event"",""trial"",""time""
""fullscreenenter"",""1"",""1678""
","
","
","""event"",""trial"",""time""
""fullscreenenter"",""1"",""1678""
","
","","","-1","","","18","14403","5946","j","elianto","#f73b6a7A","-1","-1","1","-10","[]","0","2","","","14403","47","0","4","lose","no-go","1"
"pit-trial","169","1128629","0.0-52.0","battery-v0.2","","""event"",""trial"",""time""
""fullscreenenter"",""1"",""1678""
","
","
","""event"",""trial"",""time""
""fullscreenenter"",""1"",""1678""
","
","","","1214","","","18","14403","5946","s","elianto","#3366ff99","-1"," ","0","0","[2065.5999999046326]","1","2","","","14403","48","4","2","win","no-go","0"
"pit-trial","170","1133485","0.0-53.0","battery-v0.2","","""event"",""trial"",""time""
""fullscreenenter"",""1"",""1678""
","
","
","""event"",""trial"",""time""
""fullscreenenter"",""1"",""1678""
","
","","","-1","","","18","14403","5946","d","elianto","#3366ff99"," ","-1","0","0","[]","0","2","","","14403","49","1","1","win","go","0"
"pit-trial","171","1138343","0.0-54.0","battery-v0.2","","""event"",""trial"",""time""
""fullscreenenter"",""1"",""1678""
","
","
","""event"",""trial"",""time""
""fullscreenenter"",""1"",""1678""
","
","","","-1","","","18","14403","5946","j","elianto","#f73b6a7A","-1","-1","1","-10","[]","0","2","","","14403","50","0","4","lose","no-go","1"
"pit-trial","172","1143200","0.0-55.0","battery-v0.2","","""event"",""trial"",""time""
""fullscreenenter"",""1"",""1678""
","
","
","""event"",""trial"",""time""
""fullscreenenter"",""1"",""1678""
","
","","","-1","","","18","14403","5946","w","elianto","#f73b6a7A"," ","-1","0","-10","[]","0","2","","","14403","51","3","3","lose","go","0"
"pit-trial","173","1146503","0.0-56.0","battery-v0.2","","""event"",""trial"",""time""
""fullscreenenter"",""1"",""1678""
","
","
","""event"",""trial"",""time""
""fullscreenenter"",""1"",""1678""
","
","","","446.59999990463257","","","18","14403","5946","s","elianto","#3366ff99","-1"," ","0","+10","[1298]","1","2","","","14403","52","4","2","win","no-go","1"
"pit-trial","174","1151359","0.0-57.0","battery-v0.2","","""event"",""trial"",""time""
""fullscreenenter"",""1"",""1678""
","
","
","""event"",""trial"",""time""
""fullscreenenter"",""1"",""1678""
","
","","","-1","","","18","14403","5946","j","elianto","#f73b6a7A","-1","-1","1","-10","[]","0","2","","","14403","53","0","4","lose","no-go","1"
"pit-trial","175","1154778","0.0-58.0","battery-v0.2","","""event"",""trial"",""time""
""fullscreenenter"",""1"",""1678""
","
","
","""event"",""trial"",""time""
""fullscreenenter"",""1"",""1678""
","
","","","563","","","18","14403","5946","s","elianto","#3366ff99","-1"," ","0","0","[1413.9000000953674]","1","2","","","14403","54","4","2","win","no-go","0"
"pit-trial","176","1158393","0.0-59.0","battery-v0.2","","""event"",""trial"",""time""
""fullscreenenter"",""1"",""1678""
","
","
","""event"",""trial"",""time""
""fullscreenenter"",""1"",""1678""
","
","","","758.5999999046326","","","18","14403","5946","d","elianto","#3366ff99"," "," ","1","+10","[1609.5]","1","2","","","14403","55","1","1","win","go","0"
"pit-trial","177","1161893","0.0-60.0","battery-v0.2","","""event"",""trial"",""time""
""fullscreenenter"",""1"",""1678""
","
","
","""event"",""trial"",""time""
""fullscreenenter"",""1"",""1678""
","
","","","643.8000001907349","","","18","14403","5946","e","elianto","#f73b6a7A","-1"," ","0","-10","[1494.4000000953674]","1","2","","","14403","56","2","4","lose","no-go","0"
"pit-trial","178","1166506","0.0-61.0","battery-v0.2","","""event"",""trial"",""time""
""fullscreenenter"",""1"",""1678""
","
","
","""event"",""trial"",""time""
""fullscreenenter"",""1"",""1678""
","
","","","1757.3999998569489","","","18","14403","5946","j","elianto","#f73b6a7A","-1"," ","0","-10","[2608.2999999523163]","1","2","","","14403","57","0","4","lose","no-go","0"
"pit-trial","179","1171363","0.0-62.0","battery-v0.2","","""event"",""trial"",""time""
""fullscreenenter"",""1"",""1678""
","
","
","""event"",""trial"",""time""
""fullscreenenter"",""1"",""1678""
","
","","","-1","","","18","14403","5946","s","elianto","#3366ff99","-1","-1","1","0","[3013.4000000953674]","1","2","","","14403","58","4","2","win","no-go","1"
"pit-trial","180","1176220","0.0-63.0","battery-v0.2","","""event"",""trial"",""time""
""fullscreenenter"",""1"",""1678""
","
","
","""event"",""trial"",""time""
""fullscreenenter"",""1"",""1678""
","
","","","-1","","","18","14403","5946","d","elianto","#3366ff99"," ","-1","0","0","[]","0","2","","","14403","59","1","1","win","go","0"
"pit-trial","181","1181078","0.0-64.0","battery-v0.2","","""event"",""trial"",""time""
""fullscreenenter"",""1"",""1678""
","
","
","""event"",""trial"",""time""
""fullscreenenter"",""1"",""1678""
","
","","","-1","","","18","14403","5946","w","elianto","#f73b6a7A"," ","-1","0","-10","[]","0","2","","","14403","60","3","3","lose","go","0"
"pit-trial","182","1185934","0.0-65.0","battery-v0.2","","""event"",""trial"",""time""
""fullscreenenter"",""1"",""1678""
","
","
","""event"",""trial"",""time""
""fullscreenenter"",""1"",""1678""
","
","","","-1","","","18","14403","5946","d","elianto","#3366ff99"," ","-1","0","+10","[]","0","2","","","14403","61","1","1","win","go","1"
"pit-trial","183","1190792","0.0-66.0","battery-v0.2","","""event"",""trial"",""time""
""fullscreenenter"",""1"",""1678""
","
","
","""event"",""trial"",""time""
""fullscreenenter"",""1"",""1678""
","
","","","-1","","","18","14403","5946","s","elianto","#3366ff99","-1","-1","1","+10","[]","0","2","","","14403","62","4","2","win","no-go","0"
"pit-trial","184","1195648","0.0-67.0","battery-v0.2","","""event"",""trial"",""time""
""fullscreenenter"",""1"",""1678""
","
","
","""event"",""trial"",""time""
""fullscreenenter"",""1"",""1678""
","
","","","-1","","","18","14403","5946","w","elianto","#f73b6a7A"," ","-1","0","0","[]","0","2","","","14403","63","3","3","lose","go","1"
"pit-trial","185","1200504","0.0-68.0","battery-v0.2","","""event"",""trial"",""time""
""fullscreenenter"",""1"",""1678""
","
","
","""event"",""trial"",""time""
""fullscreenenter"",""1"",""1678""
","
","","","-1","","","18","14403","5946","e","elianto","#f73b6a7A","-1","-1","1","0","[]","0","2","","","14403","64","2","4","lose","no-go","0"
"pit-trial","186","1205360","0.0-69.0","battery-v0.2","","""event"",""trial"",""time""
""fullscreenenter"",""1"",""1678""
","
","
","""event"",""trial"",""time""
""fullscreenenter"",""1"",""1678""
","
","","","-1","","","18","14403","5946","s","elianto","#3366ff99","-1","-1","1","0","[]","0","2","","","14403","65","4","2","win","no-go","1"
"pit-trial","187","1210216","0.0-70.0","battery-v0.2","","""event"",""trial"",""time""
""fullscreenenter"",""1"",""1678""
","
","
","""event"",""trial"",""time""
""fullscreenenter"",""1"",""1678""
","
","","","-1","","","18","14403","5946","w","elianto","#f73b6a7A"," ","-1","0","0","[]","0","2","","","14403","66","3","3","lose","go","1"
"pit-trial","188","1215072","0.0-71.0","battery-v0.2","","""event"",""trial"",""time""
""fullscreenenter"",""1"",""1678""
","
","
","""event"",""trial"",""time""
""fullscreenenter"",""1"",""1678""
","
","","","-1","","","18","14403","5946","d","elianto","#3366ff99"," ","-1","0","0","[]","0","2","","","14403","67","1","1","win","go","0"
"pit-trial","189","1219929","0.0-72.0","battery-v0.2","","""event"",""trial"",""time""
""fullscreenenter"",""1"",""1678""
","
","
","""event"",""trial"",""time""
""fullscreenenter"",""1"",""1678""
","
","","","-1","","","18","14403","5946","e","elianto","#f73b6a7A","-1","-1","1","0","[]","0","2","","","14403","68","2","4","lose","no-go","0"
"pit-trial","190","1224786","0.0-73.0","battery-v0.2","","""event"",""trial"",""time""
""fullscreenenter"",""1"",""1678""
","
","
","""event"",""trial"",""time""
""fullscreenenter"",""1"",""1678""
","
","","","-1","","","18","14403","5946","s","elianto","#3366ff99","-1","-1","1","+10","[]","0","2","","","14403","69","4","2","win","no-go","0"
"pit-trial","191","1229642","0.0-74.0","battery-v0.2","","""event"",""trial"",""time""
""fullscreenenter"",""1"",""1678""
","
","
","""event"",""trial"",""time""
""fullscreenenter"",""1"",""1678""
","
","","","-1","","","18","14403","5946","p","elianto","#3366ff99"," ","-1","0","+10","[]","0","2","","","14403","70","5","1","win","go","1"
"pit-trial","192","1234497","0.0-75.0","battery-v0.2","","""event"",""trial"",""time""
""fullscreenenter"",""1"",""1678""
","
","
","""event"",""trial"",""time""
""fullscreenenter"",""1"",""1678""
","
","","","-1","","","18","14403","5946","d","elianto","#3366ff99"," ","-1","0","+10","[]","0","2","","","14403","71","1","1","win","go","1"
"pit-trial","193","1239353","0.0-76.0","battery-v0.2","","""event"",""trial"",""time""
""fullscreenenter"",""1"",""1678""
","
","
","""event"",""trial"",""time""
""fullscreenenter"",""1"",""1678""
","
","","","-1","","","18","14403","5946","w","elianto","#f73b6a7A"," ","-1","0","-10","[]","0","2","","","14403","72","3","3","lose","go","0"
"pit-trial","194","1244210","0.0-77.0","battery-v0.2","","""event"",""trial"",""time""
""fullscreenenter"",""1"",""1678""
","
","
","""event"",""trial"",""time""
""fullscreenenter"",""1"",""1678""
","
","","","-1","","","18","14403","5946","w","elianto","#f73b6a7A"," ","-1","0","0","[]","0","2","","","14403","73","3","3","lose","go","1"
"pit-trial","195","1249066","0.0-78.0","battery-v0.2","","""event"",""trial"",""time""
""fullscreenenter"",""1"",""1678""
","
","
","""event"",""trial"",""time""
""fullscreenenter"",""1"",""1678""
","
","","","-1","","","18","14403","5946","p","elianto","#3366ff99"," ","-1","0","0","[]","0","2","","","14403","74","5","1","win","go","0"
"pit-trial","196","1253923","0.0-79.0","battery-v0.2","","""event"",""trial"",""time""
""fullscreenenter"",""1"",""1678""
","
","
","""event"",""trial"",""time""
""fullscreenenter"",""1"",""1678""
","
","","","-1","","","18","14403","5946","d","elianto","#3366ff99"," ","-1","0","+10","[]","0","2","","","14403","75","1","1","win","go","1"
"pit-trial","197","1258780","0.0-80.0","battery-v0.2","","""event"",""trial"",""time""
""fullscreenenter"",""1"",""1678""
","
","
","""event"",""trial"",""time""
""fullscreenenter"",""1"",""1678""
","
","","","-1","","","18","14403","5946","s","elianto","#3366ff99","-1","-1","1","+10","[]","0","2","","","14403","76","4","2","win","no-go","0"
"pit-trial","198","1263637","0.0-81.0","battery-v0.2","","""event"",""trial"",""time""
""fullscreenenter"",""1"",""1678""
","
","
","""event"",""trial"",""time""
""fullscreenenter"",""1"",""1678""
","
","","","-1","","","18","14403","5946","w","elianto","#f73b6a7A"," ","-1","0","-10","[]","0","2","","","14403","77","3","3","lose","go","0"
"pit-trial","199","1268494","0.0-82.0","battery-v0.2","","""event"",""trial"",""time""
""fullscreenenter"",""1"",""1678""
","
","
","""event"",""trial"",""time""
""fullscreenenter"",""1"",""1678""
","
","","","-1","","","18","14403","5946","p","elianto","#3366ff99"," ","-1","0","0","[]","0","2","","","14403","78","5","1","win","go","0"
"pit-trial","200","1273351","0.0-83.0","battery-v0.2","","""event"",""trial"",""time""
""fullscreenenter"",""1"",""1678""
","
","
","""event"",""trial"",""time""
""fullscreenenter"",""1"",""1678""
","
","","","-1","","","18","14403","5946","s","elianto","#3366ff99","-1","-1","1","0","[]","0","2","","","14403","79","4","2","win","no-go","1"
"pit-trial","201","1278207","0.0-84.0","battery-v0.2","","""event"",""trial"",""time""
""fullscreenenter"",""1"",""1678""
","
","
","""event"",""trial"",""time""
""fullscreenenter"",""1"",""1678""
","
","","","-1","","","18","14403","5946","g","elianto","#f73b6a7A","-1","-1","1","0","[]","0","2","","","14403","80","6","4","lose","no-go","0"
"pit-trial","202","1283064","0.0-85.0","battery-v0.2","","""event"",""trial"",""time""
""fullscreenenter"",""1"",""1678""
","
","
","""event"",""trial"",""time""
""fullscreenenter"",""1"",""1678""
","
","","","-1","","","18","14403","5946","g","elianto","#f73b6a7A","-1","-1","1","-10","[]","0","2","","","14403","81","6","4","lose","no-go","1"
"pit-trial","203","1287920","0.0-86.0","battery-v0.2","","""event"",""trial"",""time""
""fullscreenenter"",""1"",""1678""
","
","
","""event"",""trial"",""time""
""fullscreenenter"",""1"",""1678""
","
","","","-1","","","18","14403","5946","a","elianto","#f73b6a7A"," ","-1","0","-10","[]","0","2","","","14403","82","7","3","lose","go","0"
"pit-trial","204","1292775","0.0-87.0","battery-v0.2","","""event"",""trial"",""time""
""fullscreenenter"",""1"",""1678""
","
","
","""event"",""trial"",""time""
""fullscreenenter"",""1"",""1678""
","
","","","-1","","","18","14403","5946","p","elianto","#3366ff99"," ","-1","0","0","[]","0","2","","","14403","83","5","1","win","go","0"
"pit-trial","205","1297631","0.0-88.0","battery-v0.2","","""event"",""trial"",""time""
""fullscreenenter"",""1"",""1678""
","
","
","""event"",""trial"",""time""
""fullscreenenter"",""1"",""1678""
","
","","","-1","","","18","14403","5946","s","elianto","#3366ff99","-1","-1","1","+10","[]","0","2","","","14403","84","4","2","win","no-go","0"
"pit-trial","206","1302487","0.0-89.0","battery-v0.2","","""event"",""trial"",""time""
""fullscreenenter"",""1"",""1678""
","
","
","""event"",""trial"",""time""
""fullscreenenter"",""1"",""1678""
","
","","","-1","","","18","14403","5946","s","elianto","#3366ff99","-1","-1","1","+10","[]","0","2","","","14403","85","4","2","win","no-go","0"
"pit-trial","207","1307344","0.0-90.0","battery-v0.2","","""event"",""trial"",""time""
""fullscreenenter"",""1"",""1678""
","
","
","""event"",""trial"",""time""
""fullscreenenter"",""1"",""1678""
","
","","","-1","","","18","14403","5946","g","elianto","#f73b6a7A","-1","-1","1","-10","[]","0","2","","","14403","86","6","4","lose","no-go","1"
"pit-trial","208","1312201","0.0-91.0","battery-v0.2","","""event"",""trial"",""time""
""fullscreenenter"",""1"",""1678""
","
","
","""event"",""trial"",""time""
""fullscreenenter"",""1"",""1678""
","
","","","-1","","","18","14403","5946","p","elianto","#3366ff99"," ","-1","0","+10","[]","0","2","","","14403","87","5","1","win","go","1"
"pit-trial","209","1317056","0.0-92.0","battery-v0.2","","""event"",""trial"",""time""
""fullscreenenter"",""1"",""1678""
","
","
","""event"",""trial"",""time""
""fullscreenenter"",""1"",""1678""
","
","","","-1","","","18","14403","5946","a","elianto","#f73b6a7A"," ","-1","0","-10","[]","0","2","","","14403","88","7","3","lose","go","0"
"pit-trial","210","1321913","0.0-93.0","battery-v0.2","","""event"",""trial"",""time""
""fullscreenenter"",""1"",""1678""
","
","
","""event"",""trial"",""time""
""fullscreenenter"",""1"",""1678""
","
","","","-1","","","18","14403","5946","g","elianto","#f73b6a7A","-1","-1","1","0","[]","0","2","","","14403","89","6","4","lose","no-go","0"
"pit-trial","211","1326769","0.0-94.0","battery-v0.2","","""event"",""trial"",""time""
""fullscreenenter"",""1"",""1678""
","
","
","""event"",""trial"",""time""
""fullscreenenter"",""1"",""1678""
","
","","","-1","","","18","14403","5946","a","elianto","#f73b6a7A"," ","-1","0","0","[]","0","2","","","14403","90","7","3","lose","go","1"
"pit-trial","212","1331625","0.0-95.0","battery-v0.2","","""event"",""trial"",""time""
""fullscreenenter"",""1"",""1678""
","
","
","""event"",""trial"",""time""
""fullscreenenter"",""1"",""1678""
","
","","","-1","","","18","14403","5946","p","elianto","#3366ff99"," ","-1","0","0","[]","0","2","","","14403","91","5","1","win","go","0"
"pit-trial","213","1336479","0.0-96.0","battery-v0.2","","""event"",""trial"",""time""
""fullscreenenter"",""1"",""1678""
","
","
","""event"",""trial"",""time""
""fullscreenenter"",""1"",""1678""
","
","","","-1","","","18","14403","5946","s","elianto","#3366ff99","-1","-1","1","+10","[]","0","2","","","14403","92","4","2","win","no-go","0"
"pit-trial","214","1341335","0.0-97.0","battery-v0.2","","""event"",""trial"",""time""
""fullscreenenter"",""1"",""1678""
","
","
","""event"",""trial"",""time""
""fullscreenenter"",""1"",""1678""
","
","","","-1","","","18","14403","5946","a","elianto","#f73b6a7A"," ","-1","0","-10","[]","0","2","","","14403","93","7","3","lose","go","0"
"pit-trial","215","1346189","0.0-98.0","battery-v0.2","","""event"",""trial"",""time""
""fullscreenenter"",""1"",""1678""
","
","
","""event"",""trial"",""time""
""fullscreenenter"",""1"",""1678""
","
","","","-1","","","18","14403","5946","g","elianto","#f73b6a7A","-1","-1","1","0","[]","0","2","","","14403","94","6","4","lose","no-go","0"
"pit-trial","216","1351046","0.0-99.0","battery-v0.2","","""event"",""trial"",""time""
""fullscreenenter"",""1"",""1678""
","
","
","""event"",""trial"",""time""
""fullscreenenter"",""1"",""1678""
","
","","","-1","","","18","14403","5946","p","elianto","#3366ff99"," ","-1","0","0","[]","0","2","","","14403","95","5","1","win","go","0"
"pit-trial","217","1355903","0.0-100.0","battery-v0.2","","""event"",""trial"",""time""
""fullscreenenter"",""1"",""1678""
","
","
","""event"",""trial"",""time""
""fullscreenenter"",""1"",""1678""
","
","","","-1","","","18","14403","5946","l","elianto","#3366ff99","-1","-1","1","0","[]","0","2","","","14403","96","8","2","win","no-go","1"
"pit-trial","218","1360760","0.0-101.0","battery-v0.2","","""event"",""trial"",""time""
""fullscreenenter"",""1"",""1678""
","
","
","""event"",""trial"",""time""
""fullscreenenter"",""1"",""1678""
","
","","","-1","","","18","14403","5946","g","elianto","#f73b6a7A","-1","-1","1","0","[]","0","2","","","14403","97","6","4","lose","no-go","0"
"pit-trial","219","1365617","0.0-102.0","battery-v0.2","","""event"",""trial"",""time""
""fullscreenenter"",""1"",""1678""
","
","
","""event"",""trial"",""time""
""fullscreenenter"",""1"",""1678""
","
","","","-1","","","18","14403","5946","a","elianto","#f73b6a7A"," ","-1","0","-10","[]","0","2","","","14403","98","7","3","lose","go","0"
"pit-trial","220","1370473","0.0-103.0","battery-v0.2","","""event"",""trial"",""time""
""fullscreenenter"",""1"",""1678""
","
","
","""event"",""trial"",""time""
""fullscreenenter"",""1"",""1678""
","
","","","-1","","","18","14403","5946","p","elianto","#3366ff99"," ","-1","0","+10","[]","0","2","","","14403","99","5","1","win","go","1"
"pit-trial","221","1375330","0.0-104.0","battery-v0.2","","""event"",""trial"",""time""
""fullscreenenter"",""1"",""1678""
","
","
","""event"",""trial"",""time""
""fullscreenenter"",""1"",""1678""
","
","","","-1","","","18","14403","5946","l","elianto","#3366ff99","-1","-1","1","+10","[]","0","2","","","14403","100","8","2","win","no-go","0"
"pit-trial","222","1380187","0.0-105.0","battery-v0.2","","""event"",""trial"",""time""
""fullscreenenter"",""1"",""1678""
","
","
","""event"",""trial"",""time""
""fullscreenenter"",""1"",""1678""
","
","","","-1","","","18","14403","5946","l","elianto","#3366ff99","-1","-1","1","+10","[]","0","2","","","14403","101","8","2","win","no-go","0"
"pit-trial","223","1385044","0.0-106.0","battery-v0.2","","""event"",""trial"",""time""
""fullscreenenter"",""1"",""1678""
","
","
","""event"",""trial"",""time""
""fullscreenenter"",""1"",""1678""
","
","","","-1","","","18","14403","5946","p","elianto","#3366ff99"," ","-1","0","0","[]","0","2","","","14403","102","5","1","win","go","0"
"pit-trial","224","1389901","0.0-107.0","battery-v0.2","","""event"",""trial"",""time""
""fullscreenenter"",""1"",""1678""
","
","
","""event"",""trial"",""time""
""fullscreenenter"",""1"",""1678""
","
","","","-1","","","18","14403","5946","u","elianto","#3366ff99","-1","-1","1","+10","[]","0","2","","","14403","103","9","2","win","no-go","0"
"pit-trial","225","1394758","0.0-108.0","battery-v0.2","","""event"",""trial"",""time""
""fullscreenenter"",""1"",""1678""
","
","
","""event"",""trial"",""time""
""fullscreenenter"",""1"",""1678""
","
","","","-1","","","18","14403","5946","g","elianto","#f73b6a7A","-1","-1","1","0","[]","0","2","","","14403","104","6","4","lose","no-go","0"
"pit-trial","226","1399614","0.0-109.0","battery-v0.2","","""event"",""trial"",""time""
""fullscreenenter"",""1"",""1678""
","
","
","""event"",""trial"",""time""
""fullscreenenter"",""1"",""1678""
","
","","","-1","","","18","14403","5946","u","elianto","#3366ff99","-1","-1","1","+10","[]","0","2","","","14403","105","9","2","win","no-go","0"
"pit-trial","227","1404471","0.0-110.0","battery-v0.2","","""event"",""trial"",""time""
""fullscreenenter"",""1"",""1678""
","
","
","""event"",""trial"",""time""
""fullscreenenter"",""1"",""1678""
","
","","","-1","","","18","14403","5946","g","elianto","#f73b6a7A","-1","-1","1","0","[]","0","2","","","14403","106","6","4","lose","no-go","0"
"pit-trial","228","1409327","0.0-111.0","battery-v0.2","","""event"",""trial"",""time""
""fullscreenenter"",""1"",""1678""
","
","
","""event"",""trial"",""time""
""fullscreenenter"",""1"",""1678""
","
","","","-1","","","18","14403","5946","l","elianto","#3366ff99","-1","-1","1","+10","[]","0","2","","","14403","107","8","2","win","no-go","0"
"pit-trial","229","1414184","0.0-112.0","battery-v0.2","","""event"",""trial"",""time""
""fullscreenenter"",""1"",""1678""
","
","
","""event"",""trial"",""time""
""fullscreenenter"",""1"",""1678""
","
","","","-1","","","18","14403","5946","p","elianto","#3366ff99"," ","-1","0","0","[]","0","2","","","14403","108","5","1","win","go","0"
"pit-trial","230","1419041","0.0-113.0","battery-v0.2","","""event"",""trial"",""time""
""fullscreenenter"",""1"",""1678""
","
","
","""event"",""trial"",""time""
""fullscreenenter"",""1"",""1678""
","
","","","-1","","","18","14403","5946","g","elianto","#f73b6a7A","-1","-1","1","0","[]","0","2","","","14403","109","6","4","lose","no-go","0"
"pit-trial","231","1423898","0.0-114.0","battery-v0.2","","""event"",""trial"",""time""
""fullscreenenter"",""1"",""1678""
","
","
","""event"",""trial"",""time""
""fullscreenenter"",""1"",""1678""
","
","","","-1","","","18","14403","5946","l","elianto","#3366ff99","-1","-1","1","+10","[]","0","2","","","14403","110","8","2","win","no-go","0"
"pit-trial","232","1428755","0.0-115.0","battery-v0.2","","""event"",""trial"",""time""
""fullscreenenter"",""1"",""1678""
","
","
","""event"",""trial"",""time""
""fullscreenenter"",""1"",""1678""
","
","","","-1","","","18","14403","5946","p","elianto","#3366ff99"," ","-1","0","0","[]","0","2","","","14403","111","5","1","win","go","0"
"pit-trial","233","1433612","0.0-116.0","battery-v0.2","","""event"",""trial"",""time""
""fullscreenenter"",""1"",""1678""
","
","
","""event"",""trial"",""time""
""fullscreenenter"",""1"",""1678""
","
","","","-1","","","18","14403","5946","u","elianto","#3366ff99","-1","-1","1","+10","[]","0","2","","","14403","112","9","2","win","no-go","0"
"pit-trial","234","1438468","0.0-117.0","battery-v0.2","","""event"",""trial"",""time""
""fullscreenenter"",""1"",""1678""
","
","
","""event"",""trial"",""time""
""fullscreenenter"",""1"",""1678""
","
","","","-1","","","18","14403","5946","u","elianto","#3366ff99","-1","-1","1","0","[]","0","2","","","14403","113","9","2","win","no-go","1"
"pit-trial","235","1443324","0.0-118.0","battery-v0.2","","""event"",""trial"",""time""
""fullscreenenter"",""1"",""1678""
","
","
","""event"",""trial"",""time""
""fullscreenenter"",""1"",""1678""
","
","","","-1","","","18","14403","5946","p","elianto","#3366ff99"," ","-1","0","+10","[]","0","2","","","14403","114","5","1","win","go","1"
"pit-trial","236","1448180","0.0-119.0","battery-v0.2","","""event"",""trial"",""time""
""fullscreenenter"",""1"",""1678""
","
","
","""event"",""trial"",""time""
""fullscreenenter"",""1"",""1678""
","
","","","-1","","","18","14403","5946","l","elianto","#3366ff99","-1","-1","1","+10","[]","0","2","","","14403","115","8","2","win","no-go","0"
"pit-trial","237","1453037","0.0-120.0","battery-v0.2","","""event"",""trial"",""time""
""fullscreenenter"",""1"",""1678""
","
","
","""event"",""trial"",""time""
""fullscreenenter"",""1"",""1678""
","
","","","-1","","","18","14403","5946","a","elianto","#f73b6a7A"," ","-1","0","-10","[]","0","2","","","14403","116","7","3","lose","go","0"
"pit-trial","238","1457894","0.0-121.0","battery-v0.2","","""event"",""trial"",""time""
""fullscreenenter"",""1"",""1678""
","
","
","""event"",""trial"",""time""
""fullscreenenter"",""1"",""1678""
","
","","","-1","","","18","14403","5946","g","elianto","#f73b6a7A","-1","-1","1","0","[]","0","2","","","14403","117","6","4","lose","no-go","0"
"pit-trial","239","1462752","0.0-122.0","battery-v0.2","","""event"",""trial"",""time""
""fullscreenenter"",""1"",""1678""
","
","
","""event"",""trial"",""time""
""fullscreenenter"",""1"",""1678""
","
","","","-1","","","18","14403","5946","l","elianto","#3366ff99","-1","-1","1","0","[]","0","2","","","14403","118","8","2","win","no-go","1"
"pit-trial","240","1467609","0.0-123.0","battery-v0.2","","""event"",""trial"",""time""
""fullscreenenter"",""1"",""1678""
","
","
","""event"",""trial"",""time""
""fullscreenenter"",""1"",""1678""
","
","","","-1","","","18","14403","5946","p","elianto","#3366ff99"," ","-1","0","0","[]","0","2","","","14403","119","5","1","win","go","0"
"pit-trial","241","1472466","0.0-124.0","battery-v0.2","","""event"",""trial"",""time""
""fullscreenenter"",""1"",""1678""
","
","
","""event"",""trial"",""time""
""fullscreenenter"",""1"",""1678""
","
","","","-1","","","18","14403","5946","u","elianto","#3366ff99","-1","-1","1","+10","[]","0","2","","","14403","120","9","2","win","no-go","0"
"pit-trial","242","1477323","0.0-125.0","battery-v0.2","","""event"",""trial"",""time""
""fullscreenenter"",""1"",""1678""
","
","
","""event"",""trial"",""time""
""fullscreenenter"",""1"",""1678""
","
","","","-1","","","18","14403","5946","p","elianto","#3366ff99"," ","-1","0","0","[]","0","2","","","14403","121","5","1","win","go","0"
"pit-trial","243","1482180","0.0-126.0","battery-v0.2","","""event"",""trial"",""time""
""fullscreenenter"",""1"",""1678""
","
","
","""event"",""trial"",""time""
""fullscreenenter"",""1"",""1678""
","
","","","-1","","","18","14403","5946","l","elianto","#3366ff99","-1","-1","1","+10","[]","0","2","","","14403","122","8","2","win","no-go","0"
"pit-trial","244","1487038","0.0-127.0","battery-v0.2","","""event"",""trial"",""time""
""fullscreenenter"",""1"",""1678""
","
","
","""event"",""trial"",""time""
""fullscreenenter"",""1"",""1678""
","
","","","-1","","","18","14403","5946","u","elianto","#3366ff99","-1","-1","1","+10","[]","0","2","","","14403","123","9","2","win","no-go","0"
"pit-trial","245","1491896","0.0-128.0","battery-v0.2","","""event"",""trial"",""time""
""fullscreenenter"",""1"",""1678""
","
","
","""event"",""trial"",""time""
""fullscreenenter"",""1"",""1678""
","
","","","-1","","","18","14403","5946","a","elianto","#f73b6a7A"," ","-1","0","0","[]","0","2","","","14403","124","7","3","lose","go","1"
"pit-trial","246","1496753","0.0-129.0","battery-v0.2","","""event"",""trial"",""time""
""fullscreenenter"",""1"",""1678""
","
","
","""event"",""trial"",""time""
""fullscreenenter"",""1"",""1678""
","
","","","-1","","","18","14403","5946","u","elianto","#3366ff99","-1","-1","1","+10","[]","0","2","","","14403","125","9","2","win","no-go","0"
"pit-trial","247","1501610","0.0-130.0","battery-v0.2","","""event"",""trial"",""time""
""fullscreenenter"",""1"",""1678""
","
","
","""event"",""trial"",""time""
""fullscreenenter"",""1"",""1678""
","
","","","-1","","","18","14403","5946","a","elianto","#f73b6a7A"," ","-1","0","-10","[]","0","2","","","14403","126","7","3","lose","go","0"
"pit-trial","248","1506467","0.0-131.0","battery-v0.2","","""event"",""trial"",""time""
""fullscreenenter"",""1"",""1678""
","
","
","""event"",""trial"",""time""
""fullscreenenter"",""1"",""1678""
","
","","","-1","","","18","14403","5946","l","elianto","#3366ff99","-1","-1","1","+10","[]","0","2","","","14403","127","8","2","win","no-go","0"
"pit-trial","249","1511324","0.0-132.0","battery-v0.2","","""event"",""trial"",""time""
""fullscreenenter"",""1"",""1678""
","
","
","""event"",""trial"",""time""
""fullscreenenter"",""1"",""1678""
","
","","","-1","","","18","14403","5946","g","elianto","#f73b6a7A","-1","-1","1","0","[]","0","2","","","14403","128","6","4","lose","no-go","0"
"pit-trial","250","1516184","0.0-133.0","battery-v0.2","","""event"",""trial"",""time""
""fullscreenenter"",""1"",""1678""
","
","
","""event"",""trial"",""time""
""fullscreenenter"",""1"",""1678""
","
","","","-1","","","18","14403","5946","l","elianto","#3366ff99","-1","-1","1","+10","[]","0","2","","","14403","129","8","2","win","no-go","0"
"pit-trial","251","1521042","0.0-134.0","battery-v0.2","","""event"",""trial"",""time""
""fullscreenenter"",""1"",""1678""
","
","
","""event"",""trial"",""time""
""fullscreenenter"",""1"",""1678""
","
","","","-1","","","18","14403","5946","a","elianto","#f73b6a7A"," ","-1","0","0","[]","0","2","","","14403","130","7","3","lose","go","1"
"pit-trial","252","1525901","0.0-135.0","battery-v0.2","","""event"",""trial"",""time""
""fullscreenenter"",""1"",""1678""
","
","
","""event"",""trial"",""time""
""fullscreenenter"",""1"",""1678""
","
","","","-1","","","18","14403","5946","g","elianto","#f73b6a7A","-1","-1","1","0","[]","0","2","","","14403","131","6","4","lose","no-go","0"
"pit-trial","253","1530759","0.0-136.0","battery-v0.2","","""event"",""trial"",""time""
""fullscreenenter"",""1"",""1678""
","
","
","""event"",""trial"",""time""
""fullscreenenter"",""1"",""1678""
","
","","","-1","","","18","14403","5946","u","elianto","#3366ff99","-1","-1","1","+10","[]","0","2","","","14403","132","9","2","win","no-go","0"
"pit-trial","254","1535616","0.0-137.0","battery-v0.2","","""event"",""trial"",""time""
""fullscreenenter"",""1"",""1678""
","
","
","""event"",""trial"",""time""
""fullscreenenter"",""1"",""1678""
","
","","","-1","","","18","14403","5946","l","elianto","#3366ff99","-1","-1","1","+10","[]","0","2","","","14403","133","8","2","win","no-go","0"
"pit-trial","255","1540473","0.0-138.0","battery-v0.2","","""event"",""trial"",""time""
""fullscreenenter"",""1"",""1678""
","
","
","""event"",""trial"",""time""
""fullscreenenter"",""1"",""1678""
","
","","","-1","","","18","14403","5946","u","elianto","#3366ff99","-1","-1","1","+10","[]","0","2","","","14403","134","9","2","win","no-go","0"
"pit-trial","256","1545328","0.0-139.0","battery-v0.2","","""event"",""trial"",""time""
""fullscreenenter"",""1"",""1678""
","
","
","""event"",""trial"",""time""
""fullscreenenter"",""1"",""1678""
","
","","","-1","","","18","14403","5946","a","elianto","#f73b6a7A"," ","-1","0","-10","[]","0","2","","","14403","135","7","3","lose","go","0"
"pit-trial","257","1550183","0.0-140.0","battery-v0.2","","""event"",""trial"",""time""
""fullscreenenter"",""1"",""1678""
","
","
","""event"",""trial"",""time""
""fullscreenenter"",""1"",""1678""
","
","","","-1","","","18","14403","5946","g","elianto","#f73b6a7A","-1","-1","1","0","[]","0","2","","","14403","136","6","4","lose","no-go","0"
"pit-trial","258","1555040","0.0-141.0","battery-v0.2","","""event"",""trial"",""time""
""fullscreenenter"",""1"",""1678""
","
","
","""event"",""trial"",""time""
""fullscreenenter"",""1"",""1678""
","
","","","-1","","","18","14403","5946","g","elianto","#f73b6a7A","-1","-1","1","-10","[]","0","2","","","14403","137","6","4","lose","no-go","1"
"pit-trial","259","1559897","0.0-142.0","battery-v0.2","","""event"",""trial"",""time""
""fullscreenenter"",""1"",""1678""
","
","
","""event"",""trial"",""time""
""fullscreenenter"",""1"",""1678""
","
","","","-1","","","18","14403","5946","u","elianto","#3366ff99","-1","-1","1","+10","[]","0","2","","","14403","138","9","2","win","no-go","0"
"pit-trial","260","1564753","0.0-143.0","battery-v0.2","","""event"",""trial"",""time""
""fullscreenenter"",""1"",""1678""
","
","
","""event"",""trial"",""time""
""fullscreenenter"",""1"",""1678""
","
","","","-1","","","18","14403","5946","a","elianto","#f73b6a7A"," ","-1","0","0","[]","0","2","","","14403","139","7","3","lose","go","1"
"pit-trial","261","1569609","0.0-144.0","battery-v0.2","","""event"",""trial"",""time""
""fullscreenenter"",""1"",""1678""
","
","
","""event"",""trial"",""time""
""fullscreenenter"",""1"",""1678""
","
","","","-1","","","18","14403","5946","l","elianto","#3366ff99","-1","-1","1","+10","[]","0","2","","","14403","140","8","2","win","no-go","0"
"pit-instructions","262","1583277","0.0-145.0","battery-v0.2","","""event"",""trial"",""time""
""fullscreenenter"",""1"",""1678""
","
","
","""event"",""trial"",""time""
""fullscreenenter"",""1"",""1678""
","
","","[{""page_index"":0,""viewing_time"":5616.900000095367},{""page_index"":1,""viewing_time"":8045.5}]","13662.700000047684","","","","","","","","","","","","","","","","","","","","","","","",""
"pit-trial","263","1588137","0.0-146.0","battery-v0.2","","""event"",""trial"",""time""
""fullscreenenter"",""1"",""1678""
","
","
","""event"",""trial"",""time""
""fullscreenenter"",""1"",""1678""
","
","","","-1","","","18","14403","5946","b","elianto","#f73b6a7A","-1","-1","1","0","[]","0","3","","","14403","141","3","4","lose","no-go","0"
"pit-trial","264","1592993","0.0-147.0","battery-v0.2","","""event"",""trial"",""time""
""fullscreenenter"",""1"",""1678""
","
","
","""event"",""trial"",""time""
""fullscreenenter"",""1"",""1678""
","
","","","-1","","","18","14403","5946","n","elianto","#f73b6a7A"," ","-1","0","-10","[]","0","3","","","14403","142","0","3","lose","go","0"
"pit-trial","265","1597849","0.0-148.0","battery-v0.2","","""event"",""trial"",""time""
""fullscreenenter"",""1"",""1678""
","
","
","""event"",""trial"",""time""
""fullscreenenter"",""1"",""1678""
","
","","","-1","","","18","14403","5946","t","elianto","#f73b6a7A"," ","-1","0","-10","[]","0","3","","","14403","143","2","3","lose","go","0"
"pit-trial","266","1602705","0.0-149.0","battery-v0.2","","""event"",""trial"",""time""
""fullscreenenter"",""1"",""1678""
","
","
","""event"",""trial"",""time""
""fullscreenenter"",""1"",""1678""
","
","","","-1","","","18","14403","5946","f","elianto","#3366ff99","-1","-1","1","+10","[]","0","3","","","14403","144","1","2","win","no-go","0"
"pit-trial","267","1607562","0.0-150.0","battery-v0.2","","""event"",""trial"",""time""
""fullscreenenter"",""1"",""1678""
","
","
","""event"",""trial"",""time""
""fullscreenenter"",""1"",""1678""
","
","","","-1","","","18","14403","5946","t","elianto","#f73b6a7A"," ","-1","0","-10","[]","0","3","","","14403","145","2","3","lose","go","0"
"pit-trial","268","1612420","0.0-151.0","battery-v0.2","","""event"",""trial"",""time""
""fullscreenenter"",""1"",""1678""
","
","
","""event"",""trial"",""time""
""fullscreenenter"",""1"",""1678""
","
","","","-1","","","18","14403","5946","n","elianto","#f73b6a7A"," ","-1","0","0","[]","0","3","","","14403","146","0","3","lose","go","1"
"pit-trial","269","1617276","0.0-152.0","battery-v0.2","","""event"",""trial"",""time""
""fullscreenenter"",""1"",""1678""
","
","
","""event"",""trial"",""time""
""fullscreenenter"",""1"",""1678""
","
