"trial_type","trial_index","time_elapsed","internal_node_id","task_version","subject_id","interactions","blur_events","focus_events","fullscreenenter_events","fullscreenexit_events","success","view_history","rt","responses","num_errors","age","subject","participantId","rune","rune_set","hex","correct","choice","accuracy","outcome","keys","total_keys","block","practice","value","sub","trial","stimulus","robot","valence","action","sham"
"pavlovia","0","3","0.0-0.0","battery-v0.2","","""event"",""trial"",""time""
""fullscreenenter"",""1"",""4297""
","
","
","""event"",""trial"",""time""
""fullscreenenter"",""1"",""4297""
","
","","","","","","","","","","","","","","","","","","","","","","","","","","",""
"fullscreen","1","5280","0.0-1.0","battery-v0.2","","""event"",""trial"",""time""
""fullscreenenter"",""1"",""4297""
","
","
","""event"",""trial"",""time""
""fullscreenenter"",""1"",""4297""
","
","true","","","","","","","","","","","","","","","","","","","","","","","","","",""
"pit-instructions","2","54999","0.0-2.0-0.0","battery-v0.2","","""event"",""trial"",""time""
""fullscreenenter"",""1"",""4297""
","
","
","""event"",""trial"",""time""
""fullscreenenter"",""1"",""4297""
","
","","[{""page_index"":0,""viewing_time"":49715.79999998212}]","49716.19999998808","","","","","","","","","","","","","","","","","","","","","","","",""
"pit-comprehension","3","60285","0.0-2.0-1.0-0.0","battery-v0.2","","""event"",""trial"",""time""
""fullscreenenter"",""1"",""4297""
","
","
","""event"",""trial"",""time""
""fullscreenenter"",""1"",""4297""
","
","","","5281.9000000059605","[""shark""]","0","12","9995","4146","","","","","","","","","","","","","","","","","","",""
"pit-instructions","4","67157","0.0-2.0-1.0-1.0","battery-v0.2","","""event"",""trial"",""time""
""fullscreenenter"",""1"",""4297""
","
","
","""event"",""trial"",""time""
""fullscreenenter"",""1"",""4297""
","
","","[{""page_index"":0,""viewing_time"":6868.0999999940395}]","6868.5","","","","","","","","","","","","","","","","","","","","","","","",""
"pit-comprehension","5","70580","0.0-2.0-2.0-0.0","battery-v0.2","","""event"",""trial"",""time""
""fullscreenenter"",""1"",""4297""
","
","
","""event"",""trial"",""time""
""fullscreenenter"",""1"",""4297""
","
","","","3420.199999988079","[""tiger""]","0","12","9995","4146","","","","","","","","","","","","","","","","","","",""
"pit-instructions","6","73414","0.0-2.0-2.0-1.0","battery-v0.2","","""event"",""trial"",""time""
""fullscreenenter"",""1"",""4297""
","
","
","""event"",""trial"",""time""
""fullscreenenter"",""1"",""4297""
","
","","[{""page_index"":0,""viewing_time"":2829.0999999940395}]","2829.5","","","","","","","","","","","","","","","","","","","","","","","",""
"pit-instructions","7","177334","0.0-2.0-3.0","battery-v0.2","","""event"",""trial"",""time""
""fullscreenenter"",""1"",""4297""
","
","
","""event"",""trial"",""time""
""fullscreenenter"",""1"",""4297""
","
","","[{""page_index"":0,""viewing_time"":9005.299999982119},{""page_index"":1,""viewing_time"":6442},{""page_index"":2,""viewing_time"":7293.4000000059605},{""page_index"":3,""viewing_time"":5480.0999999940395},{""page_index"":4,""viewing_time"":7032},{""page_index"":5,""viewing_time"":6168},{""page_index"":6,""viewing_time"":6784.4000000059605},{""page_index"":7,""viewing_time"":6735.5},{""page_index"":8,""viewing_time"":6679.0999999940395},{""page_index"":9,""viewing_time"":10408.300000011921},{""page_index"":10,""viewing_time"":7808.4000000059605},{""page_index"":11,""viewing_time"":7765},{""page_index"":12,""viewing_time"":11428.199999988079},{""page_index"":13,""viewing_time"":4887.5}]","103917.39999997616","","","","","","","","","","","","","","","","","","","","","","","",""
"pit-trial","8","181022","0.0-2.0-4.0-0.0","battery-v0.2","","""event"",""trial"",""time""
""fullscreenenter"",""1"",""4297""
","
","
","""event"",""trial"",""time""
""fullscreenenter"",""1"",""4297""
","
","","","816.0999999940395","","","12","9995","4146","&#9784;","elianto","#FFFFF080"," "," ","1","&#10004","[1676.9000000059605]","1","0","0","","","","","","","",""
"pit-trial","9","184541","0.0-2.0-4.1-0.1","battery-v0.2","","""event"",""trial"",""time""
""fullscreenenter"",""1"",""4297""
","
","
","""event"",""trial"",""time""
""fullscreenenter"",""1"",""4297""
","
","","","657.9000000059605","","","12","9995","4146","&#9784;","elianto","#FFFFF080"," "," ","1","&#10004","[1513]","1","0","0","","","","","","","",""
"pit-trial","10","187984","0.0-2.0-4.2-0.2","battery-v0.2","","""event"",""trial"",""time""
""fullscreenenter"",""1"",""4297""
","
","
","""event"",""trial"",""time""
""fullscreenenter"",""1"",""4297""
","
","","","585.3000000119209","","","12","9995","4146","&#9784;","elianto","#FFFFF080"," "," ","1","&#10004","[1438.5999999940395]","1","0","0","","","","","","","",""
"pit-trial","11","191388","0.0-2.0-4.3-0.3","battery-v0.2","","""event"",""trial"",""time""
""fullscreenenter"",""1"",""4297""
","
","
","""event"",""trial"",""time""
""fullscreenenter"",""1"",""4297""
","
","","","531.3000000119209","","","12","9995","4146","&#9784;","elianto","#FFFFF080"," "," ","1","&#10004","[1391.4000000059605]","1","0","0","","","","","","","",""
"pit-trial","12","196254","0.0-2.0-4.4-0.4","battery-v0.2","","""event"",""trial"",""time""
""fullscreenenter"",""1"",""4297""
","
","
","""event"",""trial"",""time""
""fullscreenenter"",""1"",""4297""
","
","","","-1","","","12","9995","4146","&#9784;","elianto","#FFFFF080"," ","-1","0","&#10060","[]","0","0","0","","","","","","","",""
"pit-trial","13","200420","0.0-2.0-4.5-0.5","battery-v0.2","","""event"",""trial"",""time""
""fullscreenenter"",""1"",""4297""
","
","
","""event"",""trial"",""time""
""fullscreenenter"",""1"",""4297""
","
","","","1309.699999988079","","","12","9995","4146","&#9784;","elianto","#FFFFF080"," "," ","1","&#10004","[2163.199999988079]","1","0","0","","","","","","","",""
"pit-trial","14","203766","0.0-2.0-4.6-0.6","battery-v0.2","","""event"",""trial"",""time""
""fullscreenenter"",""1"",""4297""
","
","
","""event"",""trial"",""time""
""fullscreenenter"",""1"",""4297""
","
","","","472.80000001192093","","","12","9995","4146","&#9784;","elianto","#FFFFF080"," "," ","1","&#10004","[1330.0999999940395]","1","0","0","","","","","","","",""
"pit-instructions","15","218783","0.0-2.0-4.6-1.6-0.6","battery-v0.2","","""event"",""trial"",""time""
""fullscreenenter"",""1"",""4297""
","
","
","""event"",""trial"",""time""
""fullscreenenter"",""1"",""4297""
","
","","[{""page_index"":0,""viewing_time"":6128.4000000059605},{""page_index"":1,""viewing_time"":8886.90000000596}]","15015.600000023842","","","","","","","","","","","","","","","","","","","","","","","",""
"pit-trial","16","222537","0.0-2.0-4.7-0.7","battery-v0.2","","""event"",""trial"",""time""
""fullscreenenter"",""1"",""4297""
","
","
","""event"",""trial"",""time""
""fullscreenenter"",""1"",""4297""
","
","","","883.0999999940395","","","12","9995","4146","&#9784;","elianto","#FFFFF080"," "," ","1","&#10004","[1743]","1","0","0","","","","","","","",""
"pit-instructions","17","247410","0.0-2.0-5.0","battery-v0.2","","""event"",""trial"",""time""
""fullscreenenter"",""1"",""4297""
","
","
","""event"",""trial"",""time""
""fullscreenenter"",""1"",""4297""
","
","","[{""page_index"":0,""viewing_time"":7896.9000000059605},{""page_index"":1,""viewing_time"":5270.699999988079},{""page_index"":2,""viewing_time"":5455.199999988079},{""page_index"":3,""viewing_time"":6247.700000017881}]","24871","","","","","","","","","","","","","","","","","","","","","","","",""
"pit-trial","18","252275","0.0-2.0-6.0-0.0","battery-v0.2","","""event"",""trial"",""time""
""fullscreenenter"",""1"",""4297""
","
","
","""event"",""trial"",""time""
""fullscreenenter"",""1"",""4297""
","
","","","-1","","","12","9995","4146","&#9854;","elianto","#FFFFF080","-1","-1","1","&#10004","[]","0","0","1","","","","","","","",""
"pit-trial","19","257136","0.0-2.0-6.1-0.1","battery-v0.2","","""event"",""trial"",""time""
""fullscreenenter"",""1"",""4297""
","
","
","""event"",""trial"",""time""
""fullscreenenter"",""1"",""4297""
","
","","","-1","","","12","9995","4146","&#9854;","elianto","#FFFFF080","-1","-1","1","&#10004","[]","0","0","1","","","","","","","",""
"pit-trial","20","262010","0.0-2.0-6.2-0.2","battery-v0.2","","""event"",""trial"",""time""
""fullscreenenter"",""1"",""4297""
","
","
","""event"",""trial"",""time""
""fullscreenenter"",""1"",""4297""
","
","","","-1","","","12","9995","4146","&#9854;","elianto","#FFFFF080","-1","-1","1","&#10004","[]","0","0","1","","","","","","","",""
"pit-trial","21","266878","0.0-2.0-6.3-0.3","battery-v0.2","","""event"",""trial"",""time""
""fullscreenenter"",""1"",""4297""
","
","
","""event"",""trial"",""time""
""fullscreenenter"",""1"",""4297""
","
","","","-1","","","12","9995","4146","&#9854;","elianto","#FFFFF080","-1","-1","1","&#10004","[]","0","0","1","","","","","","","",""
"pit-trial","22","271740","0.0-2.0-6.4-0.4","battery-v0.2","","""event"",""trial"",""time""
""fullscreenenter"",""1"",""4297""
","
","
","""event"",""trial"",""time""
""fullscreenenter"",""1"",""4297""
","
","","","-1","","","12","9995","4146","&#9854;","elianto","#FFFFF080","-1","-1","1","&#10004","[]","0","0","1","","","","","","","",""
"pit-instructions","23","390013","0.0-2.0-7.0","battery-v0.2","","""event"",""trial"",""time""
""fullscreenenter"",""1"",""4297""
","
","
","""event"",""trial"",""time""
""fullscreenenter"",""1"",""4297""
","
","","[{""page_index"":0,""viewing_time"":6841.800000011921},{""page_index"":1,""viewing_time"":7366},{""page_index"":2,""viewing_time"":6800},{""page_index"":3,""viewing_time"":6602.299999982119},{""page_index"":4,""viewing_time"":5816},{""page_index"":5,""viewing_time"":5564.4000000059605},{""page_index"":6,""viewing_time"":4451.5999999940395},{""page_index"":7,""viewing_time"":7700.0999999940395},{""page_index"":8,""viewing_time"":6548.300000011921},{""page_index"":9,""viewing_time"":5631.4000000059605},{""page_index"":10,""viewing_time"":7182.0999999940395},{""page_index"":11,""viewing_time"":4935.9000000059605},{""page_index"":12,""viewing_time"":6298.0999999940395},{""page_index"":13,""viewing_time"":6449.699999988079},{""page_index"":14,""viewing_time"":8649.600000023842},{""page_index"":15,""viewing_time"":7089.0999999940395},{""page_index"":16,""viewing_time"":7895.299999982119},{""page_index"":17,""viewing_time"":6448.5}]","118270.59999999404","","","","","","","","","","","","","","","","","","","","","","","",""
"pit-trial","24","394885","0.0-2.0-8.0-0.0","battery-v0.2","","""event"",""trial"",""time""
""fullscreenenter"",""1"",""4297""
","
","
","""event"",""trial"",""time""
""fullscreenenter"",""1"",""4297""
","
","","","-1","","","12","9995","4146","&#9776;","elianto","#3366ff99"," ","-1","0","0","[]","0","0","1","","","","","","","",""
"pit-trial","25","398747","0.0-2.0-8.0-1.0","battery-v0.2","","""event"",""trial"",""time""
""fullscreenenter"",""1"",""4297""
","
","
","""event"",""trial"",""time""
""fullscreenenter"",""1"",""4297""
","
","","","999.3000000119209","","","12","9995","4146","&#9776;","elianto","#3366ff99"," "," ","1","+10","[1850.7000000178814]","1","0","1","","","","","","","",""
"pit-trial","26","402431","0.0-2.0-8.0-2.0","battery-v0.2","","""event"",""trial"",""time""
""fullscreenenter"",""1"",""4297""
","
","
","""event"",""trial"",""time""
""fullscreenenter"",""1"",""4297""
","
","","","819.9000000059605","","","12","9995","4146","&#9776;","elianto","#3366ff99"," "," ","1","+10","[1674.199999988079]","1","0","1","","","","","","","",""
"pit-trial","27","406215","0.0-2.0-8.0-3.0","battery-v0.2","","""event"",""trial"",""time""
""fullscreenenter"",""1"",""4297""
","
","
","""event"",""trial"",""time""
""fullscreenenter"",""1"",""4297""
","
","","","918.3000000119209","","","12","9995","4146","&#9776;","elianto","#3366ff99"," "," ","1","0","[1771.5]","1","0","1","","","","","","","",""
"pit-trial","28","409625","0.0-2.0-8.0-4.0","battery-v0.2","","""event"",""trial"",""time""
""fullscreenenter"",""1"",""4297""
","
","
","""event"",""trial"",""time""
""fullscreenenter"",""1"",""4297""
","
","","","545.2999999821186","","","12","9995","4146","&#9776;","elianto","#3366ff99"," "," ","1","+10","[1397.5999999940395]","1","0","1","","","","","","","",""
"pit-trial","29","413307","0.0-2.0-8.1-0.1","battery-v0.2","","""event"",""trial"",""time""
""fullscreenenter"",""1"",""4297""
","
","
","""event"",""trial"",""time""
""fullscreenenter"",""1"",""4297""
","
","","","812.8000000119209","","","12","9995","4146","&#9776;","elianto","#3366ff99"," "," ","1","+10","[1670.800000011921]","1","0","1","","","","","","","",""
"pit-trial","30","417407","0.0-2.0-8.1-1.1","battery-v0.2","","""event"",""trial"",""time""
""fullscreenenter"",""1"",""4297""
","
","
","""event"",""trial"",""time""
""fullscreenenter"",""1"",""4297""
","
","","","1234.7000000178814","","","12","9995","4146","&#9776;","elianto","#3366ff99"," "," ","1","+10","[2094.800000011921]","1","0","1","","","","","","","",""
"pit-trial","31","420753","0.0-2.0-8.1-2.1","battery-v0.2","","""event"",""trial"",""time""
""fullscreenenter"",""1"",""4297""
","
","
","""event"",""trial"",""time""
""fullscreenenter"",""1"",""4297""
","
","","","483.19999998807907","","","12","9995","4146","&#9776;","elianto","#3366ff99"," "," ","1","+10","[1343.300000011921]","1","0","1","","","","","","","",""
"pit-trial","32","424110","0.0-2.0-8.1-3.1","battery-v0.2","","""event"",""trial"",""time""
""fullscreenenter"",""1"",""4297""
","
","
","""event"",""trial"",""time""
""fullscreenenter"",""1"",""4297""
","
","","","503.90000000596046","","","12","9995","4146","&#9776;","elianto","#3366ff99"," "," ","1","0","[1355.699999988079]","1","0","1","","","","","","","",""
"pit-trial","33","427494","0.0-2.0-8.1-4.1","battery-v0.2","","""event"",""trial"",""time""
""fullscreenenter"",""1"",""4297""
","
","
","""event"",""trial"",""time""
""fullscreenenter"",""1"",""4297""
","
","","","531.0999999940395","","","12","9995","4146","&#9776;","elianto","#3366ff99"," "," ","1","+10","[1382]","1","0","1","","","","","","","",""
"pit-trial","34","431047","0.0-2.0-8.2-0.2","battery-v0.2","","""event"",""trial"",""time""
""fullscreenenter"",""1"",""4297""
","
","
","""event"",""trial"",""time""
""fullscreenenter"",""1"",""4297""
","
","","","699.5","","","12","9995","4146","&#9776;","elianto","#3366ff99"," "," ","1","+10","[1550.699999988079]","1","0","1","","","","","","","",""
"pit-trial","35","434338","0.0-2.0-8.2-1.2","battery-v0.2","","""event"",""trial"",""time""
""fullscreenenter"",""1"",""4297""
","
","
","""event"",""trial"",""time""
""fullscreenenter"",""1"",""4297""
","
","","","437.2000000178814","","","12","9995","4146","&#9776;","elianto","#3366ff99"," "," ","1","+10","[1288.0999999940395]","1","0","1","","","","","","","",""
"pit-trial","36","438058","0.0-2.0-8.2-2.2","battery-v0.2","","""event"",""trial"",""time""
""fullscreenenter"",""1"",""4297""
","
","
","""event"",""trial"",""time""
""fullscreenenter"",""1"",""4297""
","
","","","866.4000000059605","","","12","9995","4146","&#9776;","elianto","#3366ff99"," "," ","1","+10","[1717]","1","0","1","","","","","","","",""
"pit-trial","37","441506","0.0-2.0-8.2-3.2","battery-v0.2","","""event"",""trial"",""time""
""fullscreenenter"",""1"",""4297""
","
","
","""event"",""trial"",""time""
""fullscreenenter"",""1"",""4297""
","
","","","594.6999999880791","","","12","9995","4146","&#9776;","elianto","#3366ff99"," "," ","1","0","[1445.2999999821186]","1","0","1","","","","","","","",""
"pit-trial","38","444778","0.0-2.0-8.2-4.2","battery-v0.2","","""event"",""trial"",""time""
""fullscreenenter"",""1"",""4297""
","
","
","""event"",""trial"",""time""
""fullscreenenter"",""1"",""4297""
","
","","","419.30000001192093","","","12","9995","4146","&#9776;","elianto","#3366ff99"," "," ","1","+10","[1270.0999999940395]","1","0","1","","","","","","","",""
"call-function","39","444780","0.0-2.0-9.0","battery-v0.2","","""event"",""trial"",""time""
""fullscreenenter"",""1"",""4297""
","
","
","""event"",""trial"",""time""
""fullscreenenter"",""1"",""4297""
","
","","","","","","","","","","","","","","","","","","","","","","","","","","",""
"pit-instructions","40","504509","0.0-2.0-10.0","battery-v0.2","","""event"",""trial"",""time""
""fullscreenenter"",""1"",""4297""
","
","
","""event"",""trial"",""time""
""fullscreenenter"",""1"",""4297""
","
","","[{""page_index"":0,""viewing_time"":16428.19999998808},{""page_index"":1,""viewing_time"":12167},{""page_index"":2,""viewing_time"":11591.40000000596},{""page_index"":3,""viewing_time"":11764.199999988079},{""page_index"":4,""viewing_time"":7777.300000011921}]","59728.39999997616","","","","","","","","","","","","","","","","","","","","","","","",""
"pit-trial","41","507977","0.0-2.0-11.0-0.0","battery-v0.2","","""event"",""trial"",""time""
""fullscreenenter"",""1"",""4297""
","
","
","""event"",""trial"",""time""
""fullscreenenter"",""1"",""4297""
","
","","","603.7000000178814","","","12","9995","4146","&#9761;","elianto","#3366ff99","-1"," ","0","0","[1457.6000000238419]","1","0","2","","","","","","","",""
"pit-trial","42","512850","0.0-2.0-11.0-1.0","battery-v0.2","","""event"",""trial"",""time""
""fullscreenenter"",""1"",""4297""
","
","
","""event"",""trial"",""time""
""fullscreenenter"",""1"",""4297""
","
","","","-1","","","12","9995","4146","&#9761;","elianto","#3366ff99","-1","-1","1","+10","[]","0","0","2","","","","","","","",""
"pit-trial","43","517725","0.0-2.0-11.0-2.0","battery-v0.2","","""event"",""trial"",""time""
""fullscreenenter"",""1"",""4297""
","
","
","""event"",""trial"",""time""
""fullscreenenter"",""1"",""4297""
","
","","","-1","","","12","9995","4146","&#9761;","elianto","#3366ff99","-1","-1","1","+10","[]","0","0","2","","","","","","","",""
"pit-trial","44","522578","0.0-2.0-11.0-3.0","battery-v0.2","","""event"",""trial"",""time""
""fullscreenenter"",""1"",""4297""
","
","
","""event"",""trial"",""time""
""fullscreenenter"",""1"",""4297""
","
","","","-1","","","12","9995","4146","&#9761;","elianto","#3366ff99","-1","-1","1","0","[]","0","0","2","","","","","","","",""
"pit-trial","45","527454","0.0-2.0-11.0-4.0","battery-v0.2","","""event"",""trial"",""time""
""fullscreenenter"",""1"",""4297""
","
","
","""event"",""trial"",""time""
""fullscreenenter"",""1"",""4297""
","
","","","-1","","","12","9995","4146","&#9761;","elianto","#3366ff99","-1","-1","1","+10","[]","0","0","2","","","","","","","",""
"pit-trial","46","532324","0.0-2.0-11.1-0.1","battery-v0.2","","""event"",""trial"",""time""
""fullscreenenter"",""1"",""4297""
","
","
","""event"",""trial"",""time""
""fullscreenenter"",""1"",""4297""
","
","","","-1","","","12","9995","4146","&#9761;","elianto","#3366ff99","-1","-1","1","+10","[]","0","0","2","","","","","","","",""
"pit-trial","47","537176","0.0-2.0-11.1-1.1","battery-v0.2","","""event"",""trial"",""time""
""fullscreenenter"",""1"",""4297""
","
","
","""event"",""trial"",""time""
""fullscreenenter"",""1"",""4297""
","
","","","-1","","","12","9995","4146","&#9761;","elianto","#3366ff99","-1","-1","1","+10","[]","0","0","2","","","","","","","",""
"pit-trial","48","542028","0.0-2.0-11.1-2.1","battery-v0.2","","""event"",""trial"",""time""
""fullscreenenter"",""1"",""4297""
","
","
","""event"",""trial"",""time""
""fullscreenenter"",""1"",""4297""
","
","","","-1","","","12","9995","4146","&#9761;","elianto","#3366ff99","-1","-1","1","+10","[]","0","0","2","","","","","","","",""
"pit-trial","49","546882","0.0-2.0-11.1-3.1","battery-v0.2","","""event"",""trial"",""time""
""fullscreenenter"",""1"",""4297""
","
","
","""event"",""trial"",""time""
""fullscreenenter"",""1"",""4297""
","
","","","-1","","","12","9995","4146","&#9761;","elianto","#3366ff99","-1","-1","1","0","[]","0","0","2","","","","","","","",""
"pit-trial","50","551735","0.0-2.0-11.1-4.1","battery-v0.2","","""event"",""trial"",""time""
""fullscreenenter"",""1"",""4297""
","
","
","""event"",""trial"",""time""
""fullscreenenter"",""1"",""4297""
","
","","","-1","","","12","9995","4146","&#9761;","elianto","#3366ff99","-1","-1","1","+10","[]","0","0","2","","","","","","","",""
"pit-trial","51","556588","0.0-2.0-11.2-0.2","battery-v0.2","","""event"",""trial"",""time""
""fullscreenenter"",""1"",""4297""
","
","
","""event"",""trial"",""time""
""fullscreenenter"",""1"",""4297""
","
","","","-1","","","12","9995","4146","&#9761;","elianto","#3366ff99","-1","-1","1","+10","[]","0","0","2","","","","","","","",""
"pit-trial","52","561440","0.0-2.0-11.2-1.2","battery-v0.2","","""event"",""trial"",""time""
""fullscreenenter"",""1"",""4297""
","
","
","""event"",""trial"",""time""
""fullscreenenter"",""1"",""4297""
","
","","","-1","","","12","9995","4146","&#9761;","elianto","#3366ff99","-1","-1","1","+10","[]","0","0","2","","","","","","","",""
"pit-trial","53","566292","0.0-2.0-11.2-2.2","battery-v0.2","","""event"",""trial"",""time""
""fullscreenenter"",""1"",""4297""
","
","
","""event"",""trial"",""time""
""fullscreenenter"",""1"",""4297""
","
","","","-1","","","12","9995","4146","&#9761;","elianto","#3366ff99","-1","-1","1","+10","[]","0","0","2","","","","","","","",""
"pit-trial","54","571144","0.0-2.0-11.2-3.2","battery-v0.2","","""event"",""trial"",""time""
""fullscreenenter"",""1"",""4297""
","
","
","""event"",""trial"",""time""
""fullscreenenter"",""1"",""4297""
","
","","","-1","","","12","9995","4146","&#9761;","elianto","#3366ff99","-1","-1","1","0","[]","0","0","2","","","","","","","",""
"pit-trial","55","575998","0.0-2.0-11.2-4.2","battery-v0.2","","""event"",""trial"",""time""
""fullscreenenter"",""1"",""4297""
""fullscreenexit"",""56"",""579833""
","
","
","""event"",""trial"",""time""
""fullscreenenter"",""1"",""4297""
","""event"",""trial"",""time""
""fullscreenexit"",""56"",""579833""
","","","-1","","","12","9995","4146","&#9761;","elianto","#3366ff99","-1","-1","1","+10","[]","0","0","2","","","","","","","",""
"pit-trial","56","580852","0.0-2.0-11.3-0.3","battery-v0.2","","""event"",""trial"",""time""
""fullscreenenter"",""1"",""4297""
""fullscreenexit"",""56"",""579833""
""blur"",""57"",""583203""
","""event"",""trial"",""time""
""blur"",""57"",""583203""
","
","""event"",""trial"",""time""
""fullscreenenter"",""1"",""4297""
","""event"",""trial"",""time""
""fullscreenexit"",""56"",""579833""
","","","-1","","","12","9995","4146","&#9761;","elianto","#3366ff99","-1","-1","1","+10","[]","0","0","2","","","","","","","",""
"pit-trial","57","587021","0.0-2.0-11.3-1.3","battery-v0.2","","""event"",""trial"",""time""
""fullscreenenter"",""1"",""4297""
""fullscreenexit"",""56"",""579833""
""blur"",""57"",""583203""
""focus"",""58"",""589889""
","""event"",""trial"",""time""
""blur"",""57"",""583203""
","""event"",""trial"",""time""
""focus"",""58"",""589889""
","""event"",""trial"",""time""
""fullscreenenter"",""1"",""4297""
","""event"",""trial"",""time""
""fullscreenexit"",""56"",""579833""
","","","-1","","","12","9995","4146","&#9761;","elianto","#3366ff99","-1","-1","1","+10","[]","0","0","2","","","","","","","",""
"pit-trial","58","591876","0.0-2.0-11.3-2.3","battery-v0.2","","""event"",""trial"",""time""
""fullscreenenter"",""1"",""4297""
""fullscreenexit"",""56"",""579833""
""blur"",""57"",""583203""
""focus"",""58"",""589889""
","""event"",""trial"",""time""
""blur"",""57"",""583203""
","""event"",""trial"",""time""
""focus"",""58"",""589889""
","""event"",""trial"",""time""
""fullscreenenter"",""1"",""4297""
","""event"",""trial"",""time""
""fullscreenexit"",""56"",""579833""
","","","-1","","","12","9995","4146","&#9761;","elianto","#3366ff99","-1","-1","1","+10","[]","0","0","2","","","","","","","",""
"pit-trial","59","596728","0.0-2.0-11.3-3.3","battery-v0.2","","""event"",""trial"",""time""
""fullscreenenter"",""1"",""4297""
""fullscreenexit"",""56"",""579833""
""blur"",""57"",""583203""
""focus"",""58"",""589889""
","""event"",""trial"",""time""
""blur"",""57"",""583203""
","""event"",""trial"",""time""
""focus"",""58"",""589889""
","""event"",""trial"",""time""
""fullscreenenter"",""1"",""4297""
","""event"",""trial"",""time""
""fullscreenexit"",""56"",""579833""
","","","-1","","","12","9995","4146","&#9761;","elianto","#3366ff99","-1","-1","1","0","[]","0","0","2","","","","","","","",""
"pit-trial","60","601581","0.0-2.0-11.3-4.3","battery-v0.2","","""event"",""trial"",""time""
""fullscreenenter"",""1"",""4297""
""fullscreenexit"",""56"",""579833""
""blur"",""57"",""583203""
""focus"",""58"",""589889""
","""event"",""trial"",""time""
""blur"",""57"",""583203""
","""event"",""trial"",""time""
""focus"",""58"",""589889""
","""event"",""trial"",""time""
""fullscreenenter"",""1"",""4297""
","""event"",""trial"",""time""
""fullscreenexit"",""56"",""579833""
","","","-1","","","12","9995","4146","&#9761;","elianto","#3366ff99","-1","-1","1","+10","[]","0","0","2","","","","","","","",""
"call-function","61","601582","0.0-2.0-12.0","battery-v0.2","","""event"",""trial"",""time""
""fullscreenenter"",""1"",""4297""
""fullscreenexit"",""56"",""579833""
""blur"",""57"",""583203""
""focus"",""58"",""589889""
","""event"",""trial"",""time""
""blur"",""57"",""583203""
","""event"",""trial"",""time""
""focus"",""58"",""589889""
","""event"",""trial"",""time""
""fullscreenenter"",""1"",""4297""
","""event"",""trial"",""time""
""fullscreenexit"",""56"",""579833""
","","","","","","","","","","","","","","","","","","","","","","","","","","",""
"pit-instructions","62","634725","0.0-2.0-13.0","battery-v0.2","","""event"",""trial"",""time""
""fullscreenenter"",""1"",""4297""
""fullscreenexit"",""56"",""579833""
""blur"",""57"",""583203""
""focus"",""58"",""589889""
","""event"",""trial"",""time""
""blur"",""57"",""583203""
","""event"",""trial"",""time""
""focus"",""58"",""589889""
","""event"",""trial"",""time""
""fullscreenenter"",""1"",""4297""
","""event"",""trial"",""time""
""fullscreenexit"",""56"",""579833""
","","[{""page_index"":0,""viewing_time"":8117.699999988079},{""page_index"":1,""viewing_time"":6744.300000011921},{""page_index"":2,""viewing_time"":3012.0999999940395},{""page_index"":3,""viewing_time"":10756.09999999404},{""page_index"":4,""viewing_time"":4511}]","33141.5","","","","","","","","","","","","","","","","","","","","","","","",""
"pit-trial","63","639603","0.0-2.0-14.0-0.0","battery-v0.2","","""event"",""trial"",""time""
""fullscreenenter"",""1"",""4297""
""fullscreenexit"",""56"",""579833""
""blur"",""57"",""583203""
""focus"",""58"",""589889""
","""event"",""trial"",""time""
""blur"",""57"",""583203""
","""event"",""trial"",""time""
""focus"",""58"",""589889""
","""event"",""trial"",""time""
""fullscreenenter"",""1"",""4297""
","""event"",""trial"",""time""
""fullscreenexit"",""56"",""579833""
","","","-1","","","12","9995","4146","&#9826;","elianto","#f73b6a7A","-1","-1","1","0","[]","0","0","3","","","","","","","",""
"pit-trial","64","642947","0.0-2.0-14.0-1.0","battery-v0.2","","""event"",""trial"",""time""
""fullscreenenter"",""1"",""4297""
""fullscreenexit"",""56"",""579833""
""blur"",""57"",""583203""
""focus"",""58"",""589889""
","""event"",""trial"",""time""
""blur"",""57"",""583203""
","""event"",""trial"",""time""
""focus"",""58"",""589889""
","""event"",""trial"",""time""
""fullscreenenter"",""1"",""4297""
","""event"",""trial"",""time""
""fullscreenexit"",""56"",""579833""
","","","484","","","12","9995","4146","&#9826;","elianto","#f73b6a7A","-1"," ","0","-10","[1340.5999999940395]","1","0","3","","","","","","","",""
"pit-trial","65","647813","0.0-2.0-14.0-2.0","battery-v0.2","","""event"",""trial"",""time""
""fullscreenenter"",""1"",""4297""
""fullscreenexit"",""56"",""579833""
""blur"",""57"",""583203""
""focus"",""58"",""589889""
","""event"",""trial"",""time""
""blur"",""57"",""583203""
","""event"",""trial"",""time""
""focus"",""58"",""589889""
","""event"",""trial"",""time""
""fullscreenenter"",""1"",""4297""
","""event"",""trial"",""time""
""fullscreenexit"",""56"",""579833""
","","","-1","","","12","9995","4146","&#9826;","elianto","#f73b6a7A","-1","-1","1","0","[]","0","0","3","","","","","","","",""
"pit-trial","66","652683","0.0-2.0-14.0-3.0","battery-v0.2","","""event"",""trial"",""time""
""fullscreenenter"",""1"",""4297""
""fullscreenexit"",""56"",""579833""
""blur"",""57"",""583203""
""focus"",""58"",""589889""
","""event"",""trial"",""time""
""blur"",""57"",""583203""
","""event"",""trial"",""time""
""focus"",""58"",""589889""
","""event"",""trial"",""time""
""fullscreenenter"",""1"",""4297""
","""event"",""trial"",""time""
""fullscreenexit"",""56"",""579833""
","","","-1","","","12","9995","4146","&#9826;","elianto","#f73b6a7A","-1","-1","1","-10","[]","0","0","3","","","","","","","",""
"pit-trial","67","657560","0.0-2.0-14.0-4.0","battery-v0.2","","""event"",""trial"",""time""
""fullscreenenter"",""1"",""4297""
""fullscreenexit"",""56"",""579833""
""blur"",""57"",""583203""
""focus"",""58"",""589889""
","""event"",""trial"",""time""
""blur"",""57"",""583203""
","""event"",""trial"",""time""
""focus"",""58"",""589889""
","""event"",""trial"",""time""
""fullscreenenter"",""1"",""4297""
","""event"",""trial"",""time""
""fullscreenexit"",""56"",""579833""
","","","-1","","","12","9995","4146","&#9826;","elianto","#f73b6a7A","-1","-1","1","0","[]","0","0","3","","","","","","","",""
"pit-trial","68","662436","0.0-2.0-14.1-0.1","battery-v0.2","","""event"",""trial"",""time""
""fullscreenenter"",""1"",""4297""
""fullscreenexit"",""56"",""579833""
""blur"",""57"",""583203""
""focus"",""58"",""589889""
","""event"",""trial"",""time""
""blur"",""57"",""583203""
","""event"",""trial"",""time""
""focus"",""58"",""589889""
","""event"",""trial"",""time""
""fullscreenenter"",""1"",""4297""
","""event"",""trial"",""time""
""fullscreenexit"",""56"",""579833""
","","","-1","","","12","9995","4146","&#9826;","elianto","#f73b6a7A","-1","-1","1","0","[]","0","0","3","","","","","","","",""
"pit-trial","69","667289","0.0-2.0-14.1-1.1","battery-v0.2","","""event"",""trial"",""time""
""fullscreenenter"",""1"",""4297""
""fullscreenexit"",""56"",""579833""
""blur"",""57"",""583203""
""focus"",""58"",""589889""
","""event"",""trial"",""time""
""blur"",""57"",""583203""
","""event"",""trial"",""time""
""focus"",""58"",""589889""
","""event"",""trial"",""time""
""fullscreenenter"",""1"",""4297""
","""event"",""trial"",""time""
""fullscreenexit"",""56"",""579833""
","","","-1","","","12","9995","4146","&#9826;","elianto","#f73b6a7A","-1","-1","1","0","[]","0","0","3","","","","","","","",""
"pit-trial","70","672141","0.0-2.0-14.1-2.1","battery-v0.2","","""event"",""trial"",""time""
""fullscreenenter"",""1"",""4297""
""fullscreenexit"",""56"",""579833""
""blur"",""57"",""583203""
""focus"",""58"",""589889""
","""event"",""trial"",""time""
""blur"",""57"",""583203""
","""event"",""trial"",""time""
""focus"",""58"",""589889""
","""event"",""trial"",""time""
""fullscreenenter"",""1"",""4297""
","""event"",""trial"",""time""
""fullscreenexit"",""56"",""579833""
","","","-1","","","12","9995","4146","&#9826;","elianto","#f73b6a7A","-1","-1","1","0","[]","0","0","3","","","","","","","",""
"pit-trial","71","676993","0.0-2.0-14.1-3.1","battery-v0.2","","""event"",""trial"",""time""
""fullscreenenter"",""1"",""4297""
""fullscreenexit"",""56"",""579833""
""blur"",""57"",""583203""
""focus"",""58"",""589889""
","""event"",""trial"",""time""
""blur"",""57"",""583203""
","""event"",""trial"",""time""
""focus"",""58"",""589889""
","""event"",""trial"",""time""
""fullscreenenter"",""1"",""4297""
","""event"",""trial"",""time""
""fullscreenexit"",""56"",""579833""
","","","-1","","","12","9995","4146","&#9826;","elianto","#f73b6a7A","-1","-1","1","-10","[]","0","0","3","","","","","","","",""
"pit-trial","72","681846","0.0-2.0-14.1-4.1","battery-v0.2","","""event"",""trial"",""time""
""fullscreenenter"",""1"",""4297""
""fullscreenexit"",""56"",""579833""
""blur"",""57"",""583203""
""focus"",""58"",""589889""
","""event"",""trial"",""time""
""blur"",""57"",""583203""
","""event"",""trial"",""time""
""focus"",""58"",""589889""
","""event"",""trial"",""time""
""fullscreenenter"",""1"",""4297""
","""event"",""trial"",""time""
""fullscreenexit"",""56"",""579833""
","","","-1","","","12","9995","4146","&#9826;","elianto","#f73b6a7A","-1","-1","1","0","[]","0","0","3","","","","","","","",""
"pit-trial","73","686700","0.0-2.0-14.2-0.2","battery-v0.2","","""event"",""trial"",""time""
""fullscreenenter"",""1"",""4297""
""fullscreenexit"",""56"",""579833""
""blur"",""57"",""583203""
""focus"",""58"",""589889""
","""event"",""trial"",""time""
""blur"",""57"",""583203""
","""event"",""trial"",""time""
""focus"",""58"",""589889""
","""event"",""trial"",""time""
""fullscreenenter"",""1"",""4297""
","""event"",""trial"",""time""
""fullscreenexit"",""56"",""579833""
","","","-1","","","12","9995","4146","&#9826;","elianto","#f73b6a7A","-1","-1","1","0","[]","0","0","3","","","","","","","",""
"pit-trial","74","691553","0.0-2.0-14.2-1.2","battery-v0.2","","""event"",""trial"",""time""
""fullscreenenter"",""1"",""4297""
""fullscreenexit"",""56"",""579833""
""blur"",""57"",""583203""
""focus"",""58"",""589889""
","""event"",""trial"",""time""
""blur"",""57"",""583203""
","""event"",""trial"",""time""
""focus"",""58"",""589889""
","""event"",""trial"",""time""
""fullscreenenter"",""1"",""4297""
","""event"",""trial"",""time""
""fullscreenexit"",""56"",""579833""
","","","-1","","","12","9995","4146","&#9826;","elianto","#f73b6a7A","-1","-1","1","0","[]","0","0","3","","","","","","","",""
"pit-trial","75","696405","0.0-2.0-14.2-2.2","battery-v0.2","","""event"",""trial"",""time""
""fullscreenenter"",""1"",""4297""
""fullscreenexit"",""56"",""579833""
""blur"",""57"",""583203""
""focus"",""58"",""589889""
","""event"",""trial"",""time""
""blur"",""57"",""583203""
","""event"",""trial"",""time""
""focus"",""58"",""589889""
","""event"",""trial"",""time""
""fullscreenenter"",""1"",""4297""
","""event"",""trial"",""time""
""fullscreenexit"",""56"",""579833""
","","","-1","","","12","9995","4146","&#9826;","elianto","#f73b6a7A","-1","-1","1","0","[]","0","0","3","","","","","","","",""
"pit-trial","76","701258","0.0-2.0-14.2-3.2","battery-v0.2","","""event"",""trial"",""time""
""fullscreenenter"",""1"",""4297""
""fullscreenexit"",""56"",""579833""
""blur"",""57"",""583203""
""focus"",""58"",""589889""
","""event"",""trial"",""time""
""blur"",""57"",""583203""
","""event"",""trial"",""time""
""focus"",""58"",""589889""
","""event"",""trial"",""time""
""fullscreenenter"",""1"",""4297""
","""event"",""trial"",""time""
""fullscreenexit"",""56"",""579833""
","","","-1","","","12","9995","4146","&#9826;","elianto","#f73b6a7A","-1","-1","1","-10","[]","0","0","3","","","","","","","",""
"pit-trial","77","706111","0.0-2.0-14.2-4.2","battery-v0.2","","""event"",""trial"",""time""
""fullscreenenter"",""1"",""4297""
""fullscreenexit"",""56"",""579833""
""blur"",""57"",""583203""
""focus"",""58"",""589889""
","""event"",""trial"",""time""
""blur"",""57"",""583203""
","""event"",""trial"",""time""
""focus"",""58"",""589889""
","""event"",""trial"",""time""
""fullscreenenter"",""1"",""4297""
","""event"",""trial"",""time""
""fullscreenexit"",""56"",""579833""
","","","-1","","","12","9995","4146","&#9826;","elianto","#f73b6a7A","-1","-1","1","0","[]","0","0","3","","","","","","","",""
"pit-trial","78","710964","0.0-2.0-14.3-0.3","battery-v0.2","","""event"",""trial"",""time""
""fullscreenenter"",""1"",""4297""
""fullscreenexit"",""56"",""579833""
""blur"",""57"",""583203""
""focus"",""58"",""589889""
","""event"",""trial"",""time""
""blur"",""57"",""583203""
","""event"",""trial"",""time""
""focus"",""58"",""589889""
","""event"",""trial"",""time""
""fullscreenenter"",""1"",""4297""
","""event"",""trial"",""time""
""fullscreenexit"",""56"",""579833""
","","","-1","","","12","9995","4146","&#9826;","elianto","#f73b6a7A","-1","-1","1","0","[]","0","0","3","","","","","","","",""
"pit-trial","79","715817","0.0-2.0-14.3-1.3","battery-v0.2","","""event"",""trial"",""time""
""fullscreenenter"",""1"",""4297""
""fullscreenexit"",""56"",""579833""
""blur"",""57"",""583203""
""focus"",""58"",""589889""
","""event"",""trial"",""time""
""blur"",""57"",""583203""
","""event"",""trial"",""time""
""focus"",""58"",""589889""
","""event"",""trial"",""time""
""fullscreenenter"",""1"",""4297""
","""event"",""trial"",""time""
""fullscreenexit"",""56"",""579833""
","","","-1","","","12","9995","4146","&#9826;","elianto","#f73b6a7A","-1","-1","1","0","[]","0","0","3","","","","","","","",""
"pit-trial","80","720670","0.0-2.0-14.3-2.3","battery-v0.2","","""event"",""trial"",""time""
""fullscreenenter"",""1"",""4297""
""fullscreenexit"",""56"",""579833""
""blur"",""57"",""583203""
""focus"",""58"",""589889""
","""event"",""trial"",""time""
""blur"",""57"",""583203""
","""event"",""trial"",""time""
""focus"",""58"",""589889""
","""event"",""trial"",""time""
""fullscreenenter"",""1"",""4297""
","""event"",""trial"",""time""
""fullscreenexit"",""56"",""579833""
","","","-1","","","12","9995","4146","&#9826;","elianto","#f73b6a7A","-1","-1","1","0","[]","0","0","3","","","","","","","",""
"pit-trial","81","725523","0.0-2.0-14.3-3.3","battery-v0.2","","""event"",""trial"",""time""
""fullscreenenter"",""1"",""4297""
""fullscreenexit"",""56"",""579833""
""blur"",""57"",""583203""
""focus"",""58"",""589889""
","""event"",""trial"",""time""
""blur"",""57"",""583203""
","""event"",""trial"",""time""
""focus"",""58"",""589889""
","""event"",""trial"",""time""
""fullscreenenter"",""1"",""4297""
","""event"",""trial"",""time""
""fullscreenexit"",""56"",""579833""
","","","-1","","","12","9995","4146","&#9826;","elianto","#f73b6a7A","-1","-1","1","-10","[]","0","0","3","","","","","","","",""
"pit-trial","82","730377","0.0-2.0-14.3-4.3","battery-v0.2","","""event"",""trial"",""time""
""fullscreenenter"",""1"",""4297""
""fullscreenexit"",""56"",""579833""
""blur"",""57"",""583203""
""focus"",""58"",""589889""
","""event"",""trial"",""time""
""blur"",""57"",""583203""
","""event"",""trial"",""time""
""focus"",""58"",""589889""
","""event"",""trial"",""time""
""fullscreenenter"",""1"",""4297""
","""event"",""trial"",""time""
""fullscreenexit"",""56"",""579833""
","","","-1","","","12","9995","4146","&#9826;","elianto","#f73b6a7A","-1","-1","1","0","[]","0","0","3","","","","","","","",""
"call-function","83","730378","0.0-2.0-15.0","battery-v0.2","","""event"",""trial"",""time""
""fullscreenenter"",""1"",""4297""
""fullscreenexit"",""56"",""579833""
""blur"",""57"",""583203""
""focus"",""58"",""589889""
","""event"",""trial"",""time""
""blur"",""57"",""583203""
","""event"",""trial"",""time""
""focus"",""58"",""589889""
","""event"",""trial"",""time""
""fullscreenenter"",""1"",""4297""
","""event"",""trial"",""time""
""fullscreenexit"",""56"",""579833""
","","","","","","","","","","","","","","","","","","","","","","","","","","",""
"pit-instructions","84","758382","0.0-2.0-16.0","battery-v0.2","","""event"",""trial"",""time""
""fullscreenenter"",""1"",""4297""
""fullscreenexit"",""56"",""579833""
""blur"",""57"",""583203""
""focus"",""58"",""589889""
","""event"",""trial"",""time""
""blur"",""57"",""583203""
","""event"",""trial"",""time""
""focus"",""58"",""589889""
","""event"",""trial"",""time""
""fullscreenenter"",""1"",""4297""
","""event"",""trial"",""time""
""fullscreenexit"",""56"",""579833""
","","[{""page_index"":0,""viewing_time"":7948.199999988079},{""page_index"":1,""viewing_time"":10429},{""page_index"":2,""viewing_time"":4833.800000011921},{""page_index"":3,""viewing_time"":4793}]","28004.29999998212","","","","","","","","","","","","","","","","","","","","","","","",""
"pit-trial","85","761973","0.0-2.0-17.0-0.0","battery-v0.2","","""event"",""trial"",""time""
""fullscreenenter"",""1"",""4297""
""fullscreenexit"",""56"",""579833""
""blur"",""57"",""583203""
""focus"",""58"",""589889""
","""event"",""trial"",""time""
""blur"",""57"",""583203""
","""event"",""trial"",""time""
""focus"",""58"",""589889""
","""event"",""trial"",""time""
""fullscreenenter"",""1"",""4297""
","""event"",""trial"",""time""
""fullscreenexit"",""56"",""579833""
","","","726.7000000178814","","","12","9995","4146","&#9789;","elianto","#f73b6a7A"," "," ","1","0","[1578.5]","1","0","4","","","","","","","",""
"pit-trial","86","765224","0.0-2.0-17.0-1.0","battery-v0.2","","""event"",""trial"",""time""
""fullscreenenter"",""1"",""4297""
""fullscreenexit"",""56"",""579833""
""blur"",""57"",""583203""
""focus"",""58"",""589889""
","""event"",""trial"",""time""
""blur"",""57"",""583203""
","""event"",""trial"",""time""
""focus"",""58"",""589889""
","""event"",""trial"",""time""
""fullscreenenter"",""1"",""4297""
","""event"",""trial"",""time""
""fullscreenexit"",""56"",""579833""
","","","374.19999998807907","","","12","9995","4146","&#9789;","elianto","#f73b6a7A"," "," ","1","0","[1235.199999988079]","1","0","4","","","","","","","",""
"pit-trial","87","768463","0.0-2.0-17.0-2.0","battery-v0.2","","""event"",""trial"",""time""
""fullscreenenter"",""1"",""4297""
""fullscreenexit"",""56"",""579833""
""blur"",""57"",""583203""
""focus"",""58"",""589889""
","""event"",""trial"",""time""
""blur"",""57"",""583203""
","""event"",""trial"",""time""
""focus"",""58"",""589889""
","""event"",""trial"",""time""
""fullscreenenter"",""1"",""4297""
","""event"",""trial"",""time""
""fullscreenexit"",""56"",""579833""
","","","370.90000000596046","","","12","9995","4146","&#9789;","elianto","#f73b6a7A"," "," ","1","0","[1230.199999988079]","1","0","4","","","","","","","",""
"pit-trial","88","771828","0.0-2.0-17.0-3.0","battery-v0.2","","""event"",""trial"",""time""
""fullscreenenter"",""1"",""4297""
""fullscreenexit"",""56"",""579833""
""blur"",""57"",""583203""
""focus"",""58"",""589889""
","""event"",""trial"",""time""
""blur"",""57"",""583203""
","""event"",""trial"",""time""
""focus"",""58"",""589889""
","""event"",""trial"",""time""
""fullscreenenter"",""1"",""4297""
","""event"",""trial"",""time""
""fullscreenexit"",""56"",""579833""
","","","497.7999999821186","","","12","9995","4146","&#9789;","elianto","#f73b6a7A"," "," ","1","-10","[1351.199999988079]","1","0","4","","","","","","","",""
"pit-trial","89","775066","0.0-2.0-17.0-4.0","battery-v0.2","","""event"",""trial"",""time""
""fullscreenenter"",""1"",""4297""
""fullscreenexit"",""56"",""579833""
""blur"",""57"",""583203""
""focus"",""58"",""589889""
","""event"",""trial"",""time""
""blur"",""57"",""583203""
","""event"",""trial"",""time""
""focus"",""58"",""589889""
","""event"",""trial"",""time""
""fullscreenenter"",""1"",""4297""
","""event"",""trial"",""time""
""fullscreenexit"",""56"",""579833""
","","","365.59999999403954","","","12","9995","4146","&#9789;","elianto","#f73b6a7A"," "," ","1","0","[1220.6000000238419]","1","0","4","","","","","","","",""
"pit-trial","90","778188","0.0-2.0-17.1-0.1","battery-v0.2","","""event"",""trial"",""time""
""fullscreenenter"",""1"",""4297""
""fullscreenexit"",""56"",""579833""
""blur"",""57"",""583203""
""focus"",""58"",""589889""
","""event"",""trial"",""time""
""blur"",""57"",""583203""
","""event"",""trial"",""time""
""focus"",""58"",""589889""
","""event"",""trial"",""time""
""fullscreenenter"",""1"",""4297""
","""event"",""trial"",""time""
""fullscreenexit"",""56"",""579833""
","","","255.80000001192093","","","12","9995","4146","&#9789;","elianto","#f73b6a7A"," "," ","1","0","[1107.699999988079]","1","0","4","","","","","","","",""
"pit-trial","91","781342","0.0-2.0-17.1-1.1","battery-v0.2","","""event"",""trial"",""time""
""fullscreenenter"",""1"",""4297""
""fullscreenexit"",""56"",""579833""
""blur"",""57"",""583203""
""focus"",""58"",""589889""
","""event"",""trial"",""time""
""blur"",""57"",""583203""
","""event"",""trial"",""time""
""focus"",""58"",""589889""
","""event"",""trial"",""time""
""fullscreenenter"",""1"",""4297""
","""event"",""trial"",""time""
""fullscreenexit"",""56"",""579833""
","","","275.09999999403954","","","12","9995","4146","&#9789;","elianto","#f73b6a7A"," "," ","1","0","[1136.199999988079]","1","0","4","","","","","","","",""
"pit-trial","92","784398","0.0-2.0-17.1-2.1","battery-v0.2","","""event"",""trial"",""time""
""fullscreenenter"",""1"",""4297""
""fullscreenexit"",""56"",""579833""
""blur"",""57"",""583203""
""focus"",""58"",""589889""
","""event"",""trial"",""time""
""blur"",""57"",""583203""
","""event"",""trial"",""time""
""focus"",""58"",""589889""
","""event"",""trial"",""time""
""fullscreenenter"",""1"",""4297""
","""event"",""trial"",""time""
""fullscreenexit"",""56"",""579833""
","","","185.60000002384186","","","12","9995","4146","&#9789;","elianto","#f73b6a7A"," "," ","1","0","[1043.5]","1","0","4","","","","","","","",""
"pit-trial","93","787594","0.0-2.0-17.1-3.1","battery-v0.2","","""event"",""trial"",""time""
""fullscreenenter"",""1"",""4297""
""fullscreenexit"",""56"",""579833""
""blur"",""57"",""583203""
""focus"",""58"",""589889""
","""event"",""trial"",""time""
""blur"",""57"",""583203""
","""event"",""trial"",""time""
""focus"",""58"",""589889""
","""event"",""trial"",""time""
""fullscreenenter"",""1"",""4297""
","""event"",""trial"",""time""
""fullscreenexit"",""56"",""579833""
","","","337.90000000596046","","","12","9995","4146","&#9789;","elianto","#f73b6a7A"," "," ","1","-10","[1189.4000000059605]","1","0","4","","","","","","","",""
"pit-trial","94","790907","0.0-2.0-17.1-4.1","battery-v0.2","","""event"",""trial"",""time""
""fullscreenenter"",""1"",""4297""
""fullscreenexit"",""56"",""579833""
""blur"",""57"",""583203""
""focus"",""58"",""589889""
","""event"",""trial"",""time""
""blur"",""57"",""583203""
","""event"",""trial"",""time""
""focus"",""58"",""589889""
","""event"",""trial"",""time""
""fullscreenenter"",""1"",""4297""
","""event"",""trial"",""time""
""fullscreenexit"",""56"",""579833""
","","","461.09999999403954","","","12","9995","4146","&#9789;","elianto","#f73b6a7A"," "," ","1","0","[1311.300000011921]","1","0","4","","","","","","","",""
"pit-trial","95","794035","0.0-2.0-17.2-0.2","battery-v0.2","","""event"",""trial"",""time""
""fullscreenenter"",""1"",""4297""
""fullscreenexit"",""56"",""579833""
""blur"",""57"",""583203""
""focus"",""58"",""589889""
","""event"",""trial"",""time""
""blur"",""57"",""583203""
","""event"",""trial"",""time""
""focus"",""58"",""589889""
","""event"",""trial"",""time""
""fullscreenenter"",""1"",""4297""
","""event"",""trial"",""time""
""fullscreenexit"",""56"",""579833""
","","","274.30000001192093","","","12","9995","4146","&#9789;","elianto","#f73b6a7A"," "," ","1","0","[1124.5]","1","0","4","","","","","","","",""
"pit-trial","96","797185","0.0-2.0-17.2-1.2","battery-v0.2","","""event"",""trial"",""time""
""fullscreenenter"",""1"",""4297""
""fullscreenexit"",""56"",""579833""
""blur"",""57"",""583203""
""focus"",""58"",""589889""
","""event"",""trial"",""time""
""blur"",""57"",""583203""
","""event"",""trial"",""time""
""focus"",""58"",""589889""
","""event"",""trial"",""time""
""fullscreenenter"",""1"",""4297""
","""event"",""trial"",""time""
""fullscreenexit"",""56"",""579833""
","","","298","","","12","9995","4146","&#9789;","elianto","#f73b6a7A"," "," ","1","0","[1148.5999999940395]","1","0","4","","","","","","","",""
"pit-trial","97","800497","0.0-2.0-17.2-2.2","battery-v0.2","","""event"",""trial"",""time""
""fullscreenenter"",""1"",""4297""
""fullscreenexit"",""56"",""579833""
""blur"",""57"",""583203""
""focus"",""58"",""589889""
","""event"",""trial"",""time""
""blur"",""57"",""583203""
","""event"",""trial"",""time""
""focus"",""58"",""589889""
","""event"",""trial"",""time""
""fullscreenenter"",""1"",""4297""
","""event"",""trial"",""time""
""fullscreenexit"",""56"",""579833""
","","","460.09999999403954","","","12","9995","4146","&#9789;","elianto","#f73b6a7A"," "," ","1","0","[1310.5]","1","0","4","","","","","","","",""
"pit-trial","98","803830","0.0-2.0-17.2-3.2","battery-v0.2","","""event"",""trial"",""time""
""fullscreenenter"",""1"",""4297""
""fullscreenexit"",""56"",""579833""
""blur"",""57"",""583203""
""focus"",""58"",""589889""
","""event"",""trial"",""time""
""blur"",""57"",""583203""
","""event"",""trial"",""time""
""focus"",""58"",""589889""
","""event"",""trial"",""time""
""fullscreenenter"",""1"",""4297""
","""event"",""trial"",""time""
""fullscreenexit"",""56"",""579833""
","","","480.39999997615814","","","12","9995","4146","&#9789;","elianto","#f73b6a7A"," "," ","1","-10","[1330.5999999940395]","1","0","4","","","","","","","",""
"pit-trial","99","806943","0.0-2.0-17.2-4.2","battery-v0.2","","""event"",""trial"",""time""
""fullscreenenter"",""1"",""4297""
""fullscreenexit"",""56"",""579833""
""blur"",""57"",""583203""
""focus"",""58"",""589889""
","""event"",""trial"",""time""
""blur"",""57"",""583203""
","""event"",""trial"",""time""
""focus"",""58"",""589889""
","""event"",""trial"",""time""
""fullscreenenter"",""1"",""4297""
","""event"",""trial"",""time""
""fullscreenexit"",""56"",""579833""
","","","260.7999999821186","","","12","9995","4146","&#9789;","elianto","#f73b6a7A"," "," ","1","0","[1111]","1","0","4","","","","","","","",""
"pit-trial","100","810057","0.0-2.0-17.3-0.3","battery-v0.2","","""event"",""trial"",""time""
""fullscreenenter"",""1"",""4297""
""fullscreenexit"",""56"",""579833""
""blur"",""57"",""583203""
""focus"",""58"",""589889""
","""event"",""trial"",""time""
""blur"",""57"",""583203""
","""event"",""trial"",""time""
""focus"",""58"",""589889""
","""event"",""trial"",""time""
""fullscreenenter"",""1"",""4297""
","""event"",""trial"",""time""
""fullscreenexit"",""56"",""579833""
","","","260.10000002384186","","","12","9995","4146","&#9789;","elianto","#f73b6a7A"," "," ","1","0","[1111.2000000178814]","1","0","4","","","","","","","",""
"pit-trial","101","814434","0.0-2.0-17.3-1.3","battery-v0.2","","""event"",""trial"",""time""
""fullscreenenter"",""1"",""4297""
""fullscreenexit"",""56"",""579833""
""blur"",""57"",""583203""
""focus"",""58"",""589889""
","""event"",""trial"",""time""
""blur"",""57"",""583203""
","""event"",""trial"",""time""
""focus"",""58"",""589889""
","""event"",""trial"",""time""
""fullscreenenter"",""1"",""4297""
","""event"",""trial"",""time""
""fullscreenexit"",""56"",""579833""
","","","1524.199999988079","","","12","9995","4146","&#9789;","elianto","#f73b6a7A"," "," ","1","0","[2374.7999999821186]","1","0","4","","","","","","","",""
"pit-trial","102","819286","0.0-2.0-17.3-2.3","battery-v0.2","","""event"",""trial"",""time""
""fullscreenenter"",""1"",""4297""
""fullscreenexit"",""56"",""579833""
""blur"",""57"",""583203""
""focus"",""58"",""589889""
","""event"",""trial"",""time""
""blur"",""57"",""583203""
","""event"",""trial"",""time""
""focus"",""58"",""589889""
","""event"",""trial"",""time""
""fullscreenenter"",""1"",""4297""
","""event"",""trial"",""time""
""fullscreenexit"",""56"",""579833""
","","","-1","","","12","9995","4146","&#9789;","elianto","#f73b6a7A"," ","-1","0","-10","[4386.199999988079]","1","0","4","","","","","","","",""
"pit-trial","103","822319","0.0-2.0-17.3-3.3","battery-v0.2","","""event"",""trial"",""time""
""fullscreenenter"",""1"",""4297""
""fullscreenexit"",""56"",""579833""
""blur"",""57"",""583203""
""focus"",""58"",""589889""
","""event"",""trial"",""time""
""blur"",""57"",""583203""
","""event"",""trial"",""time""
""focus"",""58"",""589889""
","""event"",""trial"",""time""
""fullscreenenter"",""1"",""4297""
","""event"",""trial"",""time""
""fullscreenexit"",""56"",""579833""
","","","180.40000000596046","","","12","9995","4146","&#9789;","elianto","#f73b6a7A"," "," ","1","-10","[1030.9000000059605]","1","0","4","","","","","","","",""
"pit-trial","104","827172","0.0-2.0-17.3-4.3","battery-v0.2","","""event"",""trial"",""time""
""fullscreenenter"",""1"",""4297""
""fullscreenexit"",""56"",""579833""
""blur"",""57"",""583203""
""focus"",""58"",""589889""
","""event"",""trial"",""time""
""blur"",""57"",""583203""
","""event"",""trial"",""time""
""focus"",""58"",""589889""
","""event"",""trial"",""time""
""fullscreenenter"",""1"",""4297""
","""event"",""trial"",""time""
""fullscreenexit"",""56"",""579833""
","","","-1","","","12","9995","4146","&#9789;","elianto","#f73b6a7A"," ","-1","0","-10","[2950.0999999940395]","1","0","4","","","","","","","",""
"call-function","105","827173","0.0-2.0-18.0","battery-v0.2","","""event"",""trial"",""time""
""fullscreenenter"",""1"",""4297""
""fullscreenexit"",""56"",""579833""
""blur"",""57"",""583203""
""focus"",""58"",""589889""
","""event"",""trial"",""time""
""blur"",""57"",""583203""
","""event"",""trial"",""time""
""focus"",""58"",""589889""
","""event"",""trial"",""time""
""fullscreenenter"",""1"",""4297""
","""event"",""trial"",""time""
""fullscreenexit"",""56"",""579833""
","","","","","","","","","","","","","","","","","","","","","","","","","","",""
"pit-instructions","106","909842","0.0-2.0-19.0","battery-v0.2","","""event"",""trial"",""time""
""fullscreenenter"",""1"",""4297""
""fullscreenexit"",""56"",""579833""
""blur"",""57"",""583203""
""focus"",""58"",""589889""
","""event"",""trial"",""time""
""blur"",""57"",""583203""
","""event"",""trial"",""time""
""focus"",""58"",""589889""
","""event"",""trial"",""time""
""fullscreenenter"",""1"",""4297""
","""event"",""trial"",""time""
""fullscreenexit"",""56"",""579833""
","","[{""page_index"":0,""viewing_time"":9620.90000000596},{""page_index"":1,""viewing_time"":14939.09999999404},{""page_index"":2,""viewing_time"":13356.09999999404},{""page_index"":3,""viewing_time"":7980},{""page_index"":4,""viewing_time"":8219},{""page_index"":5,""viewing_time"":8590.800000011921},{""page_index"":6,""viewing_time"":9002.09999999404},{""page_index"":7,""viewing_time"":6696.0999999940395},{""page_index"":8,""viewing_time"":4263.699999988079}]","82668.09999999404","","","","","","","","","","","","","","","","","","","","","","","",""
"pit-comprehension","107","915174","0.0-2.0-20.0-0.0","battery-v0.2","","""event"",""trial"",""time""
""fullscreenenter"",""1"",""4297""
""fullscreenexit"",""56"",""579833""
""blur"",""57"",""583203""
""focus"",""58"",""589889""
","""event"",""trial"",""time""
""blur"",""57"",""583203""
","""event"",""trial"",""time""
""focus"",""58"",""589889""
","""event"",""trial"",""time""
""fullscreenenter"",""1"",""4297""
","""event"",""trial"",""time""
""fullscreenexit"",""56"",""579833""
","","","5328.5","[""SPACE""]","0","12","9995","4146","","","","","","","","","","","","","","","","","","",""
"pit-instructions","108","918406","0.0-2.0-20.0-1.0","battery-v0.2","","""event"",""trial"",""time""
""fullscreenenter"",""1"",""4297""
""fullscreenexit"",""56"",""579833""
""blur"",""57"",""583203""
""focus"",""58"",""589889""
","""event"",""trial"",""time""
""blur"",""57"",""583203""
","""event"",""trial"",""time""
""focus"",""58"",""589889""
","""event"",""trial"",""time""
""fullscreenenter"",""1"",""4297""
","""event"",""trial"",""time""
""fullscreenexit"",""56"",""579833""
","","[{""page_index"":0,""viewing_time"":3131.9000000059605}]","3132.300000011921","","","","","","","","","","","","","","","","","","","","","","","",""
"pit-comprehension","109","927520","0.0-2.0-21.0-0.0","battery-v0.2","","""event"",""trial"",""time""
""fullscreenenter"",""1"",""4297""
""fullscreenexit"",""56"",""579833""
""blur"",""57"",""583203""
""focus"",""58"",""589889""
","""event"",""trial"",""time""
""blur"",""57"",""583203""
","""event"",""trial"",""time""
""focus"",""58"",""589889""
","""event"",""trial"",""time""
""fullscreenenter"",""1"",""4297""
","""event"",""trial"",""time""
""fullscreenexit"",""56"",""579833""
","","","9111.09999999404","[""10""]","0","12","9995","4146","","","","","","","","","","","","","","","","","","",""
"pit-instructions","110","932521","0.0-2.0-21.0-1.0","battery-v0.2","","""event"",""trial"",""time""
""fullscreenenter"",""1"",""4297""
""fullscreenexit"",""56"",""579833""
""blur"",""57"",""583203""
""focus"",""58"",""589889""
","""event"",""trial"",""time""
""blur"",""57"",""583203""
","""event"",""trial"",""time""
""focus"",""58"",""589889""
","""event"",""trial"",""time""
""fullscreenenter"",""1"",""4297""
","""event"",""trial"",""time""
""fullscreenexit"",""56"",""579833""
","","[{""page_index"":0,""viewing_time"":4951.0999999940395}]","4951.4000000059605","","","","","","","","","","","","","","","","","","","","","","","",""
"pit-comprehension","111","942143","0.0-2.0-22.0-0.0","battery-v0.2","","""event"",""trial"",""time""
""fullscreenenter"",""1"",""4297""
""fullscreenexit"",""56"",""579833""
""blur"",""57"",""583203""
""focus"",""58"",""589889""
","""event"",""trial"",""time""
""blur"",""57"",""583203""
","""event"",""trial"",""time""
""focus"",""58"",""589889""
","""event"",""trial"",""time""
""fullscreenenter"",""1"",""4297""
","""event"",""trial"",""time""
""fullscreenexit"",""56"",""579833""
","","","9619.09999999404","[""0""]","0","12","9995","4146","","","","","","","","","","","","","","","","","","",""
"pit-instructions","112","946835","0.0-2.0-22.0-1.0","battery-v0.2","","""event"",""trial"",""time""
""fullscreenenter"",""1"",""4297""
""fullscreenexit"",""56"",""579833""
""blur"",""57"",""583203""
""focus"",""58"",""589889""
","""event"",""trial"",""time""
""blur"",""57"",""583203""
","""event"",""trial"",""time""
""focus"",""58"",""589889""
","""event"",""trial"",""time""
""fullscreenenter"",""1"",""4297""
","""event"",""trial"",""time""
""fullscreenexit"",""56"",""579833""
","","[{""page_index"":0,""viewing_time"":4643.5999999940395}]","4644","","","","","","","","","","","","","","","","","","","","","","","",""
"pit-comprehension","113","962358","0.0-2.0-23.0-0.0","battery-v0.2","","""event"",""trial"",""time""
""fullscreenenter"",""1"",""4297""
""fullscreenexit"",""56"",""579833""
""blur"",""57"",""583203""
""focus"",""58"",""589889""
","""event"",""trial"",""time""
""blur"",""57"",""583203""
","""event"",""trial"",""time""
""focus"",""58"",""589889""
","""event"",""trial"",""time""
""fullscreenenter"",""1"",""4297""
","""event"",""trial"",""time""
""fullscreenexit"",""56"",""579833""
","","","15520","[""True""]","0","12","9995","4146","","","","","","","","","","","","","","","","","","",""
"pit-instructions","114","964786","0.0-2.0-23.0-1.0","battery-v0.2","","""event"",""trial"",""time""
""fullscreenenter"",""1"",""4297""
""fullscreenexit"",""56"",""579833""
""blur"",""57"",""583203""
""focus"",""58"",""589889""
","""event"",""trial"",""time""
""blur"",""57"",""583203""
","""event"",""trial"",""time""
""focus"",""58"",""589889""
","""event"",""trial"",""time""
""fullscreenenter"",""1"",""4297""
","""event"",""trial"",""time""
""fullscreenexit"",""56"",""579833""
","","[{""page_index"":0,""viewing_time"":2378.899999976158}]","2379.399999976158","","","","","","","","","","","","","","","","","","","","","","","",""
"pit-comprehension","115","972539","0.0-2.0-24.0-0.0","battery-v0.2","","""event"",""trial"",""time""
""fullscreenenter"",""1"",""4297""
""fullscreenexit"",""56"",""579833""
""blur"",""57"",""583203""
""focus"",""58"",""589889""
","""event"",""trial"",""time""
""blur"",""57"",""583203""
","""event"",""trial"",""time""
""focus"",""58"",""589889""
","""event"",""trial"",""time""
""fullscreenenter"",""1"",""4297""
","""event"",""trial"",""time""
""fullscreenexit"",""56"",""579833""
","","","7750.0999999940395","[""True""]","0","12","9995","4146","","","","","","","","","","","","","","","","","","",""
"pit-instructions","116","974909","0.0-2.0-24.0-1.0","battery-v0.2","","""event"",""trial"",""time""
""fullscreenenter"",""1"",""4297""
""fullscreenexit"",""56"",""579833""
""blur"",""57"",""583203""
""focus"",""58"",""589889""
","""event"",""trial"",""time""
""blur"",""57"",""583203""
","""event"",""trial"",""time""
""focus"",""58"",""589889""
","""event"",""trial"",""time""
""fullscreenenter"",""1"",""4297""
","""event"",""trial"",""time""
""fullscreenexit"",""56"",""579833""
","","[{""page_index"":0,""viewing_time"":2321.2000000178814}]","2321.4000000059605","","","","","","","","","","","","","","","","","","","","","","","",""
"pit-comprehension","117","982623","0.0-2.0-25.0-0.0","battery-v0.2","","""event"",""trial"",""time""
""fullscreenenter"",""1"",""4297""
""fullscreenexit"",""56"",""579833""
""blur"",""57"",""583203""
""focus"",""58"",""589889""
","""event"",""trial"",""time""
""blur"",""57"",""583203""
","""event"",""trial"",""time""
""focus"",""58"",""589889""
","""event"",""trial"",""time""
""fullscreenenter"",""1"",""4297""
","""event"",""trial"",""time""
""fullscreenexit"",""56"",""579833""
","","","7710.4000000059605","[""True""]","0","12","9995","4146","","","","","","","","","","","","","","","","","","",""
"pit-instructions","118","984871","0.0-2.0-25.0-1.0","battery-v0.2","","""event"",""trial"",""time""
""fullscreenenter"",""1"",""4297""
""fullscreenexit"",""56"",""579833""
""blur"",""57"",""583203""
""focus"",""58"",""589889""
","""event"",""trial"",""time""
""blur"",""57"",""583203""
","""event"",""trial"",""time""
""focus"",""58"",""589889""
","""event"",""trial"",""time""
""fullscreenenter"",""1"",""4297""
","""event"",""trial"",""time""
""fullscreenexit"",""56"",""579833""
","","[{""page_index"":0,""viewing_time"":2195}]","2195.300000011921","","","","","","","","","","","","","","","","","","","","","","","",""
"pit-comprehension","119","990636","0.0-2.0-26.0-0.0","battery-v0.2","","""event"",""trial"",""time""
""fullscreenenter"",""1"",""4297""
""fullscreenexit"",""56"",""579833""
""blur"",""57"",""583203""
""focus"",""58"",""589889""
","""event"",""trial"",""time""
""blur"",""57"",""583203""
","""event"",""trial"",""time""
""focus"",""58"",""589889""
","""event"",""trial"",""time""
""fullscreenenter"",""1"",""4297""
","""event"",""trial"",""time""
""fullscreenexit"",""56"",""579833""
","","","5762.200000017881","[""False""]","0","12","9995","4146","","","","","","","","","","","","","","","","","","",""
"pit-instructions","120","992525","0.0-2.0-26.0-1.0","battery-v0.2","","""event"",""trial"",""time""
""fullscreenenter"",""1"",""4297""
""fullscreenexit"",""56"",""579833""
""blur"",""57"",""583203""
""focus"",""58"",""589889""
","""event"",""trial"",""time""
""blur"",""57"",""583203""
","""event"",""trial"",""time""
""focus"",""58"",""589889""
","""event"",""trial"",""time""
""fullscreenenter"",""1"",""4297""
","""event"",""trial"",""time""
""fullscreenexit"",""56"",""579833""
","","[{""page_index"":0,""viewing_time"":1837}]","1837.7000000178814","","","","","","","","","","","","","","","","","","","","","","","",""
"pit-instructions","121","1010259","0.0-3.0","battery-v0.2","","""event"",""trial"",""time""
""fullscreenenter"",""1"",""4297""
""fullscreenexit"",""56"",""579833""
""blur"",""57"",""583203""
""focus"",""58"",""589889""
","""event"",""trial"",""time""
""blur"",""57"",""583203""
","""event"",""trial"",""time""
""focus"",""58"",""589889""
","""event"",""trial"",""time""
""fullscreenenter"",""1"",""4297""
","""event"",""trial"",""time""
""fullscreenexit"",""56"",""579833""
","","[{""page_index"":0,""viewing_time"":5272.200000017881},{""page_index"":1,""viewing_time"":6233.799999982119},{""page_index"":2,""viewing_time"":6226.5}]","17732.80000001192","","","","","","","","","","","","","","","","","","","","","","","",""
"pit-trial","122","1014438","0.0-4.0","battery-v0.2","","""event"",""trial"",""time""
""fullscreenenter"",""1"",""4297""
""fullscreenexit"",""56"",""579833""
""blur"",""57"",""583203""
""focus"",""58"",""589889""
","""event"",""trial"",""time""
""blur"",""57"",""583203""
","""event"",""trial"",""time""
""focus"",""58"",""589889""
","""event"",""trial"",""time""
""fullscreenenter"",""1"",""4297""
","""event"",""trial"",""time""
""fullscreenexit"",""56"",""579833""
","","","1303.2000000178814","","","12","9995","4146","&#9730;","elianto","#3366ff99"," "," ","1","+10","[2163.100000023842]","1","1","","","9995","1","1","1","win","go","0"
"pit-trial","123","1019304","0.0-5.0","battery-v0.2","","""event"",""trial"",""time""
""fullscreenenter"",""1"",""4297""
""fullscreenexit"",""56"",""579833""
""blur"",""57"",""583203""
""focus"",""58"",""589889""
","""event"",""trial"",""time""
""blur"",""57"",""583203""
","""event"",""trial"",""time""
""focus"",""58"",""589889""
","""event"",""trial"",""time""
""fullscreenenter"",""1"",""4297""
","""event"",""trial"",""time""
""fullscreenexit"",""56"",""579833""
","","","-1","","","12","9995","4146","&#9733;","elianto","#3366ff99","-1","-1","1","+10","[]","0","1","","","9995","2","2","2","win","no-go","0"
"pit-trial","124","1024169","0.0-6.0","battery-v0.2","","""event"",""trial"",""time""
""fullscreenenter"",""1"",""4297""
""fullscreenexit"",""56"",""579833""
""blur"",""57"",""583203""
""focus"",""58"",""589889""
","""event"",""trial"",""time""
""blur"",""57"",""583203""
","""event"",""trial"",""time""
""focus"",""58"",""589889""
","""event"",""trial"",""time""
""fullscreenenter"",""1"",""4297""
","""event"",""trial"",""time""
""fullscreenexit"",""56"",""579833""
","","","-1","","","12","9995","4146","&#9728;","elianto","#f73b6a7A","-1","-1","1","0","[]","0","1","","","9995","3","0","4","lose","no-go","0"
"pit-trial","125","1028160","0.0-7.0","battery-v0.2","","""event"",""trial"",""time""
""fullscreenenter"",""1"",""4297""
""fullscreenexit"",""56"",""579833""
""blur"",""57"",""583203""
""focus"",""58"",""589889""
","""event"",""trial"",""time""
""blur"",""57"",""583203""
","""event"",""trial"",""time""
""focus"",""58"",""589889""
","""event"",""trial"",""time""
""fullscreenenter"",""1"",""4297""
","""event"",""trial"",""time""
""fullscreenexit"",""56"",""579833""
","","","1136.199999988079","","","12","9995","4146","&#9752;","elianto","#f73b6a7A"," "," ","1","0","[1988.7999999821186]","1","1","","","9995","4","3","3","lose","go","0"
"pit-trial","126","1033036","0.0-8.0","battery-v0.2","","""event"",""trial"",""time""
""fullscreenenter"",""1"",""4297""
""fullscreenexit"",""56"",""579833""
""blur"",""57"",""583203""
""focus"",""58"",""589889""
","""event"",""trial"",""time""
""blur"",""57"",""583203""
","""event"",""trial"",""time""
""focus"",""58"",""589889""
","""event"",""trial"",""time""
""fullscreenenter"",""1"",""4297""
","""event"",""trial"",""time""
""fullscreenexit"",""56"",""579833""
","","","-1","","","12","9995","4146","&#9733;","elianto","#3366ff99","-1","-1","1","0","[]","0","1","","","9995","5","2","2","win","no-go","1"
"pit-trial","127","1037643","0.0-9.0","battery-v0.2","","""event"",""trial"",""time""
""fullscreenenter"",""1"",""4297""
""fullscreenexit"",""56"",""579833""
""blur"",""57"",""583203""
""focus"",""58"",""589889""
","""event"",""trial"",""time""
""blur"",""57"",""583203""
","""event"",""trial"",""time""
""focus"",""58"",""589889""
","""event"",""trial"",""time""
""fullscreenenter"",""1"",""4297""
","""event"",""trial"",""time""
""fullscreenexit"",""56"",""579833""
","","","1746.0999999940395","","","12","9995","4146","&#9752;","elianto","#f73b6a7A"," "," ","1","0","[2596.9000000059605]","1","1","","","9995","6","3","3","lose","go","0"
"pit-trial","128","1042504","0.0-10.0","battery-v0.2","","""event"",""trial"",""time""
""fullscreenenter"",""1"",""4297""
""fullscreenexit"",""56"",""579833""
""blur"",""57"",""583203""
""focus"",""58"",""589889""
","""event"",""trial"",""time""
""blur"",""57"",""583203""
","""event"",""trial"",""time""
""focus"",""58"",""589889""
","""event"",""trial"",""time""
""fullscreenenter"",""1"",""4297""
","""event"",""trial"",""time""
""fullscreenexit"",""56"",""579833""
","","","-1","","","12","9995","4146","&#9728;","elianto","#f73b6a7A","-1","-1","1","0","[]","0","1","","","9995","7","0","4","lose","no-go","0"
"pit-trial","129","1045930","0.0-11.0","battery-v0.2","","""event"",""trial"",""time""
""fullscreenenter"",""1"",""4297""
""fullscreenexit"",""56"",""579833""
""blur"",""57"",""583203""
""focus"",""58"",""589889""
","""event"",""trial"",""time""
""blur"",""57"",""583203""
","""event"",""trial"",""time""
""focus"",""58"",""589889""
","""event"",""trial"",""time""
""fullscreenenter"",""1"",""4297""
","""event"",""trial"",""time""
""fullscreenexit"",""56"",""579833""
","","","571","","","12","9995","4146","&#9730;","elianto","#3366ff99"," "," ","1","+10","[1423.4000000059605]","1","1","","","9995","8","1","1","win","go","0"
"pit-trial","130","1050173","0.0-12.0","battery-v0.2","","""event"",""trial"",""time""
""fullscreenenter"",""1"",""4297""
""fullscreenexit"",""56"",""579833""
""blur"",""57"",""583203""
""focus"",""58"",""589889""
","""event"",""trial"",""time""
""blur"",""57"",""583203""
","""event"",""trial"",""time""
""focus"",""58"",""589889""
","""event"",""trial"",""time""
""fullscreenenter"",""1"",""4297""
","""event"",""trial"",""time""
""fullscreenexit"",""56"",""579833""
","","","1390.2999999821186","","","12","9995","4146","&#9752;","elianto","#f73b6a7A"," "," ","1","0","[2241]","1","1","","","9995","9","3","3","lose","go","0"
"pit-trial","131","1055026","0.0-13.0","battery-v0.2","","""event"",""trial"",""time""
""fullscreenenter"",""1"",""4297""
""fullscreenexit"",""56"",""579833""
""blur"",""57"",""583203""
""focus"",""58"",""589889""
","""event"",""trial"",""time""
""blur"",""57"",""583203""
","""event"",""trial"",""time""
""focus"",""58"",""589889""
","""event"",""trial"",""time""
""fullscreenenter"",""1"",""4297""
","""event"",""trial"",""time""
""fullscreenexit"",""56"",""579833""
","","","-1","","","12","9995","4146","&#9728;","elianto","#f73b6a7A","-1","-1","1","0","[]","0","1","","","9995","10","0","4","lose","no-go","0"
"pit-trial","132","1058352","0.0-14.0","battery-v0.2","","""event"",""trial"",""time""
""fullscreenenter"",""1"",""4297""
""fullscreenexit"",""56"",""579833""
""blur"",""57"",""583203""
""focus"",""58"",""589889""
","""event"",""trial"",""time""
""blur"",""57"",""583203""
","""event"",""trial"",""time""
""focus"",""58"",""589889""
","""event"",""trial"",""time""
""fullscreenenter"",""1"",""4297""
","""event"",""trial"",""time""
""fullscreenexit"",""56"",""579833""
","","","472.59999999403954","","","12","9995","4146","&#9733;","elianto","#3366ff99","-1"," ","0","0","[1323.5]","1","1","","","9995","11","2","2","win","no-go","0"
"pit-trial","133","1062088","0.0-15.0","battery-v0.2","","""event"",""trial"",""time""
""fullscreenenter"",""1"",""4297""
""fullscreenexit"",""56"",""579833""
""blur"",""57"",""583203""
""focus"",""58"",""589889""
","""event"",""trial"",""time""
""blur"",""57"",""583203""
","""event"",""trial"",""time""
""focus"",""58"",""589889""
","""event"",""trial"",""time""
""fullscreenenter"",""1"",""4297""
","""event"",""trial"",""time""
""fullscreenexit"",""56"",""579833""
","","","883.2000000178814","","","12","9995","4146","&#9730;","elianto","#3366ff99"," "," ","1","+10","[1733.9000000059605]","1","1","","","9995","12","1","1","win","go","0"
"pit-trial","134","1065808","0.0-16.0","battery-v0.2","","""event"",""trial"",""time""
""fullscreenenter"",""1"",""4297""
""fullscreenexit"",""56"",""579833""
""blur"",""57"",""583203""
""focus"",""58"",""589889""
","""event"",""trial"",""time""
""blur"",""57"",""583203""
","""event"",""trial"",""time""
""focus"",""58"",""589889""
","""event"",""trial"",""time""
""fullscreenenter"",""1"",""4297""
","""event"",""trial"",""time""
""fullscreenexit"",""56"",""579833""
","","","866.8000000119209","","","12","9995","4146","&#9730;","elianto","#3366ff99"," "," ","1","+10","[1717.6000000238419]","1","1","","","9995","13","1","1","win","go","0"
"pit-trial","135","1070041","0.0-17.0","battery-v0.2","","""event"",""trial"",""time""
""fullscreenenter"",""1"",""4297""
""fullscreenexit"",""56"",""579833""
""blur"",""57"",""583203""
""focus"",""58"",""589889""
","""event"",""trial"",""time""
""blur"",""57"",""583203""
","""event"",""trial"",""time""
""focus"",""58"",""589889""
","""event"",""trial"",""time""
""fullscreenenter"",""1"",""4297""
","""event"",""trial"",""time""
""fullscreenexit"",""56"",""579833""
","","","1380","","","12","9995","4146","&#9752;","elianto","#f73b6a7A"," "," ","1","0","[2230.5999999940395]","1","1","","","9995","14","3","3","lose","go","0"
"pit-trial","136","1074717","0.0-18.0","battery-v0.2","","""event"",""trial"",""time""
""fullscreenenter"",""1"",""4297""
""fullscreenexit"",""56"",""579833""
""blur"",""57"",""583203""
""focus"",""58"",""589889""
","""event"",""trial"",""time""
""blur"",""57"",""583203""
","""event"",""trial"",""time""
""focus"",""58"",""589889""
","""event"",""trial"",""time""
""fullscreenenter"",""1"",""4297""
","""event"",""trial"",""time""
""fullscreenexit"",""56"",""579833""
","","","1823.2000000178814","","","12","9995","4146","&#9728;","elianto","#f73b6a7A","-1"," ","0","-10","[2674.5]","1","1","","","9995","15","0","4","lose","no-go","0"
"pit-trial","137","1078145","0.0-19.0","battery-v0.2","","""event"",""trial"",""time""
""fullscreenenter"",""1"",""4297""
""fullscreenexit"",""56"",""579833""
""blur"",""57"",""583203""
""focus"",""58"",""589889""
","""event"",""trial"",""time""
""blur"",""57"",""583203""
","""event"",""trial"",""time""
""focus"",""58"",""589889""
","""event"",""trial"",""time""
""fullscreenenter"",""1"",""4297""
","""event"",""trial"",""time""
""fullscreenexit"",""56"",""579833""
","","","575.5","","","12","9995","4146","&#9733;","elianto","#3366ff99","-1"," ","0","+10","[1425.5999999940395]","1","1","","","9995","16","2","2","win","no-go","1"
"pit-trial","138","1082999","0.0-20.0","battery-v0.2","","""event"",""trial"",""time""
""fullscreenenter"",""1"",""4297""
""fullscreenexit"",""56"",""579833""
""blur"",""57"",""583203""
""focus"",""58"",""589889""
","""event"",""trial"",""time""
""blur"",""57"",""583203""
","""event"",""trial"",""time""
""focus"",""58"",""589889""
","""event"",""trial"",""time""
""fullscreenenter"",""1"",""4297""
","""event"",""trial"",""time""
""fullscreenexit"",""56"",""579833""
","","","-1","","","12","9995","4146","&#9730;","elianto","#3366ff99"," ","-1","0","0","[]","0","1","","","9995","17","1","1","win","go","0"
"pit-trial","139","1086688","0.0-21.0","battery-v0.2","","""event"",""trial"",""time""
""fullscreenenter"",""1"",""4297""
""fullscreenexit"",""56"",""579833""
""blur"",""57"",""583203""
""focus"",""58"",""589889""
","""event"",""trial"",""time""
""blur"",""57"",""583203""
","""event"",""trial"",""time""
""focus"",""58"",""589889""
","""event"",""trial"",""time""
""fullscreenenter"",""1"",""4297""
","""event"",""trial"",""time""
""fullscreenexit"",""56"",""579833""
","","","836.9000000059605","","","12","9995","4146","&#9733;","elianto","#3366ff99","-1"," ","0","0","[1687.2999999821186]","1","1","","","9995","18","2","2","win","no-go","0"
"pit-trial","140","1091541","0.0-22.0","battery-v0.2","","""event"",""trial"",""time""
""fullscreenenter"",""1"",""4297""
""fullscreenexit"",""56"",""579833""
""blur"",""57"",""583203""
""focus"",""58"",""589889""
","""event"",""trial"",""time""
""blur"",""57"",""583203""
","""event"",""trial"",""time""
""focus"",""58"",""589889""
","""event"",""trial"",""time""
""fullscreenenter"",""1"",""4297""
","""event"",""trial"",""time""
""fullscreenexit"",""56"",""579833""
","","","-1","","","12","9995","4146","&#9752;","elianto","#f73b6a7A"," ","-1","0","-10","[]","0","1","","","9995","19","3","3","lose","go","0"
"pit-trial","141","1096394","0.0-23.0","battery-v0.2","","""event"",""trial"",""time""
""fullscreenenter"",""1"",""4297""
""fullscreenexit"",""56"",""579833""
""blur"",""57"",""583203""
""focus"",""58"",""589889""
","""event"",""trial"",""time""
""blur"",""57"",""583203""
","""event"",""trial"",""time""
""focus"",""58"",""589889""
","""event"",""trial"",""time""
""fullscreenenter"",""1"",""4297""
","""event"",""trial"",""time""
""fullscreenexit"",""56"",""579833""
","","","-1","","","12","9995","4146","&#9728;","elianto","#f73b6a7A","-1","-1","1","0","[]","0","1","","","9995","20","0","4","lose","no-go","0"
"pit-instructions","142","1110490","0.0-24.0","battery-v0.2","","""event"",""trial"",""time""
""fullscreenenter"",""1"",""4297""
""fullscreenexit"",""56"",""579833""
""blur"",""57"",""583203""
""focus"",""58"",""589889""
","""event"",""trial"",""time""
""blur"",""57"",""583203""
","""event"",""trial"",""time""
""focus"",""58"",""589889""
","""event"",""trial"",""time""
""fullscreenenter"",""1"",""4297""
","""event"",""trial"",""time""
""fullscreenexit"",""56"",""579833""
","","[{""page_index"":0,""viewing_time"":7285.199999988079},{""page_index"":1,""viewing_time"":6809.4000000059605}]","14094.90000000596","","","","","","","","","","","","","","","","","","","","","","","",""
"pit-trial","143","1114707","0.0-25.0","battery-v0.2","","""event"",""trial"",""time""
""fullscreenenter"",""1"",""4297""
""fullscreenexit"",""56"",""579833""
""blur"",""57"",""583203""
""focus"",""58"",""589889""
","""event"",""trial"",""time""
""blur"",""57"",""583203""
","""event"",""trial"",""time""
""focus"",""58"",""589889""
","""event"",""trial"",""time""
""fullscreenenter"",""1"",""4297""
","""event"",""trial"",""time""
""fullscreenexit"",""56"",""579833""
","","","1347.9000000059605","","","12","9995","4146","y","elianto","#f73b6a7A"," "," ","1","0","[2207.5]","1","2","","","9995","21","2","3","lose","go","0"
"pit-trial","144","1118190","0.0-26.0","battery-v0.2","","""event"",""trial"",""time""
""fullscreenenter"",""1"",""4297""
""fullscreenexit"",""56"",""579833""
""blur"",""57"",""583203""
""focus"",""58"",""589889""
","""event"",""trial"",""time""
""blur"",""57"",""583203""
","""event"",""trial"",""time""
""focus"",""58"",""589889""
","""event"",""trial"",""time""
""fullscreenenter"",""1"",""4297""
","""event"",""trial"",""time""
""fullscreenexit"",""56"",""579833""
","","","611.1000000238419","","","12","9995","4146","r","elianto","#3366ff99","-1"," ","0","+10","[1470.5999999940395]","1","2","","","9995","22","1","2","win","no-go","1"
"pit-trial","145","1122476","0.0-27.0","battery-v0.2","","""event"",""trial"",""time""
""fullscreenenter"",""1"",""4297""
""fullscreenexit"",""56"",""579833""
""blur"",""57"",""583203""
""focus"",""58"",""589889""
","""event"",""trial"",""time""
""blur"",""57"",""583203""
","""event"",""trial"",""time""
""focus"",""58"",""589889""
","""event"",""trial"",""time""
""fullscreenenter"",""1"",""4297""
","""event"",""trial"",""time""
""fullscreenexit"",""56"",""579833""
","","","1425.5","","","12","9995","4146","h","elianto","#f73b6a7A","-1"," ","0","-10","[2280.7000000178814]","1","2","","","9995","23","3","4","lose","no-go","0"
"pit-trial","146","1126248","0.0-28.0","battery-v0.2","","""event"",""trial"",""time""
""fullscreenenter"",""1"",""4297""
""fullscreenexit"",""56"",""579833""
""blur"",""57"",""583203""
""focus"",""58"",""589889""
","""event"",""trial"",""time""
""blur"",""57"",""583203""
","""event"",""trial"",""time""
""focus"",""58"",""589889""
","""event"",""trial"",""time""
""fullscreenenter"",""1"",""4297""
","""event"",""trial"",""time""
""fullscreenexit"",""56"",""579833""
","","","911","","","12","9995","4146","m","elianto","#f73b6a7A"," "," ","1","0","[1768.7000000178814]","1","2","","","9995","24","0","3","lose","go","0"
"pit-trial","147","1130528","0.0-29.0","battery-v0.2","","""event"",""trial"",""time""
""fullscreenenter"",""1"",""4297""
""fullscreenexit"",""56"",""579833""
""blur"",""57"",""583203""
""focus"",""58"",""589889""
","""event"",""trial"",""time""
""blur"",""57"",""583203""
","""event"",""trial"",""time""
""focus"",""58"",""589889""
","""event"",""trial"",""time""
""fullscreenenter"",""1"",""4297""
","""event"",""trial"",""time""
""fullscreenexit"",""56"",""579833""
","","","1419.2999999821186","","","12","9995","4146","y","elianto","#f73b6a7A"," "," ","1","0","[2271.5999999940395]","1","2","","","9995","25","2","3","lose","go","0"
"pit-trial","148","1134440","0.0-30.0","battery-v0.2","","""event"",""trial"",""time""
""fullscreenenter"",""1"",""4297""
""fullscreenexit"",""56"",""579833""
""blur"",""57"",""583203""
""focus"",""58"",""589889""
","""event"",""trial"",""time""
""blur"",""57"",""583203""
","""event"",""trial"",""time""
""focus"",""58"",""589889""
","""event"",""trial"",""time""
""fullscreenenter"",""1"",""4297""
","""event"",""trial"",""time""
""fullscreenexit"",""56"",""579833""
","","","1054.699999988079","","","12","9995","4146","r","elianto","#3366ff99","-1"," ","0","0","[1909.7999999821186]","1","2","","","9995","26","1","2","win","no-go","0"
"pit-trial","149","1139301","0.0-31.0","battery-v0.2","","""event"",""trial"",""time""
""fullscreenenter"",""1"",""4297""
""fullscreenexit"",""56"",""579833""
""blur"",""57"",""583203""
""focus"",""58"",""589889""
","""event"",""trial"",""time""
""blur"",""57"",""583203""
","""event"",""trial"",""time""
""focus"",""58"",""589889""
","""event"",""trial"",""time""
""fullscreenenter"",""1"",""4297""
","""event"",""trial"",""time""
""fullscreenexit"",""56"",""579833""
","","","-1","","","12","9995","4146","h","elianto","#f73b6a7A","-1","-1","1","0","[]","0","2","","","9995","27","3","4","lose","no-go","0"
"pit-trial","150","1143271","0.0-32.0","battery-v0.2","","""event"",""trial"",""time""
""fullscreenenter"",""1"",""4297""
""fullscreenexit"",""56"",""579833""
""blur"",""57"",""583203""
""focus"",""58"",""589889""
","""event"",""trial"",""time""
""blur"",""57"",""583203""
","""event"",""trial"",""time""
""focus"",""58"",""589889""
","""event"",""trial"",""time""
""fullscreenenter"",""1"",""4297""
","""event"",""trial"",""time""
""fullscreenexit"",""56"",""579833""
","","","1117.5","","","12","9995","4146","m","elianto","#f73b6a7A"," "," ","1","-10","[1967.8999999761581]","1","2","","","9995","28","0","3","lose","go","1"
"pit-trial","151","1148125","0.0-33.0","battery-v0.2","","""event"",""trial"",""time""
""fullscreenenter"",""1"",""4297""
""fullscreenexit"",""56"",""579833""
""blur"",""57"",""583203""
""focus"",""58"",""589889""
","""event"",""trial"",""time""
""blur"",""57"",""583203""
","""event"",""trial"",""time""
""focus"",""58"",""589889""
","""event"",""trial"",""time""
""fullscreenenter"",""1"",""4297""
","""event"",""trial"",""time""
""fullscreenexit"",""56"",""579833""
","","","-1","","","12","9995","4146","h","elianto","#f73b6a7A","-1","-1","1","0","[]","0","2","","","9995","29","3","4","lose","no-go","0"
"pit-trial","152","1152978","0.0-34.0","battery-v0.2","","""event"",""trial"",""time""
""fullscreenenter"",""1"",""4297""
""fullscreenexit"",""56"",""579833""
""blur"",""57"",""583203""
""focus"",""58"",""589889""
","""event"",""trial"",""time""
""blur"",""57"",""583203""
","""event"",""trial"",""time""
""focus"",""58"",""589889""
","""event"",""trial"",""time""
""fullscreenenter"",""1"",""4297""
","""event"",""trial"",""time""
""fullscreenexit"",""56"",""579833""
","","","-1","","","12","9995","4146","m","elianto","#f73b6a7A"," ","-1","0","-10","[]","0","2","","","9995","30","0","3","lose","go","0"
"pit-trial","153","1156689","0.0-35.0","battery-v0.2","","""event"",""trial"",""time""
""fullscreenenter"",""1"",""4297""
""fullscreenexit"",""56"",""579833""
""blur"",""57"",""583203""
""focus"",""58"",""589889""
","""event"",""trial"",""time""
""blur"",""57"",""583203""
","""event"",""trial"",""time""
""focus"",""58"",""589889""
","""event"",""trial"",""time""
""fullscreenenter"",""1"",""4297""
","""event"",""trial"",""time""
""fullscreenexit"",""56"",""579833""
","","","854.1999999880791","","","12","9995","4146","y","elianto","#f73b6a7A"," "," ","1","0","[1708.5999999940395]","1","2","","","9995","31","2","3","lose","go","0"
"pit-trial","154","1160267","0.0-36.0","battery-v0.2","","""event"",""trial"",""time""
""fullscreenenter"",""1"",""4297""
""fullscreenexit"",""56"",""579833""
""blur"",""57"",""583203""
""focus"",""58"",""589889""
","""event"",""trial"",""time""
""blur"",""57"",""583203""
","""event"",""trial"",""time""
""focus"",""58"",""589889""
","""event"",""trial"",""time""
""fullscreenenter"",""1"",""4297""
","""event"",""trial"",""time""
""fullscreenexit"",""56"",""579833""
","","","723.1999999880791","","","12","9995","4146","r","elianto","#3366ff99","-1"," ","0","+10","[1574.699999988079]","1","2","","","9995","32","1","2","win","no-go","1"
"pit-trial","155","1164483","0.0-37.0","battery-v0.2","","""event"",""trial"",""time""
""fullscreenenter"",""1"",""4297""
""fullscreenexit"",""56"",""579833""
""blur"",""57"",""583203""
""focus"",""58"",""589889""
","""event"",""trial"",""time""
""blur"",""57"",""583203""
","""event"",""trial"",""time""
""focus"",""58"",""589889""
","""event"",""trial"",""time""
""fullscreenenter"",""1"",""4297""
","""event"",""trial"",""time""
""fullscreenexit"",""56"",""579833""
","","","1362.699999988079","","","12","9995","4146","m","elianto","#f73b6a7A"," "," ","1","0","[2213.800000011921]","1","2","","","9995","33","0","3","lose","go","0"
"pit-trial","156","1169336","0.0-38.0","battery-v0.2","","""event"",""trial"",""time""
""fullscreenenter"",""1"",""4297""
""fullscreenexit"",""56"",""579833""
""blur"",""57"",""583203""
""focus"",""58"",""589889""
","""event"",""trial"",""time""
""blur"",""57"",""583203""
","""event"",""trial"",""time""
""focus"",""58"",""589889""
","""event"",""trial"",""time""
""fullscreenenter"",""1"",""4297""
","""event"",""trial"",""time""
""fullscreenexit"",""56"",""579833""
","","","-1","","","12","9995","4146","h","elianto","#f73b6a7A","-1","-1","1","0","[]","0","2","","","9995","34","3","4","lose","no-go","0"
"pit-trial","157","1172956","0.0-39.0","battery-v0.2","","""event"",""trial"",""time""
""fullscreenenter"",""1"",""4297""
""fullscreenexit"",""56"",""579833""
""blur"",""57"",""583203""
""focus"",""58"",""589889""
","""event"",""trial"",""time""
""blur"",""57"",""583203""
","""event"",""trial"",""time""
""focus"",""58"",""589889""
","""event"",""trial"",""time""
""fullscreenenter"",""1"",""4297""
","""event"",""trial"",""time""
""fullscreenexit"",""56"",""579833""
","","","768.0999999940395","","","12","9995","4146","r","elianto","#3366ff99","-1"," ","0","0","[1618.5999999940395]","1","2","","","9995","35","1","2","win","no-go","0"
"pit-trial","158","1176909","0.0-40.0","battery-v0.2","","""event"",""trial"",""time""
""fullscreenenter"",""1"",""4297""
""fullscreenexit"",""56"",""579833""
""blur"",""57"",""583203""
""focus"",""58"",""589889""
","""event"",""trial"",""time""
""blur"",""57"",""583203""
","""event"",""trial"",""time""
""focus"",""58"",""589889""
","""event"",""trial"",""time""
""fullscreenenter"",""1"",""4297""
","""event"",""trial"",""time""
""fullscreenexit"",""56"",""579833""
","","","1100.300000011921","","","12","9995","4146","y","elianto","#f73b6a7A"," "," ","1","0","[1950.800000011921]","1","2","","","9995","36","2","3","lose","go","0"
"pit-trial","159","1180838","0.0-41.0","battery-v0.2","","""event"",""trial"",""time""
""fullscreenenter"",""1"",""4297""
""fullscreenexit"",""56"",""579833""
""blur"",""57"",""583203""
""focus"",""58"",""589889""
","""event"",""trial"",""time""
""blur"",""57"",""583203""
","""event"",""trial"",""time""
""focus"",""58"",""589889""
","""event"",""trial"",""time""
""fullscreenenter"",""1"",""4297""
","""event"",""trial"",""time""
""fullscreenexit"",""56"",""579833""
","","","1076.9000000059605","","","12","9995","4146","m","elianto","#f73b6a7A"," "," ","1","0","[1927.300000011921]","1","2","","","9995","37","0","3","lose","go","0"
"pit-trial","160","1185344","0.0-42.0","battery-v0.2","","""event"",""trial"",""time""
""fullscreenenter"",""1"",""4297""
""fullscreenexit"",""56"",""579833""
""blur"",""57"",""583203""
""focus"",""58"",""589889""
","""event"",""trial"",""time""
""blur"",""57"",""583203""
","""event"",""trial"",""time""
""focus"",""58"",""589889""
","""event"",""trial"",""time""
""fullscreenenter"",""1"",""4297""
","""event"",""trial"",""time""
""fullscreenexit"",""56"",""579833""
","","","1652.5999999940395","","","12","9995","4146","r","elianto","#3366ff99","-1"," ","0","0","[2503.7999999821186]","1","2","","","9995","38","1","2","win","no-go","0"
"pit-trial","161","1190197","0.0-43.0","battery-v0.2","","""event"",""trial"",""time""
""fullscreenenter"",""1"",""4297""
""fullscreenexit"",""56"",""579833""
""blur"",""57"",""583203""
""focus"",""58"",""589889""
","""event"",""trial"",""time""
""blur"",""57"",""583203""
","""event"",""trial"",""time""
""focus"",""58"",""589889""
","""event"",""trial"",""time""
""fullscreenenter"",""1"",""4297""
","""event"",""trial"",""time""
""fullscreenexit"",""56"",""579833""
","","","-1","","","12","9995","4146","y","elianto","#f73b6a7A"," ","-1","0","-10","[]","0","2","","","9995","39","2","3","lose","go","0"
"pit-trial","162","1195050","0.0-44.0","battery-v0.2","","""event"",""trial"",""time""
""fullscreenenter"",""1"",""4297""
""fullscreenexit"",""56"",""579833""
""blur"",""57"",""583203""
""focus"",""58"",""589889""
","""event"",""trial"",""time""
""blur"",""57"",""583203""
","""event"",""trial"",""time""
""focus"",""58"",""589889""
","""event"",""trial"",""time""
""fullscreenenter"",""1"",""4297""
","""event"",""trial"",""time""
""fullscreenexit"",""56"",""579833""
","","","-1","","","12","9995","4146","h","elianto","#f73b6a7A","-1","-1","1","0","[]","0","2","","","9995","40","3","4","lose","no-go","0"
"pit-trial","163","1198742","0.0-45.0","battery-v0.2","","""event"",""trial"",""time""
""fullscreenenter"",""1"",""4297""
""fullscreenexit"",""56"",""579833""
""blur"",""57"",""583203""
""focus"",""58"",""589889""
","""event"",""trial"",""time""
""blur"",""57"",""583203""
","""event"",""trial"",""time""
""focus"",""58"",""589889""
","""event"",""trial"",""time""
""fullscreenenter"",""1"",""4297""
","""event"",""trial"",""time""
""fullscreenexit"",""56"",""579833""
","","","839.5","","","12","9995","4146","y","elianto","#f73b6a7A"," "," ","1","0","[1690.2999999821186]","1","2","","","9995","41","2","3","lose","go","0"
"pit-trial","164","1202357","0.0-46.0","battery-v0.2","","""event"",""trial"",""time""
""fullscreenenter"",""1"",""4297""
""fullscreenexit"",""56"",""579833""
""blur"",""57"",""583203""
""focus"",""58"",""589889""
","""event"",""trial"",""time""
""blur"",""57"",""583203""
","""event"",""trial"",""time""
""focus"",""58"",""589889""
","""event"",""trial"",""time""
""fullscreenenter"",""1"",""4297""
","""event"",""trial"",""time""
""fullscreenexit"",""56"",""579833""
","","","762","","","12","9995","4146","r","elianto","#3366ff99","-1"," ","0","+10","[1612.2000000178814]","1","2","","","9995","42","1","2","win","no-go","1"
"pit-trial","165","1206874","0.0-47.0","battery-v0.2","","""event"",""trial"",""time""
""fullscreenenter"",""1"",""4297""
""fullscreenexit"",""56"",""579833""
""blur"",""57"",""583203""
""focus"",""58"",""589889""
","""event"",""trial"",""time""
""blur"",""57"",""583203""
","""event"",""trial"",""time""
""focus"",""58"",""589889""
","""event"",""trial"",""time""
""fullscreenenter"",""1"",""4297""
","""event"",""trial"",""time""
""fullscreenexit"",""56"",""579833""
","","","1663.300000011921","","","12","9995","4146","m","elianto","#f73b6a7A"," "," ","1","0","[2514.4000000059605]","1","2","","","9995","43","0","3","lose","go","0"
"pit-trial","166","1211726","0.0-48.0","battery-v0.2","","""event"",""trial"",""time""
""fullscreenenter"",""1"",""4297""
""fullscreenexit"",""56"",""579833""
""blur"",""57"",""583203""
""focus"",""58"",""589889""
","""event"",""trial"",""time""
""blur"",""57"",""583203""
","""event"",""trial"",""time""
""focus"",""58"",""589889""
","""event"",""trial"",""time""
""fullscreenenter"",""1"",""4297""
","""event"",""trial"",""time""
""fullscreenexit"",""56"",""579833""
","","","-1","","","12","9995","4146","h","elianto","#f73b6a7A","-1","-1","1","-10","[]","0","2","","","9995","44","3","4","lose","no-go","1"
"pit-trial","167","1215285","0.0-49.0","battery-v0.2","","""event"",""trial"",""time""
""fullscreenenter"",""1"",""4297""
""fullscreenexit"",""56"",""579833""
""blur"",""57"",""583203""
""focus"",""58"",""589889""
","""event"",""trial"",""time""
""blur"",""57"",""583203""
","""event"",""trial"",""time""
""focus"",""58"",""589889""
","""event"",""trial"",""time""
""fullscreenenter"",""1"",""4297""
","""event"",""trial"",""time""
""fullscreenexit"",""56"",""579833""
","","","707.0999999940395","","","12","9995","4146","r","elianto","#3366ff99","-1"," ","0","0","[1557.2000000178814]","1","2","","","9995","45","1","2","win","no-go","0"
"pit-trial","168","1219495","0.0-50.0","battery-v0.2","","""event"",""trial"",""time""
""fullscreenenter"",""1"",""4297""
""fullscreenexit"",""56"",""579833""
""blur"",""57"",""583203""
""focus"",""58"",""589889""
","""event"",""trial"",""time""
""blur"",""57"",""583203""
","""event"",""trial"",""time""
""focus"",""58"",""589889""
","""event"",""trial"",""time""
""fullscreenenter"",""1"",""4297""
","""event"",""trial"",""time""
""fullscreenexit"",""56"",""579833""
","","","1357.699999988079","","","12","9995","4146","m","elianto","#f73b6a7A"," "," ","1","0","[2208]","1","2","","","9995","46","0","3","lose","go","0"
"pit-trial","169","1224347","0.0-51.0","battery-v0.2","","""event"",""trial"",""time""
""fullscreenenter"",""1"",""4297""
""fullscreenexit"",""56"",""579833""
""blur"",""57"",""583203""
""focus"",""58"",""589889""
","""event"",""trial"",""time""
""blur"",""57"",""583203""
","""event"",""trial"",""time""
""focus"",""58"",""589889""
","""event"",""trial"",""time""
""fullscreenenter"",""1"",""4297""
","""event"",""trial"",""time""
""fullscreenexit"",""56"",""579833""
","","","-1","","","12","9995","4146","h","elianto","#f73b6a7A","-1","-1","1","-10","[]","0","2","","","9995","47","3","4","lose","no-go","1"
"pit-trial","170","1227891","0.0-52.0","battery-v0.2","","""event"",""trial"",""time""
""fullscreenenter"",""1"",""4297""
""fullscreenexit"",""56"",""579833""
""blur"",""57"",""583203""
""focus"",""58"",""589889""
","""event"",""trial"",""time""
""blur"",""57"",""583203""
","""event"",""trial"",""time""
""focus"",""58"",""589889""
","""event"",""trial"",""time""
""fullscreenenter"",""1"",""4297""
","""event"",""trial"",""time""
""fullscreenexit"",""56"",""579833""
","","","691.0999999940395","","","12","9995","4146","y","elianto","#f73b6a7A"," "," ","1","0","[1541.199999988079]","1","2","","","9995","48","2","3","lose","go","0"
"pit-trial","171","1231424","0.0-53.0","battery-v0.2","","""event"",""trial"",""time""
""fullscreenenter"",""1"",""4297""
""fullscreenexit"",""56"",""579833""
""blur"",""57"",""583203""
""focus"",""58"",""589889""
","""event"",""trial"",""time""
""blur"",""57"",""583203""
","""event"",""trial"",""time""
""focus"",""58"",""589889""
","""event"",""trial"",""time""
""fullscreenenter"",""1"",""4297""
","""event"",""trial"",""time""
""fullscreenexit"",""56"",""579833""
","","","681.0999999940395","","","12","9995","4146","r","elianto","#3366ff99","-1"," ","0","0","[1531.2000000178814]","1","2","","","9995","49","1","2","win","no-go","0"
"pit-trial","172","1235139","0.0-54.0","battery-v0.2","","""event"",""trial"",""time""
""fullscreenenter"",""1"",""4297""
""fullscreenexit"",""56"",""579833""
""blur"",""57"",""583203""
""focus"",""58"",""589889""
","""event"",""trial"",""time""
""blur"",""57"",""583203""
","""event"",""trial"",""time""
""focus"",""58"",""589889""
","""event"",""trial"",""time""
""fullscreenenter"",""1"",""4297""
","""event"",""trial"",""time""
""fullscreenexit"",""56"",""579833""
","","","862.3000000119209","","","12","9995","4146","m","elianto","#f73b6a7A"," "," ","1","0","[1712.7000000178814]","1","2","","","9995","50","0","3","lose","go","0"
"pit-trial","173","1239571","0.0-55.0","battery-v0.2","","""event"",""trial"",""time""
""fullscreenenter"",""1"",""4297""
""fullscreenexit"",""56"",""579833""
""blur"",""57"",""583203""
""focus"",""58"",""589889""
","""event"",""trial"",""time""
""blur"",""57"",""583203""
","""event"",""trial"",""time""
""focus"",""58"",""589889""
","""event"",""trial"",""time""
""fullscreenenter"",""1"",""4297""
","""event"",""trial"",""time""
""fullscreenexit"",""56"",""579833""
","","","1579.300000011921","","","12","9995","4146","h","elianto","#f73b6a7A","-1"," ","0","-10","[2429.300000011921]","1","2","","","9995","51","3","4","lose","no-go","0"
"pit-trial","174","1243442","0.0-56.0","battery-v0.2","","""event"",""trial"",""time""
""fullscreenenter"",""1"",""4297""
""fullscreenexit"",""56"",""579833""
""blur"",""57"",""583203""
""focus"",""58"",""589889""
","""event"",""trial"",""time""
""blur"",""57"",""583203""
","""event"",""trial"",""time""
""focus"",""58"",""589889""
","""event"",""trial"",""time""
""fullscreenenter"",""1"",""4297""
","""event"",""trial"",""time""
""fullscreenexit"",""56"",""579833""
","","","1018.8000000119209","","","12","9995","4146","y","elianto","#f73b6a7A"," "," ","1","0","[1869.0999999940395]","1","2","","","9995","52","2","3","lose","go","0"
"pit-trial","175","1248294","0.0-57.0","battery-v0.2","","""event"",""trial"",""time""
""fullscreenenter"",""1"",""4297""
""fullscreenexit"",""56"",""579833""
""blur"",""57"",""583203""
""focus"",""58"",""589889""
","""event"",""trial"",""time""
""blur"",""57"",""583203""
","""event"",""trial"",""time""
""focus"",""58"",""589889""
","""event"",""trial"",""time""
""fullscreenenter"",""1"",""4297""
","""event"",""trial"",""time""
""fullscreenexit"",""56"",""579833""
","","","-1","","","12","9995","4146","h","elianto","#f73b6a7A","-1","-1","1","-10","[]","0","2","","","9995","53","3","4","lose","no-go","1"
"pit-trial","176","1251934","0.0-58.0","battery-v0.2","","""event"",""trial"",""time""
""fullscreenenter"",""1"",""4297""
""fullscreenexit"",""56"",""579833""
""blur"",""57"",""583203""
""focus"",""58"",""589889""
","""event"",""trial"",""time""
""blur"",""57"",""583203""
","""event"",""trial"",""time""
""focus"",""58"",""589889""
","""event"",""trial"",""time""
""fullscreenenter"",""1"",""4297""
","""event"",""trial"",""time""
""fullscreenexit"",""56"",""579833""
