"trial_type","trial_index","time_elapsed","internal_node_id","task_version","subject_id","interactions","blur_events","focus_events","fullscreenenter_events","fullscreenexit_events","success","view_history","rt","responses","num_errors","age","subject","participantId","rune","rune_set","hex","correct","choice","accuracy","outcome","keys","total_keys","block","practice","value","sub","trial","stimulus","robot","valence","action","sham"
"pavlovia","0","5","0.0-0.0","battery-v0.2","","""event"",""trial"",""time""
""blur"",""1"",""7439""
""focus"",""1"",""9079""
""fullscreenenter"",""1"",""9151""
","""event"",""trial"",""time""
""blur"",""1"",""7439""
","""event"",""trial"",""time""
""focus"",""1"",""9079""
","""event"",""trial"",""time""
""fullscreenenter"",""1"",""9151""
","
","","","","","","","","","","","","","","","","","","","","","","","","","","",""
"fullscreen","1","10151","0.0-1.0","battery-v0.2","","""event"",""trial"",""time""
""blur"",""1"",""7439""
""focus"",""1"",""9079""
""fullscreenenter"",""1"",""9151""
","""event"",""trial"",""time""
""blur"",""1"",""7439""
","""event"",""trial"",""time""
""focus"",""1"",""9079""
","""event"",""trial"",""time""
""fullscreenenter"",""1"",""9151""
","
","true","","","","","","","","","","","","","","","","","","","","","","","","","",""
"pit-instructions","2","15312","0.0-2.0-0.0","battery-v0.2","","""event"",""trial"",""time""
""blur"",""1"",""7439""
""focus"",""1"",""9079""
""fullscreenenter"",""1"",""9151""
","""event"",""trial"",""time""
""blur"",""1"",""7439""
","""event"",""trial"",""time""
""focus"",""1"",""9079""
","""event"",""trial"",""time""
""fullscreenenter"",""1"",""9151""
","
","","[{""page_index"":0,""viewing_time"":5157.4000000059605}]","5157.9000000059605","","","","","","","","","","","","","","","","","","","","","","","",""
"pit-comprehension","3","17909","0.0-2.0-1.0-0.0","battery-v0.2","","""event"",""trial"",""time""
""blur"",""1"",""7439""
""focus"",""1"",""9079""
""fullscreenenter"",""1"",""9151""
","""event"",""trial"",""time""
""blur"",""1"",""7439""
","""event"",""trial"",""time""
""focus"",""1"",""9079""
","""event"",""trial"",""time""
""fullscreenenter"",""1"",""9151""
","
","","","2594.4000000059605","[""shark""]","0","13","19976","7314","","","","","","","","","","","","","","","","","","",""
"pit-instructions","4","18881","0.0-2.0-1.0-1.0","battery-v0.2","","""event"",""trial"",""time""
""blur"",""1"",""7439""
""focus"",""1"",""9079""
""fullscreenenter"",""1"",""9151""
","""event"",""trial"",""time""
""blur"",""1"",""7439""
","""event"",""trial"",""time""
""focus"",""1"",""9079""
","""event"",""trial"",""time""
""fullscreenenter"",""1"",""9151""
","
","","[{""page_index"":0,""viewing_time"":962.1999999880791}]","962.2999999821186","","","","","","","","","","","","","","","","","","","","","","","",""
"pit-comprehension","5","22341","0.0-2.0-2.0-0.0","battery-v0.2","","""event"",""trial"",""time""
""blur"",""1"",""7439""
""focus"",""1"",""9079""
""fullscreenenter"",""1"",""9151""
","""event"",""trial"",""time""
""blur"",""1"",""7439""
","""event"",""trial"",""time""
""focus"",""1"",""9079""
","""event"",""trial"",""time""
""fullscreenenter"",""1"",""9151""
","
","","","3457.399999976158","[""tiger""]","0","13","19976","7314","","","","","","","","","","","","","","","","","","",""
"pit-instructions","6","23253","0.0-2.0-2.0-1.0","battery-v0.2","","""event"",""trial"",""time""
""blur"",""1"",""7439""
""focus"",""1"",""9079""
""fullscreenenter"",""1"",""9151""
","""event"",""trial"",""time""
""blur"",""1"",""7439""
","""event"",""trial"",""time""
""focus"",""1"",""9079""
","""event"",""trial"",""time""
""fullscreenenter"",""1"",""9151""
","
","","[{""page_index"":0,""viewing_time"":910.0999999940395}]","910.2999999821186","","","","","","","","","","","","","","","","","","","","","","","",""
"pit-instructions","7","125778","0.0-2.0-3.0","battery-v0.2","","""event"",""trial"",""time""
""blur"",""1"",""7439""
""focus"",""1"",""9079""
""fullscreenenter"",""1"",""9151""
","""event"",""trial"",""time""
""blur"",""1"",""7439""
","""event"",""trial"",""time""
""focus"",""1"",""9079""
","""event"",""trial"",""time""
""fullscreenenter"",""1"",""9151""
","
","","[{""page_index"":0,""viewing_time"":10044.299999982119},{""page_index"":1,""viewing_time"":6610.800000011921},{""page_index"":2,""viewing_time"":8327.199999988079},{""page_index"":3,""viewing_time"":5423.100000023842},{""page_index"":4,""viewing_time"":5397.5},{""page_index"":5,""viewing_time"":6276.799999982119},{""page_index"":6,""viewing_time"":8932.59999999404},{""page_index"":7,""viewing_time"":6667.100000023842},{""page_index"":8,""viewing_time"":9452},{""page_index"":9,""viewing_time"":8037.299999982119},{""page_index"":10,""viewing_time"":7907.5999999940395},{""page_index"":11,""viewing_time"":6864.700000017881},{""page_index"":12,""viewing_time"":6753},{""page_index"":13,""viewing_time"":5827.699999988079}]","102522","","","","","","","","","","","","","","","","","","","","","","","",""
"pit-trial","8","128848","0.0-2.0-4.0-0.0","battery-v0.2","","""event"",""trial"",""time""
""blur"",""1"",""7439""
""focus"",""1"",""9079""
""fullscreenenter"",""1"",""9151""
","""event"",""trial"",""time""
""blur"",""1"",""7439""
","""event"",""trial"",""time""
""focus"",""1"",""9079""
","""event"",""trial"",""time""
""fullscreenenter"",""1"",""9151""
","
","","","211.2000000178814","","","13","19976","7314","&#9784;","elianto","#FFFFF080"," "," ","1","&#10004","[1064.9000000059605]","1","0","0","","","","","","","",""
"pit-trial","9","132196","0.0-2.0-4.1-0.1","battery-v0.2","","""event"",""trial"",""time""
""blur"",""1"",""7439""
""focus"",""1"",""9079""
""fullscreenenter"",""1"",""9151""
","""event"",""trial"",""time""
""blur"",""1"",""7439""
","""event"",""trial"",""time""
""focus"",""1"",""9079""
","""event"",""trial"",""time""
""fullscreenenter"",""1"",""9151""
","
","","","481.69999998807907","","","13","19976","7314","&#9784;","elianto","#FFFFF080"," "," ","1","&#10004","[1333]","1","0","0","","","","","","","",""
"pit-trial","10","135534","0.0-2.0-4.2-0.2","battery-v0.2","","""event"",""trial"",""time""
""blur"",""1"",""7439""
""focus"",""1"",""9079""
""fullscreenenter"",""1"",""9151""
","""event"",""trial"",""time""
""blur"",""1"",""7439""
","""event"",""trial"",""time""
""focus"",""1"",""9079""
","""event"",""trial"",""time""
""fullscreenenter"",""1"",""9151""
","
","","","467.80000001192093","","","13","19976","7314","&#9784;","elianto","#FFFFF080"," "," ","1","&#10004","[1322.4000000059605]","1","0","0","","","","","","","",""
"pit-trial","11","138964","0.0-2.0-4.3-0.3","battery-v0.2","","""event"",""trial"",""time""
""blur"",""1"",""7439""
""focus"",""1"",""9079""
""fullscreenenter"",""1"",""9151""
","""event"",""trial"",""time""
""blur"",""1"",""7439""
","""event"",""trial"",""time""
""focus"",""1"",""9079""
","""event"",""trial"",""time""
""fullscreenenter"",""1"",""9151""
","
","","","569.0999999940395","","","13","19976","7314","&#9784;","elianto","#FFFFF080"," "," ","1","&#10004","[1420.699999988079]","1","0","0","","","","","","","",""
"pit-trial","12","142346","0.0-2.0-4.4-0.4","battery-v0.2","","""event"",""trial"",""time""
""blur"",""1"",""7439""
""focus"",""1"",""9079""
""fullscreenenter"",""1"",""9151""
","""event"",""trial"",""time""
""blur"",""1"",""7439""
","""event"",""trial"",""time""
""focus"",""1"",""9079""
","""event"",""trial"",""time""
""fullscreenenter"",""1"",""9151""
","
","","","526.8999999761581","","","13","19976","7314","&#9784;","elianto","#FFFFF080"," "," ","1","&#10004","[1379.5999999940395]","1","0","0","","","","","","","",""
"pit-instructions","13","169286","0.0-2.0-5.0","battery-v0.2","","""event"",""trial"",""time""
""blur"",""1"",""7439""
""focus"",""1"",""9079""
""fullscreenenter"",""1"",""9151""
","""event"",""trial"",""time""
""blur"",""1"",""7439""
","""event"",""trial"",""time""
""focus"",""1"",""9079""
","""event"",""trial"",""time""
""fullscreenenter"",""1"",""9151""
","
","","[{""page_index"":0,""viewing_time"":8690.59999999404},{""page_index"":1,""viewing_time"":5621.4000000059605},{""page_index"":2,""viewing_time"":4729.800000011921},{""page_index"":3,""viewing_time"":7894.799999982119}]","26936.69999998808","","","","","","","","","","","","","","","","","","","","","","","",""
"pit-trial","14","174160","0.0-2.0-6.0-0.0","battery-v0.2","","""event"",""trial"",""time""
""blur"",""1"",""7439""
""focus"",""1"",""9079""
""fullscreenenter"",""1"",""9151""
","""event"",""trial"",""time""
""blur"",""1"",""7439""
","""event"",""trial"",""time""
""focus"",""1"",""9079""
","""event"",""trial"",""time""
""fullscreenenter"",""1"",""9151""
","
","","","-1","","","13","19976","7314","&#9854;","elianto","#FFFFF080","-1","-1","1","&#10004","[]","0","0","1","","","","","","","",""
"pit-trial","15","179030","0.0-2.0-6.1-0.1","battery-v0.2","","""event"",""trial"",""time""
""blur"",""1"",""7439""
""focus"",""1"",""9079""
""fullscreenenter"",""1"",""9151""
","""event"",""trial"",""time""
""blur"",""1"",""7439""
","""event"",""trial"",""time""
""focus"",""1"",""9079""
","""event"",""trial"",""time""
""fullscreenenter"",""1"",""9151""
","
","","","-1","","","13","19976","7314","&#9854;","elianto","#FFFFF080","-1","-1","1","&#10004","[]","0","0","1","","","","","","","",""
"pit-trial","16","183895","0.0-2.0-6.2-0.2","battery-v0.2","","""event"",""trial"",""time""
""blur"",""1"",""7439""
""focus"",""1"",""9079""
""fullscreenenter"",""1"",""9151""
","""event"",""trial"",""time""
""blur"",""1"",""7439""
","""event"",""trial"",""time""
""focus"",""1"",""9079""
","""event"",""trial"",""time""
""fullscreenenter"",""1"",""9151""
","
","","","-1","","","13","19976","7314","&#9854;","elianto","#FFFFF080","-1","-1","1","&#10004","[]","0","0","1","","","","","","","",""
"pit-trial","17","188758","0.0-2.0-6.3-0.3","battery-v0.2","","""event"",""trial"",""time""
""blur"",""1"",""7439""
""focus"",""1"",""9079""
""fullscreenenter"",""1"",""9151""
","""event"",""trial"",""time""
""blur"",""1"",""7439""
","""event"",""trial"",""time""
""focus"",""1"",""9079""
","""event"",""trial"",""time""
""fullscreenenter"",""1"",""9151""
","
","","","-1","","","13","19976","7314","&#9854;","elianto","#FFFFF080","-1","-1","1","&#10004","[]","0","0","1","","","","","","","",""
"pit-trial","18","193629","0.0-2.0-6.4-0.4","battery-v0.2","","""event"",""trial"",""time""
""blur"",""1"",""7439""
""focus"",""1"",""9079""
""fullscreenenter"",""1"",""9151""
","""event"",""trial"",""time""
""blur"",""1"",""7439""
","""event"",""trial"",""time""
""focus"",""1"",""9079""
","""event"",""trial"",""time""
""fullscreenenter"",""1"",""9151""
","
","","","-1","","","13","19976","7314","&#9854;","elianto","#FFFFF080","-1","-1","1","&#10004","[]","0","0","1","","","","","","","",""
"pit-instructions","19","318660","0.0-2.0-7.0","battery-v0.2","","""event"",""trial"",""time""
""blur"",""1"",""7439""
""focus"",""1"",""9079""
""fullscreenenter"",""1"",""9151""
","""event"",""trial"",""time""
""blur"",""1"",""7439""
","""event"",""trial"",""time""
""focus"",""1"",""9079""
","""event"",""trial"",""time""
""fullscreenenter"",""1"",""9151""
","
","","[{""page_index"":0,""viewing_time"":8246.699999988079},{""page_index"":1,""viewing_time"":8818},{""page_index"":2,""viewing_time"":5154.300000011921},{""page_index"":3,""viewing_time"":9197.5},{""page_index"":4,""viewing_time"":5655},{""page_index"":5,""viewing_time"":5107.299999982119},{""page_index"":6,""viewing_time"":5149.300000011921},{""page_index"":7,""viewing_time"":8010.5},{""page_index"":8,""viewing_time"":6484.799999982119},{""page_index"":9,""viewing_time"":5615},{""page_index"":10,""viewing_time"":10109.100000023842},{""page_index"":11,""viewing_time"":4334.899999976158},{""page_index"":12,""viewing_time"":6753.9000000059605},{""page_index"":13,""viewing_time"":7734.4000000059605},{""page_index"":14,""viewing_time"":7320.300000011921},{""page_index"":15,""viewing_time"":6103.799999982119},{""page_index"":16,""viewing_time"":6251.800000011921},{""page_index"":17,""viewing_time"":8981.699999988079}]","125028.59999999404","","","","","","","","","","","","","","","","","","","","","","","",""
"pit-trial","20","322337","0.0-2.0-8.0-0.0","battery-v0.2","","""event"",""trial"",""time""
""blur"",""1"",""7439""
""focus"",""1"",""9079""
""fullscreenenter"",""1"",""9151""
","""event"",""trial"",""time""
""blur"",""1"",""7439""
","""event"",""trial"",""time""
""focus"",""1"",""9079""
","""event"",""trial"",""time""
""fullscreenenter"",""1"",""9151""
","
","","","812.0999999940395","","","13","19976","7314","&#9776;","elianto","#3366ff99"," "," ","1","+10","[1674.5999999940395]","1","0","1","","","","","","","",""
"pit-trial","21","325685","0.0-2.0-8.0-1.0","battery-v0.2","","""event"",""trial"",""time""
""blur"",""1"",""7439""
""focus"",""1"",""9079""
""fullscreenenter"",""1"",""9151""
","""event"",""trial"",""time""
""blur"",""1"",""7439""
","""event"",""trial"",""time""
""focus"",""1"",""9079""
","""event"",""trial"",""time""
""fullscreenenter"",""1"",""9151""
","
","","","488.90000000596046","","","13","19976","7314","&#9776;","elianto","#3366ff99"," "," ","1","+10","[1343.4000000059605]","1","0","1","","","","","","","",""
"pit-trial","22","329279","0.0-2.0-8.0-2.0","battery-v0.2","","""event"",""trial"",""time""
""blur"",""1"",""7439""
""focus"",""1"",""9079""
""fullscreenenter"",""1"",""9151""
","""event"",""trial"",""time""
""blur"",""1"",""7439""
","""event"",""trial"",""time""
""focus"",""1"",""9079""
","""event"",""trial"",""time""
""fullscreenenter"",""1"",""9151""
","
","","","737.2999999821186","","","13","19976","7314","&#9776;","elianto","#3366ff99"," "," ","1","+10","[1588.5999999940395]","1","0","1","","","","","","","",""
"pit-trial","23","332550","0.0-2.0-8.0-3.0","battery-v0.2","","""event"",""trial"",""time""
""blur"",""1"",""7439""
""focus"",""1"",""9079""
""fullscreenenter"",""1"",""9151""
","""event"",""trial"",""time""
""blur"",""1"",""7439""
","""event"",""trial"",""time""
""focus"",""1"",""9079""
","""event"",""trial"",""time""
""fullscreenenter"",""1"",""9151""
","
","","","405","","","13","19976","7314","&#9776;","elianto","#3366ff99"," "," ","1","0","[1255.4000000059605]","1","0","1","","","","","","","",""
"pit-trial","24","335816","0.0-2.0-8.0-4.0","battery-v0.2","","""event"",""trial"",""time""
""blur"",""1"",""7439""
""focus"",""1"",""9079""
""fullscreenenter"",""1"",""9151""
","""event"",""trial"",""time""
""blur"",""1"",""7439""
","""event"",""trial"",""time""
""focus"",""1"",""9079""
","""event"",""trial"",""time""
""fullscreenenter"",""1"",""9151""
","
","","","409.09999999403954","","","13","19976","7314","&#9776;","elianto","#3366ff99"," "," ","1","+10","[1262.800000011921]","1","0","1","","","","","","","",""
"pit-trial","25","339139","0.0-2.0-8.1-0.1","battery-v0.2","","""event"",""trial"",""time""
""blur"",""1"",""7439""
""focus"",""1"",""9079""
""fullscreenenter"",""1"",""9151""
","""event"",""trial"",""time""
""blur"",""1"",""7439""
","""event"",""trial"",""time""
""focus"",""1"",""9079""
","""event"",""trial"",""time""
""fullscreenenter"",""1"",""9151""
","
","","","458.69999998807907","","","13","19976","7314","&#9776;","elianto","#3366ff99"," "," ","1","+10","[1311.699999988079]","1","0","1","","","","","","","",""
"pit-trial","26","342599","0.0-2.0-8.1-1.1","battery-v0.2","","""event"",""trial"",""time""
""blur"",""1"",""7439""
""focus"",""1"",""9079""
""fullscreenenter"",""1"",""9151""
","""event"",""trial"",""time""
""blur"",""1"",""7439""
","""event"",""trial"",""time""
""focus"",""1"",""9079""
","""event"",""trial"",""time""
""fullscreenenter"",""1"",""9151""
","
","","","604.5","","","13","19976","7314","&#9776;","elianto","#3366ff99"," "," ","1","+10","[1454.800000011921]","1","0","1","","","","","","","",""
"pit-trial","27","345992","0.0-2.0-8.1-2.1","battery-v0.2","","""event"",""trial"",""time""
""blur"",""1"",""7439""
""focus"",""1"",""9079""
""fullscreenenter"",""1"",""9151""
","""event"",""trial"",""time""
""blur"",""1"",""7439""
","""event"",""trial"",""time""
""focus"",""1"",""9079""
","""event"",""trial"",""time""
""fullscreenenter"",""1"",""9151""
","
","","","540.9000000059605","","","13","19976","7314","&#9776;","elianto","#3366ff99"," "," ","1","+10","[1390.9000000059605]","1","0","1","","","","","","","",""
"pit-trial","28","349316","0.0-2.0-8.1-3.1","battery-v0.2","","""event"",""trial"",""time""
""blur"",""1"",""7439""
""focus"",""1"",""9079""
""fullscreenenter"",""1"",""9151""
","""event"",""trial"",""time""
""blur"",""1"",""7439""
","""event"",""trial"",""time""
""focus"",""1"",""9079""
","""event"",""trial"",""time""
""fullscreenenter"",""1"",""9151""
","
","","","471","","","13","19976","7314","&#9776;","elianto","#3366ff99"," "," ","1","0","[1321.5999999940395]","1","0","1","","","","","","","",""
"pit-trial","29","352592","0.0-2.0-8.1-4.1","battery-v0.2","","""event"",""trial"",""time""
""blur"",""1"",""7439""
""focus"",""1"",""9079""
""fullscreenenter"",""1"",""9151""
","""event"",""trial"",""time""
""blur"",""1"",""7439""
","""event"",""trial"",""time""
""focus"",""1"",""9079""
","""event"",""trial"",""time""
""fullscreenenter"",""1"",""9151""
","
","","","423.7000000178814","","","13","19976","7314","&#9776;","elianto","#3366ff99"," "," ","1","+10","[1274.2000000178814]","1","0","1","","","","","","","",""
"pit-trial","30","355991","0.0-2.0-8.2-0.2","battery-v0.2","","""event"",""trial"",""time""
""blur"",""1"",""7439""
""focus"",""1"",""9079""
""fullscreenenter"",""1"",""9151""
","""event"",""trial"",""time""
""blur"",""1"",""7439""
","""event"",""trial"",""time""
""focus"",""1"",""9079""
","""event"",""trial"",""time""
""fullscreenenter"",""1"",""9151""
","
","","","535.5","","","13","19976","7314","&#9776;","elianto","#3366ff99"," "," ","1","+10","[1396.5]","1","0","1","","","","","","","",""
"pit-trial","31","359344","0.0-2.0-8.2-1.2","battery-v0.2","","""event"",""trial"",""time""
""blur"",""1"",""7439""
""focus"",""1"",""9079""
""fullscreenenter"",""1"",""9151""
","""event"",""trial"",""time""
""blur"",""1"",""7439""
","""event"",""trial"",""time""
""focus"",""1"",""9079""
","""event"",""trial"",""time""
""fullscreenenter"",""1"",""9151""
","
","","","499.89999997615814","","","13","19976","7314","&#9776;","elianto","#3366ff99"," "," ","1","+10","[1350.5999999940395]","1","0","1","","","","","","","",""
"pit-trial","32","362696","0.0-2.0-8.2-2.2","battery-v0.2","","""event"",""trial"",""time""
""blur"",""1"",""7439""
""focus"",""1"",""9079""
""fullscreenenter"",""1"",""9151""
","""event"",""trial"",""time""
""blur"",""1"",""7439""
","""event"",""trial"",""time""
""focus"",""1"",""9079""
","""event"",""trial"",""time""
""fullscreenenter"",""1"",""9151""
","
","","","497.69999998807907","","","13","19976","7314","&#9776;","elianto","#3366ff99"," "," ","1","+10","[1349.300000011921]","1","0","1","","","","","","","",""
"pit-trial","33","366019","0.0-2.0-8.2-3.2","battery-v0.2","","""event"",""trial"",""time""
""blur"",""1"",""7439""
""focus"",""1"",""9079""
""fullscreenenter"",""1"",""9151""
","""event"",""trial"",""time""
""blur"",""1"",""7439""
","""event"",""trial"",""time""
""focus"",""1"",""9079""
","""event"",""trial"",""time""
""fullscreenenter"",""1"",""9151""
","
","","","470.30000001192093","","","13","19976","7314","&#9776;","elianto","#3366ff99"," "," ","1","0","[1320.5]","1","0","1","","","","","","","",""
"pit-trial","34","369184","0.0-2.0-8.2-4.2","battery-v0.2","","""event"",""trial"",""time""
""blur"",""1"",""7439""
""focus"",""1"",""9079""
""fullscreenenter"",""1"",""9151""
","""event"",""trial"",""time""
""blur"",""1"",""7439""
","""event"",""trial"",""time""
""focus"",""1"",""9079""
","""event"",""trial"",""time""
""fullscreenenter"",""1"",""9151""
","
","","","311.90000000596046","","","13","19976","7314","&#9776;","elianto","#3366ff99"," "," ","1","+10","[1162.9000000059605]","1","0","1","","","","","","","",""
"call-function","35","369185","0.0-2.0-9.0","battery-v0.2","","""event"",""trial"",""time""
""blur"",""1"",""7439""
""focus"",""1"",""9079""
""fullscreenenter"",""1"",""9151""
","""event"",""trial"",""time""
""blur"",""1"",""7439""
","""event"",""trial"",""time""
""focus"",""1"",""9079""
","""event"",""trial"",""time""
""fullscreenenter"",""1"",""9151""
","
","","","","","","","","","","","","","","","","","","","","","","","","","","",""
"pit-instructions","36","410688","0.0-2.0-10.0","battery-v0.2","","""event"",""trial"",""time""
""blur"",""1"",""7439""
""focus"",""1"",""9079""
""fullscreenenter"",""1"",""9151""
","""event"",""trial"",""time""
""blur"",""1"",""7439""
","""event"",""trial"",""time""
""focus"",""1"",""9079""
","""event"",""trial"",""time""
""fullscreenenter"",""1"",""9151""
","
","","[{""page_index"":0,""viewing_time"":7526.4000000059605},{""page_index"":1,""viewing_time"":6645.299999982119},{""page_index"":2,""viewing_time"":9392.200000017881},{""page_index"":3,""viewing_time"":10083},{""page_index"":4,""viewing_time"":7854.9000000059605}]","41502","","","","","","","","","","","","","","","","","","","","","","","",""
"pit-trial","37","415562","0.0-2.0-11.0-0.0","battery-v0.2","","""event"",""trial"",""time""
""blur"",""1"",""7439""
""focus"",""1"",""9079""
""fullscreenenter"",""1"",""9151""
","""event"",""trial"",""time""
""blur"",""1"",""7439""
","""event"",""trial"",""time""
""focus"",""1"",""9079""
","""event"",""trial"",""time""
""fullscreenenter"",""1"",""9151""
","
","","","-1","","","13","19976","7314","&#9761;","elianto","#3366ff99","-1","-1","1","+10","[]","0","0","2","","","","","","","",""
"pit-trial","38","420431","0.0-2.0-11.0-1.0","battery-v0.2","","""event"",""trial"",""time""
""blur"",""1"",""7439""
""focus"",""1"",""9079""
""fullscreenenter"",""1"",""9151""
","""event"",""trial"",""time""
""blur"",""1"",""7439""
","""event"",""trial"",""time""
""focus"",""1"",""9079""
","""event"",""trial"",""time""
""fullscreenenter"",""1"",""9151""
","
","","","-1","","","13","19976","7314","&#9761;","elianto","#3366ff99","-1","-1","1","+10","[]","0","0","2","","","","","","","",""
"pit-trial","39","425289","0.0-2.0-11.0-2.0","battery-v0.2","","""event"",""trial"",""time""
""blur"",""1"",""7439""
""focus"",""1"",""9079""
""fullscreenenter"",""1"",""9151""
","""event"",""trial"",""time""
""blur"",""1"",""7439""
","""event"",""trial"",""time""
""focus"",""1"",""9079""
","""event"",""trial"",""time""
""fullscreenenter"",""1"",""9151""
","
","","","-1","","","13","19976","7314","&#9761;","elianto","#3366ff99","-1","-1","1","+10","[]","0","0","2","","","","","","","",""
"pit-trial","40","430161","0.0-2.0-11.0-3.0","battery-v0.2","","""event"",""trial"",""time""
""blur"",""1"",""7439""
""focus"",""1"",""9079""
""fullscreenenter"",""1"",""9151""
","""event"",""trial"",""time""
""blur"",""1"",""7439""
","""event"",""trial"",""time""
""focus"",""1"",""9079""
","""event"",""trial"",""time""
""fullscreenenter"",""1"",""9151""
","
","","","-1","","","13","19976","7314","&#9761;","elianto","#3366ff99","-1","-1","1","0","[]","0","0","2","","","","","","","",""
"pit-trial","41","435025","0.0-2.0-11.0-4.0","battery-v0.2","","""event"",""trial"",""time""
""blur"",""1"",""7439""
""focus"",""1"",""9079""
""fullscreenenter"",""1"",""9151""
","""event"",""trial"",""time""
""blur"",""1"",""7439""
","""event"",""trial"",""time""
""focus"",""1"",""9079""
","""event"",""trial"",""time""
""fullscreenenter"",""1"",""9151""
","
","","","-1","","","13","19976","7314","&#9761;","elianto","#3366ff99","-1","-1","1","+10","[]","0","0","2","","","","","","","",""
"pit-trial","42","439896","0.0-2.0-11.1-0.1","battery-v0.2","","""event"",""trial"",""time""
""blur"",""1"",""7439""
""focus"",""1"",""9079""
""fullscreenenter"",""1"",""9151""
","""event"",""trial"",""time""
""blur"",""1"",""7439""
","""event"",""trial"",""time""
""focus"",""1"",""9079""
","""event"",""trial"",""time""
""fullscreenenter"",""1"",""9151""
","
","","","-1","","","13","19976","7314","&#9761;","elianto","#3366ff99","-1","-1","1","+10","[]","0","0","2","","","","","","","",""
"pit-trial","43","444749","0.0-2.0-11.1-1.1","battery-v0.2","","""event"",""trial"",""time""
""blur"",""1"",""7439""
""focus"",""1"",""9079""
""fullscreenenter"",""1"",""9151""
","""event"",""trial"",""time""
""blur"",""1"",""7439""
","""event"",""trial"",""time""
""focus"",""1"",""9079""
","""event"",""trial"",""time""
""fullscreenenter"",""1"",""9151""
","
","","","-1","","","13","19976","7314","&#9761;","elianto","#3366ff99","-1","-1","1","+10","[]","0","0","2","","","","","","","",""
"pit-trial","44","449602","0.0-2.0-11.1-2.1","battery-v0.2","","""event"",""trial"",""time""
""blur"",""1"",""7439""
""focus"",""1"",""9079""
""fullscreenenter"",""1"",""9151""
","""event"",""trial"",""time""
""blur"",""1"",""7439""
","""event"",""trial"",""time""
""focus"",""1"",""9079""
","""event"",""trial"",""time""
""fullscreenenter"",""1"",""9151""
","
","","","-1","","","13","19976","7314","&#9761;","elianto","#3366ff99","-1","-1","1","+10","[]","0","0","2","","","","","","","",""
"pit-trial","45","454455","0.0-2.0-11.1-3.1","battery-v0.2","","""event"",""trial"",""time""
""blur"",""1"",""7439""
""focus"",""1"",""9079""
""fullscreenenter"",""1"",""9151""
","""event"",""trial"",""time""
""blur"",""1"",""7439""
","""event"",""trial"",""time""
""focus"",""1"",""9079""
","""event"",""trial"",""time""
""fullscreenenter"",""1"",""9151""
","
","","","-1","","","13","19976","7314","&#9761;","elianto","#3366ff99","-1","-1","1","0","[]","0","0","2","","","","","","","",""
"pit-trial","46","459307","0.0-2.0-11.1-4.1","battery-v0.2","","""event"",""trial"",""time""
""blur"",""1"",""7439""
""focus"",""1"",""9079""
""fullscreenenter"",""1"",""9151""
","""event"",""trial"",""time""
""blur"",""1"",""7439""
","""event"",""trial"",""time""
""focus"",""1"",""9079""
","""event"",""trial"",""time""
""fullscreenenter"",""1"",""9151""
","
","","","-1","","","13","19976","7314","&#9761;","elianto","#3366ff99","-1","-1","1","+10","[]","0","0","2","","","","","","","",""
"pit-trial","47","464160","0.0-2.0-11.2-0.2","battery-v0.2","","""event"",""trial"",""time""
""blur"",""1"",""7439""
""focus"",""1"",""9079""
""fullscreenenter"",""1"",""9151""
","""event"",""trial"",""time""
""blur"",""1"",""7439""
","""event"",""trial"",""time""
""focus"",""1"",""9079""
","""event"",""trial"",""time""
""fullscreenenter"",""1"",""9151""
","
","","","-1","","","13","19976","7314","&#9761;","elianto","#3366ff99","-1","-1","1","+10","[]","0","0","2","","","","","","","",""
"pit-trial","48","469013","0.0-2.0-11.2-1.2","battery-v0.2","","""event"",""trial"",""time""
""blur"",""1"",""7439""
""focus"",""1"",""9079""
""fullscreenenter"",""1"",""9151""
","""event"",""trial"",""time""
""blur"",""1"",""7439""
","""event"",""trial"",""time""
""focus"",""1"",""9079""
","""event"",""trial"",""time""
""fullscreenenter"",""1"",""9151""
","
","","","-1","","","13","19976","7314","&#9761;","elianto","#3366ff99","-1","-1","1","+10","[]","0","0","2","","","","","","","",""
"pit-trial","49","473865","0.0-2.0-11.2-2.2","battery-v0.2","","""event"",""trial"",""time""
""blur"",""1"",""7439""
""focus"",""1"",""9079""
""fullscreenenter"",""1"",""9151""
","""event"",""trial"",""time""
""blur"",""1"",""7439""
","""event"",""trial"",""time""
""focus"",""1"",""9079""
","""event"",""trial"",""time""
""fullscreenenter"",""1"",""9151""
","
","","","-1","","","13","19976","7314","&#9761;","elianto","#3366ff99","-1","-1","1","+10","[]","0","0","2","","","","","","","",""
"pit-trial","50","478731","0.0-2.0-11.2-3.2","battery-v0.2","","""event"",""trial"",""time""
""blur"",""1"",""7439""
""focus"",""1"",""9079""
""fullscreenenter"",""1"",""9151""
","""event"",""trial"",""time""
""blur"",""1"",""7439""
","""event"",""trial"",""time""
""focus"",""1"",""9079""
","""event"",""trial"",""time""
""fullscreenenter"",""1"",""9151""
","
","","","-1","","","13","19976","7314","&#9761;","elianto","#3366ff99","-1","-1","1","0","[]","0","0","2","","","","","","","",""
"pit-trial","51","483585","0.0-2.0-11.2-4.2","battery-v0.2","","""event"",""trial"",""time""
""blur"",""1"",""7439""
""focus"",""1"",""9079""
""fullscreenenter"",""1"",""9151""
","""event"",""trial"",""time""
""blur"",""1"",""7439""
","""event"",""trial"",""time""
""focus"",""1"",""9079""
","""event"",""trial"",""time""
""fullscreenenter"",""1"",""9151""
","
","","","-1","","","13","19976","7314","&#9761;","elianto","#3366ff99","-1","-1","1","+10","[]","0","0","2","","","","","","","",""
"pit-trial","52","488437","0.0-2.0-11.3-0.3","battery-v0.2","","""event"",""trial"",""time""
""blur"",""1"",""7439""
""focus"",""1"",""9079""
""fullscreenenter"",""1"",""9151""
","""event"",""trial"",""time""
""blur"",""1"",""7439""
","""event"",""trial"",""time""
""focus"",""1"",""9079""
","""event"",""trial"",""time""
""fullscreenenter"",""1"",""9151""
","
","","","-1","","","13","19976","7314","&#9761;","elianto","#3366ff99","-1","-1","1","+10","[]","0","0","2","","","","","","","",""
"pit-trial","53","493291","0.0-2.0-11.3-1.3","battery-v0.2","","""event"",""trial"",""time""
""blur"",""1"",""7439""
""focus"",""1"",""9079""
""fullscreenenter"",""1"",""9151""
","""event"",""trial"",""time""
""blur"",""1"",""7439""
","""event"",""trial"",""time""
""focus"",""1"",""9079""
","""event"",""trial"",""time""
""fullscreenenter"",""1"",""9151""
","
","","","-1","","","13","19976","7314","&#9761;","elianto","#3366ff99","-1","-1","1","+10","[]","0","0","2","","","","","","","",""
"pit-trial","54","498144","0.0-2.0-11.3-2.3","battery-v0.2","","""event"",""trial"",""time""
""blur"",""1"",""7439""
""focus"",""1"",""9079""
""fullscreenenter"",""1"",""9151""
","""event"",""trial"",""time""
""blur"",""1"",""7439""
","""event"",""trial"",""time""
""focus"",""1"",""9079""
","""event"",""trial"",""time""
""fullscreenenter"",""1"",""9151""
","
","","","-1","","","13","19976","7314","&#9761;","elianto","#3366ff99","-1","-1","1","+10","[]","0","0","2","","","","","","","",""
"pit-trial","55","502997","0.0-2.0-11.3-3.3","battery-v0.2","","""event"",""trial"",""time""
""blur"",""1"",""7439""
""focus"",""1"",""9079""
""fullscreenenter"",""1"",""9151""
","""event"",""trial"",""time""
""blur"",""1"",""7439""
","""event"",""trial"",""time""
""focus"",""1"",""9079""
","""event"",""trial"",""time""
""fullscreenenter"",""1"",""9151""
","
","","","-1","","","13","19976","7314","&#9761;","elianto","#3366ff99","-1","-1","1","0","[]","0","0","2","","","","","","","",""
"pit-trial","56","507851","0.0-2.0-11.3-4.3","battery-v0.2","","""event"",""trial"",""time""
""blur"",""1"",""7439""
""focus"",""1"",""9079""
""fullscreenenter"",""1"",""9151""
","""event"",""trial"",""time""
""blur"",""1"",""7439""
","""event"",""trial"",""time""
""focus"",""1"",""9079""
","""event"",""trial"",""time""
""fullscreenenter"",""1"",""9151""
","
","","","-1","","","13","19976","7314","&#9761;","elianto","#3366ff99","-1","-1","1","+10","[]","0","0","2","","","","","","","",""
"call-function","57","507852","0.0-2.0-12.0","battery-v0.2","","""event"",""trial"",""time""
""blur"",""1"",""7439""
""focus"",""1"",""9079""
""fullscreenenter"",""1"",""9151""
","""event"",""trial"",""time""
""blur"",""1"",""7439""
","""event"",""trial"",""time""
""focus"",""1"",""9079""
","""event"",""trial"",""time""
""fullscreenenter"",""1"",""9151""
","
","","","","","","","","","","","","","","","","","","","","","","","","","","",""
"pit-instructions","58","546047","0.0-2.0-13.0","battery-v0.2","","""event"",""trial"",""time""
""blur"",""1"",""7439""
""focus"",""1"",""9079""
""fullscreenenter"",""1"",""9151""
","""event"",""trial"",""time""
""blur"",""1"",""7439""
","""event"",""trial"",""time""
""focus"",""1"",""9079""
","""event"",""trial"",""time""
""fullscreenenter"",""1"",""9151""
","
","","[{""page_index"":0,""viewing_time"":7235.0999999940395},{""page_index"":1,""viewing_time"":10009.40000000596},{""page_index"":2,""viewing_time"":4734},{""page_index"":3,""viewing_time"":10326.90000000596},{""page_index"":4,""viewing_time"":5888.5}]","38194.19999998808","","","","","","","","","","","","","","","","","","","","","","","",""
"pit-trial","59","550727","0.0-2.0-14.0-0.0","battery-v0.2","","""event"",""trial"",""time""
""blur"",""1"",""7439""
""focus"",""1"",""9079""
""fullscreenenter"",""1"",""9151""
","""event"",""trial"",""time""
""blur"",""1"",""7439""
","""event"",""trial"",""time""
""focus"",""1"",""9079""
","""event"",""trial"",""time""
""fullscreenenter"",""1"",""9151""
","
","","","1811.9000000059605","","","13","19976","7314","&#9826;","elianto","#f73b6a7A","-1"," ","0","-10","[2670.5999999940395]","1","0","3","","","","","","","",""
"pit-trial","60","554171","0.0-2.0-14.0-1.0","battery-v0.2","","""event"",""trial"",""time""
""blur"",""1"",""7439""
""focus"",""1"",""9079""
""fullscreenenter"",""1"",""9151""
","""event"",""trial"",""time""
""blur"",""1"",""7439""
","""event"",""trial"",""time""
""focus"",""1"",""9079""
","""event"",""trial"",""time""
""fullscreenenter"",""1"",""9151""
","
","","","589.1999999880791","","","13","19976","7314","&#9826;","elianto","#f73b6a7A","-1"," ","0","-10","[442.09999999403954,1439.5999999940395]","2","0","3","","","","","","","",""
"pit-trial","61","559032","0.0-2.0-14.0-2.0","battery-v0.2","","""event"",""trial"",""time""
""blur"",""1"",""7439""
""focus"",""1"",""9079""
""fullscreenenter"",""1"",""9151""
","""event"",""trial"",""time""
""blur"",""1"",""7439""
","""event"",""trial"",""time""
""focus"",""1"",""9079""
","""event"",""trial"",""time""
""fullscreenenter"",""1"",""9151""
","
","","","-1","","","13","19976","7314","&#9826;","elianto","#f73b6a7A","-1","-1","1","0","[]","0","0","3","","","","","","","",""
"pit-trial","62","563898","0.0-2.0-14.0-3.0","battery-v0.2","","""event"",""trial"",""time""
""blur"",""1"",""7439""
""focus"",""1"",""9079""
""fullscreenenter"",""1"",""9151""
","""event"",""trial"",""time""
""blur"",""1"",""7439""
","""event"",""trial"",""time""
""focus"",""1"",""9079""
","""event"",""trial"",""time""
""fullscreenenter"",""1"",""9151""
","
","","","-1","","","13","19976","7314","&#9826;","elianto","#f73b6a7A","-1","-1","1","-10","[]","0","0","3","","","","","","","",""
"pit-trial","63","568765","0.0-2.0-14.0-4.0","battery-v0.2","","""event"",""trial"",""time""
""blur"",""1"",""7439""
""focus"",""1"",""9079""
""fullscreenenter"",""1"",""9151""
","""event"",""trial"",""time""
""blur"",""1"",""7439""
","""event"",""trial"",""time""
""focus"",""1"",""9079""
","""event"",""trial"",""time""
""fullscreenenter"",""1"",""9151""
","
","","","-1","","","13","19976","7314","&#9826;","elianto","#f73b6a7A","-1","-1","1","0","[]","0","0","3","","","","","","","",""
"pit-trial","64","573633","0.0-2.0-14.1-0.1","battery-v0.2","","""event"",""trial"",""time""
""blur"",""1"",""7439""
""focus"",""1"",""9079""
""fullscreenenter"",""1"",""9151""
","""event"",""trial"",""time""
""blur"",""1"",""7439""
","""event"",""trial"",""time""
""focus"",""1"",""9079""
","""event"",""trial"",""time""
""fullscreenenter"",""1"",""9151""
","
","","","-1","","","13","19976","7314","&#9826;","elianto","#f73b6a7A","-1","-1","1","0","[]","0","0","3","","","","","","","",""
"pit-trial","65","578486","0.0-2.0-14.1-1.1","battery-v0.2","","""event"",""trial"",""time""
""blur"",""1"",""7439""
""focus"",""1"",""9079""
""fullscreenenter"",""1"",""9151""
","""event"",""trial"",""time""
""blur"",""1"",""7439""
","""event"",""trial"",""time""
""focus"",""1"",""9079""
","""event"",""trial"",""time""
""fullscreenenter"",""1"",""9151""
","
","","","-1","","","13","19976","7314","&#9826;","elianto","#f73b6a7A","-1","-1","1","0","[]","0","0","3","","","","","","","",""
"pit-trial","66","583340","0.0-2.0-14.1-2.1","battery-v0.2","","""event"",""trial"",""time""
""blur"",""1"",""7439""
""focus"",""1"",""9079""
""fullscreenenter"",""1"",""9151""
","""event"",""trial"",""time""
""blur"",""1"",""7439""
","""event"",""trial"",""time""
""focus"",""1"",""9079""
","""event"",""trial"",""time""
""fullscreenenter"",""1"",""9151""
","
","","","-1","","","13","19976","7314","&#9826;","elianto","#f73b6a7A","-1","-1","1","0","[]","0","0","3","","","","","","","",""
"pit-trial","67","588193","0.0-2.0-14.1-3.1","battery-v0.2","","""event"",""trial"",""time""
""blur"",""1"",""7439""
""focus"",""1"",""9079""
""fullscreenenter"",""1"",""9151""
","""event"",""trial"",""time""
""blur"",""1"",""7439""
","""event"",""trial"",""time""
""focus"",""1"",""9079""
","""event"",""trial"",""time""
""fullscreenenter"",""1"",""9151""
","
","","","-1","","","13","19976","7314","&#9826;","elianto","#f73b6a7A","-1","-1","1","-10","[]","0","0","3","","","","","","","",""
"pit-trial","68","593047","0.0-2.0-14.1-4.1","battery-v0.2","","""event"",""trial"",""time""
""blur"",""1"",""7439""
""focus"",""1"",""9079""
""fullscreenenter"",""1"",""9151""
","""event"",""trial"",""time""
""blur"",""1"",""7439""
","""event"",""trial"",""time""
""focus"",""1"",""9079""
","""event"",""trial"",""time""
""fullscreenenter"",""1"",""9151""
","
","","","-1","","","13","19976","7314","&#9826;","elianto","#f73b6a7A","-1","-1","1","0","[]","0","0","3","","","","","","","",""
"pit-trial","69","597899","0.0-2.0-14.2-0.2","battery-v0.2","","""event"",""trial"",""time""
""blur"",""1"",""7439""
""focus"",""1"",""9079""
""fullscreenenter"",""1"",""9151""
","""event"",""trial"",""time""
""blur"",""1"",""7439""
","""event"",""trial"",""time""
""focus"",""1"",""9079""
","""event"",""trial"",""time""
""fullscreenenter"",""1"",""9151""
","
","","","-1","","","13","19976","7314","&#9826;","elianto","#f73b6a7A","-1","-1","1","0","[]","0","0","3","","","","","","","",""
"pit-trial","70","602753","0.0-2.0-14.2-1.2","battery-v0.2","","""event"",""trial"",""time""
""blur"",""1"",""7439""
""focus"",""1"",""9079""
""fullscreenenter"",""1"",""9151""
","""event"",""trial"",""time""
""blur"",""1"",""7439""
","""event"",""trial"",""time""
""focus"",""1"",""9079""
","""event"",""trial"",""time""
""fullscreenenter"",""1"",""9151""
","
","","","-1","","","13","19976","7314","&#9826;","elianto","#f73b6a7A","-1","-1","1","0","[]","0","0","3","","","","","","","",""
"pit-trial","71","607605","0.0-2.0-14.2-2.2","battery-v0.2","","""event"",""trial"",""time""
""blur"",""1"",""7439""
""focus"",""1"",""9079""
""fullscreenenter"",""1"",""9151""
","""event"",""trial"",""time""
""blur"",""1"",""7439""
","""event"",""trial"",""time""
""focus"",""1"",""9079""
","""event"",""trial"",""time""
""fullscreenenter"",""1"",""9151""
","
","","","-1","","","13","19976","7314","&#9826;","elianto","#f73b6a7A","-1","-1","1","0","[]","0","0","3","","","","","","","",""
"pit-trial","72","612458","0.0-2.0-14.2-3.2","battery-v0.2","","""event"",""trial"",""time""
""blur"",""1"",""7439""
""focus"",""1"",""9079""
""fullscreenenter"",""1"",""9151""
","""event"",""trial"",""time""
""blur"",""1"",""7439""
","""event"",""trial"",""time""
""focus"",""1"",""9079""
","""event"",""trial"",""time""
""fullscreenenter"",""1"",""9151""
","
","","","-1","","","13","19976","7314","&#9826;","elianto","#f73b6a7A","-1","-1","1","-10","[]","0","0","3","","","","","","","",""
"pit-trial","73","617311","0.0-2.0-14.2-4.2","battery-v0.2","","""event"",""trial"",""time""
""blur"",""1"",""7439""
""focus"",""1"",""9079""
""fullscreenenter"",""1"",""9151""
","""event"",""trial"",""time""
""blur"",""1"",""7439""
","""event"",""trial"",""time""
""focus"",""1"",""9079""
","""event"",""trial"",""time""
""fullscreenenter"",""1"",""9151""
","
","","","-1","","","13","19976","7314","&#9826;","elianto","#f73b6a7A","-1","-1","1","0","[]","0","0","3","","","","","","","",""
"pit-trial","74","622164","0.0-2.0-14.3-0.3","battery-v0.2","","""event"",""trial"",""time""
""blur"",""1"",""7439""
""focus"",""1"",""9079""
""fullscreenenter"",""1"",""9151""
","""event"",""trial"",""time""
""blur"",""1"",""7439""
","""event"",""trial"",""time""
""focus"",""1"",""9079""
","""event"",""trial"",""time""
""fullscreenenter"",""1"",""9151""
","
","","","-1","","","13","19976","7314","&#9826;","elianto","#f73b6a7A","-1","-1","1","0","[]","0","0","3","","","","","","","",""
"pit-trial","75","627017","0.0-2.0-14.3-1.3","battery-v0.2","","""event"",""trial"",""time""
""blur"",""1"",""7439""
""focus"",""1"",""9079""
""fullscreenenter"",""1"",""9151""
","""event"",""trial"",""time""
""blur"",""1"",""7439""
","""event"",""trial"",""time""
""focus"",""1"",""9079""
","""event"",""trial"",""time""
""fullscreenenter"",""1"",""9151""
","
","","","-1","","","13","19976","7314","&#9826;","elianto","#f73b6a7A","-1","-1","1","0","[]","0","0","3","","","","","","","",""
"pit-trial","76","631871","0.0-2.0-14.3-2.3","battery-v0.2","","""event"",""trial"",""time""
""blur"",""1"",""7439""
""focus"",""1"",""9079""
""fullscreenenter"",""1"",""9151""
","""event"",""trial"",""time""
""blur"",""1"",""7439""
","""event"",""trial"",""time""
""focus"",""1"",""9079""
","""event"",""trial"",""time""
""fullscreenenter"",""1"",""9151""
","
","","","-1","","","13","19976","7314","&#9826;","elianto","#f73b6a7A","-1","-1","1","0","[]","0","0","3","","","","","","","",""
"pit-trial","77","636723","0.0-2.0-14.3-3.3","battery-v0.2","","""event"",""trial"",""time""
""blur"",""1"",""7439""
""focus"",""1"",""9079""
""fullscreenenter"",""1"",""9151""
","""event"",""trial"",""time""
""blur"",""1"",""7439""
","""event"",""trial"",""time""
""focus"",""1"",""9079""
","""event"",""trial"",""time""
""fullscreenenter"",""1"",""9151""
","
","","","-1","","","13","19976","7314","&#9826;","elianto","#f73b6a7A","-1","-1","1","-10","[]","0","0","3","","","","","","","",""
"pit-trial","78","641577","0.0-2.0-14.3-4.3","battery-v0.2","","""event"",""trial"",""time""
""blur"",""1"",""7439""
""focus"",""1"",""9079""
""fullscreenenter"",""1"",""9151""
","""event"",""trial"",""time""
""blur"",""1"",""7439""
","""event"",""trial"",""time""
""focus"",""1"",""9079""
","""event"",""trial"",""time""
""fullscreenenter"",""1"",""9151""
","
","","","-1","","","13","19976","7314","&#9826;","elianto","#f73b6a7A","-1","-1","1","0","[]","0","0","3","","","","","","","",""
"call-function","79","641579","0.0-2.0-15.0","battery-v0.2","","""event"",""trial"",""time""
""blur"",""1"",""7439""
""focus"",""1"",""9079""
""fullscreenenter"",""1"",""9151""
","""event"",""trial"",""time""
""blur"",""1"",""7439""
","""event"",""trial"",""time""
""focus"",""1"",""9079""
","""event"",""trial"",""time""
""fullscreenenter"",""1"",""9151""
","
","","","","","","","","","","","","","","","","","","","","","","","","","","",""
"pit-instructions","80","677578","0.0-2.0-16.0","battery-v0.2","","""event"",""trial"",""time""
""blur"",""1"",""7439""
""focus"",""1"",""9079""
""fullscreenenter"",""1"",""9151""
","""event"",""trial"",""time""
""blur"",""1"",""7439""
","""event"",""trial"",""time""
""focus"",""1"",""9079""
","""event"",""trial"",""time""
""fullscreenenter"",""1"",""9151""
","
","","[{""page_index"":0,""viewing_time"":12153.799999982119},{""page_index"":1,""viewing_time"":10743.200000017881},{""page_index"":2,""viewing_time"":6233.799999982119},{""page_index"":3,""viewing_time"":6868.100000023842}]","35999.19999998808","","","","","","","","","","","","","","","","","","","","","","","",""
"pit-trial","81","682449","0.0-2.0-17.0-0.0","battery-v0.2","","""event"",""trial"",""time""
""blur"",""1"",""7439""
""focus"",""1"",""9079""
""fullscreenenter"",""1"",""9151""
","""event"",""trial"",""time""
""blur"",""1"",""7439""
","""event"",""trial"",""time""
""focus"",""1"",""9079""
","""event"",""trial"",""time""
""fullscreenenter"",""1"",""9151""
","
","","","-1","","","13","19976","7314","&#9789;","elianto","#f73b6a7A"," ","-1","0","-10","[]","0","0","4","","","","","","","",""
"pit-trial","82","686062","0.0-2.0-17.0-1.0","battery-v0.2","","""event"",""trial"",""time""
""blur"",""1"",""7439""
""focus"",""1"",""9079""
""fullscreenenter"",""1"",""9151""
","""event"",""trial"",""time""
""blur"",""1"",""7439""
","""event"",""trial"",""time""
""focus"",""1"",""9079""
","""event"",""trial"",""time""
""fullscreenenter"",""1"",""9151""
","
","","","761.4000000059605","","","13","19976","7314","&#9789;","elianto","#f73b6a7A"," "," ","1","0","[1612.2000000178814]","1","0","4","","","","","","","",""
"pit-trial","83","689966","0.0-2.0-17.0-2.0","battery-v0.2","","""event"",""trial"",""time""
""blur"",""1"",""7439""
""focus"",""1"",""9079""
""fullscreenenter"",""1"",""9151""
","""event"",""trial"",""time""
""blur"",""1"",""7439""
","""event"",""trial"",""time""
""focus"",""1"",""9079""
","""event"",""trial"",""time""
""fullscreenenter"",""1"",""9151""
","
","","","1047.800000011921","","","13","19976","7314","&#9789;","elianto","#f73b6a7A"," "," ","1","0","[1897.800000011921]","1","0","4","","","","","","","",""
"pit-trial","84","693391","0.0-2.0-17.0-3.0","battery-v0.2","","""event"",""trial"",""time""
""blur"",""1"",""7439""
""focus"",""1"",""9079""
""fullscreenenter"",""1"",""9151""
","""event"",""trial"",""time""
""blur"",""1"",""7439""
","""event"",""trial"",""time""
""focus"",""1"",""9079""
","""event"",""trial"",""time""
""fullscreenenter"",""1"",""9151""
","
","","","563.0999999940395","","","13","19976","7314","&#9789;","elianto","#f73b6a7A"," "," ","1","-10","[1413.9000000059605]","1","0","4","","","","","","","",""
"pit-trial","85","696672","0.0-2.0-17.0-4.0","battery-v0.2","","""event"",""trial"",""time""
""blur"",""1"",""7439""
""focus"",""1"",""9079""
""fullscreenenter"",""1"",""9151""
","""event"",""trial"",""time""
""blur"",""1"",""7439""
","""event"",""trial"",""time""
""focus"",""1"",""9079""
","""event"",""trial"",""time""
""fullscreenenter"",""1"",""9151""
","
","","","406.59999999403954","","","13","19976","7314","&#9789;","elianto","#f73b6a7A"," "," ","1","0","[1266.9000000059605]","1","0","4","","","","","","","",""
"pit-trial","86","699870","0.0-2.0-17.1-0.1","battery-v0.2","","""event"",""trial"",""time""
""blur"",""1"",""7439""
""focus"",""1"",""9079""
""fullscreenenter"",""1"",""9151""
","""event"",""trial"",""time""
""blur"",""1"",""7439""
","""event"",""trial"",""time""
""focus"",""1"",""9079""
","""event"",""trial"",""time""
""fullscreenenter"",""1"",""9151""
","
","","","343.5","","","13","19976","7314","&#9789;","elianto","#f73b6a7A"," "," ","1","0","[1195.699999988079]","1","0","4","","","","","","","",""
"pit-trial","87","703286","0.0-2.0-17.1-1.1","battery-v0.2","","""event"",""trial"",""time""
""blur"",""1"",""7439""
""focus"",""1"",""9079""
""fullscreenenter"",""1"",""9151""
","""event"",""trial"",""time""
""blur"",""1"",""7439""
","""event"",""trial"",""time""
""focus"",""1"",""9079""
","""event"",""trial"",""time""
""fullscreenenter"",""1"",""9151""
","
","","","560.7000000178814","","","13","19976","7314","&#9789;","elianto","#f73b6a7A"," "," ","1","0","[1411.300000011921]","1","0","4","","","","","","","",""
"pit-trial","88","706628","0.0-2.0-17.1-2.1","battery-v0.2","","""event"",""trial"",""time""
""blur"",""1"",""7439""
""focus"",""1"",""9079""
""fullscreenenter"",""1"",""9151""
","""event"",""trial"",""time""
""blur"",""1"",""7439""
","""event"",""trial"",""time""
""focus"",""1"",""9079""
","""event"",""trial"",""time""
""fullscreenenter"",""1"",""9151""
","
","","","487.5","","","13","19976","7314","&#9789;","elianto","#f73b6a7A"," "," ","1","0","[1339.800000011921]","1","0","4","","","","","","","",""
"pit-trial","89","710100","0.0-2.0-17.1-3.1","battery-v0.2","","""event"",""trial"",""time""
""blur"",""1"",""7439""
""focus"",""1"",""9079""
""fullscreenenter"",""1"",""9151""
","""event"",""trial"",""time""
""blur"",""1"",""7439""
","""event"",""trial"",""time""
""focus"",""1"",""9079""
","""event"",""trial"",""time""
""fullscreenenter"",""1"",""9151""
","
","","","619.3000000119209","","","13","19976","7314","&#9789;","elianto","#f73b6a7A"," "," ","1","-10","[1470.2000000178814]","1","0","4","","","","","","","",""
"pit-trial","90","713170","0.0-2.0-17.1-4.1","battery-v0.2","","""event"",""trial"",""time""
""blur"",""1"",""7439""
""focus"",""1"",""9079""
""fullscreenenter"",""1"",""9151""
","""event"",""trial"",""time""
""blur"",""1"",""7439""
","""event"",""trial"",""time""
""focus"",""1"",""9079""
","""event"",""trial"",""time""
""fullscreenenter"",""1"",""9151""
","
","","","217.40000000596046","","","13","19976","7314","&#9789;","elianto","#f73b6a7A"," "," ","1","0","[1067.5999999940395]","1","0","4","","","","","","","",""
"pit-trial","91","716454","0.0-2.0-17.2-0.2","battery-v0.2","","""event"",""trial"",""time""
""blur"",""1"",""7439""
""focus"",""1"",""9079""
""fullscreenenter"",""1"",""9151""
","""event"",""trial"",""time""
""blur"",""1"",""7439""
","""event"",""trial"",""time""
""focus"",""1"",""9079""
","""event"",""trial"",""time""
""fullscreenenter"",""1"",""9151""
","
","","","429.69999998807907","","","13","19976","7314","&#9789;","elianto","#f73b6a7A"," "," ","1","0","[1281.0999999940395]","1","0","4","","","","","","","",""
"pit-trial","92","719618","0.0-2.0-17.2-1.2","battery-v0.2","","""event"",""trial"",""time""
""blur"",""1"",""7439""
""focus"",""1"",""9079""
""fullscreenenter"",""1"",""9151""
","""event"",""trial"",""time""
""blur"",""1"",""7439""
","""event"",""trial"",""time""
""focus"",""1"",""9079""
","""event"",""trial"",""time""
""fullscreenenter"",""1"",""9151""
","
","","","310.19999998807907","","","13","19976","7314","&#9789;","elianto","#f73b6a7A"," "," ","1","0","[1162.199999988079]","1","0","4","","","","","","","",""
"pit-trial","93","722843","0.0-2.0-17.2-2.2","battery-v0.2","","""event"",""trial"",""time""
""blur"",""1"",""7439""
""focus"",""1"",""9079""
""fullscreenenter"",""1"",""9151""
","""event"",""trial"",""time""
""blur"",""1"",""7439""
","""event"",""trial"",""time""
""focus"",""1"",""9079""
","""event"",""trial"",""time""
""fullscreenenter"",""1"",""9151""
","
","","","371.60000002384186","","","13","19976","7314","&#9789;","elianto","#f73b6a7A"," "," ","1","0","[1223.4000000059605]","1","0","4","","","","","","","",""
"pit-trial","94","726281","0.0-2.0-17.2-3.2","battery-v0.2","","""event"",""trial"",""time""
""blur"",""1"",""7439""
""focus"",""1"",""9079""
""fullscreenenter"",""1"",""9151""
","""event"",""trial"",""time""
""blur"",""1"",""7439""
","""event"",""trial"",""time""
""focus"",""1"",""9079""
","""event"",""trial"",""time""
""fullscreenenter"",""1"",""9151""
","
","","","582.4000000059605","","","13","19976","7314","&#9789;","elianto","#f73b6a7A"," "," ","1","-10","[1433.7000000178814]","1","0","4","","","","","","","",""
"pit-trial","95","729616","0.0-2.0-17.2-4.2","battery-v0.2","","""event"",""trial"",""time""
""blur"",""1"",""7439""
""focus"",""1"",""9079""
""fullscreenenter"",""1"",""9151""
","""event"",""trial"",""time""
""blur"",""1"",""7439""
","""event"",""trial"",""time""
""focus"",""1"",""9079""
","""event"",""trial"",""time""
""fullscreenenter"",""1"",""9151""
","
","","","483.7999999821186","","","13","19976","7314","&#9789;","elianto","#f73b6a7A"," "," ","1","0","[1334.2999999821186]","1","0","4","","","","","","","",""
"pit-trial","96","733008","0.0-2.0-17.3-0.3","battery-v0.2","","""event"",""trial"",""time""
""blur"",""1"",""7439""
""focus"",""1"",""9079""
""fullscreenenter"",""1"",""9151""
","""event"",""trial"",""time""
""blur"",""1"",""7439""
","""event"",""trial"",""time""
""focus"",""1"",""9079""
","""event"",""trial"",""time""
""fullscreenenter"",""1"",""9151""
","
","","","538","","","13","19976","7314","&#9789;","elianto","#f73b6a7A"," "," ","1","0","[1389]","1","0","4","","","","","","","",""
"pit-trial","97","736420","0.0-2.0-17.3-1.3","battery-v0.2","","""event"",""trial"",""time""
""blur"",""1"",""7439""
""focus"",""1"",""9079""
""fullscreenenter"",""1"",""9151""
","""event"",""trial"",""time""
""blur"",""1"",""7439""
","""event"",""trial"",""time""
""focus"",""1"",""9079""
","""event"",""trial"",""time""
""fullscreenenter"",""1"",""9151""
","
","","","559.1000000238419","","","13","19976","7314","&#9789;","elianto","#f73b6a7A"," "," ","1","0","[1409.5]","1","0","4","","","","","","","",""
"pit-trial","98","739713","0.0-2.0-17.3-2.3","battery-v0.2","","""event"",""trial"",""time""
""blur"",""1"",""7439""
""focus"",""1"",""9079""
""fullscreenenter"",""1"",""9151""
","""event"",""trial"",""time""
""blur"",""1"",""7439""
","""event"",""trial"",""time""
""focus"",""1"",""9079""
","""event"",""trial"",""time""
""fullscreenenter"",""1"",""9151""
","
","","","440.19999998807907","","","13","19976","7314","&#9789;","elianto","#f73b6a7A"," "," ","1","0","[1290.5]","1","0","4","","","","","","","",""
"pit-trial","99","742847","0.0-2.0-17.3-3.3","battery-v0.2","","""event"",""trial"",""time""
""blur"",""1"",""7439""
""focus"",""1"",""9079""
""fullscreenenter"",""1"",""9151""
","""event"",""trial"",""time""
""blur"",""1"",""7439""
","""event"",""trial"",""time""
""focus"",""1"",""9079""
","""event"",""trial"",""time""
""fullscreenenter"",""1"",""9151""
","
","","","281.09999999403954","","","13","19976","7314","&#9789;","elianto","#f73b6a7A"," "," ","1","-10","[1131.5]","1","0","4","","","","","","","",""
"pit-trial","100","746192","0.0-2.0-17.3-4.3","battery-v0.2","","""event"",""trial"",""time""
""blur"",""1"",""7439""
""focus"",""1"",""9079""
""fullscreenenter"",""1"",""9151""
","""event"",""trial"",""time""
""blur"",""1"",""7439""
","""event"",""trial"",""time""
""focus"",""1"",""9079""
","""event"",""trial"",""time""
""fullscreenenter"",""1"",""9151""
","
","","","493.19999998807907","","","13","19976","7314","&#9789;","elianto","#f73b6a7A"," "," ","1","0","[1344]","1","0","4","","","","","","","",""
"call-function","101","746193","0.0-2.0-18.0","battery-v0.2","","""event"",""trial"",""time""
""blur"",""1"",""7439""
""focus"",""1"",""9079""
""fullscreenenter"",""1"",""9151""
","""event"",""trial"",""time""
""blur"",""1"",""7439""
","""event"",""trial"",""time""
""focus"",""1"",""9079""
","""event"",""trial"",""time""
""fullscreenenter"",""1"",""9151""
","
","","","","","","","","","","","","","","","","","","","","","","","","","","",""
"pit-instructions","102","819887","0.0-2.0-19.0","battery-v0.2","","""event"",""trial"",""time""
""blur"",""1"",""7439""
""focus"",""1"",""9079""
""fullscreenenter"",""1"",""9151""
","""event"",""trial"",""time""
""blur"",""1"",""7439""
","""event"",""trial"",""time""
""focus"",""1"",""9079""
","""event"",""trial"",""time""
""fullscreenenter"",""1"",""9151""
","
","","[{""page_index"":0,""viewing_time"":8097.9000000059605},{""page_index"":1,""viewing_time"":8346.90000000596},{""page_index"":2,""viewing_time"":16592.09999999404},{""page_index"":3,""viewing_time"":6521.9000000059605},{""page_index"":4,""viewing_time"":8108},{""page_index"":5,""viewing_time"":8292.699999988079},{""page_index"":6,""viewing_time"":8026.300000011921},{""page_index"":7,""viewing_time"":5864.299999982119},{""page_index"":8,""viewing_time"":3843.300000011921}]","73693.59999999404","","","","","","","","","","","","","","","","","","","","","","","",""
"pit-comprehension","103","824418","0.0-2.0-20.0-0.0","battery-v0.2","","""event"",""trial"",""time""
""blur"",""1"",""7439""
""focus"",""1"",""9079""
""fullscreenenter"",""1"",""9151""
","""event"",""trial"",""time""
""blur"",""1"",""7439""
","""event"",""trial"",""time""
""focus"",""1"",""9079""
","""event"",""trial"",""time""
""fullscreenenter"",""1"",""9151""
","
","","","4528.799999982119","[""SPACE""]","0","13","19976","7314","","","","","","","","","","","","","","","","","","",""
"pit-instructions","104","826925","0.0-2.0-20.0-1.0","battery-v0.2","","""event"",""trial"",""time""
""blur"",""1"",""7439""
""focus"",""1"",""9079""
""fullscreenenter"",""1"",""9151""
","""event"",""trial"",""time""
""blur"",""1"",""7439""
","""event"",""trial"",""time""
""focus"",""1"",""9079""
","""event"",""trial"",""time""
""fullscreenenter"",""1"",""9151""
","
","","[{""page_index"":0,""viewing_time"":2490.4000000059605}]","2490.5","","","","","","","","","","","","","","","","","","","","","","","",""
"pit-comprehension","105","834303","0.0-2.0-21.0-0.0","battery-v0.2","","""event"",""trial"",""time""
""blur"",""1"",""7439""
""focus"",""1"",""9079""
""fullscreenenter"",""1"",""9151""
","""event"",""trial"",""time""
""blur"",""1"",""7439""
","""event"",""trial"",""time""
""focus"",""1"",""9079""
","""event"",""trial"",""time""
""fullscreenenter"",""1"",""9151""
","
","","","7376.5999999940395","[""10""]","0","13","19976","7314","","","","","","","","","","","","","","","","","","",""
"pit-instructions","106","838206","0.0-2.0-21.0-1.0","battery-v0.2","","""event"",""trial"",""time""
""blur"",""1"",""7439""
""focus"",""1"",""9079""
""fullscreenenter"",""1"",""9151""
","""event"",""trial"",""time""
""blur"",""1"",""7439""
","""event"",""trial"",""time""
""focus"",""1"",""9079""
","""event"",""trial"",""time""
""fullscreenenter"",""1"",""9151""
","
","","[{""page_index"":0,""viewing_time"":3882.4000000059605}]","3882.7000000178814","","","","","","","","","","","","","","","","","","","","","","","",""
"pit-comprehension","107","846453","0.0-2.0-22.0-0.0","battery-v0.2","","""event"",""trial"",""time""
""blur"",""1"",""7439""
""focus"",""1"",""9079""
""fullscreenenter"",""1"",""9151""
","""event"",""trial"",""time""
""blur"",""1"",""7439""
","""event"",""trial"",""time""
""focus"",""1"",""9079""
","""event"",""trial"",""time""
""fullscreenenter"",""1"",""9151""
","
","","","8244.699999988079","[""0""]","0","13","19976","7314","","","","","","","","","","","","","","","","","","",""
"pit-instructions","108","849567","0.0-2.0-22.0-1.0","battery-v0.2","","""event"",""trial"",""time""
""blur"",""1"",""7439""
""focus"",""1"",""9079""
""fullscreenenter"",""1"",""9151""
","""event"",""trial"",""time""
""blur"",""1"",""7439""
","""event"",""trial"",""time""
""focus"",""1"",""9079""
","""event"",""trial"",""time""
""fullscreenenter"",""1"",""9151""
","
","","[{""page_index"":0,""viewing_time"":3092.5}]","3092.699999988079","","","","","","","","","","","","","","","","","","","","","","","",""
"pit-comprehension","109","860434","0.0-2.0-23.0-0.0","battery-v0.2","","""event"",""trial"",""time""
""blur"",""1"",""7439""
""focus"",""1"",""9079""
""fullscreenenter"",""1"",""9151""
","""event"",""trial"",""time""
""blur"",""1"",""7439""
","""event"",""trial"",""time""
""focus"",""1"",""9079""
","""event"",""trial"",""time""
""fullscreenenter"",""1"",""9151""
","
","","","10865.5","[""True""]","0","13","19976","7314","","","","","","","","","","","","","","","","","","",""
"pit-instructions","110","862999","0.0-2.0-23.0-1.0","battery-v0.2","","""event"",""trial"",""time""
""blur"",""1"",""7439""
""focus"",""1"",""9079""
""fullscreenenter"",""1"",""9151""
","""event"",""trial"",""time""
""blur"",""1"",""7439""
","""event"",""trial"",""time""
""focus"",""1"",""9079""
","""event"",""trial"",""time""
""fullscreenenter"",""1"",""9151""
","
","","[{""page_index"":0,""viewing_time"":2545.5}]","2545.699999988079","","","","","","","","","","","","","","","","","","","","","","","",""
"pit-comprehension","111","870601","0.0-2.0-24.0-0.0","battery-v0.2","","""event"",""trial"",""time""
""blur"",""1"",""7439""
""focus"",""1"",""9079""
""fullscreenenter"",""1"",""9151""
","""event"",""trial"",""time""
""blur"",""1"",""7439""
","""event"",""trial"",""time""
""focus"",""1"",""9079""
","""event"",""trial"",""time""
""fullscreenenter"",""1"",""9151""
","
","","","7600.300000011921","[""True""]","0","13","19976","7314","","","","","","","","","","","","","","","","","","",""
"pit-instructions","112","873001","0.0-2.0-24.0-1.0","battery-v0.2","","""event"",""trial"",""time""
""blur"",""1"",""7439""
""focus"",""1"",""9079""
""fullscreenenter"",""1"",""9151""
","""event"",""trial"",""time""
""blur"",""1"",""7439""
","""event"",""trial"",""time""
""focus"",""1"",""9079""
","""event"",""trial"",""time""
""fullscreenenter"",""1"",""9151""
","
","","[{""page_index"":0,""viewing_time"":2379.0999999940395}]","2379.4000000059605","","","","","","","","","","","","","","","","","","","","","","","",""
"pit-comprehension","113","881337","0.0-2.0-25.0-0.0","battery-v0.2","","""event"",""trial"",""time""
""blur"",""1"",""7439""
""focus"",""1"",""9079""
""fullscreenenter"",""1"",""9151""
","""event"",""trial"",""time""
""blur"",""1"",""7439""
","""event"",""trial"",""time""
""focus"",""1"",""9079""
","""event"",""trial"",""time""
""fullscreenenter"",""1"",""9151""
","
","","","8334.40000000596","[""True""]","0","13","19976","7314","","","","","","","","","","","","","","","","","","",""
"pit-instructions","114","883036","0.0-2.0-25.0-1.0","battery-v0.2","","""event"",""trial"",""time""
""blur"",""1"",""7439""
""focus"",""1"",""9079""
""fullscreenenter"",""1"",""9151""
","""event"",""trial"",""time""
""blur"",""1"",""7439""
","""event"",""trial"",""time""
""focus"",""1"",""9079""
","""event"",""trial"",""time""
""fullscreenenter"",""1"",""9151""
","
","","[{""page_index"":0,""viewing_time"":1680.3999999761581}]","1680.5999999940395","","","","","","","","","","","","","","","","","","","","","","","",""
"pit-comprehension","115","890973","0.0-2.0-26.0-0.0","battery-v0.2","","""event"",""trial"",""time""
""blur"",""1"",""7439""
""focus"",""1"",""9079""
""fullscreenenter"",""1"",""9151""
","""event"",""trial"",""time""
""blur"",""1"",""7439""
","""event"",""trial"",""time""
""focus"",""1"",""9079""
","""event"",""trial"",""time""
""fullscreenenter"",""1"",""9151""
","
","","","7934.800000011921","[""False""]","0","13","19976","7314","","","","","","","","","","","","","","","","","","",""
"pit-instructions","116","893120","0.0-2.0-26.0-1.0","battery-v0.2","","""event"",""trial"",""time""
""blur"",""1"",""7439""
""focus"",""1"",""9079""
""fullscreenenter"",""1"",""9151""
","""event"",""trial"",""time""
""blur"",""1"",""7439""
","""event"",""trial"",""time""
""focus"",""1"",""9079""
","""event"",""trial"",""time""
""fullscreenenter"",""1"",""9151""
","
","","[{""page_index"":0,""viewing_time"":2125.800000011921}]","2125.9000000059605","","","","","","","","","","","","","","","","","","","","","","","",""
"pit-instructions","117","909527","0.0-3.0","battery-v0.2","","""event"",""trial"",""time""
""blur"",""1"",""7439""
""focus"",""1"",""9079""
""fullscreenenter"",""1"",""9151""
","""event"",""trial"",""time""
""blur"",""1"",""7439""
","""event"",""trial"",""time""
""focus"",""1"",""9079""
","""event"",""trial"",""time""
""fullscreenenter"",""1"",""9151""
","
","","[{""page_index"":0,""viewing_time"":3790.7999999821186},{""page_index"":1,""viewing_time"":5533.9000000059605},{""page_index"":2,""viewing_time"":7081}]","16405.899999976158","","","","","","","","","","","","","","","","","","","","","","","",""
"pit-trial","118","913423","0.0-4.0","battery-v0.2","","""event"",""trial"",""time""
""blur"",""1"",""7439""
""focus"",""1"",""9079""
""fullscreenenter"",""1"",""9151""
","""event"",""trial"",""time""
""blur"",""1"",""7439""
","""event"",""trial"",""time""
""focus"",""1"",""9079""
","""event"",""trial"",""time""
""fullscreenenter"",""1"",""9151""
","
","","","1030.8999999761581","","","13","19976","7314","&#9728;","elianto","#f73b6a7A","-1"," ","0","0","[1887.199999988079]","1","1","","","19976","1","0","4","lose","no-go","1"
"pit-trial","119","917352","0.0-5.0","battery-v0.2","","""event"",""trial"",""time""
""blur"",""1"",""7439""
""focus"",""1"",""9079""
""fullscreenenter"",""1"",""9151""
","""event"",""trial"",""time""
""blur"",""1"",""7439""
","""event"",""trial"",""time""
""focus"",""1"",""9079""
","""event"",""trial"",""time""
""fullscreenenter"",""1"",""9151""
","
","","","1058.699999988079","","","13","19976","7314","&#9730;","elianto","#3366ff99"," "," ","1","+10","[1921.699999988079]","1","1","","","19976","2","1","1","win","go","0"
"pit-trial","120","921801","0.0-6.0","battery-v0.2","","""event"",""trial"",""time""
""blur"",""1"",""7439""
""focus"",""1"",""9079""
""fullscreenenter"",""1"",""9151""
","""event"",""trial"",""time""
""blur"",""1"",""7439""
","""event"",""trial"",""time""
""focus"",""1"",""9079""
","""event"",""trial"",""time""
""fullscreenenter"",""1"",""9151""
","
","","","1580.5","","","13","19976","7314","&#9752;","elianto","#f73b6a7A"," "," ","1","0","[2433.199999988079]","1","1","","","19976","3","3","3","lose","go","0"
"pit-trial","121","925746","0.0-7.0","battery-v0.2","","""event"",""trial"",""time""
""blur"",""1"",""7439""
""focus"",""1"",""9079""
""fullscreenenter"",""1"",""9151""
","""event"",""trial"",""time""
""blur"",""1"",""7439""
","""event"",""trial"",""time""
""focus"",""1"",""9079""
","""event"",""trial"",""time""
""fullscreenenter"",""1"",""9151""
","
","","","1082.5","","","13","19976","7314","&#9733;","elianto","#3366ff99","-1"," ","0","0","[1937.7999999821186]","1","1","","","19976","4","2","2","win","no-go","0"
"pit-trial","122","929796","0.0-8.0","battery-v0.2","","""event"",""trial"",""time""
""blur"",""1"",""7439""
""focus"",""1"",""9079""
""fullscreenenter"",""1"",""9151""
","""event"",""trial"",""time""
""blur"",""1"",""7439""
","""event"",""trial"",""time""
""focus"",""1"",""9079""
","""event"",""trial"",""time""
""fullscreenenter"",""1"",""9151""
","
","","","1179.4000000059605","","","13","19976","7314","&#9730;","elianto","#3366ff99"," "," ","1","+10","[2042]","1","1","","","19976","5","1","1","win","go","0"
"pit-trial","123","934658","0.0-9.0","battery-v0.2","","""event"",""trial"",""time""
""blur"",""1"",""7439""
""focus"",""1"",""9079""
""fullscreenenter"",""1"",""9151""
","""event"",""trial"",""time""
""blur"",""1"",""7439""
","""event"",""trial"",""time""
""focus"",""1"",""9079""
","""event"",""trial"",""time""
""fullscreenenter"",""1"",""9151""
","
","","","-1","","","13","19976","7314","&#9733;","elianto","#3366ff99","-1","-1","1","+10","[]","0","1","","","19976","6","2","2","win","no-go","0"
"pit-trial","124","939009","0.0-10.0","battery-v0.2","","""event"",""trial"",""time""
""blur"",""1"",""7439""
""focus"",""1"",""9079""
""fullscreenenter"",""1"",""9151""
","""event"",""trial"",""time""
""blur"",""1"",""7439""
","""event"",""trial"",""time""
""focus"",""1"",""9079""
","""event"",""trial"",""time""
""fullscreenenter"",""1"",""9151""
","
","","","1486","","","13","19976","7314","&#9752;","elianto","#f73b6a7A"," "," ","1","0","[2339.2999999821186]","1","1","","","19976","7","3","3","lose","go","0"
"pit-trial","125","943771","0.0-11.0","battery-v0.2","","""event"",""trial"",""time""
""blur"",""1"",""7439""
""focus"",""1"",""9079""
""fullscreenenter"",""1"",""9151""
","""event"",""trial"",""time""
""blur"",""1"",""7439""
","""event"",""trial"",""time""
""focus"",""1"",""9079""
","""event"",""trial"",""time""
""fullscreenenter"",""1"",""9151""
","
","","","1909.2999999821186","","","13","19976","7314","&#9728;","elianto","#f73b6a7A","-1"," ","0","-10","[2759.7999999821186]","1","1","","","19976","8","0","4","lose","no-go","0"
"pit-trial","126","948625","0.0-12.0","battery-v0.2","","""event"",""trial"",""time""
""blur"",""1"",""7439""
""focus"",""1"",""9079""
""fullscreenenter"",""1"",""9151""
","""event"",""trial"",""time""
""blur"",""1"",""7439""
","""event"",""trial"",""time""
""focus"",""1"",""9079""
","""event"",""trial"",""time""
""fullscreenenter"",""1"",""9151""
","
","","","-1","","","13","19976","7314","&#9752;","elianto","#f73b6a7A"," ","-1","0","-10","[]","0","1","","","19976","9","3","3","lose","go","0"
"pit-trial","127","953478","0.0-13.0","battery-v0.2","","""event"",""trial"",""time""
""blur"",""1"",""7439""
""focus"",""1"",""9079""
""fullscreenenter"",""1"",""9151""
","""event"",""trial"",""time""
""blur"",""1"",""7439""
","""event"",""trial"",""time""
""focus"",""1"",""9079""
","""event"",""trial"",""time""
""fullscreenenter"",""1"",""9151""
","
","","","-1","","","13","19976","7314","&#9733;","elianto","#3366ff99","-1","-1","1","+10","[]","0","1","","","19976","10","2","2","win","no-go","0"
"pit-trial","128","957916","0.0-14.0","battery-v0.2","","""event"",""trial"",""time""
""blur"",""1"",""7439""
""focus"",""1"",""9079""
""fullscreenenter"",""1"",""9151""
","""event"",""trial"",""time""
""blur"",""1"",""7439""
","""event"",""trial"",""time""
""focus"",""1"",""9079""
","""event"",""trial"",""time""
""fullscreenenter"",""1"",""9151""
","
","","","1585.5","","","13","19976","7314","&#9728;","elianto","#f73b6a7A","-1"," ","0","-10","[2435.800000011921]","1","1","","","19976","11","0","4","lose","no-go","0"
"pit-trial","129","961764","0.0-15.0","battery-v0.2","","""event"",""trial"",""time""
""blur"",""1"",""7439""
""focus"",""1"",""9079""
""fullscreenenter"",""1"",""9151""
","""event"",""trial"",""time""
""blur"",""1"",""7439""
","""event"",""trial"",""time""
""focus"",""1"",""9079""
","""event"",""trial"",""time""
""fullscreenenter"",""1"",""9151""
","
","","","995.1999999880791","","","13","19976","7314","&#9730;","elianto","#3366ff99"," "," ","1","+10","[1846]","1","1","","","19976","12","1","1","win","go","0"
"pit-trial","130","966618","0.0-16.0","battery-v0.2","","""event"",""trial"",""time""
""blur"",""1"",""7439""
""focus"",""1"",""9079""
""fullscreenenter"",""1"",""9151""
","""event"",""trial"",""time""
""blur"",""1"",""7439""
","""event"",""trial"",""time""
""focus"",""1"",""9079""
","""event"",""trial"",""time""
""fullscreenenter"",""1"",""9151""
","
","","","-1","","","13","19976","7314","&#9752;","elianto","#f73b6a7A"," ","-1","0","-10","[]","0","1","","","19976","13","3","3","lose","go","0"
"pit-trial","131","970396","0.0-17.0","battery-v0.2","","""event"",""trial"",""time""
""blur"",""1"",""7439""
""focus"",""1"",""9079""
""fullscreenenter"",""1"",""9151""
","""event"",""trial"",""time""
""blur"",""1"",""7439""
","""event"",""trial"",""time""
""focus"",""1"",""9079""
","""event"",""trial"",""time""
""fullscreenenter"",""1"",""9151""
","
","","","925.5999999940395","","","13","19976","7314","&#9730;","elianto","#3366ff99"," "," ","1","+10","[1776.4000000059605]","1","1","","","19976","14","1","1","win","go","0"
"pit-trial","132","975249","0.0-18.0","battery-v0.2","","""event"",""trial"",""time""
""blur"",""1"",""7439""
""focus"",""1"",""9079""
""fullscreenenter"",""1"",""9151""
","""event"",""trial"",""time""
""blur"",""1"",""7439""
","""event"",""trial"",""time""
""focus"",""1"",""9079""
","""event"",""trial"",""time""
""fullscreenenter"",""1"",""9151""
","
","","","-1","","","13","19976","7314","&#9728;","elianto","#f73b6a7A","-1","-1","1","0","[]","0","1","","","19976","15","0","4","lose","no-go","0"
"pit-trial","133","980102","0.0-19.0","battery-v0.2","","""event"",""trial"",""time""
""blur"",""1"",""7439""
""focus"",""1"",""9079""
""fullscreenenter"",""1"",""9151""
","""event"",""trial"",""time""
""blur"",""1"",""7439""
","""event"",""trial"",""time""
""focus"",""1"",""9079""
","""event"",""trial"",""time""
""fullscreenenter"",""1"",""9151""
","
","","","-1","","","13","19976","7314","&#9733;","elianto","#3366ff99","-1","-1","1","+10","[]","0","1","","","19976","16","2","2","win","no-go","0"
"pit-trial","134","984954","0.0-20.0","battery-v0.2","","""event"",""trial"",""time""
""blur"",""1"",""7439""
""focus"",""1"",""9079""
""fullscreenenter"",""1"",""9151""
","""event"",""trial"",""time""
""blur"",""1"",""7439""
","""event"",""trial"",""time""
""focus"",""1"",""9079""
","""event"",""trial"",""time""
""fullscreenenter"",""1"",""9151""
","
","","","-1","","","13","19976","7314","&#9752;","elianto","#f73b6a7A"," ","-1","0","-10","[]","0","1","","","19976","17","3","3","lose","go","0"
"pit-trial","135","989806","0.0-21.0","battery-v0.2","","""event"",""trial"",""time""
""blur"",""1"",""7439""
""focus"",""1"",""9079""
""fullscreenenter"",""1"",""9151""
","""event"",""trial"",""time""
""blur"",""1"",""7439""
","""event"",""trial"",""time""
""focus"",""1"",""9079""
","""event"",""trial"",""time""
""fullscreenenter"",""1"",""9151""
","
","","","-1","","","13","19976","7314","&#9733;","elianto","#3366ff99","-1","-1","1","0","[]","0","1","","","19976","18","2","2","win","no-go","1"
"pit-trial","136","994659","0.0-22.0","battery-v0.2","","""event"",""trial"",""time""
""blur"",""1"",""7439""
""focus"",""1"",""9079""
""fullscreenenter"",""1"",""9151""
","""event"",""trial"",""time""
""blur"",""1"",""7439""
","""event"",""trial"",""time""
""focus"",""1"",""9079""
","""event"",""trial"",""time""
""fullscreenenter"",""1"",""9151""
","
","","","-1","","","13","19976","7314","&#9728;","elianto","#f73b6a7A","-1","-1","1","-10","[]","0","1","","","19976","19","0","4","lose","no-go","1"
"pit-trial","137","998785","0.0-23.0","battery-v0.2","","""event"",""trial"",""time""
""blur"",""1"",""7439""
""focus"",""1"",""9079""
""fullscreenenter"",""1"",""9151""
","""event"",""trial"",""time""
""blur"",""1"",""7439""
","""event"",""trial"",""time""
""focus"",""1"",""9079""
","""event"",""trial"",""time""
""fullscreenenter"",""1"",""9151""
","
","","","1274.0999999940395","","","13","19976","7314","&#9730;","elianto","#3366ff99"," "," ","1","+10","[2124.199999988079]","1","1","","","19976","20","1","1","win","go","0"
"pit-instructions","138","1010775","0.0-24.0","battery-v0.2","","""event"",""trial"",""time""
""blur"",""1"",""7439""
""focus"",""1"",""9079""
""fullscreenenter"",""1"",""9151""
","""event"",""trial"",""time""
""blur"",""1"",""7439""
","""event"",""trial"",""time""
""focus"",""1"",""9079""
","""event"",""trial"",""time""
""fullscreenenter"",""1"",""9151""
","
","","[{""page_index"":0,""viewing_time"":5813.5999999940395},{""page_index"":1,""viewing_time"":6174.4000000059605}]","11988.199999988079","","","","","","","","","","","","","","","","","","","","","","","",""
"pit-trial","139","1015354","0.0-25.0","battery-v0.2","","""event"",""trial"",""time""
""blur"",""1"",""7439""
""focus"",""1"",""9079""
""fullscreenenter"",""1"",""9151""
","""event"",""trial"",""time""
""blur"",""1"",""7439""
","""event"",""trial"",""time""
""focus"",""1"",""9079""
","""event"",""trial"",""time""
""fullscreenenter"",""1"",""9151""
","
","","","1711","","","13","19976","7314","j","elianto","#f73b6a7A"," "," ","1","0","[2561.0999999940395]","1","2","","","19976","21","0","3","lose","go","0"
"pit-trial","140","1019810","0.0-26.0","battery-v0.2","","""event"",""trial"",""time""
""blur"",""1"",""7439""
""focus"",""1"",""9079""
""fullscreenenter"",""1"",""9151""
","""event"",""trial"",""time""
""blur"",""1"",""7439""
","""event"",""trial"",""time""
""focus"",""1"",""9079""
","""event"",""trial"",""time""
""fullscreenenter"",""1"",""9151""
","
","","","1585.5999999940395","","","13","19976","7314","e","elianto","#f73b6a7A"," "," ","1","0","[2438.5]","1","2","","","19976","22","2","3","lose","go","0"
"pit-trial","141","1024065","0.0-27.0","battery-v0.2","","""event"",""trial"",""time""
""blur"",""1"",""7439""
""focus"",""1"",""9079""
""fullscreenenter"",""1"",""9151""
","""event"",""trial"",""time""
""blur"",""1"",""7439""
","""event"",""trial"",""time""
""focus"",""1"",""9079""
","""event"",""trial"",""time""
""fullscreenenter"",""1"",""9151""
","
","","","1390.5999999940395","","","13","19976","7314","d","elianto","#3366ff99","-1"," ","0","0","[2241.9000000059605]","1","2","","","19976","23","1","2","win","no-go","0"
"pit-trial","142","1028007","0.0-28.0","battery-v0.2","","""event"",""trial"",""time""
""blur"",""1"",""7439""
""focus"",""1"",""9079""
""fullscreenenter"",""1"",""9151""
","""event"",""trial"",""time""
""blur"",""1"",""7439""
","""event"",""trial"",""time""
""focus"",""1"",""9079""
","""event"",""trial"",""time""
""fullscreenenter"",""1"",""9151""
","
","","","1088","","","13","19976","7314","w","elianto","#f73b6a7A","-1"," ","0","-10","[1938.5]","1","2","","","19976","24","3","4","lose","no-go","0"
"pit-trial","143","1032873","0.0-29.0","battery-v0.2","","""event"",""trial"",""time""
""blur"",""1"",""7439""
""focus"",""1"",""9079""
""fullscreenenter"",""1"",""9151""
","""event"",""trial"",""time""
""blur"",""1"",""7439""
","""event"",""trial"",""time""
""focus"",""1"",""9079""
","""event"",""trial"",""time""
""fullscreenenter"",""1"",""9151""
","
","","","-1","","","13","19976","7314","d","elianto","#3366ff99","-1","-1","1","0","[]","0","2","","","19976","25","1","2","win","no-go","1"
"pit-trial","144","1037174","0.0-30.0","battery-v0.2","","""event"",""trial"",""time""
""blur"",""1"",""7439""
""focus"",""1"",""9079""
""fullscreenenter"",""1"",""9151""
","""event"",""trial"",""time""
""blur"",""1"",""7439""
","""event"",""trial"",""time""
""focus"",""1"",""9079""
","""event"",""trial"",""time""
""fullscreenenter"",""1"",""9151""
","
","","","1434","","","13","19976","7314","j","elianto","#f73b6a7A"," "," ","1","0","[2289.199999988079]","1","2","","","19976","26","0","3","lose","go","0"
"pit-trial","145","1040941","0.0-31.0","battery-v0.2","","""event"",""trial"",""time""
""blur"",""1"",""7439""
""focus"",""1"",""9079""
""fullscreenenter"",""1"",""9151""
","""event"",""trial"",""time""
""blur"",""1"",""7439""
","""event"",""trial"",""time""
""focus"",""1"",""9079""
","""event"",""trial"",""time""
""fullscreenenter"",""1"",""9151""
","
","","","900.7999999821186","","","13","19976","7314","e","elianto","#f73b6a7A"," "," ","1","-10","[1760.8999999761581]","1","2","","","19976","27","2","3","lose","go","1"
"pit-trial","146","1045794","0.0-32.0","battery-v0.2","","""event"",""trial"",""time""
""blur"",""1"",""7439""
""focus"",""1"",""9079""
""fullscreenenter"",""1"",""9151""
","""event"",""trial"",""time""
""blur"",""1"",""7439""
","""event"",""trial"",""time""
""focus"",""1"",""9079""
","""event"",""trial"",""time""
""fullscreenenter"",""1"",""9151""
","
","","","-1","","","13","19976","7314","w","elianto","#f73b6a7A","-1","-1","1","0","[]","0","2","","","19976","28","3","4","lose","no-go","0"
"pit-trial","147","1049886","0.0-33.0","battery-v0.2","","""event"",""trial"",""time""
""blur"",""1"",""7439""
""focus"",""1"",""9079""
""fullscreenenter"",""1"",""9151""
","""event"",""trial"",""time""
""blur"",""1"",""7439""
","""event"",""trial"",""time""
""focus"",""1"",""9079""
","""event"",""trial"",""time""
""fullscreenenter"",""1"",""9151""
","
","","","1238.199999988079","","","13","19976","7314","j","elianto","#f73b6a7A"," "," ","1","-10","[2089.2999999821186]","1","2","","","19976","29","0","3","lose","go","1"
"pit-trial","148","1054740","0.0-34.0","battery-v0.2","","""event"",""trial"",""time""
""blur"",""1"",""7439""
""focus"",""1"",""9079""
""fullscreenenter"",""1"",""9151""
","""event"",""trial"",""time""
""blur"",""1"",""7439""
","""event"",""trial"",""time""
""focus"",""1"",""9079""
","""event"",""trial"",""time""
""fullscreenenter"",""1"",""9151""
","
","","","-1","","","13","19976","7314","e","elianto","#f73b6a7A"," ","-1","0","-10","[3067.5999999940395]","1","2","","","19976","30","2","3","lose","go","0"
"pit-trial","149","1059593","0.0-35.0","battery-v0.2","","""event"",""trial"",""time""
""blur"",""1"",""7439""
""focus"",""1"",""9079""
""fullscreenenter"",""1"",""9151""
","""event"",""trial"",""time""
""blur"",""1"",""7439""
","""event"",""trial"",""time""
""focus"",""1"",""9079""
","""event"",""trial"",""time""
""fullscreenenter"",""1"",""9151""
","
","","","-1","","","13","19976","7314","w","elianto","#f73b6a7A","-1","-1","1","0","[]","0","2","","","19976","31","3","4","lose","no-go","0"
"pit-trial","150","1064446","0.0-36.0","battery-v0.2","","""event"",""trial"",""time""
""blur"",""1"",""7439""
""focus"",""1"",""9079""
""fullscreenenter"",""1"",""9151""
","""event"",""trial"",""time""
""blur"",""1"",""7439""
","""event"",""trial"",""time""
""focus"",""1"",""9079""
","""event"",""trial"",""time""
""fullscreenenter"",""1"",""9151""
","
","","","-1","","","13","19976","7314","d","elianto","#3366ff99","-1","-1","1","+10","[3096.0999999940395]","1","2","","","19976","32","1","2","win","no-go","0"
"pit-trial","151","1069299","0.0-37.0","battery-v0.2","","""event"",""trial"",""time""
""blur"",""1"",""7439""
""focus"",""1"",""9079""
""fullscreenenter"",""1"",""9151""
","""event"",""trial"",""time""
""blur"",""1"",""7439""
","""event"",""trial"",""time""
""focus"",""1"",""9079""
","""event"",""trial"",""time""
""fullscreenenter"",""1"",""9151""
","
","","","-1","","","13","19976","7314","d","elianto","#3366ff99","-1","-1","1","0","[]","0","2","","","19976","33","1","2","win","no-go","1"
"pit-trial","152","1073242","0.0-38.0","battery-v0.2","","""event"",""trial"",""time""
""blur"",""1"",""7439""
""focus"",""1"",""9079""
""fullscreenenter"",""1"",""9151""
","""event"",""trial"",""time""
""blur"",""1"",""7439""
","""event"",""trial"",""time""
""focus"",""1"",""9079""
","""event"",""trial"",""time""
""fullscreenenter"",""1"",""9151""
","
","","","1088.5","","","13","19976","7314","e","elianto","#f73b6a7A"," "," ","1","0","[1939.7999999821186]","1","2","","","19976","34","2","3","lose","go","0"
"pit-trial","153","1077156","0.0-39.0","battery-v0.2","","""event"",""trial"",""time""
""blur"",""1"",""7439""
""focus"",""1"",""9079""
""fullscreenenter"",""1"",""9151""
","""event"",""trial"",""time""
""blur"",""1"",""7439""
","""event"",""trial"",""time""
""focus"",""1"",""9079""
","""event"",""trial"",""time""
""fullscreenenter"",""1"",""9151""
","
","","","1060.5","","","13","19976","7314","j","elianto","#f73b6a7A"," "," ","1","-10","[1911.5999999940395]","1","2","","","19976","35","0","3","lose","go","1"
"pit-trial","154","1082009","0.0-40.0","battery-v0.2","","""event"",""trial"",""time""
""blur"",""1"",""7439""
""focus"",""1"",""9079""
""fullscreenenter"",""1"",""9151""
","""event"",""trial"",""time""
""blur"",""1"",""7439""
","""event"",""trial"",""time""
""focus"",""1"",""9079""
","""event"",""trial"",""time""
""fullscreenenter"",""1"",""9151""
","
","","","-1","","","13","19976","7314","w","elianto","#f73b6a7A","-1","-1","1","0","[]","0","2","","","19976","36","3","4","lose","no-go","0"
"pit-trial","155","1086307","0.0-41.0","battery-v0.2","","""event"",""trial"",""time""
""blur"",""1"",""7439""
""focus"",""1"",""9079""
""fullscreenenter"",""1"",""9151""
","""event"",""trial"",""time""
""blur"",""1"",""7439""
","""event"",""trial"",""time""
""focus"",""1"",""9079""
","""event"",""trial"",""time""
""fullscreenenter"",""1"",""9151""
","
","","","1445.4000000059605","","","13","19976","7314","d","elianto","#3366ff99","-1"," ","0","0","[2295.5]","1","2","","","19976","37","1","2","win","no-go","0"
"pit-trial","156","1091160","0.0-42.0","battery-v0.2","","""event"",""trial"",""time""
""blur"",""1"",""7439""
""focus"",""1"",""9079""
""fullscreenenter"",""1"",""9151""
","""event"",""trial"",""time""
""blur"",""1"",""7439""
","""event"",""trial"",""time""
""focus"",""1"",""9079""
","""event"",""trial"",""time""
""fullscreenenter"",""1"",""9151""
","
","","","-1","","","13","19976","7314","e","elianto","#f73b6a7A"," ","-1","0","-10","[]","0","2","","","19976","38","2","3","lose","go","0"
"pit-trial","157","1096013","0.0-43.0","battery-v0.2","","""event"",""trial"",""time""
""blur"",""1"",""7439""
""focus"",""1"",""9079""
""fullscreenenter"",""1"",""9151""
","""event"",""trial"",""time""
""blur"",""1"",""7439""
","""event"",""trial"",""time""
""focus"",""1"",""9079""
","""event"",""trial"",""time""
""fullscreenenter"",""1"",""9151""
","
","","","-1","","","13","19976","7314","w","elianto","#f73b6a7A","-1","-1","1","0","[]","0","2","","","19976","39","3","4","lose","no-go","0"
"pit-trial","158","1100219","0.0-44.0","battery-v0.2","","""event"",""trial"",""time""
""blur"",""1"",""7439""
""focus"",""1"",""9079""
""fullscreenenter"",""1"",""9151""
","""event"",""trial"",""time""
""blur"",""1"",""7439""
","""event"",""trial"",""time""
""focus"",""1"",""9079""
","""event"",""trial"",""time""
""fullscreenenter"",""1"",""9151""
","
","","","1354","","","13","19976","7314","j","elianto","#f73b6a7A"," "," ","1","0","[2204.300000011921]","1","2","","","19976","40","0","3","lose","go","0"
"pit-trial","159","1105073","0.0-45.0","battery-v0.2","","""event"",""trial"",""time""
""blur"",""1"",""7439""
""focus"",""1"",""9079""
""fullscreenenter"",""1"",""9151""
","""event"",""trial"",""time""
""blur"",""1"",""7439""
","""event"",""trial"",""time""
""focus"",""1"",""9079""
","""event"",""trial"",""time""
""fullscreenenter"",""1"",""9151""
","
","","","-1","","","13","19976","7314","d","elianto","#3366ff99","-1","-1","1","+10","[]","0","2","","","19976","41","1","2","win","no-go","0"
"pit-trial","160","1108996","0.0-46.0","battery-v0.2","","""event"",""trial"",""time""
""blur"",""1"",""7439""
""focus"",""1"",""9079""
""fullscreenenter"",""1"",""9151""
","""event"",""trial"",""time""
""blur"",""1"",""7439""
","""event"",""trial"",""time""
""focus"",""1"",""9079""
","""event"",""trial"",""time""
""fullscreenenter"",""1"",""9151""
","
","","","1070.5","","","13","19976","7314","j","elianto","#f73b6a7A"," "," ","1","0","[1920.5]","1","2","","","19976","42","0","3","lose","go","0"
"pit-trial","161","1113850","0.0-47.0","battery-v0.2","","""event"",""trial"",""time""
""blur"",""1"",""7439""
""focus"",""1"",""9079""
""fullscreenenter"",""1"",""9151""
","""event"",""trial"",""time""
""blur"",""1"",""7439""
","""event"",""trial"",""time""
""focus"",""1"",""9079""
","""event"",""trial"",""time""
""fullscreenenter"",""1"",""9151""
","
","","","-1","","","13","19976","7314","w","elianto","#f73b6a7A","-1","-1","1","-10","[]","0","2","","","19976","43","3","4","lose","no-go","1"
"pit-trial","162","1118704","0.0-48.0","battery-v0.2","","""event"",""trial"",""time""
""blur"",""1"",""7439""
""focus"",""1"",""9079""
""fullscreenenter"",""1"",""9151""
","""event"",""trial"",""time""
""blur"",""1"",""7439""
","""event"",""trial"",""time""
""focus"",""1"",""9079""
","""event"",""trial"",""time""
""fullscreenenter"",""1"",""9151""
","
","","","-1","","","13","19976","7314","e","elianto","#f73b6a7A"," ","-1","0","-10","[]","0","2","","","19976","44","2","3","lose","go","0"
"pit-trial","163","1123559","0.0-49.0","battery-v0.2","","""event"",""trial"",""time""
""blur"",""1"",""7439""
""focus"",""1"",""9079""
""fullscreenenter"",""1"",""9151""
","""event"",""trial"",""time""
""blur"",""1"",""7439""
","""event"",""trial"",""time""
""focus"",""1"",""9079""
","""event"",""trial"",""time""
""fullscreenenter"",""1"",""9151""
","
","","","-1","","","13","19976","7314","d","elianto","#3366ff99","-1","-1","1","+10","[]","0","2","","","19976","45","1","2","win","no-go","0"
"pit-trial","164","1127296","0.0-50.0","battery-v0.2","","""event"",""trial"",""time""
""blur"",""1"",""7439""
""focus"",""1"",""9079""
""fullscreenenter"",""1"",""9151""
","""event"",""trial"",""time""
""blur"",""1"",""7439""
","""event"",""trial"",""time""
""focus"",""1"",""9079""
","""event"",""trial"",""time""
""fullscreenenter"",""1"",""9151""
","
","","","883.0999999940395","","","13","19976","7314","j","elianto","#f73b6a7A"," "," ","1","0","[1734.5]","1","2","","","19976","46","0","3","lose","go","0"
"pit-trial","165","1132149","0.0-51.0","battery-v0.2","","""event"",""trial"",""time""
""blur"",""1"",""7439""
""focus"",""1"",""9079""
""fullscreenenter"",""1"",""9151""
","""event"",""trial"",""time""
""blur"",""1"",""7439""
","""event"",""trial"",""time""
""focus"",""1"",""9079""
","""event"",""trial"",""time""
""fullscreenenter"",""1"",""9151""
","
","","","-1","","","13","19976","7314","w","elianto","#f73b6a7A","-1","-1","1","0","[]","0","2","","","19976","47","3","4","lose","no-go","0"
"pit-trial","166","1136851","0.0-52.0","battery-v0.2","","""event"",""trial"",""time""
""blur"",""1"",""7439""
""focus"",""1"",""9079""
""fullscreenenter"",""1"",""9151""
","""event"",""trial"",""time""
""blur"",""1"",""7439""
","""event"",""trial"",""time""
""focus"",""1"",""9079""
","""event"",""trial"",""time""
""fullscreenenter"",""1"",""9151""
","
","","","1847.4000000059605","","","13","19976","7314","e","elianto","#f73b6a7A"," "," ","1","0","[2699.2999999821186]","1","2","","","19976","48","2","3","lose","go","0"
"pit-trial","167","1141305","0.0-53.0","battery-v0.2","","""event"",""trial"",""time""
""blur"",""1"",""7439""
""focus"",""1"",""9079""
""fullscreenenter"",""1"",""9151""
","""event"",""trial"",""time""
""blur"",""1"",""7439""
","""event"",""trial"",""time""
""focus"",""1"",""9079""
","""event"",""trial"",""time""
""fullscreenenter"",""1"",""9151""
","
","","","1601.800000011921","","","13","19976","7314","j","elianto","#f73b6a7A"," "," ","1","0","[2452.5]","1","2","","","19976","49","0","3","lose","go","0"
"pit-trial","168","1145904","0.0-54.0","battery-v0.2","","""event"",""trial"",""time""
""blur"",""1"",""7439""
""focus"",""1"",""9079""
""fullscreenenter"",""1"",""9151""
","""event"",""trial"",""time""
""blur"",""1"",""7439""
","""event"",""trial"",""time""
""focus"",""1"",""9079""
","""event"",""trial"",""time""
""fullscreenenter"",""1"",""9151""
","
","","","1744.8999999761581","","","13","19976","7314","d","elianto","#3366ff99","-1"," ","0","+10","[2596.0999999940395]","1","2","","","19976","50","1","2","win","no-go","1"
"pit-trial","169","1150757","0.0-55.0","battery-v0.2","","""event"",""trial"",""time""
""blur"",""1"",""7439""
""focus"",""1"",""9079""
""fullscreenenter"",""1"",""9151""
","""event"",""trial"",""time""
""blur"",""1"",""7439""
","""event"",""trial"",""time""
""focus"",""1"",""9079""
","""event"",""trial"",""time""
""fullscreenenter"",""1"",""9151""
","
","","","-1","","","13","19976","7314","w","elianto","#f73b6a7A","-1","-1","1","0","[]","0","2","","","19976","51","3","4","lose","no-go","0"
"pit-trial","170","1155572","0.0-56.0","battery-v0.2","","""event"",""trial"",""time""
""blur"",""1"",""7439""
""focus"",""1"",""9079""
""fullscreenenter"",""1"",""9151""
","""event"",""trial"",""time""
""blur"",""1"",""7439""
","""event"",""trial"",""time""
""focus"",""1"",""9079""
","""event"",""trial"",""time""
""fullscreenenter"",""1"",""9151""
","
","","","1962.0999999940395","","","13","19976","7314","e","elianto","#f73b6a7A"," "," ","1","0","[2812.5]","1","2","","","19976","52","2","3","lose","go","0"
"pit-trial","171","1160426","0.0-57.0","battery-v0.2","","""event"",""trial"",""time""
""blur"",""1"",""7439""
""focus"",""1"",""9079""
""fullscreenenter"",""1"",""9151""
","""event"",""trial"",""time""
""blur"",""1"",""7439""
","""event"",""trial"",""time""
""focus"",""1"",""9079""
","""event"",""trial"",""time""
""fullscreenenter"",""1"",""9151""
","
","","","-1","","","13","19976","7314","w","elianto","#f73b6a7A","-1","-1","1","-10","[]","0","2","","","19976","53","3","4","lose","no-go","1"
"pit-trial","172","1164720","0.0-58.0","battery-v0.2","","""event"",""trial"",""time""
""blur"",""1"",""7439""
""focus"",""1"",""9079""
""fullscreenenter"",""1"",""9151""
","""event"",""trial"",""time""
""blur"",""1"",""7439""
","""event"",""trial"",""time""
""focus"",""1"",""9079""
","""event"",""trial"",""time""
""fullscreenenter"",""1"",""9151""
","
","","","1441.9000000059605","","","13","19976","7314","e","elianto","#f73b6a7A"," "," ","1","0","[2292.2000000178814]","1","2","","","19976","54","2","3","lose","go","0"
"pit-trial","173","1169574","0.0-59.0","battery-v0.2","","""event"",""trial"",""time""
""blur"",""1"",""7439""
""focus"",""1"",""9079""
""fullscreenenter"",""1"",""9151""
","""event"",""trial"",""time""
""blur"",""1"",""7439""
","""event"",""trial"",""time""
""focus"",""1"",""9079""
","""event"",""trial"",""time""
""fullscreenenter"",""1"",""9151""
","
","","","-1","","","13","19976","7314","d","elianto","#3366ff99","-1","-1","1","+10","[]","0","2","","","19976","55","1","2","win","no-go","0"
"pit-trial","174","1174426","0.0-60.0","battery-v0.2","","""event"",""trial"",""time""
""blur"",""1"",""7439""
""focus"",""1"",""9079""
""fullscreenenter"",""1"",""9151""
","""event"",""trial"",""time""
""blur"",""1"",""7439""
","""event"",""trial"",""time""
""focus"",""1"",""9079""
","""event"",""trial"",""time""
""fullscreenenter"",""1"",""9151""
","
","","","-1","","","13","19976","7314","j","elianto","#f73b6a7A"," ","-1","0","-10","[]","0","2","","","19976","56","0","3","lose","go","0"
"pit-trial","175","1179280","0.0-61.0","battery-v0.2","","""event"",""trial"",""time""
""blur"",""1"",""7439""
""focus"",""1"",""9079""
""fullscreenenter"",""1"",""9151""
","""event"",""trial"",""time""
""blur"",""1"",""7439""
","""event"",""trial"",""time""
""focus"",""1"",""9079""
","""event"",""trial"",""time""
""fullscreenenter"",""1"",""9151""
","
","","","-1","","","13","19976","7314","j","elianto","#f73b6a7A"," ","-1","0","-10","[]","0","2","","","19976","57","0","3","lose","go","0"
"pit-trial","176","1184134","0.0-62.0","battery-v0.2","","""event"",""trial"",""time""
""blur"",""1"",""7439""
""focus"",""1"",""9079""
""fullscreenenter"",""1"",""9151""
","""event"",""trial"",""time""
""blur"",""1"",""7439""
","""event"",""trial"",""time""
""focus"",""1"",""9079""
","""event"",""trial"",""time""
""fullscreenenter"",""1"",""9151""
","
","","","-1","","","13","19976","7314","w","elianto","#f73b6a7A","-1","-1","1","0","[]","0","2","","","19976","58","3","4","lose","no-go","0"
"pit-trial","177","1187786","0.0-63.0","battery-v0.2","","""event"",""trial"",""time""
""blur"",""1"",""7439""
""focus"",""1"",""9079""
""fullscreenenter"",""1"",""9151""
","""event"",""trial"",""time""
""blur"",""1"",""7439""
","""event"",""trial"",""time""
""focus"",""1"",""9079""
","""event"",""trial"",""time""
""fullscreenenter"",""1"",""9151""
","
","","","799.3000000119209","","","13","19976","7314","e","elianto","#f73b6a7A"," "," ","1","0","[1649.5]","1","2","","","19976","59","2","3","lose","go","0"
"pit-trial","178","1192031","0.0-64.0","battery-v0.2","","""event"",""trial"",""time""
""blur"",""1"",""7439""
""focus"",""1"",""9079""
""fullscreenenter"",""1"",""9151""
","""event"",""trial"",""time""
""blur"",""1"",""7439""
","""event"",""trial"",""time""
""focus"",""1"",""9079""
","""event"",""trial"",""time""
""fullscreenenter"",""1"",""9151""
","
","","","1390.6000000238419","","","13","19976","7314","s","elianto","#3366ff99"," "," ","1","+10","[2241.4000000059605]","1","2","","","19976","60","4","1","win","go","0"
"pit-trial","179","1196884","0.0-65.0","battery-v0.2","","""event"",""trial"",""time""
""blur"",""1"",""7439""
""focus"",""1"",""9079""
""fullscreenenter"",""1"",""9151""
","""event"",""trial"",""time""
""blur"",""1"",""7439""
","""event"",""trial"",""time""
""focus"",""1"",""9079""
","""event"",""trial"",""time""
""fullscreenenter"",""1"",""9151""
","
","","","-1","","","13","19976","7314","d","elianto","#3366ff99","-1","-1","1","+10","[]","0","2","","","19976","61","1","2","win","no-go","0"
"pit-trial","180","1201737","0.0-66.0","battery-v0.2","","""event"",""trial"",""time""
""blur"",""1"",""7439""
""focus"",""1"",""9079""
""fullscreenenter"",""1"",""9151""
","""event"",""trial"",""time""
""blur"",""1"",""7439""
","""event"",""trial"",""time""
""focus"",""1"",""9079""
","""event"",""trial"",""time""
""fullscreenenter"",""1"",""9151""
","
","","","-1","","","13","19976","7314","w","elianto","#f73b6a7A","-1","-1","1","0","[]","0","2","","","19976","62","3","4","lose","no-go","0"
"pit-trial","181","1206491","0.0-67.0","battery-v0.2","","""event"",""trial"",""time""
""blur"",""1"",""7439""
""focus"",""1"",""9079""
""fullscreenenter"",""1"",""9151""
","""event"",""trial"",""time""
""blur"",""1"",""7439""
","""event"",""trial"",""time""
""focus"",""1"",""9079""
","""event"",""trial"",""time""
""fullscreenenter"",""1"",""9151""
","
","","","1900.7999999821186","","","13","19976","7314","s","elianto","#3366ff99"," "," ","1","+10","[2751.4000000059605]","1","2","","","19976","63","4","1","win","go","0"
"pit-trial","182","1210383","0.0-68.0","battery-v0.2","","""event"",""trial"",""time""
""blur"",""1"",""7439""
""focus"",""1"",""9079""
""fullscreenenter"",""1"",""9151""
","""event"",""trial"",""time""
""blur"",""1"",""7439""
","""event"",""trial"",""time""
""focus"",""1"",""9079""
","""event"",""trial"",""time""
""fullscreenenter"",""1"",""9151""
","
","","","1038.9000000059605","","","13","19976","7314","e","elianto","#f73b6a7A"," "," ","1","0","[1889.5]","1","2","","","19976","64","2","3","lose","go","0"
"pit-trial","183","1214509","0.0-69.0","battery-v0.2","","""event"",""trial"",""time""
""blur"",""1"",""7439""
""focus"",""1"",""9079""
""fullscreenenter"",""1"",""9151""
","""event"",""trial"",""time""
""blur"",""1"",""7439""
","""event"",""trial"",""time""
""focus"",""1"",""9079""
","""event"",""trial"",""time""
""fullscreenenter"",""1"",""9151""
","
","","","1271.5","","","13","19976","7314","s","elianto","#3366ff99"," "," ","1","+10","[2122.4000000059605]","1","2","","","19976","65","4","1","win","go","0"
"pit-trial","184","1219362","0.0-70.0","battery-v0.2","","""event"",""trial"",""time""
""blur"",""1"",""7439""
""focus"",""1"",""9079""
""fullscreenenter"",""1"",""9151""
","""event"",""trial"",""time""
""blur"",""1"",""7439""
","""event"",""trial"",""time""
""focus"",""1"",""9079""
","""event"",""trial"",""time""
""fullscreenenter"",""1"",""9151""
","
","","","-1","","","13","19976","7314","w","elianto","#f73b6a7A","-1","-1","1","0","[]","0","2","","","19976","66","3","4","lose","no-go","0"
"pit-trial","185","1223683","0.0-71.0","battery-v0.2","","""event"",""trial"",""time""
""blur"",""1"",""7439""
""focus"",""1"",""9079""
""fullscreenenter"",""1"",""9151""
","""event"",""trial"",""time""
""blur"",""1"",""7439""
","""event"",""trial"",""time""
""focus"",""1"",""9079""
","""event"",""trial"",""time""
""fullscreenenter"",""1"",""9151""
","
","","","1467.7999999821186","","","13","19976","7314","p","elianto","#3366ff99","-1"," ","0","0","[2318]","1","2","","","19976","67","5","2","win","no-go","0"
"pit-trial","186","1228512","0.0-72.0","battery-v0.2","","""event"",""trial"",""time""
""blur"",""1"",""7439""
""focus"",""1"",""9079""
""fullscreenenter"",""1"",""9151""
","""event"",""trial"",""time""
""blur"",""1"",""7439""
","""event"",""trial"",""time""
""focus"",""1"",""9079""
","""event"",""trial"",""time""
""fullscreenenter"",""1"",""9151""
","
