"trial_type","trial_index","time_elapsed","internal_node_id","task_version","subject_id","interactions","blur_events","focus_events","fullscreenenter_events","fullscreenexit_events","success","view_history","rt","responses","num_errors","age","subject","participantId","rune","rune_set","hex","correct","choice","accuracy","outcome","keys","total_keys","block","practice","value","sub","trial","stimulus","robot","valence","action","sham"
"pavlovia","0","6","0.0-0.0","battery-v0.2","","""event"",""trial"",""time""
""fullscreenenter"",""1"",""4227""
","
","
","""event"",""trial"",""time""
""fullscreenenter"",""1"",""4227""
","
","","","","","","","","","","","","","","","","","","","","","","","","","","",""
"fullscreen","1","5211","0.0-1.0","battery-v0.2","","""event"",""trial"",""time""
""fullscreenenter"",""1"",""4227""
","
","
","""event"",""trial"",""time""
""fullscreenenter"",""1"",""4227""
","
","true","","","","","","","","","","","","","","","","","","","","","","","","","",""
"pit-instructions","2","10402","0.0-2.0-0.0","battery-v0.2","","""event"",""trial"",""time""
""fullscreenenter"",""1"",""4227""
","
","
","""event"",""trial"",""time""
""fullscreenenter"",""1"",""4227""
","
","","[{""page_index"":0,""viewing_time"":5188.9000000059605}]","5189.0999999940395","","","","","","","","","","","","","","","","","","","","","","","",""
"pit-comprehension","3","15047","0.0-2.0-1.0-0.0","battery-v0.2","","""event"",""trial"",""time""
""fullscreenenter"",""1"",""4227""
","
","
","""event"",""trial"",""time""
""fullscreenenter"",""1"",""4227""
","
","","","4643.20000000298","[""shark""]","0","12","13376","5711","","","","","","","","","","","","","","","","","","",""
"pit-instructions","4","16838","0.0-2.0-1.0-1.0","battery-v0.2","","""event"",""trial"",""time""
""fullscreenenter"",""1"",""4227""
","
","
","""event"",""trial"",""time""
""fullscreenenter"",""1"",""4227""
","
","","[{""page_index"":0,""viewing_time"":1784.4000000059605}]","1784.5999999940395","","","","","","","","","","","","","","","","","","","","","","","",""
"pit-comprehension","5","20314","0.0-2.0-2.0-0.0","battery-v0.2","","""event"",""trial"",""time""
""fullscreenenter"",""1"",""4227""
","
","
","""event"",""trial"",""time""
""fullscreenenter"",""1"",""4227""
","
","","","3474.2999999970198","[""tiger""]","0","12","13376","5711","","","","","","","","","","","","","","","","","","",""
"pit-instructions","6","21413","0.0-2.0-2.0-1.0","battery-v0.2","","""event"",""trial"",""time""
""fullscreenenter"",""1"",""4227""
","
","
","""event"",""trial"",""time""
""fullscreenenter"",""1"",""4227""
","
","","[{""page_index"":0,""viewing_time"":1097.8999999910593}]","1098.0999999940395","","","","","","","","","","","","","","","","","","","","","","","",""
"pit-instructions","7","113413","0.0-2.0-3.0","battery-v0.2","","""event"",""trial"",""time""
""fullscreenenter"",""1"",""4227""
","
","
","""event"",""trial"",""time""
""fullscreenenter"",""1"",""4227""
","
","","[{""page_index"":0,""viewing_time"":8062.20000000298},{""page_index"":1,""viewing_time"":6130.0999999940395},{""page_index"":2,""viewing_time"":7730.20000000298},{""page_index"":3,""viewing_time"":6342.0999999940395},{""page_index"":4,""viewing_time"":5775.600000008941},{""page_index"":5,""viewing_time"":5112.0999999940395},{""page_index"":6,""viewing_time"":6870},{""page_index"":7,""viewing_time"":6142},{""page_index"":8,""viewing_time"":6243.9000000059605},{""page_index"":9,""viewing_time"":7977.899999991059},{""page_index"":10,""viewing_time"":7599.9000000059605},{""page_index"":11,""viewing_time"":6670.20000000298},{""page_index"":12,""viewing_time"":6723.199999988079},{""page_index"":13,""viewing_time"":4618.600000008941}]","91998.20000000298","","","","","","","","","","","","","","","","","","","","","","","",""
"pit-trial","8","116874","0.0-2.0-4.0-0.0","battery-v0.2","","""event"",""trial"",""time""
""fullscreenenter"",""1"",""4227""
","
","
","""event"",""trial"",""time""
""fullscreenenter"",""1"",""4227""
","
","","","598.7000000029802","","","12","13376","5711","&#9784;","elianto","#FFFFF080"," "," ","1","&#10004","[1450.6000000089407]","1","0","0","","","","","","","",""
"pit-trial","9","120406","0.0-2.0-4.1-0.1","battery-v0.2","","""event"",""trial"",""time""
""fullscreenenter"",""1"",""4227""
","
","
","""event"",""trial"",""time""
""fullscreenenter"",""1"",""4227""
","
","","","670.1999999880791","","","12","13376","5711","&#9784;","elianto","#FFFFF080"," "," ","1","&#10004","[1523.9000000059605]","1","0","0","","","","","","","",""
"pit-trial","10","123781","0.0-2.0-4.2-0.2","battery-v0.2","","""event"",""trial"",""time""
""fullscreenenter"",""1"",""4227""
","
","
","""event"",""trial"",""time""
""fullscreenenter"",""1"",""4227""
","
","","","504.19999998807907","","","12","13376","5711","&#9784;","elianto","#FFFFF080"," "," ","1","&#10004","[1358.699999988079]","1","0","0","","","","","","","",""
"pit-trial","11","127207","0.0-2.0-4.3-0.3","battery-v0.2","","""event"",""trial"",""time""
""fullscreenenter"",""1"",""4227""
","
","
","""event"",""trial"",""time""
""fullscreenenter"",""1"",""4227""
","
","","","559.7999999970198","","","12","13376","5711","&#9784;","elianto","#FFFFF080"," "," ","1","&#10004","[1412.7000000029802]","1","0","0","","","","","","","",""
"pit-trial","12","130580","0.0-2.0-4.4-0.4","battery-v0.2","","""event"",""trial"",""time""
""fullscreenenter"",""1"",""4227""
","
","
","""event"",""trial"",""time""
""fullscreenenter"",""1"",""4227""
","
","","","507.69999998807907","","","12","13376","5711","&#9784;","elianto","#FFFFF080"," "," ","1","&#10004","[1363.2999999970198]","1","0","0","","","","","","","",""
"pit-instructions","13","152481","0.0-2.0-5.0","battery-v0.2","","""event"",""trial"",""time""
""fullscreenenter"",""1"",""4227""
","
","
","""event"",""trial"",""time""
""fullscreenenter"",""1"",""4227""
","
","","[{""page_index"":0,""viewing_time"":5802.5999999940395},{""page_index"":1,""viewing_time"":5397.70000000298},{""page_index"":2,""viewing_time"":4530.20000000298},{""page_index"":3,""viewing_time"":6168}]","21898.69999998808","","","","","","","","","","","","","","","","","","","","","","","",""
"pit-trial","14","157344","0.0-2.0-6.0-0.0","battery-v0.2","","""event"",""trial"",""time""
""fullscreenenter"",""1"",""4227""
","
","
","""event"",""trial"",""time""
""fullscreenenter"",""1"",""4227""
","
","","","-1","","","12","13376","5711","&#9854;","elianto","#FFFFF080","-1","-1","1","&#10004","[]","0","0","1","","","","","","","",""
"pit-trial","15","162213","0.0-2.0-6.1-0.1","battery-v0.2","","""event"",""trial"",""time""
""fullscreenenter"",""1"",""4227""
","
","
","""event"",""trial"",""time""
""fullscreenenter"",""1"",""4227""
","
","","","-1","","","12","13376","5711","&#9854;","elianto","#FFFFF080","-1","-1","1","&#10004","[]","0","0","1","","","","","","","",""
"pit-trial","16","167082","0.0-2.0-6.2-0.2","battery-v0.2","","""event"",""trial"",""time""
""fullscreenenter"",""1"",""4227""
","
","
","""event"",""trial"",""time""
""fullscreenenter"",""1"",""4227""
","
","","","-1","","","12","13376","5711","&#9854;","elianto","#FFFFF080","-1","-1","1","&#10004","[]","0","0","1","","","","","","","",""
"pit-trial","17","171951","0.0-2.0-6.3-0.3","battery-v0.2","","""event"",""trial"",""time""
""fullscreenenter"",""1"",""4227""
","
","
","""event"",""trial"",""time""
""fullscreenenter"",""1"",""4227""
","
","","","-1","","","12","13376","5711","&#9854;","elianto","#FFFFF080","-1","-1","1","&#10004","[]","0","0","1","","","","","","","",""
"pit-trial","18","176823","0.0-2.0-6.4-0.4","battery-v0.2","","""event"",""trial"",""time""
""fullscreenenter"",""1"",""4227""
","
","
","""event"",""trial"",""time""
""fullscreenenter"",""1"",""4227""
","
","","","-1","","","12","13376","5711","&#9854;","elianto","#FFFFF080","-1","-1","1","&#10004","[]","0","0","1","","","","","","","",""
"pit-instructions","19","295501","0.0-2.0-7.0","battery-v0.2","","""event"",""trial"",""time""
""fullscreenenter"",""1"",""4227""
","
","
","""event"",""trial"",""time""
""fullscreenenter"",""1"",""4227""
","
","","[{""page_index"":0,""viewing_time"":5820.29999999702},{""page_index"":1,""viewing_time"":6213.5999999940395},{""page_index"":2,""viewing_time"":6170.300000011921},{""page_index"":3,""viewing_time"":6010},{""page_index"":4,""viewing_time"":5969},{""page_index"":5,""viewing_time"":5834.699999988079},{""page_index"":6,""viewing_time"":4454.300000011921},{""page_index"":7,""viewing_time"":7443.899999991059},{""page_index"":8,""viewing_time"":7092},{""page_index"":9,""viewing_time"":6770.100000008941},{""page_index"":10,""viewing_time"":7249.899999991059},{""page_index"":11,""viewing_time"":4591.9000000059605},{""page_index"":12,""viewing_time"":6594.70000000298},{""page_index"":13,""viewing_time"":8561.199999988079},{""page_index"":14,""viewing_time"":7298.20000000298},{""page_index"":15,""viewing_time"":7014},{""page_index"":16,""viewing_time"":8571.90000000596},{""page_index"":17,""viewing_time"":7015.899999991059}]","118676.09999999404","","","","","","","","","","","","","","","","","","","","","","","",""
"pit-trial","20","299201","0.0-2.0-8.0-0.0","battery-v0.2","","""event"",""trial"",""time""
""fullscreenenter"",""1"",""4227""
","
","
","""event"",""trial"",""time""
""fullscreenenter"",""1"",""4227""
","
","","","837.0999999940395","","","12","13376","5711","&#9776;","elianto","#3366ff99"," "," ","1","+10","[1688]","1","0","1","","","","","","","",""
"pit-trial","21","302480","0.0-2.0-8.0-1.0","battery-v0.2","","""event"",""trial"",""time""
""fullscreenenter"",""1"",""4227""
","
","
","""event"",""trial"",""time""
""fullscreenenter"",""1"",""4227""
","
","","","417.6000000089407","","","12","13376","5711","&#9776;","elianto","#3366ff99"," "," ","1","+10","[1268]","1","0","1","","","","","","","",""
"pit-trial","22","305790","0.0-2.0-8.0-2.0","battery-v0.2","","""event"",""trial"",""time""
""fullscreenenter"",""1"",""4227""
","
","
","""event"",""trial"",""time""
""fullscreenenter"",""1"",""4227""
","
","","","439.79999999701977","","","12","13376","5711","&#9776;","elianto","#3366ff99"," "," ","1","+10","[1293.6000000089407]","1","0","1","","","","","","","",""
"pit-trial","23","309073","0.0-2.0-8.0-3.0","battery-v0.2","","""event"",""trial"",""time""
""fullscreenenter"",""1"",""4227""
","
","
","""event"",""trial"",""time""
""fullscreenenter"",""1"",""4227""
","
","","","415.09999999403954","","","12","13376","5711","&#9776;","elianto","#3366ff99"," "," ","1","0","[1268.7999999970198]","1","0","1","","","","","","","",""
"pit-trial","24","312650","0.0-2.0-8.0-4.0","battery-v0.2","","""event"",""trial"",""time""
""fullscreenenter"",""1"",""4227""
","
","
","""event"",""trial"",""time""
""fullscreenenter"",""1"",""4227""
","
","","","713.0999999940395","","","12","13376","5711","&#9776;","elianto","#3366ff99"," "," ","1","+10","[1567]","1","0","1","","","","","","","",""
"pit-trial","25","315910","0.0-2.0-8.1-0.1","battery-v0.2","","""event"",""trial"",""time""
""fullscreenenter"",""1"",""4227""
","
","
","""event"",""trial"",""time""
""fullscreenenter"",""1"",""4227""
","
","","","398.90000000596046","","","12","13376","5711","&#9776;","elianto","#3366ff99"," "," ","1","+10","[1249.8999999910593]","1","0","1","","","","","","","",""
"pit-trial","26","319199","0.0-2.0-8.1-1.1","battery-v0.2","","""event"",""trial"",""time""
""fullscreenenter"",""1"",""4227""
","
","
","""event"",""trial"",""time""
""fullscreenenter"",""1"",""4227""
","
","","","422.1000000089407","","","12","13376","5711","&#9776;","elianto","#3366ff99"," "," ","1","+10","[1274.800000011921]","1","0","1","","","","","","","",""
"pit-trial","27","322612","0.0-2.0-8.1-2.1","battery-v0.2","","""event"",""trial"",""time""
""fullscreenenter"",""1"",""4227""
","
","
","""event"",""trial"",""time""
""fullscreenenter"",""1"",""4227""
","
","","","546.3999999910593","","","12","13376","5711","&#9776;","elianto","#3366ff99"," "," ","1","+10","[1400.0999999940395]","1","0","1","","","","","","","",""
"pit-trial","28","326629","0.0-2.0-8.1-3.1","battery-v0.2","","""event"",""trial"",""time""
""fullscreenenter"",""1"",""4227""
","
","
","""event"",""trial"",""time""
""fullscreenenter"",""1"",""4227""
","
","","","1159.1000000089407","","","12","13376","5711","&#9776;","elianto","#3366ff99"," "," ","1","0","[2014]","1","0","1","","","","","","","",""
"pit-trial","29","330568","0.0-2.0-8.1-4.1","battery-v0.2","","""event"",""trial"",""time""
""fullscreenenter"",""1"",""4227""
","
","
","""event"",""trial"",""time""
""fullscreenenter"",""1"",""4227""
","
","","","1087.199999988079","","","12","13376","5711","&#9776;","elianto","#3366ff99"," "," ","1","+10","[1937.7999999970198]","1","0","1","","","","","","","",""
"pit-trial","30","334166","0.0-2.0-8.2-0.2","battery-v0.2","","""event"",""trial"",""time""
""fullscreenenter"",""1"",""4227""
","
","
","""event"",""trial"",""time""
""fullscreenenter"",""1"",""4227""
","
","","","743.7000000029802","","","12","13376","5711","&#9776;","elianto","#3366ff99"," "," ","1","+10","[1595.6000000089407]","1","0","1","","","","","","","",""
"pit-trial","31","337899","0.0-2.0-8.2-1.2","battery-v0.2","","""event"",""trial"",""time""
""fullscreenenter"",""1"",""4227""
","
","
","""event"",""trial"",""time""
""fullscreenenter"",""1"",""4227""
","
","","","880","","","12","13376","5711","&#9776;","elianto","#3366ff99"," "," ","1","+10","[1730.699999988079]","1","0","1","","","","","","","",""
"pit-trial","32","341867","0.0-2.0-8.2-2.2","battery-v0.2","","""event"",""trial"",""time""
""fullscreenenter"",""1"",""4227""
","
","
","""event"",""trial"",""time""
""fullscreenenter"",""1"",""4227""
","
","","","1116.4000000059605","","","12","13376","5711","&#9776;","elianto","#3366ff99"," "," ","1","+10","[1966.699999988079]","1","0","1","","","","","","","",""
"pit-trial","33","345709","0.0-2.0-8.2-3.2","battery-v0.2","","""event"",""trial"",""time""
""fullscreenenter"",""1"",""4227""
","
","
","""event"",""trial"",""time""
""fullscreenenter"",""1"",""4227""
","
","","","988.7999999970198","","","12","13376","5711","&#9776;","elianto","#3366ff99"," "," ","1","0","[1839.2000000029802]","1","0","1","","","","","","","",""
"pit-trial","34","349011","0.0-2.0-8.2-4.2","battery-v0.2","","""event"",""trial"",""time""
""fullscreenenter"",""1"",""4227""
","
","
","""event"",""trial"",""time""
""fullscreenenter"",""1"",""4227""
","
","","","449.90000000596046","","","12","13376","5711","&#9776;","elianto","#3366ff99"," "," ","1","+10","[1300.8999999910593]","1","0","1","","","","","","","",""
"call-function","35","349013","0.0-2.0-9.0","battery-v0.2","","""event"",""trial"",""time""
""fullscreenenter"",""1"",""4227""
","
","
","""event"",""trial"",""time""
""fullscreenenter"",""1"",""4227""
","
","","","","","","","","","","","","","","","","","","","","","","","","","","",""
"pit-instructions","36","388070","0.0-2.0-10.0","battery-v0.2","","""event"",""trial"",""time""
""fullscreenenter"",""1"",""4227""
","
","
","""event"",""trial"",""time""
""fullscreenenter"",""1"",""4227""
","
","","[{""page_index"":0,""viewing_time"":5543.70000000298},{""page_index"":1,""viewing_time"":6809.5999999940395},{""page_index"":2,""viewing_time"":10362},{""page_index"":3,""viewing_time"":8894.10000000894},{""page_index"":4,""viewing_time"":7446}]","39055.60000000894","","","","","","","","","","","","","","","","","","","","","","","",""
"pit-trial","37","391743","0.0-2.0-11.0-0.0","battery-v0.2","","""event"",""trial"",""time""
""fullscreenenter"",""1"",""4227""
","
","
","""event"",""trial"",""time""
""fullscreenenter"",""1"",""4227""
","
","","","806.4000000059605","","","12","13376","5711","&#9761;","elianto","#3366ff99","-1"," ","0","0","[1656.7000000029802]","1","0","2","","","","","","","",""
"pit-trial","38","394998","0.0-2.0-11.0-1.0","battery-v0.2","","""event"",""trial"",""time""
""fullscreenenter"",""1"",""4227""
","
","
","""event"",""trial"",""time""
""fullscreenenter"",""1"",""4227""
","
","","","394.70000000298023","","","12","13376","5711","&#9761;","elianto","#3366ff99","-1"," ","0","0","[1248.5999999940395]","1","0","2","","","","","","","",""
"pit-trial","39","399867","0.0-2.0-11.0-2.0","battery-v0.2","","""event"",""trial"",""time""
""fullscreenenter"",""1"",""4227""
","
","
","""event"",""trial"",""time""
""fullscreenenter"",""1"",""4227""
","
","","","-1","","","12","13376","5711","&#9761;","elianto","#3366ff99","-1","-1","1","+10","[]","0","0","2","","","","","","","",""
"pit-trial","40","404741","0.0-2.0-11.0-3.0","battery-v0.2","","""event"",""trial"",""time""
""fullscreenenter"",""1"",""4227""
","
","
","""event"",""trial"",""time""
""fullscreenenter"",""1"",""4227""
","
","","","-1","","","12","13376","5711","&#9761;","elianto","#3366ff99","-1","-1","1","0","[]","0","0","2","","","","","","","",""
"pit-trial","41","409599","0.0-2.0-11.0-4.0","battery-v0.2","","""event"",""trial"",""time""
""fullscreenenter"",""1"",""4227""
","
","
","""event"",""trial"",""time""
""fullscreenenter"",""1"",""4227""
","
","","","-1","","","12","13376","5711","&#9761;","elianto","#3366ff99","-1","-1","1","+10","[]","0","0","2","","","","","","","",""
"pit-trial","42","414464","0.0-2.0-11.1-0.1","battery-v0.2","","""event"",""trial"",""time""
""fullscreenenter"",""1"",""4227""
","
","
","""event"",""trial"",""time""
""fullscreenenter"",""1"",""4227""
","
","","","-1","","","12","13376","5711","&#9761;","elianto","#3366ff99","-1","-1","1","+10","[]","0","0","2","","","","","","","",""
"pit-trial","43","419324","0.0-2.0-11.1-1.1","battery-v0.2","","""event"",""trial"",""time""
""fullscreenenter"",""1"",""4227""
","
","
","""event"",""trial"",""time""
""fullscreenenter"",""1"",""4227""
","
","","","-1","","","12","13376","5711","&#9761;","elianto","#3366ff99","-1","-1","1","+10","[]","0","0","2","","","","","","","",""
"pit-trial","44","424177","0.0-2.0-11.1-2.1","battery-v0.2","","""event"",""trial"",""time""
""fullscreenenter"",""1"",""4227""
","
","
","""event"",""trial"",""time""
""fullscreenenter"",""1"",""4227""
","
","","","-1","","","12","13376","5711","&#9761;","elianto","#3366ff99","-1","-1","1","+10","[]","0","0","2","","","","","","","",""
"pit-trial","45","429030","0.0-2.0-11.1-3.1","battery-v0.2","","""event"",""trial"",""time""
""fullscreenenter"",""1"",""4227""
","
","
","""event"",""trial"",""time""
""fullscreenenter"",""1"",""4227""
","
","","","-1","","","12","13376","5711","&#9761;","elianto","#3366ff99","-1","-1","1","0","[]","0","0","2","","","","","","","",""
"pit-trial","46","433883","0.0-2.0-11.1-4.1","battery-v0.2","","""event"",""trial"",""time""
""fullscreenenter"",""1"",""4227""
","
","
","""event"",""trial"",""time""
""fullscreenenter"",""1"",""4227""
","
","","","-1","","","12","13376","5711","&#9761;","elianto","#3366ff99","-1","-1","1","+10","[]","0","0","2","","","","","","","",""
"pit-trial","47","438740","0.0-2.0-11.2-0.2","battery-v0.2","","""event"",""trial"",""time""
""fullscreenenter"",""1"",""4227""
","
","
","""event"",""trial"",""time""
""fullscreenenter"",""1"",""4227""
","
","","","-1","","","12","13376","5711","&#9761;","elianto","#3366ff99","-1","-1","1","+10","[]","0","0","2","","","","","","","",""
"pit-trial","48","443593","0.0-2.0-11.2-1.2","battery-v0.2","","""event"",""trial"",""time""
""fullscreenenter"",""1"",""4227""
","
","
","""event"",""trial"",""time""
""fullscreenenter"",""1"",""4227""
","
","","","-1","","","12","13376","5711","&#9761;","elianto","#3366ff99","-1","-1","1","+10","[]","0","0","2","","","","","","","",""
"pit-trial","49","448446","0.0-2.0-11.2-2.2","battery-v0.2","","""event"",""trial"",""time""
""fullscreenenter"",""1"",""4227""
","
","
","""event"",""trial"",""time""
""fullscreenenter"",""1"",""4227""
","
","","","-1","","","12","13376","5711","&#9761;","elianto","#3366ff99","-1","-1","1","+10","[]","0","0","2","","","","","","","",""
"pit-trial","50","453300","0.0-2.0-11.2-3.2","battery-v0.2","","""event"",""trial"",""time""
""fullscreenenter"",""1"",""4227""
","
","
","""event"",""trial"",""time""
""fullscreenenter"",""1"",""4227""
","
","","","-1","","","12","13376","5711","&#9761;","elianto","#3366ff99","-1","-1","1","0","[]","0","0","2","","","","","","","",""
"pit-trial","51","458152","0.0-2.0-11.2-4.2","battery-v0.2","","""event"",""trial"",""time""
""fullscreenenter"",""1"",""4227""
","
","
","""event"",""trial"",""time""
""fullscreenenter"",""1"",""4227""
","
","","","-1","","","12","13376","5711","&#9761;","elianto","#3366ff99","-1","-1","1","+10","[]","0","0","2","","","","","","","",""
"pit-trial","52","463005","0.0-2.0-11.3-0.3","battery-v0.2","","""event"",""trial"",""time""
""fullscreenenter"",""1"",""4227""
","
","
","""event"",""trial"",""time""
""fullscreenenter"",""1"",""4227""
","
","","","-1","","","12","13376","5711","&#9761;","elianto","#3366ff99","-1","-1","1","+10","[]","0","0","2","","","","","","","",""
"pit-trial","53","467858","0.0-2.0-11.3-1.3","battery-v0.2","","""event"",""trial"",""time""
""fullscreenenter"",""1"",""4227""
","
","
","""event"",""trial"",""time""
""fullscreenenter"",""1"",""4227""
","
","","","-1","","","12","13376","5711","&#9761;","elianto","#3366ff99","-1","-1","1","+10","[]","0","0","2","","","","","","","",""
"pit-trial","54","472712","0.0-2.0-11.3-2.3","battery-v0.2","","""event"",""trial"",""time""
""fullscreenenter"",""1"",""4227""
","
","
","""event"",""trial"",""time""
""fullscreenenter"",""1"",""4227""
","
","","","-1","","","12","13376","5711","&#9761;","elianto","#3366ff99","-1","-1","1","+10","[]","0","0","2","","","","","","","",""
"pit-trial","55","477565","0.0-2.0-11.3-3.3","battery-v0.2","","""event"",""trial"",""time""
""fullscreenenter"",""1"",""4227""
","
","
","""event"",""trial"",""time""
""fullscreenenter"",""1"",""4227""
","
","","","-1","","","12","13376","5711","&#9761;","elianto","#3366ff99","-1","-1","1","0","[]","0","0","2","","","","","","","",""
"pit-trial","56","482416","0.0-2.0-11.3-4.3","battery-v0.2","","""event"",""trial"",""time""
""fullscreenenter"",""1"",""4227""
","
","
","""event"",""trial"",""time""
""fullscreenenter"",""1"",""4227""
","
","","","-1","","","12","13376","5711","&#9761;","elianto","#3366ff99","-1","-1","1","+10","[]","0","0","2","","","","","","","",""
"call-function","57","482417","0.0-2.0-12.0","battery-v0.2","","""event"",""trial"",""time""
""fullscreenenter"",""1"",""4227""
","
","
","""event"",""trial"",""time""
""fullscreenenter"",""1"",""4227""
","
","","","","","","","","","","","","","","","","","","","","","","","","","","",""
"pit-instructions","58","517001","0.0-2.0-13.0","battery-v0.2","","""event"",""trial"",""time""
""fullscreenenter"",""1"",""4227""
","
","
","""event"",""trial"",""time""
""fullscreenenter"",""1"",""4227""
","
","","[{""page_index"":0,""viewing_time"":6081.600000008941},{""page_index"":1,""viewing_time"":8542.29999999702},{""page_index"":2,""viewing_time"":5057.70000000298},{""page_index"":3,""viewing_time"":10256.199999988079},{""page_index"":4,""viewing_time"":4645.9000000059605}]","34584.10000000894","","","","","","","","","","","","","","","","","","","","","","","",""
"pit-trial","59","520366","0.0-2.0-14.0-0.0","battery-v0.2","","""event"",""trial"",""time""
""fullscreenenter"",""1"",""4227""
","
","
","""event"",""trial"",""time""
""fullscreenenter"",""1"",""4227""
","
","","","495.70000000298023","","","12","13376","5711","&#9826;","elianto","#f73b6a7A","-1"," ","0","-10","[1351.5]","1","0","3","","","","","","","",""
"pit-trial","60","523327","0.0-2.0-14.0-1.0","battery-v0.2","","""event"",""trial"",""time""
""fullscreenenter"",""1"",""4227""
","
","
","""event"",""trial"",""time""
""fullscreenenter"",""1"",""4227""
","
","","","107.79999999701977","","","12","13376","5711","&#9826;","elianto","#f73b6a7A","-1"," ","0","-10","[958.2999999970198]","1","0","3","","","","","","","",""
"pit-trial","61","528182","0.0-2.0-14.0-2.0","battery-v0.2","","""event"",""trial"",""time""
""fullscreenenter"",""1"",""4227""
","
","
","""event"",""trial"",""time""
""fullscreenenter"",""1"",""4227""
","
","","","-1","","","12","13376","5711","&#9826;","elianto","#f73b6a7A","-1","-1","1","0","[]","0","0","3","","","","","","","",""
"pit-trial","62","533049","0.0-2.0-14.0-3.0","battery-v0.2","","""event"",""trial"",""time""
""fullscreenenter"",""1"",""4227""
","
","
","""event"",""trial"",""time""
""fullscreenenter"",""1"",""4227""
","
","","","-1","","","12","13376","5711","&#9826;","elianto","#f73b6a7A","-1","-1","1","-10","[]","0","0","3","","","","","","","",""
"pit-trial","63","537918","0.0-2.0-14.0-4.0","battery-v0.2","","""event"",""trial"",""time""
""fullscreenenter"",""1"",""4227""
","
","
","""event"",""trial"",""time""
""fullscreenenter"",""1"",""4227""
","
","","","-1","","","12","13376","5711","&#9826;","elianto","#f73b6a7A","-1","-1","1","0","[]","0","0","3","","","","","","","",""
"pit-trial","64","542780","0.0-2.0-14.1-0.1","battery-v0.2","","""event"",""trial"",""time""
""fullscreenenter"",""1"",""4227""
","
","
","""event"",""trial"",""time""
""fullscreenenter"",""1"",""4227""
","
","","","-1","","","12","13376","5711","&#9826;","elianto","#f73b6a7A","-1","-1","1","0","[]","0","0","3","","","","","","","",""
"pit-trial","65","547640","0.0-2.0-14.1-1.1","battery-v0.2","","""event"",""trial"",""time""
""fullscreenenter"",""1"",""4227""
","
","
","""event"",""trial"",""time""
""fullscreenenter"",""1"",""4227""
","
","","","-1","","","12","13376","5711","&#9826;","elianto","#f73b6a7A","-1","-1","1","0","[]","0","0","3","","","","","","","",""
"pit-trial","66","552493","0.0-2.0-14.1-2.1","battery-v0.2","","""event"",""trial"",""time""
""fullscreenenter"",""1"",""4227""
","
","
","""event"",""trial"",""time""
""fullscreenenter"",""1"",""4227""
","
","","","-1","","","12","13376","5711","&#9826;","elianto","#f73b6a7A","-1","-1","1","0","[]","0","0","3","","","","","","","",""
"pit-trial","67","557346","0.0-2.0-14.1-3.1","battery-v0.2","","""event"",""trial"",""time""
""fullscreenenter"",""1"",""4227""
","
","
","""event"",""trial"",""time""
""fullscreenenter"",""1"",""4227""
","
","","","-1","","","12","13376","5711","&#9826;","elianto","#f73b6a7A","-1","-1","1","-10","[]","0","0","3","","","","","","","",""
"pit-trial","68","562199","0.0-2.0-14.1-4.1","battery-v0.2","","""event"",""trial"",""time""
""fullscreenenter"",""1"",""4227""
","
","
","""event"",""trial"",""time""
""fullscreenenter"",""1"",""4227""
","
","","","-1","","","12","13376","5711","&#9826;","elianto","#f73b6a7A","-1","-1","1","0","[]","0","0","3","","","","","","","",""
"pit-trial","69","567053","0.0-2.0-14.2-0.2","battery-v0.2","","""event"",""trial"",""time""
""fullscreenenter"",""1"",""4227""
","
","
","""event"",""trial"",""time""
""fullscreenenter"",""1"",""4227""
","
","","","-1","","","12","13376","5711","&#9826;","elianto","#f73b6a7A","-1","-1","1","0","[]","0","0","3","","","","","","","",""
"pit-trial","70","571906","0.0-2.0-14.2-1.2","battery-v0.2","","""event"",""trial"",""time""
""fullscreenenter"",""1"",""4227""
","
","
","""event"",""trial"",""time""
""fullscreenenter"",""1"",""4227""
","
","","","-1","","","12","13376","5711","&#9826;","elianto","#f73b6a7A","-1","-1","1","0","[]","0","0","3","","","","","","","",""
"pit-trial","71","576760","0.0-2.0-14.2-2.2","battery-v0.2","","""event"",""trial"",""time""
""fullscreenenter"",""1"",""4227""
","
","
","""event"",""trial"",""time""
""fullscreenenter"",""1"",""4227""
","
","","","-1","","","12","13376","5711","&#9826;","elianto","#f73b6a7A","-1","-1","1","0","[]","0","0","3","","","","","","","",""
"pit-trial","72","581613","0.0-2.0-14.2-3.2","battery-v0.2","","""event"",""trial"",""time""
""fullscreenenter"",""1"",""4227""
","
","
","""event"",""trial"",""time""
""fullscreenenter"",""1"",""4227""
","
","","","-1","","","12","13376","5711","&#9826;","elianto","#f73b6a7A","-1","-1","1","-10","[]","0","0","3","","","","","","","",""
"pit-trial","73","586465","0.0-2.0-14.2-4.2","battery-v0.2","","""event"",""trial"",""time""
""fullscreenenter"",""1"",""4227""
","
","
","""event"",""trial"",""time""
""fullscreenenter"",""1"",""4227""
","
","","","-1","","","12","13376","5711","&#9826;","elianto","#f73b6a7A","-1","-1","1","0","[]","0","0","3","","","","","","","",""
"pit-trial","74","591319","0.0-2.0-14.3-0.3","battery-v0.2","","""event"",""trial"",""time""
""fullscreenenter"",""1"",""4227""
","
","
","""event"",""trial"",""time""
""fullscreenenter"",""1"",""4227""
","
","","","-1","","","12","13376","5711","&#9826;","elianto","#f73b6a7A","-1","-1","1","0","[]","0","0","3","","","","","","","",""
"pit-trial","75","596181","0.0-2.0-14.3-1.3","battery-v0.2","","""event"",""trial"",""time""
""fullscreenenter"",""1"",""4227""
","
","
","""event"",""trial"",""time""
""fullscreenenter"",""1"",""4227""
","
","","","-1","","","12","13376","5711","&#9826;","elianto","#f73b6a7A","-1","-1","1","0","[]","0","0","3","","","","","","","",""
"pit-trial","76","601034","0.0-2.0-14.3-2.3","battery-v0.2","","""event"",""trial"",""time""
""fullscreenenter"",""1"",""4227""
","
","
","""event"",""trial"",""time""
""fullscreenenter"",""1"",""4227""
","
","","","-1","","","12","13376","5711","&#9826;","elianto","#f73b6a7A","-1","-1","1","0","[]","0","0","3","","","","","","","",""
"pit-trial","77","605887","0.0-2.0-14.3-3.3","battery-v0.2","","""event"",""trial"",""time""
""fullscreenenter"",""1"",""4227""
","
","
","""event"",""trial"",""time""
""fullscreenenter"",""1"",""4227""
","
","","","-1","","","12","13376","5711","&#9826;","elianto","#f73b6a7A","-1","-1","1","-10","[]","0","0","3","","","","","","","",""
"pit-trial","78","610754","0.0-2.0-14.3-4.3","battery-v0.2","","""event"",""trial"",""time""
""fullscreenenter"",""1"",""4227""
","
","
","""event"",""trial"",""time""
""fullscreenenter"",""1"",""4227""
","
","","","-1","","","12","13376","5711","&#9826;","elianto","#f73b6a7A","-1","-1","1","0","[]","0","0","3","","","","","","","",""
"call-function","79","610755","0.0-2.0-15.0","battery-v0.2","","""event"",""trial"",""time""
""fullscreenenter"",""1"",""4227""
","
","
","""event"",""trial"",""time""
""fullscreenenter"",""1"",""4227""
","
","","","","","","","","","","","","","","","","","","","","","","","","","","",""
"pit-instructions","80","635579","0.0-2.0-16.0","battery-v0.2","","""event"",""trial"",""time""
""fullscreenenter"",""1"",""4227""
","
","
","""event"",""trial"",""time""
""fullscreenenter"",""1"",""4227""
","
","","[{""page_index"":0,""viewing_time"":6769.5},{""page_index"":1,""viewing_time"":8018},{""page_index"":2,""viewing_time"":4744},{""page_index"":3,""viewing_time"":5292}]","24823.69999998808","","","","","","","","","","","","","","","","","","","","","","","",""
"pit-trial","81","639203","0.0-2.0-17.0-0.0","battery-v0.2","","""event"",""trial"",""time""
""fullscreenenter"",""1"",""4227""
","
","
","""event"",""trial"",""time""
""fullscreenenter"",""1"",""4227""
","
","","","763.9000000059605","","","12","13376","5711","&#9789;","elianto","#f73b6a7A"," "," ","1","0","[1618.6000000089407]","1","0","4","","","","","","","",""
"pit-trial","82","642361","0.0-2.0-17.0-1.0","battery-v0.2","","""event"",""trial"",""time""
""fullscreenenter"",""1"",""4227""
","
","
","""event"",""trial"",""time""
""fullscreenenter"",""1"",""4227""
","
","","","287.8999999910593","","","12","13376","5711","&#9789;","elianto","#f73b6a7A"," "," ","1","0","[1142]","1","0","4","","","","","","","",""
"pit-trial","83","645332","0.0-2.0-17.0-2.0","battery-v0.2","","""event"",""trial"",""time""
""fullscreenenter"",""1"",""4227""
","
","
","""event"",""trial"",""time""
""fullscreenenter"",""1"",""4227""
","
","","","104.09999999403954","","","12","13376","5711","&#9789;","elianto","#f73b6a7A"," "," ","1","0","[957.5999999940395]","1","0","4","","","","","","","",""
"pit-trial","84","649075","0.0-2.0-17.0-3.0","battery-v0.2","","""event"",""trial"",""time""
""fullscreenenter"",""1"",""4227""
","
","
","""event"",""trial"",""time""
""fullscreenenter"",""1"",""4227""
","
","","","879.1999999880791","","","12","13376","5711","&#9789;","elianto","#f73b6a7A"," "," ","1","-10","[1731.4000000059605]","1","0","4","","","","","","","",""
"pit-trial","85","652161","0.0-2.0-17.0-4.0","battery-v0.2","","""event"",""trial"",""time""
""fullscreenenter"",""1"",""4227""
","
","
","""event"",""trial"",""time""
""fullscreenenter"",""1"",""4227""
","
","","","222","","","12","13376","5711","&#9789;","elianto","#f73b6a7A"," "," ","1","0","[1073.2999999970198]","1","0","4","","","","","","","",""
"pit-trial","86","655188","0.0-2.0-17.1-0.1","battery-v0.2","","""event"",""trial"",""time""
""fullscreenenter"",""1"",""4227""
","
","
","""event"",""trial"",""time""
""fullscreenenter"",""1"",""4227""
","
","","","163.5","","","12","13376","5711","&#9789;","elianto","#f73b6a7A"," "," ","1","0","[1016.0999999940395]","1","0","4","","","","","","","",""
"pit-trial","87","658150","0.0-2.0-17.1-1.1","battery-v0.2","","""event"",""trial"",""time""
""fullscreenenter"",""1"",""4227""
","
","
","""event"",""trial"",""time""
""fullscreenenter"",""1"",""4227""
","
","","","108.70000000298023","","","12","13376","5711","&#9789;","elianto","#f73b6a7A"," "," ","1","0","[960]","1","0","4","","","","","","","",""
"pit-trial","88","661207","0.0-2.0-17.1-2.1","battery-v0.2","","""event"",""trial"",""time""
""fullscreenenter"",""1"",""4227""
","
","
","""event"",""trial"",""time""
""fullscreenenter"",""1"",""4227""
","
","","","200.6000000089407","","","12","13376","5711","&#9789;","elianto","#f73b6a7A"," "," ","1","0","[1052.2999999970198]","1","0","4","","","","","","","",""
"pit-trial","89","664075","0.0-2.0-17.1-3.1","battery-v0.2","","""event"",""trial"",""time""
""fullscreenenter"",""1"",""4227""
","
","
","""event"",""trial"",""time""
""fullscreenenter"",""1"",""4227""
","
","","","6","","","12","13376","5711","&#9789;","elianto","#f73b6a7A"," "," ","1","-10","[860.9000000059605]","1","0","4","","","","","","","",""
"pit-trial","90","667053","0.0-2.0-17.1-4.1","battery-v0.2","","""event"",""trial"",""time""
""fullscreenenter"",""1"",""4227""
","
","
","""event"",""trial"",""time""
""fullscreenenter"",""1"",""4227""
","
","","","123.30000001192093","","","12","13376","5711","&#9789;","elianto","#f73b6a7A"," "," ","1","0","[975.7000000029802]","1","0","4","","","","","","","",""
"pit-trial","91","670164","0.0-2.0-17.2-0.2","battery-v0.2","","""event"",""trial"",""time""
""fullscreenenter"",""1"",""4227""
","
","
","""event"",""trial"",""time""
""fullscreenenter"",""1"",""4227""
","
","","","258.29999999701977","","","12","13376","5711","&#9789;","elianto","#f73b6a7A"," "," ","1","0","[1109.2000000029802]","1","0","4","","","","","","","",""
"pit-trial","92","673573","0.0-2.0-17.2-1.2","battery-v0.2","","""event"",""trial"",""time""
""fullscreenenter"",""1"",""4227""
","
","
","""event"",""trial"",""time""
""fullscreenenter"",""1"",""4227""
","
","","","557","","","12","13376","5711","&#9789;","elianto","#f73b6a7A"," "," ","1","0","[1407.2000000029802]","1","0","4","","","","","","","",""
"pit-trial","93","676876","0.0-2.0-17.2-2.2","battery-v0.2","","""event"",""trial"",""time""
""fullscreenenter"",""1"",""4227""
","
","
","""event"",""trial"",""time""
""fullscreenenter"",""1"",""4227""
","
","","","451.29999999701977","","","12","13376","5711","&#9789;","elianto","#f73b6a7A"," "," ","1","0","[1301.3999999910593]","1","0","4","","","","","","","",""
"pit-trial","94","680267","0.0-2.0-17.2-3.2","battery-v0.2","","""event"",""trial"",""time""
""fullscreenenter"",""1"",""4227""
","
","
","""event"",""trial"",""time""
""fullscreenenter"",""1"",""4227""
","
","","","538.1999999880791","","","12","13376","5711","&#9789;","elianto","#f73b6a7A"," "," ","1","-10","[1389]","1","0","4","","","","","","","",""
"pit-trial","95","683344","0.0-2.0-17.2-4.2","battery-v0.2","","""event"",""trial"",""time""
""fullscreenenter"",""1"",""4227""
","
","
","""event"",""trial"",""time""
""fullscreenenter"",""1"",""4227""
","
","","","224.30000001192093","","","12","13376","5711","&#9789;","elianto","#f73b6a7A"," "," ","1","0","[1074.800000011921]","1","0","4","","","","","","","",""
"pit-trial","96","686341","0.0-2.0-17.3-0.3","battery-v0.2","","""event"",""trial"",""time""
""fullscreenenter"",""1"",""4227""
","
","
","""event"",""trial"",""time""
""fullscreenenter"",""1"",""4227""
","
","","","141.5","","","12","13376","5711","&#9789;","elianto","#f73b6a7A"," "," ","1","0","[991.6999999880791]","1","0","4","","","","","","","",""
"pit-trial","97","689357","0.0-2.0-17.3-1.3","battery-v0.2","","""event"",""trial"",""time""
""fullscreenenter"",""1"",""4227""
","
","
","""event"",""trial"",""time""
""fullscreenenter"",""1"",""4227""
","
","","","163.59999999403954","","","12","13376","5711","&#9789;","elianto","#f73b6a7A"," "," ","1","0","[1014.5]","1","0","4","","","","","","","",""
"pit-trial","98","692332","0.0-2.0-17.3-2.3","battery-v0.2","","""event"",""trial"",""time""
""fullscreenenter"",""1"",""4227""
","
","
","""event"",""trial"",""time""
""fullscreenenter"",""1"",""4227""
","
","","","123.40000000596046","","","12","13376","5711","&#9789;","elianto","#f73b6a7A"," "," ","1","0","[974.2000000029802]","1","0","4","","","","","","","",""
"pit-trial","99","695722","0.0-2.0-17.3-3.3","battery-v0.2","","""event"",""trial"",""time""
""fullscreenenter"",""1"",""4227""
","
","
","""event"",""trial"",""time""
""fullscreenenter"",""1"",""4227""
","
","","","538.0999999940395","","","12","13376","5711","&#9789;","elianto","#f73b6a7A"," "," ","1","-10","[1388.2000000029802]","1","0","4","","","","","","","",""
"pit-trial","100","698983","0.0-2.0-17.3-4.3","battery-v0.2","","""event"",""trial"",""time""
""fullscreenenter"",""1"",""4227""
","
","
","""event"",""trial"",""time""
""fullscreenenter"",""1"",""4227""
","
","","","407.20000000298023","","","12","13376","5711","&#9789;","elianto","#f73b6a7A"," "," ","1","0","[1258.2999999970198]","1","0","4","","","","","","","",""
"call-function","101","698984","0.0-2.0-18.0","battery-v0.2","","""event"",""trial"",""time""
""fullscreenenter"",""1"",""4227""
","
","
","""event"",""trial"",""time""
""fullscreenenter"",""1"",""4227""
","
","","","","","","","","","","","","","","","","","","","","","","","","","","",""
"pit-instructions","102","767525","0.0-2.0-19.0","battery-v0.2","","""event"",""trial"",""time""
""fullscreenenter"",""1"",""4227""
","
","
","""event"",""trial"",""time""
""fullscreenenter"",""1"",""4227""
","
","","[{""page_index"":0,""viewing_time"":7370.800000011921},{""page_index"":1,""viewing_time"":4654},{""page_index"":2,""viewing_time"":15142.09999999404},{""page_index"":3,""viewing_time"":6791.79999999702},{""page_index"":4,""viewing_time"":8584},{""page_index"":5,""viewing_time"":9238.29999999702},{""page_index"":6,""viewing_time"":7763.70000000298},{""page_index"":7,""viewing_time"":5363.79999999702},{""page_index"":8,""viewing_time"":3632.1000000089407}]","68540.90000000596","","","","","","","","","","","","","","","","","","","","","","","",""
"pit-comprehension","103","774556","0.0-2.0-20.0-0.0","battery-v0.2","","""event"",""trial"",""time""
""fullscreenenter"",""1"",""4227""
","
","
","""event"",""trial"",""time""
""fullscreenenter"",""1"",""4227""
","
","","","7028.5","[""SPACE""]","0","12","13376","5711","","","","","","","","","","","","","","","","","","",""
"pit-instructions","104","777221","0.0-2.0-20.0-1.0","battery-v0.2","","""event"",""trial"",""time""
""fullscreenenter"",""1"",""4227""
","
","
","""event"",""trial"",""time""
""fullscreenenter"",""1"",""4227""
","
","","[{""page_index"":0,""viewing_time"":2643.8999999910593}]","2644.0999999940395","","","","","","","","","","","","","","","","","","","","","","","",""
"pit-comprehension","105","784362","0.0-2.0-21.0-0.0","battery-v0.2","","""event"",""trial"",""time""
""fullscreenenter"",""1"",""4227""
","
","
","""event"",""trial"",""time""
""fullscreenenter"",""1"",""4227""
","
","","","7138.9000000059605","[""10""]","0","12","13376","5711","","","","","","","","","","","","","","","","","","",""
"pit-instructions","106","787293","0.0-2.0-21.0-1.0","battery-v0.2","","""event"",""trial"",""time""
""fullscreenenter"",""1"",""4227""
","
","
","""event"",""trial"",""time""
""fullscreenenter"",""1"",""4227""
","
","","[{""page_index"":0,""viewing_time"":2912.2000000029802}]","2912.4000000059605","","","","","","","","","","","","","","","","","","","","","","","",""
"pit-comprehension","107","793365","0.0-2.0-22.0-0.0","battery-v0.2","","""event"",""trial"",""time""
""fullscreenenter"",""1"",""4227""
","
","
","""event"",""trial"",""time""
""fullscreenenter"",""1"",""4227""
","
","","","6070.5","[""0""]","0","12","13376","5711","","","","","","","","","","","","","","","","","","",""
"pit-instructions","108","794715","0.0-2.0-22.0-1.0","battery-v0.2","","""event"",""trial"",""time""
""fullscreenenter"",""1"",""4227""
","
","
","""event"",""trial"",""time""
""fullscreenenter"",""1"",""4227""
","
","","[{""page_index"":0,""viewing_time"":1328.2999999970198}]","1328.5999999940395","","","","","","","","","","","","","","","","","","","","","","","",""
"pit-comprehension","109","805109","0.0-2.0-23.0-0.0","battery-v0.2","","""event"",""trial"",""time""
""fullscreenenter"",""1"",""4227""
","
","
","""event"",""trial"",""time""
""fullscreenenter"",""1"",""4227""
","
","","","10392.5","[""True""]","0","12","13376","5711","","","","","","","","","","","","","","","","","","",""
"pit-instructions","110","806583","0.0-2.0-23.0-1.0","battery-v0.2","","""event"",""trial"",""time""
""fullscreenenter"",""1"",""4227""
","
","
","""event"",""trial"",""time""
""fullscreenenter"",""1"",""4227""
","
","","[{""page_index"":0,""viewing_time"":1453.5}]","1453.7000000029802","","","","","","","","","","","","","","","","","","","","","","","",""
"pit-comprehension","111","813971","0.0-2.0-24.0-0.0","battery-v0.2","","""event"",""trial"",""time""
""fullscreenenter"",""1"",""4227""
","
","
","""event"",""trial"",""time""
""fullscreenenter"",""1"",""4227""
","
","","","7386.70000000298","[""True""]","0","12","13376","5711","","","","","","","","","","","","","","","","","","",""
"pit-instructions","112","815659","0.0-2.0-24.0-1.0","battery-v0.2","","""event"",""trial"",""time""
""fullscreenenter"",""1"",""4227""
","
","
","""event"",""trial"",""time""
""fullscreenenter"",""1"",""4227""
","
","","[{""page_index"":0,""viewing_time"":1667.5}]","1667.6000000089407","","","","","","","","","","","","","","","","","","","","","","","",""
"pit-comprehension","113","821863","0.0-2.0-25.0-0.0","battery-v0.2","","""event"",""trial"",""time""
""fullscreenenter"",""1"",""4227""
","
","
","""event"",""trial"",""time""
""fullscreenenter"",""1"",""4227""
","
","","","6202.800000011921","[""True""]","0","12","13376","5711","","","","","","","","","","","","","","","","","","",""
"pit-instructions","114","823289","0.0-2.0-25.0-1.0","battery-v0.2","","""event"",""trial"",""time""
""fullscreenenter"",""1"",""4227""
","
","
","""event"",""trial"",""time""
""fullscreenenter"",""1"",""4227""
","
","","[{""page_index"":0,""viewing_time"":1403}]","1403.0999999940395","","","","","","","","","","","","","","","","","","","","","","","",""
"pit-comprehension","115","831165","0.0-2.0-26.0-0.0","battery-v0.2","","""event"",""trial"",""time""
""fullscreenenter"",""1"",""4227""
","
","
","""event"",""trial"",""time""
""fullscreenenter"",""1"",""4227""
","
","","","7874.9000000059605","[""False""]","0","12","13376","5711","","","","","","","","","","","","","","","","","","",""
"pit-instructions","116","832675","0.0-2.0-26.0-1.0","battery-v0.2","","""event"",""trial"",""time""
""fullscreenenter"",""1"",""4227""
","
","
","""event"",""trial"",""time""
""fullscreenenter"",""1"",""4227""
","
","","[{""page_index"":0,""viewing_time"":1488.3999999910593}]","1488.5","","","","","","","","","","","","","","","","","","","","","","","",""
"pit-instructions","117","849169","0.0-3.0","battery-v0.2","","""event"",""trial"",""time""
""fullscreenenter"",""1"",""4227""
","
","
","""event"",""trial"",""time""
""fullscreenenter"",""1"",""4227""
","
","","[{""page_index"":0,""viewing_time"":3812.2000000029802},{""page_index"":1,""viewing_time"":5323.9000000059605},{""page_index"":2,""viewing_time"":7356.199999988079}]","16492.5","","","","","","","","","","","","","","","","","","","","","","","",""
"pit-trial","118","852624","0.0-4.0","battery-v0.2","","""event"",""trial"",""time""
""fullscreenenter"",""1"",""4227""
","
","
","""event"",""trial"",""time""
""fullscreenenter"",""1"",""4227""
","
","","","589.7000000029802","","","12","13376","5711","&#9730;","elianto","#3366ff99"," "," ","1","+10","[1444.8999999910593]","1","1","","","13376","1","1","1","win","go","0"
"pit-trial","119","856188","0.0-5.0","battery-v0.2","","""event"",""trial"",""time""
""fullscreenenter"",""1"",""4227""
","
","
","""event"",""trial"",""time""
""fullscreenenter"",""1"",""4227""
","
","","","702.9000000059605","","","12","13376","5711","&#9728;","elianto","#f73b6a7A","-1"," ","0","-10","[1553.4000000059605]","1","1","","","13376","2","0","4","lose","no-go","0"
"pit-trial","120","859427","0.0-6.0","battery-v0.2","","""event"",""trial"",""time""
""fullscreenenter"",""1"",""4227""
","
","
","""event"",""trial"",""time""
""fullscreenenter"",""1"",""4227""
","
","","","370.30000001192093","","","12","13376","5711","&#9733;","elianto","#3366ff99","-1"," ","0","0","[1225.2000000029802]","1","1","","","13376","3","2","2","win","no-go","0"
"pit-trial","121","862994","0.0-7.0","battery-v0.2","","""event"",""trial"",""time""
""fullscreenenter"",""1"",""4227""
","
","
","""event"",""trial"",""time""
""fullscreenenter"",""1"",""4227""
","
","","","705.9000000059605","","","12","13376","5711","&#9752;","elianto","#f73b6a7A"," "," ","1","0","[1556.0999999940395]","1","1","","","13376","4","3","3","lose","go","0"
"pit-trial","122","866490","0.0-8.0","battery-v0.2","","""event"",""trial"",""time""
""fullscreenenter"",""1"",""4227""
","
","
","""event"",""trial"",""time""
""fullscreenenter"",""1"",""4227""
","
","","","637.9000000059605","","","12","13376","5711","&#9728;","elianto","#f73b6a7A","-1"," ","0","-10","[1488]","1","1","","","13376","5","0","4","lose","no-go","0"
"pit-trial","123","870036","0.0-9.0","battery-v0.2","","""event"",""trial"",""time""
""fullscreenenter"",""1"",""4227""
","
","
","""event"",""trial"",""time""
""fullscreenenter"",""1"",""4227""
","
","","","679.0999999940395","","","12","13376","5711","&#9733;","elianto","#3366ff99","-1"," ","0","0","[1530.699999988079]","1","1","","","13376","6","2","2","win","no-go","0"
"pit-trial","124","874909","0.0-10.0","battery-v0.2","","""event"",""trial"",""time""
""fullscreenenter"",""1"",""4227""
","
","
","""event"",""trial"",""time""
""fullscreenenter"",""1"",""4227""
","
","","","-1","","","12","13376","5711","&#9752;","elianto","#f73b6a7A"," ","-1","0","-10","[]","0","1","","","13376","7","3","3","lose","go","0"
"pit-trial","125","878087","0.0-11.0","battery-v0.2","","""event"",""trial"",""time""
""fullscreenenter"",""1"",""4227""
","
","
","""event"",""trial"",""time""
""fullscreenenter"",""1"",""4227""
","
","","","311.8999999910593","","","12","13376","5711","&#9730;","elianto","#3366ff99"," "," ","1","+10","[1167.0999999940395]","1","1","","","13376","8","1","1","win","go","0"
"pit-trial","126","882155","0.0-12.0","battery-v0.2","","""event"",""trial"",""time""
""fullscreenenter"",""1"",""4227""
","
","
","""event"",""trial"",""time""
""fullscreenenter"",""1"",""4227""
","
","","","1216.5999999940395","","","12","13376","5711","&#9733;","elianto","#3366ff99","-1"," ","0","0","[2066.7000000029802]","1","1","","","13376","9","2","2","win","no-go","0"
"pit-trial","127","887009","0.0-13.0","battery-v0.2","","""event"",""trial"",""time""
""fullscreenenter"",""1"",""4227""
","
","
","""event"",""trial"",""time""
""fullscreenenter"",""1"",""4227""
","
","","","-1","","","12","13376","5711","&#9752;","elianto","#f73b6a7A"," ","-1","0","-10","[]","0","1","","","13376","10","3","3","lose","go","0"
"pit-trial","128","890409","0.0-14.0","battery-v0.2","","""event"",""trial"",""time""
""fullscreenenter"",""1"",""4227""
","
","
","""event"",""trial"",""time""
""fullscreenenter"",""1"",""4227""
","
","","","547.2999999970198","","","12","13376","5711","&#9730;","elianto","#3366ff99"," "," ","1","+10","[1397.699999988079]","1","1","","","13376","11","1","1","win","go","0"
"pit-trial","129","894607","0.0-15.0","battery-v0.2","","""event"",""trial"",""time""
""fullscreenenter"",""1"",""4227""
","
","
","""event"",""trial"",""time""
""fullscreenenter"",""1"",""4227""
","
","","","1344.2000000029802","","","12","13376","5711","&#9728;","elianto","#f73b6a7A","-1"," ","0","-10","[2194.5999999940395]","1","1","","","13376","12","0","4","lose","no-go","0"
"pit-trial","130","898367","0.0-16.0","battery-v0.2","","""event"",""trial"",""time""
""fullscreenenter"",""1"",""4227""
","
","
","""event"",""trial"",""time""
""fullscreenenter"",""1"",""4227""
","
","","","908.4000000059605","","","12","13376","5711","&#9730;","elianto","#3366ff99"," "," ","1","+10","[1758.6000000089407]","1","1","","","13376","13","1","1","win","go","0"
"pit-trial","131","903232","0.0-17.0","battery-v0.2","","""event"",""trial"",""time""
""fullscreenenter"",""1"",""4227""
","
","
","""event"",""trial"",""time""
""fullscreenenter"",""1"",""4227""
","
","","","-1","","","12","13376","5711","&#9733;","elianto","#3366ff99","-1","-1","1","+10","[]","0","1","","","13376","14","2","2","win","no-go","0"
"pit-trial","132","907539","0.0-18.0","battery-v0.2","","""event"",""trial"",""time""
""fullscreenenter"",""1"",""4227""
","
","
","""event"",""trial"",""time""
""fullscreenenter"",""1"",""4227""
","
","","","1454.300000011921","","","12","13376","5711","&#9728;","elianto","#f73b6a7A","-1"," ","0","-10","[2305.2000000029802]","1","1","","","13376","15","0","4","lose","no-go","0"
"pit-trial","133","912392","0.0-19.0","battery-v0.2","","""event"",""trial"",""time""
""fullscreenenter"",""1"",""4227""
","
","
","""event"",""trial"",""time""
""fullscreenenter"",""1"",""4227""
","
","","","-1","","","12","13376","5711","&#9752;","elianto","#f73b6a7A"," ","-1","0","-10","[2950.7999999970198]","1","1","","","13376","16","3","3","lose","go","0"
"pit-trial","134","916094","0.0-20.0","battery-v0.2","","""event"",""trial"",""time""
""fullscreenenter"",""1"",""4227""
","
","
","""event"",""trial"",""time""
""fullscreenenter"",""1"",""4227""
","
","","","849.9000000059605","","","12","13376","5711","&#9752;","elianto","#f73b6a7A"," "," ","1","0","[1699.8999999910593]","1","1","","","13376","17","3","3","lose","go","0"
"pit-trial","135","919716","0.0-21.0","battery-v0.2","","""event"",""trial"",""time""
""fullscreenenter"",""1"",""4227""
","
","
","""event"",""trial"",""time""
""fullscreenenter"",""1"",""4227""
","
","","","769.7999999970198","","","12","13376","5711","&#9733;","elianto","#3366ff99","-1"," ","0","+10","[1619.7999999970198]","1","1","","","13376","18","2","2","win","no-go","1"
"pit-trial","136","923051","0.0-22.0","battery-v0.2","","""event"",""trial"",""time""
""fullscreenenter"",""1"",""4227""
","
","
","""event"",""trial"",""time""
""fullscreenenter"",""1"",""4227""
","
","","","483.20000000298023","","","12","13376","5711","&#9730;","elianto","#3366ff99"," "," ","1","+10","[1334]","1","1","","","13376","19","1","1","win","go","0"
"pit-trial","137","927207","0.0-23.0","battery-v0.2","","""event"",""trial"",""time""
""fullscreenenter"",""1"",""4227""
","
","
","""event"",""trial"",""time""
""fullscreenenter"",""1"",""4227""
","
","","","1302.5","","","12","13376","5711","&#9728;","elianto","#f73b6a7A","-1"," ","0","-10","[2153.1000000089407]","1","1","","","13376","20","0","4","lose","no-go","0"
"pit-instructions","138","938769","0.0-24.0","battery-v0.2","","""event"",""trial"",""time""
""fullscreenenter"",""1"",""4227""
","
","
","""event"",""trial"",""time""
""fullscreenenter"",""1"",""4227""
","
","","[{""page_index"":0,""viewing_time"":5487.9000000059605},{""page_index"":1,""viewing_time"":6073.199999988079}]","11561.29999999702","","","","","","","","","","","","","","","","","","","","","","","",""
"pit-trial","139","942461","0.0-25.0","battery-v0.2","","""event"",""trial"",""time""
""fullscreenenter"",""1"",""4227""
","
","
","""event"",""trial"",""time""
""fullscreenenter"",""1"",""4227""
","
","","","826.2999999970198","","","12","13376","5711","l","elianto","#3366ff99"," "," ","1","+10","[1679]","1","2","","","13376","21","1","1","win","go","0"
"pit-trial","140","946045","0.0-26.0","battery-v0.2","","""event"",""trial"",""time""
""fullscreenenter"",""1"",""4227""
","
","
","""event"",""trial"",""time""
""fullscreenenter"",""1"",""4227""
","
","","","722.2999999970198","","","12","13376","5711","u","elianto","#f73b6a7A","-1"," ","0","-10","[1576.0999999940395]","1","2","","","13376","22","0","4","lose","no-go","0"
"pit-trial","141","949523","0.0-27.0","battery-v0.2","","""event"",""trial"",""time""
""fullscreenenter"",""1"",""4227""
","
","
","""event"",""trial"",""time""
""fullscreenenter"",""1"",""4227""
","
","","","624.2000000029802","","","12","13376","5711","a","elianto","#f73b6a7A","-1"," ","0","0","[1475.5999999940395]","1","2","","","13376","23","2","4","lose","no-go","1"
"pit-trial","142","953020","0.0-28.0","battery-v0.2","","""event"",""trial"",""time""
""fullscreenenter"",""1"",""4227""
","
","
","""event"",""trial"",""time""
""fullscreenenter"",""1"",""4227""
","
","","","633.3999999910593","","","12","13376","5711","g","elianto","#f73b6a7A"," "," ","1","-10","[1483.5]","1","2","","","13376","24","3","3","lose","go","1"
"pit-trial","143","957881","0.0-29.0","battery-v0.2","","""event"",""trial"",""time""
""fullscreenenter"",""1"",""4227""
","
","
","""event"",""trial"",""time""
""fullscreenenter"",""1"",""4227""
","
","","","-1","","","12","13376","5711","g","elianto","#f73b6a7A"," ","-1","0","-10","[]","0","2","","","13376","25","3","3","lose","go","0"
"pit-trial","144","961615","0.0-30.0","battery-v0.2","","""event"",""trial"",""time""
""fullscreenenter"",""1"",""4227""
","
","
","""event"",""trial"",""time""
""fullscreenenter"",""1"",""4227""
","
","","","865.8000000119209","","","12","13376","5711","u","elianto","#f73b6a7A","-1"," ","0","-10","[1717.7999999970198]","1","2","","","13376","26","0","4","lose","no-go","0"
"pit-trial","145","966483","0.0-31.0","battery-v0.2","","""event"",""trial"",""time""
""fullscreenenter"",""1"",""4227""
","
","
","""event"",""trial"",""time""
""fullscreenenter"",""1"",""4227""
","
","","","-1","","","12","13376","5711","a","elianto","#f73b6a7A","-1","-1","1","0","[]","0","2","","","13376","27","2","4","lose","no-go","0"
"pit-trial","146","969943","0.0-32.0","battery-v0.2","","""event"",""trial"",""time""
""fullscreenenter"",""1"",""4227""
","
","
","""event"",""trial"",""time""
""fullscreenenter"",""1"",""4227""
","
","","","604.6999999880791","","","12","13376","5711","l","elianto","#3366ff99"," "," ","1","+10","[1457.7999999970198]","1","2","","","13376","28","1","1","win","go","0"
"pit-trial","147","974796","0.0-33.0","battery-v0.2","","""event"",""trial"",""time""
""fullscreenenter"",""1"",""4227""
","
","
","""event"",""trial"",""time""
""fullscreenenter"",""1"",""4227""
","
","","","-1","","","12","13376","5711","u","elianto","#f73b6a7A","-1","-1","1","0","[]","0","2","","","13376","29","0","4","lose","no-go","0"
"pit-trial","148","979018","0.0-34.0","battery-v0.2","","""event"",""trial"",""time""
""fullscreenenter"",""1"",""4227""
","
","
","""event"",""trial"",""time""
""fullscreenenter"",""1"",""4227""
","
","","","1369.2999999970198","","","12","13376","5711","a","elianto","#f73b6a7A","-1"," ","0","-10","[2219.699999988079]","1","2","","","13376","30","2","4","lose","no-go","0"
"pit-trial","149","982355","0.0-35.0","battery-v0.2","","""event"",""trial"",""time""
""fullscreenenter"",""1"",""4227""
","
","
","""event"",""trial"",""time""
""fullscreenenter"",""1"",""4227""
","
","","","484.6000000089407","","","12","13376","5711","l","elianto","#3366ff99"," "," ","1","+10","[1335.2999999970198]","1","2","","","13376","31","1","1","win","go","0"
"pit-trial","150","987208","0.0-36.0","battery-v0.2","","""event"",""trial"",""time""
""fullscreenenter"",""1"",""4227""
","
","
","""event"",""trial"",""time""
""fullscreenenter"",""1"",""4227""
","
","","","-1","","","12","13376","5711","g","elianto","#f73b6a7A"," ","-1","0","-10","[]","0","2","","","13376","32","3","3","lose","go","0"
"pit-trial","151","990651","0.0-37.0","battery-v0.2","","""event"",""trial"",""time""
""fullscreenenter"",""1"",""4227""
","
","
","""event"",""trial"",""time""
""fullscreenenter"",""1"",""4227""
","
","","","589.9000000059605","","","12","13376","5711","g","elianto","#f73b6a7A"," "," ","1","0","[1440.9000000059605]","1","2","","","13376","33","3","3","lose","go","0"
"pit-trial","152","994804","0.0-38.0","battery-v0.2","","""event"",""trial"",""time""
""fullscreenenter"",""1"",""4227""
","
","
","""event"",""trial"",""time""
""fullscreenenter"",""1"",""4227""
","
","","","1299.3999999910593","","","12","13376","5711","a","elianto","#f73b6a7A","-1"," ","0","-10","[2150.699999988079]","1","2","","","13376","34","2","4","lose","no-go","0"
"pit-trial","153","999657","0.0-39.0","battery-v0.2","","""event"",""trial"",""time""
""fullscreenenter"",""1"",""4227""
","
","
","""event"",""trial"",""time""
""fullscreenenter"",""1"",""4227""
","
","","","-1","","","12","13376","5711","u","elianto","#f73b6a7A","-1","-1","1","0","[]","0","2","","","13376","35","0","4","lose","no-go","0"
"pit-trial","154","1003254","0.0-40.0","battery-v0.2","","""event"",""trial"",""time""
""fullscreenenter"",""1"",""4227""
","
","
","""event"",""trial"",""time""
""fullscreenenter"",""1"",""4227""
","
","","","744.4000000059605","","","12","13376","5711","l","elianto","#3366ff99"," "," ","1","+10","[1595.5,2515.5999999940395]","2","2","","","13376","36","1","1","win","go","0"
"pit-trial","155","1008106","0.0-41.0","battery-v0.2","","""event"",""trial"",""time""
""fullscreenenter"",""1"",""4227""
","
","
","""event"",""trial"",""time""
""fullscreenenter"",""1"",""4227""
","
","","","-1","","","12","13376","5711","a","elianto","#f73b6a7A","-1","-1","1","-10","[]","0","2","","","13376","37","2","4","lose","no-go","1"
"pit-trial","156","1012043","0.0-42.0","battery-v0.2","","""event"",""trial"",""time""
""fullscreenenter"",""1"",""4227""
","
","
","""event"",""trial"",""time""
""fullscreenenter"",""1"",""4227""
","
","","","1085","","","12","13376","5711","g","elianto","#f73b6a7A"," "," ","1","0","[1935.0999999940395]","1","2","","","13376","38","3","3","lose","go","0"
"pit-trial","157","1016897","0.0-43.0","battery-v0.2","","""event"",""trial"",""time""
""fullscreenenter"",""1"",""4227""
","
","
","""event"",""trial"",""time""
""fullscreenenter"",""1"",""4227""
","
","","","-1","","","12","13376","5711","u","elianto","#f73b6a7A","-1","-1","1","0","[]","0","2","","","13376","39","0","4","lose","no-go","0"
"pit-trial","158","1020425","0.0-44.0","battery-v0.2","","""event"",""trial"",""time""
""fullscreenenter"",""1"",""4227""
","
","
","""event"",""trial"",""time""
""fullscreenenter"",""1"",""4227""
","
","","","675.7999999970198","","","12","13376","5711","l","elianto","#3366ff99"," "," ","1","+10","[1526]","1","2","","","13376","40","1","1","win","go","0"
"pit-trial","159","1023908","0.0-45.0","battery-v0.2","","""event"",""trial"",""time""
""fullscreenenter"",""1"",""4227""
","
","
","""event"",""trial"",""time""
""fullscreenenter"",""1"",""4227""
","
","","","629.8999999910593","","","12","13376","5711","l","elianto","#3366ff99"," "," ","1","+10","[511.79999999701977,1481.199999988079]","2","2","","","13376","41","1","1","win","go","0"
"pit-trial","160","1027438","0.0-46.0","battery-v0.2","","""event"",""trial"",""time""
""fullscreenenter"",""1"",""4227""
","
","
","""event"",""trial"",""time""
""fullscreenenter"",""1"",""4227""
","
","","","677.0999999940395","","","12","13376","5711","g","elianto","#f73b6a7A"," "," ","1","0","[1528.0999999940395]","1","2","","","13376","42","3","3","lose","go","0"
"pit-trial","161","1032302","0.0-47.0","battery-v0.2","","""event"",""trial"",""time""
""fullscreenenter"",""1"",""4227""
","
","
","""event"",""trial"",""time""
""fullscreenenter"",""1"",""4227""
","
","","","-1","","","12","13376","5711","a","elianto","#f73b6a7A","-1","-1","1","-10","[]","0","2","","","13376","43","2","4","lose","no-go","1"
"pit-trial","162","1035812","0.0-48.0","battery-v0.2","","""event"",""trial"",""time""
""fullscreenenter"",""1"",""4227""
","
","
","""event"",""trial"",""time""
""fullscreenenter"",""1"",""4227""
","
","","","657.5","","","12","13376","5711","u","elianto","#f73b6a7A","-1"," ","0","-10","[1507.6000000089407]","1","2","","","13376","44","0","4","lose","no-go","0"
"pit-trial","163","1040664","0.0-49.0","battery-v0.2","","""event"",""trial"",""time""
""fullscreenenter"",""1"",""4227""
","
","
","""event"",""trial"",""time""
""fullscreenenter"",""1"",""4227""
","
","","","-1","","","12","13376","5711","a","elianto","#f73b6a7A","-1","-1","1","0","[]","0","2","","","13376","45","2","4","lose","no-go","0"
"pit-trial","164","1045518","0.0-50.0","battery-v0.2","","""event"",""trial"",""time""
""fullscreenenter"",""1"",""4227""
","
","
","""event"",""trial"",""time""
""fullscreenenter"",""1"",""4227""
","
","","","-1","","","12","13376","5711","u","elianto","#f73b6a7A","-1","-1","1","0","[]","0","2","","","13376","46","0","4","lose","no-go","0"
"pit-trial","165","1049260","0.0-51.0","battery-v0.2","","""event"",""trial"",""time""
""fullscreenenter"",""1"",""4227""
","
","
","""event"",""trial"",""time""
""fullscreenenter"",""1"",""4227""
","
","","","890.2999999970198","","","12","13376","5711","p","elianto","#3366ff99","-1"," ","0","0","[1740.2999999970198]","1","2","","","13376","47","4","2","win","no-go","0"
"pit-trial","166","1053800","0.0-52.0","battery-v0.2","","""event"",""trial"",""time""
""fullscreenenter"",""1"",""4227""
","
","
","""event"",""trial"",""time""
""fullscreenenter"",""1"",""4227""
","
","","","1687.2999999970198","","","12","13376","5711","g","elianto","#f73b6a7A"," "," ","1","0","[2537.9000000059605]","1","2","","","13376","48","3","3","lose","go","0"
"pit-trial","167","1057483","0.0-53.0","battery-v0.2","","""event"",""trial"",""time""
""fullscreenenter"",""1"",""4227""
","
","
","""event"",""trial"",""time""
""fullscreenenter"",""1"",""4227""
","
","","","829.7999999970198","","","12","13376","5711","p","elianto","#3366ff99","-1"," ","0","0","[1681]","1","2","","","13376","49","4","2","win","no-go","0"
"pit-trial","168","1060814","0.0-54.0","battery-v0.2","","""event"",""trial"",""time""
""fullscreenenter"",""1"",""4227""
","
","
","""event"",""trial"",""time""
""fullscreenenter"",""1"",""4227""
","
","","","478.09999999403954","","","12","13376","5711","g","elianto","#f73b6a7A"," "," ","1","-10","[1328.2999999970198]","1","2","","","13376","50","3","3","lose","go","1"
"pit-trial","169","1065669","0.0-55.0","battery-v0.2","","""event"",""trial"",""time""
""fullscreenenter"",""1"",""4227""
","
","
","""event"",""trial"",""time""
""fullscreenenter"",""1"",""4227""
","
","","","-1","","","12","13376","5711","u","elianto","#f73b6a7A","-1","-1","1","0","[]","0","2","","","13376","51","0","4","lose","no-go","0"
"pit-trial","170","1069093","0.0-56.0","battery-v0.2","","""event"",""trial"",""time""
""fullscreenenter"",""1"",""4227""
","
","
","""event"",""trial"",""time""
""fullscreenenter"",""1"",""4227""
","
","","","570.7000000029802","","","12","13376","5711","l","elianto","#3366ff99"," "," ","1","+10","[1421.699999988079]","1","2","","","13376","52","1","1","win","go","0"
"pit-trial","171","1073954","0.0-57.0","battery-v0.2","","""event"",""trial"",""time""
""fullscreenenter"",""1"",""4227""
","
","
","""event"",""trial"",""time""
""fullscreenenter"",""1"",""4227""
","
","","","-1","","","12","13376","5711","u","elianto","#f73b6a7A","-1","-1","1","-10","[]","0","2","","","13376","53","0","4","lose","no-go","1"
"pit-trial","172","1077501","0.0-58.0","battery-v0.2","","""event"",""trial"",""time""
""fullscreenenter"",""1"",""4227""
","
","
","""event"",""trial"",""time""
""fullscreenenter"",""1"",""4227""
","
","","","695.4000000059605","","","12","13376","5711","p","elianto","#3366ff99","-1"," ","0","0","[1546]","1","2","","","13376","54","4","2","win","no-go","0"
"pit-trial","173","1080953","0.0-59.0","battery-v0.2","","""event"",""trial"",""time""
""fullscreenenter"",""1"",""4227""
","
","
","""event"",""trial"",""time""
""fullscreenenter"",""1"",""4227""
","
","","","600","","","12","13376","5711","l","elianto","#3366ff99"," "," ","1","+10","[1450.2999999970198]","1","2","","","13376","55","1","1","win","go","0"
"pit-trial","174","1085804","0.0-60.0","battery-v0.2","","""event"",""trial"",""time""
""fullscreenenter"",""1"",""4227""
","
","
","""event"",""trial"",""time""
""fullscreenenter"",""1"",""4227""
","
","","","-1","","","12","13376","5711","a","elianto","#f73b6a7A","-1","-1","1","0","[]","0","2","","","13376","56","2","4","lose","no-go","0"
"pit-trial","175","1089446","0.0-61.0","battery-v0.2","","""event"",""trial"",""time""
""fullscreenenter"",""1"",""4227""
","
","
","""event"",""trial"",""time""
""fullscreenenter"",""1"",""4227""
","
","","","789.2000000029802","","","12","13376","5711","u","elianto","#f73b6a7A","-1"," ","0","-10","[1639.5999999940395]","1","2","","","13376","57","0","4","lose","no-go","0"
"pit-trial","176","1092939","0.0-62.0","battery-v0.2","","""event"",""trial"",""time""
""fullscreenenter"",""1"",""4227""
","
","
","""event"",""trial"",""time""
""fullscreenenter"",""1"",""4227""
","
","","","639.7999999970198","","","12","13376","5711","g","elianto","#f73b6a7A"," "," ","1","0","[1490.5999999940395]","1","2","","","13376","58","3","3","lose","go","0"
"pit-trial","177","1096599","0.0-63.0","battery-v0.2","","""event"",""trial"",""time""
""fullscreenenter"",""1"",""4227""
","
","
","""event"",""trial"",""time""
""fullscreenenter"",""1"",""4227""
","
","","","806.5","","","12","13376","5711","p","elianto","#3366ff99","-1"," ","0","0","[1657.7999999970198]","1","2","","","13376","59","4","2","win","no-go","0"
"pit-trial","178","1100113","0.0-64.0","battery-v0.2","","""event"",""trial"",""time""
""fullscreenenter"",""1"",""4227""
","
","
","""event"",""trial"",""time""
""fullscreenenter"",""1"",""4227""
","
","","","662.2000000029802","","","12","13376","5711","l","elianto","#3366ff99"," "," ","1","+10","[1513.6000000089407]","1","2","","","13376","60","1","1","win","go","0"
"pit-trial","179","1104976","0.0-65.0","battery-v0.2","","""event"",""trial"",""time""
""fullscreenenter"",""1"",""4227""
","
","
","""event"",""trial"",""time""
""fullscreenenter"",""1"",""4227""
","
","","","-1","","","12","13376","5711","a","elianto","#f73b6a7A","-1","-1","1","0","[]","0","2","","","13376","61","2","4","lose","no-go","0"
"pit-trial","180","1108595","0.0-66.0","battery-v0.2","","""event"",""trial"",""time""
""fullscreenenter"",""1"",""4227""
","
","
","""event"",""trial"",""time""
""fullscreenenter"",""1"",""4227""
","
","","","766.7999999970198","","","12","13376","5711","l","elianto","#3366ff99"," "," ","1","+10","[1617]","1","2","","","13376","62","1","1","win","go","0"
"pit-trial","181","1112420","0.0-67.0","battery-v0.2","","""event"",""trial"",""time""
""fullscreenenter"",""1"",""4227""
","
","
","""event"",""trial"",""time""
""fullscreenenter"",""1"",""4227""
","
","","","971.2000000029802","","","12","13376","5711","g","elianto","#f73b6a7A"," "," ","1","-10","[1822.6000000089407]","1","2","","","13376","63","3","3","lose","go","1"
"pit-trial","182","1116277","0.0-68.0","battery-v0.2","","""event"",""trial"",""time""
""fullscreenenter"",""1"",""4227""
","
","
","""event"",""trial"",""time""
""fullscreenenter"",""1"",""4227""
","
","","","1004.5","","","12","13376","5711","p","elianto","#3366ff99","-1"," ","0","0","[1854.8999999910593]","1","2","","","13376","64","4","2","win","no-go","0"
"pit-trial","183","1121130","0.0-69.0","battery-v0.2","","""event"",""trial"",""time""
""fullscreenenter"",""1"",""4227""
","
","
","""event"",""trial"",""time""
""fullscreenenter"",""1"",""4227""
","
","","","-1","","","12","13376","5711","a","elianto","#f73b6a7A","-1","-1","1","0","[]","0","2","","","13376","65","2","4","lose","no-go","0"
"pit-trial","184","1124578","0.0-70.0","battery-v0.2","","""event"",""trial"",""time""
""fullscreenenter"",""1"",""4227""
","
","
","""event"",""trial"",""time""
""fullscreenenter"",""1"",""4227""
","
","","","596","","","12","13376","5711","g","elianto","#f73b6a7A"," "," ","1","0","[1446.6000000089407]","1","2","","","13376","66","3","3","lose","go","0"
"pit-trial","185","1128201","0.0-71.0","battery-v0.2","","""event"",""trial"",""time""
""fullscreenenter"",""1"",""4227""
","
","
","""event"",""trial"",""time""
""fullscreenenter"",""1"",""4227""
","
","","","771","","","12","13376","5711","l","elianto","#3366ff99"," "," ","1","0","[1621.5999999940395]","1","2","","","13376","67","1","1","win","go","1"
"pit-trial","186","1132042","0.0-72.0","battery-v0.2","","""event"",""trial"",""time""
""fullscreenenter"",""1"",""4227""
","
","
","""event"",""trial"",""time""
""fullscreenenter"",""1"",""4227""
","
","","","989","","","12","13376","5711","p","elianto","#3366ff99","-1"," ","0","0","[1839.5999999940395]","1","2","","","13376","68","4","2","win","no-go","0"
"pit-trial","187","1135678","0.0-73.0","battery-v0.2","","""event"",""trial"",""time""
""fullscreenenter"",""1"",""4227""
","
","
","""event"",""trial"",""time""
""fullscreenenter"",""1"",""4227""
","
","","","784.1000000089407","","","12","13376","5711","g","elianto","#f73b6a7A"," "," ","1","0","[1634.4000000059605]","1","2","","","13376","69","3","3","lose","go","0"
"pit-trial","188","1139237","0.0-74.0","battery-v0.2","","""event"",""trial"",""time""
""fullscreenenter"",""1"",""4227""
","
","
","""event"",""trial"",""time""
""fullscreenenter"",""1"",""4227""
","
","","","706.6999999880791","","","12","13376","5711","l","elianto","#3366ff99"," "," ","1","0","[1556.7999999970198]","1","2","","","13376","70","1","1","win","go","1"
"pit-trial","189","1142740","0.0-75.0","battery-v0.2","","""event"",""trial"",""time""
""fullscreenenter"",""1"",""4227""
","
","
","""event"",""trial"",""time""
""fullscreenenter"",""1"",""4227""
","
","","","650","","","12","13376","5711","p","elianto","#3366ff99","-1"," ","0","0","[1500.5]","1","2","","","13376","71","4","2","win","no-go","0"
"pit-trial","190","1146716","0.0-76.0","battery-v0.2","","""event"",""trial"",""time""
""fullscreenenter"",""1"",""4227""
","
","
","""event"",""trial"",""time""
""fullscreenenter"",""1"",""4227""
","
","","","1124.9000000059605","","","12","13376","5711","s","elianto","#3366ff99"," "," ","1","+10","[1975.0999999940395]","1","2","","","13376","72","5","1","win","go","0"
"pit-trial","191","1150200","0.0-77.0","battery-v0.2","","""event"",""trial"",""time""
""fullscreenenter"",""1"",""4227""
","
","
","""event"",""trial"",""time""
""fullscreenenter"",""1"",""4227""
","
","","","631.2000000029802","","","12","13376","5711","s","elianto","#3366ff99"," "," ","1","+10","[1481.7999999970198,2751,3335.5999999940395]","3","2","","","13376","73","5","1","win","go","0"
"pit-trial","192","1153681","0.0-78.0","battery-v0.2","","""event"",""trial"",""time""
""fullscreenenter"",""1"",""4227""
","
","
","""event"",""trial"",""time""
""fullscreenenter"",""1"",""4227""
","
","","","629","","","12","13376","5711","g","elianto","#f73b6a7A"," "," ","1","0","[1479.2999999970198]","1","2","","","13376","74","3","3","lose","go","0"
"pit-trial","193","1156860","0.0-79.0","battery-v0.2","","""event"",""trial"",""time""
""fullscreenenter"",""1"",""4227""
","
","
","""event"",""trial"",""time""
""fullscreenenter"",""1"",""4227""
","
","","","327","","","12","13376","5711","l","elianto","#3366ff99"," "," ","1","+10","[1177.5]","1","2","","","13376","75","1","1","win","go","0"
"pit-trial","194","1160300","0.0-80.0","battery-v0.2","","""event"",""trial"",""time""
""fullscreenenter"",""1"",""4227""
","
","
","""event"",""trial"",""time""
""fullscreenenter"",""1"",""4227""
","
","","","588","","","12","13376","5711","p","elianto","#3366ff99","-1"," ","0","0","[1438]","1","2","","","13376","76","4","2","win","no-go","0"
"pit-trial","195","1163652","0.0-81.0","battery-v0.2","","""event"",""trial"",""time""
""fullscreenenter"",""1"",""4227""
","
","
","""event"",""trial"",""time""
""fullscreenenter"",""1"",""4227""
","
","","","488.70000000298023","","","12","13376","5711","s","elianto","#3366ff99"," "," ","1","+10","[1339.4000000059605]","1","2","","","13376","77","5","1","win","go","0"
"pit-trial","196","1167867","0.0-82.0","battery-v0.2","","""event"",""trial"",""time""
""fullscreenenter"",""1"",""4227""
","
","
","""event"",""trial"",""time""
""fullscreenenter"",""1"",""4227""
","
","","","1361.7000000029802","","","12","13376","5711","p","elianto","#3366ff99","-1"," ","0","0","[2212.4000000059605]","1","2","","","13376","78","4","2","win","no-go","0"
"pit-trial","197","1171364","0.0-83.0","battery-v0.2","","""event"",""trial"",""time""
""fullscreenenter"",""1"",""4227""
","
","
","""event"",""trial"",""time""
""fullscreenenter"",""1"",""4227""
","
","","","640.1000000089407","","","12","13376","5711","g","elianto","#f73b6a7A"," "," ","1","-10","[1491.9000000059605]","1","2","","","13376","79","3","3","lose","go","1"
"pit-trial","198","1175202","0.0-84.0","battery-v0.2","","""event"",""trial"",""time""
""fullscreenenter"",""1"",""4227""
","
","
","""event"",""trial"",""time""
""fullscreenenter"",""1"",""4227""
","
","","","986.4000000059605","","","12","13376","5711","w","elianto","#f73b6a7A","-1"," ","0","0","[1836.5]","1","2","","","13376","80","6","4","lose","no-go","1"
"pit-trial","199","1178564","0.0-85.0","battery-v0.2","","""event"",""trial"",""time""
""fullscreenenter"",""1"",""4227""
","
","
","""event"",""trial"",""time""
""fullscreenenter"",""1"",""4227""
","
","","","510.09999999403954","","","12","13376","5711","p","elianto","#3366ff99","-1"," ","0","0","[1361.0999999940395]","1","2","","","13376","81","4","2","win","no-go","0"
"pit-trial","200","1182476","0.0-86.0","battery-v0.2","","""event"",""trial"",""time""
""fullscreenenter"",""1"",""4227""
","
","
","""event"",""trial"",""time""
""fullscreenenter"",""1"",""4227""
","
","","","1058.5","","","12","13376","5711","e","elianto","#f73b6a7A"," "," ","1","0","[1909.2000000029802]","1","2","","","13376","82","7","3","lose","go","0"
"pit-trial","201","1185920","0.0-87.0","battery-v0.2","","""event"",""trial"",""time""
""fullscreenenter"",""1"",""4227""
","
","
","""event"",""trial"",""time""
""fullscreenenter"",""1"",""4227""
","
","","","591.2000000029802","","","12","13376","5711","s","elianto","#3366ff99"," "," ","1","+10","[1441.7999999970198]","1","2","","","13376","83","5","1","win","go","0"
"pit-trial","202","1189796","0.0-88.0","battery-v0.2","","""event"",""trial"",""time""
""fullscreenenter"",""1"",""4227""
","
","
","""event"",""trial"",""time""
""fullscreenenter"",""1"",""4227""
","
","","","1023.7000000029802","","","12","13376","5711","w","elianto","#f73b6a7A","-1"," ","0","-10","[1874.5]","1","2","","","13376","84","6","4","lose","no-go","0"
"pit-trial","203","1193134","0.0-89.0","battery-v0.2","","""event"",""trial"",""time""
""fullscreenenter"",""1"",""4227""
","
","
","""event"",""trial"",""time""
""fullscreenenter"",""1"",""4227""
","
","","","485.70000000298023","","","12","13376","5711","w","elianto","#f73b6a7A","-1"," ","0","-10","[1336.5999999940395,3113.5999999940395]","2","2","","","13376","85","6","4","lose","no-go","0"
"pit-trial","204","1196704","0.0-90.0","battery-v0.2","","""event"",""trial"",""time""
""fullscreenenter"",""1"",""4227""
","
","
","""event"",""trial"",""time""
""fullscreenenter"",""1"",""4227""
","
","","","716.3999999910593","","","12","13376","5711","e","elianto","#f73b6a7A"," "," ","1","0","[1567.0999999940395,2902.5]","2","2","","","13376","86","7","3","lose","go","0"
"pit-trial","205","1200246","0.0-91.0","battery-v0.2","","""event"",""trial"",""time""
""fullscreenenter"",""1"",""4227""
","
","
","""event"",""trial"",""time""
""fullscreenenter"",""1"",""4227""
","
","","","689.0999999940395","","","12","13376","5711","p","elianto","#3366ff99","-1"," ","0","+10","[1540,3119.7999999970198]","2","2","","","13376","87","4","2","win","no-go","1"
"pit-trial","206","1203675","0.0-92.0","battery-v0.2","","""event"",""trial"",""time""
""fullscreenenter"",""1"",""4227""
","
","
","""event"",""trial"",""time""
""fullscreenenter"",""1"",""4227""
","
","","","577.5","","","12","13376","5711","s","elianto","#3366ff99"," "," ","1","+10","[1428]","1","2","","","13376","88","5","1","win","go","0"
"pit-trial","207","1207253","0.0-93.0","battery-v0.2","","""event"",""trial"",""time""
""fullscreenenter"",""1"",""4227""
","
","
","""event"",""trial"",""time""
""fullscreenenter"",""1"",""4227""
","
","","","725.4000000059605","","","12","13376","5711","s","elianto","#3366ff99"," "," ","1","+10","[1575.5999999940395,3374.2999999970198]","2","2","","","13376","89","5","1","win","go","0"
"pit-trial","208","1211032","0.0-94.0","battery-v0.2","","""event"",""trial"",""time""
""fullscreenenter"",""1"",""4227""
","
","
","""event"",""trial"",""time""
""fullscreenenter"",""1"",""4227""
","
","","","925.2999999970198","","","12","13376","5711","w","elianto","#f73b6a7A","-1"," ","0","0","[1777.4000000059605]","1","2","","","13376","90","6","4","lose","no-go","1"
"pit-trial","209","1214335","0.0-95.0","battery-v0.2","","""event"",""trial"",""time""
""fullscreenenter"",""1"",""4227""
","
","
","""event"",""trial"",""time""
""fullscreenenter"",""1"",""4227""
","
","","","450.90000000596046","","","12","13376","5711","p","elianto","#3366ff99","-1"," ","0","0","[1301.0999999940395]","1","2","","","13376","91","4","2","win","no-go","0"
"pit-trial","210","1218140","0.0-96.0","battery-v0.2","","""event"",""trial"",""time""
""fullscreenenter"",""1"",""4227""
","
","
","""event"",""trial"",""time""
""fullscreenenter"",""1"",""4227""
","
","","","953.2999999970198","","","12","13376","5711","e","elianto","#f73b6a7A"," "," ","1","0","[1803.5]","1","2","","","13376","92","7","3","lose","go","0"
"pit-trial","211","1221572","0.0-97.0","battery-v0.2","","""event"",""trial"",""time""
""fullscreenenter"",""1"",""4227""
","
","
","""event"",""trial"",""time""
""fullscreenenter"",""1"",""4227""
","
","","","579.5","","","12","13376","5711","d","elianto","#3366ff99","-1"," ","0","0","[1430.5]","1","2","","","13376","93","8","2","win","no-go","0"
"pit-trial","212","1224652","0.0-98.0","battery-v0.2","","""event"",""trial"",""time""
""fullscreenenter"",""1"",""4227""
","
","
","""event"",""trial"",""time""
""fullscreenenter"",""1"",""4227""
","
","","","225.90000000596046","","","12","13376","5711","e","elianto","#f73b6a7A"," "," ","1","-10","[1077.9000000059605]","1","2","","","13376","94","7","3","lose","go","1"
"pit-trial","213","1228040","0.0-99.0","battery-v0.2","","""event"",""trial"",""time""
""fullscreenenter"",""1"",""4227""
","
","
","""event"",""trial"",""time""
""fullscreenenter"",""1"",""4227""
","
","","","535","","","12","13376","5711","s","elianto","#3366ff99"," "," ","1","+10","[1385.7000000029802]","1","2","","","13376","95","5","1","win","go","0"
"pit-trial","214","1231806","0.0-100.0","battery-v0.2","","""event"",""trial"",""time""
""fullscreenenter"",""1"",""4227""
","
","
","""event"",""trial"",""time""
""fullscreenenter"",""1"",""4227""
","
","","","913.1999999880791","","","12","13376","5711","w","elianto","#f73b6a7A","-1"," ","0","-10","[1764.2999999970198]","1","2","","","13376","96","6","4","lose","no-go","0"
"pit-trial","215","1235819","0.0-101.0","battery-v0.2","","""event"",""trial"",""time""
""fullscreenenter"",""1"",""4227""
","
","
","""event"",""trial"",""time""
""fullscreenenter"",""1"",""4227""
","
","","","1160","","","12","13376","5711","e","elianto","#f73b6a7A"," "," ","1","0","[2010.2999999970198]","1","2","","","13376","97","7","3","lose","go","0"
"pit-trial","216","1240672","0.0-102.0","battery-v0.2","","""event"",""trial"",""time""
""fullscreenenter"",""1"",""4227""
","
","
","""event"",""trial"",""time""
""fullscreenenter"",""1"",""4227""
","
","","","-1","","","12","13376","5711","w","elianto","#f73b6a7A","-1","-1","1","-10","[]","0","2","","","13376","98","6","4","lose","no-go","1"
"pit-trial","217","1244116","0.0-103.0","battery-v0.2","","""event"",""trial"",""time""
""fullscreenenter"",""1"",""4227""
","
","
","""event"",""trial"",""time""
""fullscreenenter"",""1"",""4227""
","
","","","590.7999999970198","","","12","13376","5711","d","elianto","#3366ff99","-1"," ","0","0","[1441.5]","1","2","","","13376","99","8","2","win","no-go","0"
"pit-trial","218","1247591","0.0-104.0","battery-v0.2","","""event"",""trial"",""time""
""fullscreenenter"",""1"",""4227""
","
","
","""event"",""trial"",""time""
""fullscreenenter"",""1"",""4227""
","
","","","623","","","12","13376","5711","s","elianto","#3366ff99"," "," ","1","+10","[1473.4000000059605]","1","2","","","13376","100","5","1","win","go","0"
"pit-trial","219","1251884","0.0-105.0","battery-v0.2","","""event"",""trial"",""time""
""fullscreenenter"",""1"",""4227""
","
","
","""event"",""trial"",""time""
""fullscreenenter"",""1"",""4227""
","
","","","1439.7000000029802","","","12","13376","5711","j","elianto","#3366ff99","-1"," ","0","0","[2291.6000000089407]","1","2","","","13376","101","9","2","win","no-go","0"
"pit-trial","220","1255536","0.0-106.0","battery-v0.2","","""event"",""trial"",""time""
""fullscreenenter"",""1"",""4227""
","
","
","""event"",""trial"",""time""
""fullscreenenter"",""1"",""4227""
","
","","","800.5999999940395","","","12","13376","5711","d","elianto","#3366ff99","-1"," ","0","+10","[1650.7000000029802]","1","2","","","13376","102","8","2","win","no-go","1"
"pit-trial","221","1258986","0.0-107.0","battery-v0.2","","""event"",""trial"",""time""
""fullscreenenter"",""1"",""4227""
","
","
","""event"",""trial"",""time""
""fullscreenenter"",""1"",""4227""
","
","","","598","","","12","13376","5711","s","elianto","#3366ff99"," "," ","1","0","[1448]","1","2","","","13376","103","5","1","win","go","1"
"pit-trial","222","1263841","0.0-108.0","battery-v0.2","","""event"",""trial"",""time""
""fullscreenenter"",""1"",""4227""
","
","
","""event"",""trial"",""time""
""fullscreenenter"",""1"",""4227""
","
","","","-1","","","12","13376","5711","w","elianto","#f73b6a7A","-1","-1","1","0","[]","0","2","","","13376","104","6","4","lose","no-go","0"
"pit-trial","223","1267202","0.0-109.0","battery-v0.2","","""event"",""trial"",""time""
""fullscreenenter"",""1"",""4227""
","
","
","""event"",""trial"",""time""
""fullscreenenter"",""1"",""4227""
","
","","","508.09999999403954","","","12","13376","5711","j","elianto","#3366ff99","-1"," ","0","0","[1358.5999999940395]","1","2","","","13376","105","9","2","win","no-go","0"
"pit-trial","224","1270411","0.0-110.0","battery-v0.2","","""event"",""trial"",""time""
""fullscreenenter"",""1"",""4227""
","
","
","""event"",""trial"",""time""
""fullscreenenter"",""1"",""4227""
","
","","","356.79999999701977","","","12","13376","5711","s","elianto","#3366ff99"," "," ","1","+10","[1207.0999999940395]","1","2","","","13376","106","5","1","win","go","0"
"pit-trial","225","1275264","0.0-111.0","battery-v0.2","","""event"",""trial"",""time""
""fullscreenenter"",""1"",""4227""
","
","
","""event"",""trial"",""time""
""fullscreenenter"",""1"",""4227""
","
","","","-1","","","12","13376","5711","w","elianto","#f73b6a7A","-1","-1","1","0","[2857.4000000059605]","1","2","","","13376","107","6","4","lose","no-go","0"
"pit-trial","226","1278721","0.0-112.0","battery-v0.2","","""event"",""trial"",""time""
""fullscreenenter"",""1"",""4227""
","
","
","""event"",""trial"",""time""
""fullscreenenter"",""1"",""4227""
","
","","","604.1000000089407","","","12","13376","5711","d","elianto","#3366ff99","-1"," ","0","+10","[1454.9000000059605]","1","2","","","13376","108","8","2","win","no-go","1"
"pit-trial","227","1281989","0.0-113.0","battery-v0.2","","""event"",""trial"",""time""
""fullscreenenter"",""1"",""4227""
","
","
","""event"",""trial"",""time""
""fullscreenenter"",""1"",""4227""
","
","","","415.5","","","12","13376","5711","d","elianto","#3366ff99","-1"," ","0","0","[1265.5999999940395]","1","2","","","13376","109","8","2","win","no-go","0"
"pit-trial","228","1285115","0.0-114.0","battery-v0.2","","""event"",""trial"",""time""
""fullscreenenter"",""1"",""4227""
","
","
","""event"",""trial"",""time""
""fullscreenenter"",""1"",""4227""
","
","","","272.40000000596046","","","12","13376","5711","j","elianto","#3366ff99","-1"," ","0","+10","[1123.7999999970198]","1","2","","","13376","110","9","2","win","no-go","1"
"pit-trial","229","1288341","0.0-115.0","battery-v0.2","","""event"",""trial"",""time""
""fullscreenenter"",""1"",""4227""
","
","
","""event"",""trial"",""time""
""fullscreenenter"",""1"",""4227""
","
","","","374.5","","","12","13376","5711","s","elianto","#3366ff99"," "," ","1","+10","[1225.199999988079]","1","2","","","13376","111","5","1","win","go","0"
"pit-trial","230","1291608","0.0-116.0","battery-v0.2","","""event"",""trial"",""time""
""fullscreenenter"",""1"",""4227""
","
","
","""event"",""trial"",""time""
""fullscreenenter"",""1"",""4227""
","
","","","415.20000000298023","","","12","13376","5711","w","elianto","#f73b6a7A","-1"," ","0","-10","[1265.5]","1","2","","","13376","112","6","4","lose","no-go","0"
"pit-trial","231","1295195","0.0-117.0","battery-v0.2","","""event"",""trial"",""time""
""fullscreenenter"",""1"",""4227""
","
","
","""event"",""trial"",""time""
""fullscreenenter"",""1"",""4227""
","
","","","733.5","","","12","13376","5711","d","elianto","#3366ff99","-1"," ","0","0","[1584.2000000029802]","1","2","","","13376","113","8","2","win","no-go","0"
"pit-trial","232","1298466","0.0-118.0","battery-v0.2","","""event"",""trial"",""time""
""fullscreenenter"",""1"",""4227""
","
","
","""event"",""trial"",""time""
""fullscreenenter"",""1"",""4227""
","
","","","416.5","","","12","13376","5711","s","elianto","#3366ff99"," "," ","1","0","[1267.7999999970198]","1","2","","","13376","114","5","1","win","go","1"
"pit-trial","233","1301662","0.0-119.0","battery-v0.2","","""event"",""trial"",""time""
""fullscreenenter"",""1"",""4227""
","
","
","""event"",""trial"",""time""
""fullscreenenter"",""1"",""4227""
","
","","","344.09999999403954","","","12","13376","5711","j","elianto","#3366ff99","-1"," ","0","+10","[1194.7999999970198]","1","2","","","13376","115","9","2","win","no-go","1"
"pit-trial","234","1304672","0.0-120.0","battery-v0.2","","""event"",""trial"",""time""
""fullscreenenter"",""1"",""4227""
","
","
","""event"",""trial"",""time""
""fullscreenenter"",""1"",""4227""
","
","","","157.20000000298023","","","12","13376","5711","e","elianto","#f73b6a7A"," "," ","1","0","[1008.1000000089407]","1","2","","","13376","116","7","3","lose","go","0"
"pit-trial","235","1307685","0.0-121.0","battery-v0.2","","""event"",""trial"",""time""
""fullscreenenter"",""1"",""4227""
","
","
","""event"",""trial"",""time""
""fullscreenenter"",""1"",""4227""
","
","","","160","","","12","13376","5711","d","elianto","#3366ff99","-1"," ","0","0","[1011.3999999910593]","1","2","","","13376","117","8","2","win","no-go","0"
"pit-trial","236","1310881","0.0-122.0","battery-v0.2","","""event"",""trial"",""time""
""fullscreenenter"",""1"",""4227""
","
","
","""event"",""trial"",""time""
""fullscreenenter"",""1"",""4227""
","
","","","343.8999999910593","","","12","13376","5711","w","elianto","#f73b6a7A","-1"," ","0","-10","[1194.0999999940395]","1","2","","","13376","118","6","4","lose","no-go","0"
"pit-trial","237","1314168","0.0-123.0","battery-v0.2","","""event"",""trial"",""time""
""fullscreenenter"",""1"",""4227""
","
","
","""event"",""trial"",""time""
""fullscreenenter"",""1"",""4227""
","
","","","435.29999999701977","","","12","13376","5711","j","elianto","#3366ff99","-1"," ","0","0","[1285.5]","1","2","","","13376","119","9","2","win","no-go","0"
"pit-trial","238","1317261","0.0-124.0","battery-v0.2","","""event"",""trial"",""time""
""fullscreenenter"",""1"",""4227""
","
","
","""event"",""trial"",""time""
""fullscreenenter"",""1"",""4227""
","
","","","240.70000000298023","","","12","13376","5711","s","elianto","#3366ff99"," "," ","1","0","[691.9000000059605,1091.4000000059605]","2","2","","","13376","120","5","1","win","go","1"
"pit-trial","239","1320273","0.0-125.0","battery-v0.2","","""event"",""trial"",""time""
""fullscreenenter"",""1"",""4227""
","
","
","""event"",""trial"",""time""
""fullscreenenter"",""1"",""4227""
","
","","","159.40000000596046","","","12","13376","5711","s","elianto","#3366ff99"," "," ","1","+10","[1010.2999999970198]","1","2","","","13376","121","5","1","win","go","0"
"pit-trial","240","1323350","0.0-126.0","battery-v0.2","","""event"",""trial"",""time""
""fullscreenenter"",""1"",""4227""
","
","
","""event"",""trial"",""time""
""fullscreenenter"",""1"",""4227""
","
","","","222.59999999403954","","","12","13376","5711","d","elianto","#3366ff99","-1"," ","0","0","[1073.7999999970198]","1","2","","","13376","122","8","2","win","no-go","0"
"pit-trial","241","1326511","0.0-127.0","battery-v0.2","","""event"",""trial"",""time""
""fullscreenenter"",""1"",""4227""
","
","
","""event"",""trial"",""time""
""fullscreenenter"",""1"",""4227""
","
","","","308.3999999910593","","","12","13376","5711","j","elianto","#3366ff99","-1"," ","0","0","[1159.0999999940395,2879.7000000029802]","2","2","","","13376","123","9","2","win","no-go","0"
"pit-trial","242","1329640","0.0-128.0","battery-v0.2","","""event"",""trial"",""time""
""fullscreenenter"",""1"",""4227""
","
","
","""event"",""trial"",""time""
""fullscreenenter"",""1"",""4227""
","
","","","275.59999999403954","","","12","13376","5711","e","elianto","#f73b6a7A"," "," ","1","0","[1127.0999999940395]","1","2","","","13376","124","7","3","lose","go","0"
"pit-trial","243","1332822","0.0-129.0","battery-v0.2","","""event"",""trial"",""time""
""fullscreenenter"",""1"",""4227""
","
","
","""event"",""trial"",""time""
""fullscreenenter"",""1"",""4227""
","
","","","330.69999998807907","","","12","13376","5711","j","elianto","#3366ff99","-1"," ","0","0","[537.7000000029802,1181.0999999940395]","2","2","","","13376","125","9","2","win","no-go","0"
"pit-trial","244","1335913","0.0-130.0","battery-v0.2","","""event"",""trial"",""time""
""fullscreenenter"",""1"",""4227""
","
","
","""event"",""trial"",""time""
""fullscreenenter"",""1"",""4227""
","
","","","238.5","","","12","13376","5711","w","elianto","#f73b6a7A","-1"," ","0","-10","[1089.2000000029802]","1","2","","","13376","126","6","4","lose","no-go","0"
"pit-trial","245","1339398","0.0-131.0","battery-v0.2","","""event"",""trial"",""time""
""fullscreenenter"",""1"",""4227""
","
","
","""event"",""trial"",""time""
""fullscreenenter"",""1"",""4227""
","
","","","633.8000000119209","","","12","13376","5711","d","elianto","#3366ff99","-1"," ","0","0","[1483.9000000059605]","1","2","","","13376","127","8","2","win","no-go","0"
"pit-trial","246","1343615","0.0-132.0","battery-v0.2","","""event"",""trial"",""time""
""fullscreenenter"",""1"",""4227""
","
","
","""event"",""trial"",""time""
""fullscreenenter"",""1"",""4227""
","
","","","1363.5","","","12","13376","5711","e","elianto","#f73b6a7A"," "," ","1","-10","[2215.2000000029802]","1","2","","","13376","128","7","3","lose","go","1"
"pit-trial","247","1348468","0.0-133.0","battery-v0.2","","""event"",""trial"",""time""
""fullscreenenter"",""1"",""4227""
","
","
","""event"",""trial"",""time""
""fullscreenenter"",""1"",""4227""
","
","","","-1","","","12","13376","5711","e","elianto","#f73b6a7A"," ","-1","0","-10","[]","0","2","","","13376","129","7","3","lose","go","0"
"pit-trial","248","1351973","0.0-134.0","battery-v0.2","","""event"",""trial"",""time""
""fullscreenenter"",""1"",""4227""
","
","
","""event"",""trial"",""time""
""fullscreenenter"",""1"",""4227""
","
","","","652.3999999910593","","","12","13376","5711","w","elianto","#f73b6a7A","-1"," ","0","-10","[1502.9000000059605]","1","2","","","13376","130","6","4","lose","no-go","0"
"pit-trial","249","1355460","0.0-135.0","battery-v0.2","","""event"",""trial"",""time""
""fullscreenenter"",""1"",""4227""
","
","
","""event"",""trial"",""time""
""fullscreenenter"",""1"",""4227""
","
","","","633.7999999970198","","","12","13376","5711","d","elianto","#3366ff99","-1"," ","0","+10","[1484.5]","1","2","","","13376","131","8","2","win","no-go","1"
"pit-trial","250","1358871","0.0-136.0","battery-v0.2","","""event"",""trial"",""time""
""fullscreenenter"",""1"",""4227""
","
","
","""event"",""trial"",""time""
""fullscreenenter"",""1"",""4227""
","
","","","552.6999999880791","","","12","13376","5711","j","elianto","#3366ff99","-1"," ","0","0","[1408.3999999910593]","1","2","","","13376","132","9","2","win","no-go","0"
"pit-trial","251","1362383","0.0-137.0","battery-v0.2","","""event"",""trial"",""time""
""fullscreenenter"",""1"",""4227""
","
","
","""event"",""trial"",""time""
""fullscreenenter"",""1"",""4227""
","
","","","658.8999999910593","","","12","13376","5711","d","elianto","#3366ff99","-1"," ","0","0","[1510.5]","1","2","","","13376","133","8","2","win","no-go","0"
"pit-trial","252","1367248","0.0-138.0","battery-v0.2","","""event"",""trial"",""time""
""fullscreenenter"",""1"",""4227""
","
","
","""event"",""trial"",""time""
""fullscreenenter"",""1"",""4227""
","
","","","-1","","","12","13376","5711","e","elianto","#f73b6a7A"," ","-1","0","-10","[]","0","2","","","13376","134","7","3","lose","go","0"
"pit-trial","253","1372101","0.0-139.0","battery-v0.2","","""event"",""trial"",""time""
""fullscreenenter"",""1"",""4227""
","
","
","""event"",""trial"",""time""
""fullscreenenter"",""1"",""4227""
","
","","","-1","","","12","13376","5711","w","elianto","#f73b6a7A","-1","-1","1","0","[]","0","2","","","13376","135","6","4","lose","no-go","0"
"pit-trial","254","1375751","0.0-140.0","battery-v0.2","","""event"",""trial"",""time""
""fullscreenenter"",""1"",""4227""
","
","
","""event"",""trial"",""time""
""fullscreenenter"",""1"",""4227""
","
","","","796.9000000059605","","","12","13376","5711","j","elianto","#3366ff99","-1"," ","0","0","[1647.300000011921]","1","2","","","13376","136","9","2","win","no-go","0"
"pit-trial","255","1379661","0.0-141.0","battery-v0.2","","""event"",""trial"",""time""
""fullscreenenter"",""1"",""4227""
","
","
","""event"",""trial"",""time""
""fullscreenenter"",""1"",""4227""
","
","","","1057.3999999910593","","","12","13376","5711","e","elianto","#f73b6a7A"," "," ","1","-10","[1907.7999999970198]","1","2","","","13376","137","7","3","lose","go","1"
"pit-trial","256","1383337","0.0-142.0","battery-v0.2","","""event"",""trial"",""time""
""fullscreenenter"",""1"",""4227""
","
","
","""event"",""trial"",""time""
""fullscreenenter"",""1"",""4227""
","
","","","823.5999999940395","","","12","13376","5711","j","elianto","#3366ff99","-1"," ","0","0","[1674.1000000089407]","1","2","","","13376","138","9","2","win","no-go","0"
"pit-trial","257","1386894","0.0-143.0","battery-v0.2","","""event"",""trial"",""time""
""fullscreenenter"",""1"",""4227""
","
","
","""event"",""trial"",""time""
""fullscreenenter"",""1"",""4227""
","
","","","704.9000000059605","","","12","13376","5711","d","elianto","#3366ff99","-1"," ","0","0","[1555.800000011921]","1","2","","","13376","139","8","2","win","no-go","0"
"pit-trial","258","1391747","0.0-144.0","battery-v0.2","","""event"",""trial"",""time""
""fullscreenenter"",""1"",""4227""
","
","
","""event"",""trial"",""time""
""fullscreenenter"",""1"",""4227""
","
","","","-1","","","12","13376","5711","w","elianto","#f73b6a7A","-1","-1","1","0","[]","0","2","","","13376","140","6","4","lose","no-go","0"
"pit-instructions","259","1406641","0.0-145.0","battery-v0.2","","""event"",""trial"",""time""
""fullscreenenter"",""1"",""4227""
","
","
","""event"",""trial"",""time""
""fullscreenenter"",""1"",""4227""
","
","","[{""page_index"":0,""viewing_time"":5774.70000000298},{""page_index"":1,""viewing_time"":9118.09999999404}]","14893","","","","","","","","","","","","","","","","","","","","","","","",""
"pit-trial","260","1410093","0.0-146.0","battery-v0.2","","""event"",""trial"",""time""
""fullscreenenter"",""1"",""4227""
","
","
","""event"",""trial"",""time""
""fullscreenenter"",""1"",""4227""
","
","","","586.8999999910593","","","12","13376","5711","h","elianto","#f73b6a7A","-1"," ","0","0","[1439.5]","1","3","","","13376","141","3","4","lose","no-go","1"
"pit-trial","261","1413429","0.0-147.0","battery-v0.2","","""event"",""trial"",""time""
""fullscreenenter"",""1"",""4227""
","
","
","""event"",""trial"",""time""
""fullscreenenter"",""1"",""4227""
","
","","","474.5","","","12","13376","5711","y","elianto","#f73b6a7A"," "," ","1","0","[1326.4000000059605]","1","3","","","13376","142","2","3","lose","go","0"
"pit-trial","262","1416406","0.0-148.0","battery-v0.2","","""event"",""trial"",""time""
""fullscreenenter"",""1"",""4227""
","
","
","""event"",""trial"",""time""
""fullscreenenter"",""1"",""4227""
","
","","","116.79999999701977","","","12","13376","5711","m","elianto","#f73b6a7A"," "," ","1","0","[970.6000000089407,2331.4000000059605]","2","3","","","13376","143","0","3","lose","go","0"
"pit-trial","263","1419831","0.0-149.0","battery-v0.2","","""event"",""trial"",""time""
""fullscreenenter"",""1"",""4227""
","
","
","""event"",""trial"",""time""
""fullscreenenter"",""1"",""4227""
","
