"trial_type","trial_index","time_elapsed","internal_node_id","task_version","subject_id","interactions","blur_events","focus_events","fullscreenenter_events","fullscreenexit_events","success","view_history","rt","responses","num_errors","age","subject","participantId","rune","rune_set","hex","correct","choice","accuracy","outcome","keys","total_keys","block","practice","value","sub","trial","stimulus","robot","valence","action","sham"
"pavlovia","0","7","0.0-0.0","battery-v0.2","","""event"",""trial"",""time""
""fullscreenenter"",""1"",""1876""
","
","
","""event"",""trial"",""time""
""fullscreenenter"",""1"",""1876""
","
","","","","","","","","","","","","","","","","","","","","","","","","","","",""
"fullscreen","1","2867","0.0-1.0","battery-v0.2","","""event"",""trial"",""time""
""fullscreenenter"",""1"",""1876""
","
","
","""event"",""trial"",""time""
""fullscreenenter"",""1"",""1876""
","
","true","","","","","","","","","","","","","","","","","","","","","","","","","",""
"pit-instructions","2","6482","0.0-2.0-0.0","battery-v0.2","","""event"",""trial"",""time""
""fullscreenenter"",""1"",""1876""
","
","
","""event"",""trial"",""time""
""fullscreenenter"",""1"",""1876""
","
","","[{""page_index"":0,""viewing_time"":3613.899999999907}]","3614.0999999998603","","","","","","","","","","","","","","","","","","","","","","","",""
"pit-comprehension","3","8934","0.0-2.0-1.0-0.0","battery-v0.2","","""event"",""trial"",""time""
""fullscreenenter"",""1"",""1876""
","
","
","""event"",""trial"",""time""
""fullscreenenter"",""1"",""1876""
","
","","","2449.600000000093","[""shark""]","0","21","11206","4965","","","","","","","","","","","","","","","","","","",""
"pit-instructions","4","10647","0.0-2.0-1.0-1.0","battery-v0.2","","""event"",""trial"",""time""
""fullscreenenter"",""1"",""1876""
","
","
","""event"",""trial"",""time""
""fullscreenenter"",""1"",""1876""
","
","","[{""page_index"":0,""viewing_time"":1706.1999999999534}]","1706.3999999999069","","","","","","","","","","","","","","","","","","","","","","","",""
"pit-comprehension","5","13827","0.0-2.0-2.0-0.0","battery-v0.2","","""event"",""trial"",""time""
""fullscreenenter"",""1"",""1876""
","
","
","""event"",""trial"",""time""
""fullscreenenter"",""1"",""1876""
","
","","","3177.4000000001397","[""tiger""]","0","21","11206","4965","","","","","","","","","","","","","","","","","","",""
"pit-instructions","6","15239","0.0-2.0-2.0-1.0","battery-v0.2","","""event"",""trial"",""time""
""fullscreenenter"",""1"",""1876""
","
","
","""event"",""trial"",""time""
""fullscreenenter"",""1"",""1876""
","
","","[{""page_index"":0,""viewing_time"":1410}]","1410.1000000000931","","","","","","","","","","","","","","","","","","","","","","","",""
"pit-instructions","7","115132","0.0-2.0-3.0","battery-v0.2","","""event"",""trial"",""time""
""fullscreenenter"",""1"",""1876""
","
","
","""event"",""trial"",""time""
""fullscreenenter"",""1"",""1876""
","
","","[{""page_index"":0,""viewing_time"":9923},{""page_index"":1,""viewing_time"":7465.59999999986},{""page_index"":2,""viewing_time"":6383.90000000014},{""page_index"":3,""viewing_time"":5963.799999999814},{""page_index"":4,""viewing_time"":7223.90000000014},{""page_index"":5,""viewing_time"":5083.699999999953},{""page_index"":6,""viewing_time"":9707.899999999907},{""page_index"":7,""viewing_time"":6915.700000000186},{""page_index"":8,""viewing_time"":6503.899999999907},{""page_index"":9,""viewing_time"":8039.5},{""page_index"":10,""viewing_time"":7670.800000000047},{""page_index"":11,""viewing_time"":8456.899999999907},{""page_index"":12,""viewing_time"":6016.800000000047},{""page_index"":13,""viewing_time"":4536.199999999953}]","99891.79999999981","","","","","","","","","","","","","","","","","","","","","","","",""
"pit-trial","8","118056","0.0-2.0-4.0-0.0","battery-v0.2","","""event"",""trial"",""time""
""fullscreenenter"",""1"",""1876""
","
","
","""event"",""trial"",""time""
""fullscreenenter"",""1"",""1876""
","
","","","66.80000000004657","","","21","11206","4965","&#9784;","elianto","#FFFFF080"," "," ","1","&#10004","[304.69999999995343,917.1999999999534]","2","0","0","","","","","","","",""
"pit-trial","9","121393","0.0-2.0-4.1-0.1","battery-v0.2","","""event"",""trial"",""time""
""fullscreenenter"",""1"",""1876""
","
","
","""event"",""trial"",""time""
""fullscreenenter"",""1"",""1876""
","
","","","471","","","21","11206","4965","&#9784;","elianto","#FFFFF080"," "," ","1","&#10004","[1321.3000000000466]","1","0","0","","","","","","","",""
"pit-trial","10","124718","0.0-2.0-4.2-0.2","battery-v0.2","","""event"",""trial"",""time""
""fullscreenenter"",""1"",""1876""
","
","
","""event"",""trial"",""time""
""fullscreenenter"",""1"",""1876""
","
","","","457.5","","","21","11206","4965","&#9784;","elianto","#FFFFF080"," "," ","1","&#10004","[1311.1999999999534]","1","0","0","","","","","","","",""
"pit-trial","11","128066","0.0-2.0-4.3-0.3","battery-v0.2","","""event"",""trial"",""time""
""fullscreenenter"",""1"",""1876""
","
","
","""event"",""trial"",""time""
""fullscreenenter"",""1"",""1876""
","
","","","488.30000000004657","","","21","11206","4965","&#9784;","elianto","#FFFFF080"," "," ","1","&#10004","[1344.5]","1","0","0","","","","","","","",""
"pit-trial","12","131396","0.0-2.0-4.4-0.4","battery-v0.2","","""event"",""trial"",""time""
""fullscreenenter"",""1"",""1876""
","
","
","""event"",""trial"",""time""
""fullscreenenter"",""1"",""1876""
","
","","","460.20000000018626","","","21","11206","4965","&#9784;","elianto","#FFFFF080"," "," ","1","&#10004","[1316.1000000000931]","1","0","0","","","","","","","",""
"pit-instructions","13","152424","0.0-2.0-5.0","battery-v0.2","","""event"",""trial"",""time""
""fullscreenenter"",""1"",""1876""
","
","
","""event"",""trial"",""time""
""fullscreenenter"",""1"",""1876""
","
","","[{""page_index"":0,""viewing_time"":4740.600000000093},{""page_index"":1,""viewing_time"":5201.800000000047},{""page_index"":2,""viewing_time"":5056.899999999907},{""page_index"":3,""viewing_time"":6026.800000000047}]","21026.199999999953","","","","","","","","","","","","","","","","","","","","","","","",""
"pit-trial","14","157293","0.0-2.0-6.0-0.0","battery-v0.2","","""event"",""trial"",""time""
""fullscreenenter"",""1"",""1876""
","
","
","""event"",""trial"",""time""
""fullscreenenter"",""1"",""1876""
","
","","","-1","","","21","11206","4965","&#9854;","elianto","#FFFFF080","-1","-1","1","&#10004","[]","0","0","1","","","","","","","",""
"pit-trial","15","162151","0.0-2.0-6.1-0.1","battery-v0.2","","""event"",""trial"",""time""
""fullscreenenter"",""1"",""1876""
","
","
","""event"",""trial"",""time""
""fullscreenenter"",""1"",""1876""
","
","","","-1","","","21","11206","4965","&#9854;","elianto","#FFFFF080","-1","-1","1","&#10004","[]","0","0","1","","","","","","","",""
"pit-trial","16","167013","0.0-2.0-6.2-0.2","battery-v0.2","","""event"",""trial"",""time""
""fullscreenenter"",""1"",""1876""
","
","
","""event"",""trial"",""time""
""fullscreenenter"",""1"",""1876""
","
","","","-1","","","21","11206","4965","&#9854;","elianto","#FFFFF080","-1","-1","1","&#10004","[]","0","0","1","","","","","","","",""
"pit-trial","17","171880","0.0-2.0-6.3-0.3","battery-v0.2","","""event"",""trial"",""time""
""fullscreenenter"",""1"",""1876""
","
","
","""event"",""trial"",""time""
""fullscreenenter"",""1"",""1876""
","
","","","-1","","","21","11206","4965","&#9854;","elianto","#FFFFF080","-1","-1","1","&#10004","[]","0","0","1","","","","","","","",""
"pit-trial","18","176760","0.0-2.0-6.4-0.4","battery-v0.2","","""event"",""trial"",""time""
""fullscreenenter"",""1"",""1876""
","
","
","""event"",""trial"",""time""
""fullscreenenter"",""1"",""1876""
","
","","","-1","","","21","11206","4965","&#9854;","elianto","#FFFFF080","-1","-1","1","&#10004","[]","0","0","1","","","","","","","",""
"pit-instructions","19","298450","0.0-2.0-7.0","battery-v0.2","","""event"",""trial"",""time""
""fullscreenenter"",""1"",""1876""
","
","
","""event"",""trial"",""time""
""fullscreenenter"",""1"",""1876""
","
","","[{""page_index"":0,""viewing_time"":5621.799999999814},{""page_index"":1,""viewing_time"":6891.90000000014},{""page_index"":2,""viewing_time"":7623.59999999986},{""page_index"":3,""viewing_time"":6906.800000000047},{""page_index"":4,""viewing_time"":5377},{""page_index"":5,""viewing_time"":6353.699999999953},{""page_index"":6,""viewing_time"":5058.90000000014},{""page_index"":7,""viewing_time"":8642.59999999986},{""page_index"":8,""viewing_time"":6707},{""page_index"":9,""viewing_time"":7428.800000000047},{""page_index"":10,""viewing_time"":8295.600000000093},{""page_index"":11,""viewing_time"":4384},{""page_index"":12,""viewing_time"":6398.800000000047},{""page_index"":13,""viewing_time"":7365.59999999986},{""page_index"":14,""viewing_time"":7282.90000000014},{""page_index"":15,""viewing_time"":8134.699999999953},{""page_index"":16,""viewing_time"":6432.899999999907},{""page_index"":17,""viewing_time"":6782.90000000014}]","121689.59999999986","","","","","","","","","","","","","","","","","","","","","","","",""
"pit-trial","20","301762","0.0-2.0-8.0-0.0","battery-v0.2","","""event"",""trial"",""time""
""fullscreenenter"",""1"",""1876""
","
","
","""event"",""trial"",""time""
""fullscreenenter"",""1"",""1876""
","
","","","454","","","21","11206","4965","&#9776;","elianto","#3366ff99"," "," ","1","+10","[1305.6999999999534]","1","0","1","","","","","","","",""
"pit-trial","21","305103","0.0-2.0-8.0-1.0","battery-v0.2","","""event"",""trial"",""time""
""fullscreenenter"",""1"",""1876""
","
","
","""event"",""trial"",""time""
""fullscreenenter"",""1"",""1876""
","
","","","479.39999999990687","","","21","11206","4965","&#9776;","elianto","#3366ff99"," "," ","1","+10","[1332.5999999998603]","1","0","1","","","","","","","",""
"pit-trial","22","308334","0.0-2.0-8.0-2.0","battery-v0.2","","""event"",""trial"",""time""
""fullscreenenter"",""1"",""1876""
","
","
","""event"",""trial"",""time""
""fullscreenenter"",""1"",""1876""
","
","","","361.69999999995343","","","21","11206","4965","&#9776;","elianto","#3366ff99"," "," ","1","+10","[1214.6000000000931]","1","0","1","","","","","","","",""
"pit-trial","23","311537","0.0-2.0-8.0-3.0","battery-v0.2","","""event"",""trial"",""time""
""fullscreenenter"",""1"",""1876""
","
","
","""event"",""trial"",""time""
""fullscreenenter"",""1"",""1876""
","
","","","346.39999999990687","","","21","11206","4965","&#9776;","elianto","#3366ff99"," "," ","1","0","[1197.9000000001397]","1","0","1","","","","","","","",""
"pit-trial","24","314719","0.0-2.0-8.0-4.0","battery-v0.2","","""event"",""trial"",""time""
""fullscreenenter"",""1"",""1876""
","
","
","""event"",""trial"",""time""
""fullscreenenter"",""1"",""1876""
","
","","","329.80000000004657","","","21","11206","4965","&#9776;","elianto","#3366ff99"," "," ","1","+10","[1180.1999999999534]","1","0","1","","","","","","","",""
"pit-trial","25","317942","0.0-2.0-8.1-0.1","battery-v0.2","","""event"",""trial"",""time""
""fullscreenenter"",""1"",""1876""
","
","
","""event"",""trial"",""time""
""fullscreenenter"",""1"",""1876""
","
","","","362.80000000004657","","","21","11206","4965","&#9776;","elianto","#3366ff99"," "," ","1","+10","[1213.1000000000931]","1","0","1","","","","","","","",""
"pit-trial","26","320929","0.0-2.0-8.1-1.1","battery-v0.2","","""event"",""trial"",""time""
""fullscreenenter"",""1"",""1876""
","
","
","""event"",""trial"",""time""
""fullscreenenter"",""1"",""1876""
","
","","","133.30000000004657","","","21","11206","4965","&#9776;","elianto","#3366ff99"," "," ","1","+10","[985.1000000000931]","1","0","1","","","","","","","",""
"pit-trial","27","324146","0.0-2.0-8.1-2.1","battery-v0.2","","""event"",""trial"",""time""
""fullscreenenter"",""1"",""1876""
","
","
","""event"",""trial"",""time""
""fullscreenenter"",""1"",""1876""
","
","","","361.19999999995343","","","21","11206","4965","&#9776;","elianto","#3366ff99"," "," ","1","+10","[1211.7999999998137]","1","0","1","","","","","","","",""
"pit-trial","28","327381","0.0-2.0-8.1-3.1","battery-v0.2","","""event"",""trial"",""time""
""fullscreenenter"",""1"",""1876""
","
","
","""event"",""trial"",""time""
""fullscreenenter"",""1"",""1876""
","
","","","372.60000000009313","","","21","11206","4965","&#9776;","elianto","#3366ff99"," "," ","1","0","[1226.7000000001863]","1","0","1","","","","","","","",""
"pit-trial","29","330570","0.0-2.0-8.1-4.1","battery-v0.2","","""event"",""trial"",""time""
""fullscreenenter"",""1"",""1876""
","
","
","""event"",""trial"",""time""
""fullscreenenter"",""1"",""1876""
","
","","","335.4000000001397","","","21","11206","4965","&#9776;","elianto","#3366ff99"," "," ","1","+10","[1187]","1","0","1","","","","","","","",""
"pit-trial","30","333699","0.0-2.0-8.2-0.2","battery-v0.2","","""event"",""trial"",""time""
""fullscreenenter"",""1"",""1876""
","
","
","""event"",""trial"",""time""
""fullscreenenter"",""1"",""1876""
","
","","","276.10000000009313","","","21","11206","4965","&#9776;","elianto","#3366ff99"," "," ","1","+10","[1126.5]","1","0","1","","","","","","","",""
"pit-trial","31","336854","0.0-2.0-8.2-1.2","battery-v0.2","","""event"",""trial"",""time""
""fullscreenenter"",""1"",""1876""
","
","
","""event"",""trial"",""time""
""fullscreenenter"",""1"",""1876""
","
","","","302","","","21","11206","4965","&#9776;","elianto","#3366ff99"," "," ","1","+10","[1153]","1","0","1","","","","","","","",""
"pit-trial","32","339961","0.0-2.0-8.2-2.2","battery-v0.2","","""event"",""trial"",""time""
""fullscreenenter"",""1"",""1876""
","
","
","""event"",""trial"",""time""
""fullscreenenter"",""1"",""1876""
","
","","","255.30000000004657","","","21","11206","4965","&#9776;","elianto","#3366ff99"," "," ","1","+10","[1105.8000000000466]","1","0","1","","","","","","","",""
"pit-trial","33","343156","0.0-2.0-8.2-3.2","battery-v0.2","","""event"",""trial"",""time""
""fullscreenenter"",""1"",""1876""
","
","
","""event"",""trial"",""time""
""fullscreenenter"",""1"",""1876""
","
","","","342.5","","","21","11206","4965","&#9776;","elianto","#3366ff99"," "," ","1","0","[1192.6000000000931]","1","0","1","","","","","","","",""
"pit-trial","34","346416","0.0-2.0-8.2-4.2","battery-v0.2","","""event"",""trial"",""time""
""fullscreenenter"",""1"",""1876""
","
","
","""event"",""trial"",""time""
""fullscreenenter"",""1"",""1876""
","
","","","406.80000000004657","","","21","11206","4965","&#9776;","elianto","#3366ff99"," "," ","1","+10","[1257.6999999999534]","1","0","1","","","","","","","",""
"call-function","35","346417","0.0-2.0-9.0","battery-v0.2","","""event"",""trial"",""time""
""fullscreenenter"",""1"",""1876""
","
","
","""event"",""trial"",""time""
""fullscreenenter"",""1"",""1876""
","
","","","","","","","","","","","","","","","","","","","","","","","","","","",""
"pit-instructions","36","415396","0.0-2.0-10.0","battery-v0.2","","""event"",""trial"",""time""
""fullscreenenter"",""1"",""1876""
","
","
","""event"",""trial"",""time""
""fullscreenenter"",""1"",""1876""
","
","","[{""page_index"":0,""viewing_time"":7364.399999999907},{""page_index"":1,""viewing_time"":6710.90000000014},{""page_index"":2,""viewing_time"":10028.5},{""page_index"":3,""viewing_time"":37111.89999999991},{""page_index"":4,""viewing_time"":7761.90000000014}]","68977.69999999995","","","","","","","","","","","","","","","","","","","","","","","",""
"pit-trial","37","418702","0.0-2.0-11.0-0.0","battery-v0.2","","""event"",""trial"",""time""
""fullscreenenter"",""1"",""1876""
","
","
","""event"",""trial"",""time""
""fullscreenenter"",""1"",""1876""
","
","","","443.10000000009313","","","21","11206","4965","&#9761;","elianto","#3366ff99","-1"," ","0","0","[1294.8000000000466]","1","0","2","","","","","","","",""
"pit-trial","38","421943","0.0-2.0-11.0-1.0","battery-v0.2","","""event"",""trial"",""time""
""fullscreenenter"",""1"",""1876""
","
","
","""event"",""trial"",""time""
""fullscreenenter"",""1"",""1876""
","
","","","380.5","","","21","11206","4965","&#9761;","elianto","#3366ff99","-1"," ","0","0","[1231.3999999999069]","1","0","2","","","","","","","",""
"pit-trial","39","426813","0.0-2.0-11.0-2.0","battery-v0.2","","""event"",""trial"",""time""
""fullscreenenter"",""1"",""1876""
","
","
","""event"",""trial"",""time""
""fullscreenenter"",""1"",""1876""
","
","","","-1","","","21","11206","4965","&#9761;","elianto","#3366ff99","-1","-1","1","+10","[]","0","0","2","","","","","","","",""
"pit-trial","40","431678","0.0-2.0-11.0-3.0","battery-v0.2","","""event"",""trial"",""time""
""fullscreenenter"",""1"",""1876""
","
","
","""event"",""trial"",""time""
""fullscreenenter"",""1"",""1876""
","
","","","-1","","","21","11206","4965","&#9761;","elianto","#3366ff99","-1","-1","1","0","[]","0","0","2","","","","","","","",""
"pit-trial","41","436548","0.0-2.0-11.0-4.0","battery-v0.2","","""event"",""trial"",""time""
""fullscreenenter"",""1"",""1876""
","
","
","""event"",""trial"",""time""
""fullscreenenter"",""1"",""1876""
","
","","","-1","","","21","11206","4965","&#9761;","elianto","#3366ff99","-1","-1","1","+10","[]","0","0","2","","","","","","","",""
"pit-trial","42","441420","0.0-2.0-11.1-0.1","battery-v0.2","","""event"",""trial"",""time""
""fullscreenenter"",""1"",""1876""
","
","
","""event"",""trial"",""time""
""fullscreenenter"",""1"",""1876""
","
","","","-1","","","21","11206","4965","&#9761;","elianto","#3366ff99","-1","-1","1","+10","[]","0","0","2","","","","","","","",""
"pit-trial","43","446274","0.0-2.0-11.1-1.1","battery-v0.2","","""event"",""trial"",""time""
""fullscreenenter"",""1"",""1876""
","
","
","""event"",""trial"",""time""
""fullscreenenter"",""1"",""1876""
","
","","","-1","","","21","11206","4965","&#9761;","elianto","#3366ff99","-1","-1","1","+10","[]","0","0","2","","","","","","","",""
"pit-trial","44","451128","0.0-2.0-11.1-2.1","battery-v0.2","","""event"",""trial"",""time""
""fullscreenenter"",""1"",""1876""
","
","
","""event"",""trial"",""time""
""fullscreenenter"",""1"",""1876""
","
","","","-1","","","21","11206","4965","&#9761;","elianto","#3366ff99","-1","-1","1","+10","[]","0","0","2","","","","","","","",""
"pit-trial","45","455980","0.0-2.0-11.1-3.1","battery-v0.2","","""event"",""trial"",""time""
""fullscreenenter"",""1"",""1876""
","
","
","""event"",""trial"",""time""
""fullscreenenter"",""1"",""1876""
","
","","","-1","","","21","11206","4965","&#9761;","elianto","#3366ff99","-1","-1","1","0","[]","0","0","2","","","","","","","",""
"pit-trial","46","460832","0.0-2.0-11.1-4.1","battery-v0.2","","""event"",""trial"",""time""
""fullscreenenter"",""1"",""1876""
","
","
","""event"",""trial"",""time""
""fullscreenenter"",""1"",""1876""
","
","","","-1","","","21","11206","4965","&#9761;","elianto","#3366ff99","-1","-1","1","+10","[]","0","0","2","","","","","","","",""
"pit-trial","47","465685","0.0-2.0-11.2-0.2","battery-v0.2","","""event"",""trial"",""time""
""fullscreenenter"",""1"",""1876""
","
","
","""event"",""trial"",""time""
""fullscreenenter"",""1"",""1876""
","
","","","-1","","","21","11206","4965","&#9761;","elianto","#3366ff99","-1","-1","1","+10","[]","0","0","2","","","","","","","",""
"pit-trial","48","470537","0.0-2.0-11.2-1.2","battery-v0.2","","""event"",""trial"",""time""
""fullscreenenter"",""1"",""1876""
","
","
","""event"",""trial"",""time""
""fullscreenenter"",""1"",""1876""
","
","","","-1","","","21","11206","4965","&#9761;","elianto","#3366ff99","-1","-1","1","+10","[]","0","0","2","","","","","","","",""
"pit-trial","49","475390","0.0-2.0-11.2-2.2","battery-v0.2","","""event"",""trial"",""time""
""fullscreenenter"",""1"",""1876""
","
","
","""event"",""trial"",""time""
""fullscreenenter"",""1"",""1876""
","
","","","-1","","","21","11206","4965","&#9761;","elianto","#3366ff99","-1","-1","1","+10","[]","0","0","2","","","","","","","",""
"pit-trial","50","480243","0.0-2.0-11.2-3.2","battery-v0.2","","""event"",""trial"",""time""
""fullscreenenter"",""1"",""1876""
","
","
","""event"",""trial"",""time""
""fullscreenenter"",""1"",""1876""
","
","","","-1","","","21","11206","4965","&#9761;","elianto","#3366ff99","-1","-1","1","0","[]","0","0","2","","","","","","","",""
"pit-trial","51","485096","0.0-2.0-11.2-4.2","battery-v0.2","","""event"",""trial"",""time""
""fullscreenenter"",""1"",""1876""
","
","
","""event"",""trial"",""time""
""fullscreenenter"",""1"",""1876""
","
","","","-1","","","21","11206","4965","&#9761;","elianto","#3366ff99","-1","-1","1","+10","[]","0","0","2","","","","","","","",""
"pit-trial","52","489949","0.0-2.0-11.3-0.3","battery-v0.2","","""event"",""trial"",""time""
""fullscreenenter"",""1"",""1876""
","
","
","""event"",""trial"",""time""
""fullscreenenter"",""1"",""1876""
","
","","","-1","","","21","11206","4965","&#9761;","elianto","#3366ff99","-1","-1","1","+10","[]","0","0","2","","","","","","","",""
"pit-trial","53","494802","0.0-2.0-11.3-1.3","battery-v0.2","","""event"",""trial"",""time""
""fullscreenenter"",""1"",""1876""
","
","
","""event"",""trial"",""time""
""fullscreenenter"",""1"",""1876""
","
","","","-1","","","21","11206","4965","&#9761;","elianto","#3366ff99","-1","-1","1","+10","[]","0","0","2","","","","","","","",""
"pit-trial","54","499654","0.0-2.0-11.3-2.3","battery-v0.2","","""event"",""trial"",""time""
""fullscreenenter"",""1"",""1876""
","
","
","""event"",""trial"",""time""
""fullscreenenter"",""1"",""1876""
","
","","","-1","","","21","11206","4965","&#9761;","elianto","#3366ff99","-1","-1","1","+10","[]","0","0","2","","","","","","","",""
"pit-trial","55","504507","0.0-2.0-11.3-3.3","battery-v0.2","","""event"",""trial"",""time""
""fullscreenenter"",""1"",""1876""
","
","
","""event"",""trial"",""time""
""fullscreenenter"",""1"",""1876""
","
","","","-1","","","21","11206","4965","&#9761;","elianto","#3366ff99","-1","-1","1","0","[]","0","0","2","","","","","","","",""
"pit-trial","56","509361","0.0-2.0-11.3-4.3","battery-v0.2","","""event"",""trial"",""time""
""fullscreenenter"",""1"",""1876""
","
","
","""event"",""trial"",""time""
""fullscreenenter"",""1"",""1876""
","
","","","-1","","","21","11206","4965","&#9761;","elianto","#3366ff99","-1","-1","1","+10","[]","0","0","2","","","","","","","",""
"call-function","57","509361","0.0-2.0-12.0","battery-v0.2","","""event"",""trial"",""time""
""fullscreenenter"",""1"",""1876""
","
","
","""event"",""trial"",""time""
""fullscreenenter"",""1"",""1876""
","
","","","","","","","","","","","","","","","","","","","","","","","","","","",""
"pit-instructions","58","547190","0.0-2.0-13.0","battery-v0.2","","""event"",""trial"",""time""
""fullscreenenter"",""1"",""1876""
","
","
","""event"",""trial"",""time""
""fullscreenenter"",""1"",""1876""
","
","","[{""page_index"":0,""viewing_time"":10820.800000000047},{""page_index"":1,""viewing_time"":7305.699999999953},{""page_index"":2,""viewing_time"":3844.1999999999534},{""page_index"":3,""viewing_time"":11079.40000000014},{""page_index"":4,""viewing_time"":4778.09999999986}]","37828.40000000014","","","","","","","","","","","","","","","","","","","","","","","",""
"pit-trial","59","550562","0.0-2.0-14.0-0.0","battery-v0.2","","""event"",""trial"",""time""
""fullscreenenter"",""1"",""1876""
","
","
","""event"",""trial"",""time""
""fullscreenenter"",""1"",""1876""
","
","","","509.4000000001397","","","21","11206","4965","&#9826;","elianto","#f73b6a7A","-1"," ","0","-10","[1359.7000000001863]","1","0","3","","","","","","","",""
"pit-trial","60","555438","0.0-2.0-14.0-1.0","battery-v0.2","","""event"",""trial"",""time""
""fullscreenenter"",""1"",""1876""
","
","
","""event"",""trial"",""time""
""fullscreenenter"",""1"",""1876""
","
","","","-1","","","21","11206","4965","&#9826;","elianto","#f73b6a7A","-1","-1","1","0","[]","0","0","3","","","","","","","",""
"pit-trial","61","560296","0.0-2.0-14.0-2.0","battery-v0.2","","""event"",""trial"",""time""
""fullscreenenter"",""1"",""1876""
","
","
","""event"",""trial"",""time""
""fullscreenenter"",""1"",""1876""
","
","","","-1","","","21","11206","4965","&#9826;","elianto","#f73b6a7A","-1","-1","1","0","[]","0","0","3","","","","","","","",""
"pit-trial","62","565161","0.0-2.0-14.0-3.0","battery-v0.2","","""event"",""trial"",""time""
""fullscreenenter"",""1"",""1876""
","
","
","""event"",""trial"",""time""
""fullscreenenter"",""1"",""1876""
","
","","","-1","","","21","11206","4965","&#9826;","elianto","#f73b6a7A","-1","-1","1","-10","[]","0","0","3","","","","","","","",""
"pit-trial","63","570029","0.0-2.0-14.0-4.0","battery-v0.2","","""event"",""trial"",""time""
""fullscreenenter"",""1"",""1876""
","
","
","""event"",""trial"",""time""
""fullscreenenter"",""1"",""1876""
","
","","","-1","","","21","11206","4965","&#9826;","elianto","#f73b6a7A","-1","-1","1","0","[]","0","0","3","","","","","","","",""
"pit-trial","64","574886","0.0-2.0-14.1-0.1","battery-v0.2","","""event"",""trial"",""time""
""fullscreenenter"",""1"",""1876""
","
","
","""event"",""trial"",""time""
""fullscreenenter"",""1"",""1876""
","
","","","-1","","","21","11206","4965","&#9826;","elianto","#f73b6a7A","-1","-1","1","0","[]","0","0","3","","","","","","","",""
"pit-trial","65","579738","0.0-2.0-14.1-1.1","battery-v0.2","","""event"",""trial"",""time""
""fullscreenenter"",""1"",""1876""
","
","
","""event"",""trial"",""time""
""fullscreenenter"",""1"",""1876""
","
","","","-1","","","21","11206","4965","&#9826;","elianto","#f73b6a7A","-1","-1","1","0","[]","0","0","3","","","","","","","",""
"pit-trial","66","584590","0.0-2.0-14.1-2.1","battery-v0.2","","""event"",""trial"",""time""
""fullscreenenter"",""1"",""1876""
","
","
","""event"",""trial"",""time""
""fullscreenenter"",""1"",""1876""
","
","","","-1","","","21","11206","4965","&#9826;","elianto","#f73b6a7A","-1","-1","1","0","[]","0","0","3","","","","","","","",""
"pit-trial","67","589443","0.0-2.0-14.1-3.1","battery-v0.2","","""event"",""trial"",""time""
""fullscreenenter"",""1"",""1876""
","
","
","""event"",""trial"",""time""
""fullscreenenter"",""1"",""1876""
","
","","","-1","","","21","11206","4965","&#9826;","elianto","#f73b6a7A","-1","-1","1","-10","[]","0","0","3","","","","","","","",""
"pit-trial","68","594295","0.0-2.0-14.1-4.1","battery-v0.2","","""event"",""trial"",""time""
""fullscreenenter"",""1"",""1876""
","
","
","""event"",""trial"",""time""
""fullscreenenter"",""1"",""1876""
","
","","","-1","","","21","11206","4965","&#9826;","elianto","#f73b6a7A","-1","-1","1","0","[]","0","0","3","","","","","","","",""
"pit-trial","69","599146","0.0-2.0-14.2-0.2","battery-v0.2","","""event"",""trial"",""time""
""fullscreenenter"",""1"",""1876""
","
","
","""event"",""trial"",""time""
""fullscreenenter"",""1"",""1876""
","
","","","-1","","","21","11206","4965","&#9826;","elianto","#f73b6a7A","-1","-1","1","0","[]","0","0","3","","","","","","","",""
"pit-trial","70","603999","0.0-2.0-14.2-1.2","battery-v0.2","","""event"",""trial"",""time""
""fullscreenenter"",""1"",""1876""
","
","
","""event"",""trial"",""time""
""fullscreenenter"",""1"",""1876""
","
","","","-1","","","21","11206","4965","&#9826;","elianto","#f73b6a7A","-1","-1","1","0","[]","0","0","3","","","","","","","",""
"pit-trial","71","608852","0.0-2.0-14.2-2.2","battery-v0.2","","""event"",""trial"",""time""
""fullscreenenter"",""1"",""1876""
","
","
","""event"",""trial"",""time""
""fullscreenenter"",""1"",""1876""
","
","","","-1","","","21","11206","4965","&#9826;","elianto","#f73b6a7A","-1","-1","1","0","[]","0","0","3","","","","","","","",""
"pit-trial","72","613706","0.0-2.0-14.2-3.2","battery-v0.2","","""event"",""trial"",""time""
""fullscreenenter"",""1"",""1876""
","
","
","""event"",""trial"",""time""
""fullscreenenter"",""1"",""1876""
","
","","","-1","","","21","11206","4965","&#9826;","elianto","#f73b6a7A","-1","-1","1","-10","[]","0","0","3","","","","","","","",""
"pit-trial","73","618557","0.0-2.0-14.2-4.2","battery-v0.2","","""event"",""trial"",""time""
""fullscreenenter"",""1"",""1876""
","
","
","""event"",""trial"",""time""
""fullscreenenter"",""1"",""1876""
","
","","","-1","","","21","11206","4965","&#9826;","elianto","#f73b6a7A","-1","-1","1","0","[]","0","0","3","","","","","","","",""
"pit-trial","74","623411","0.0-2.0-14.3-0.3","battery-v0.2","","""event"",""trial"",""time""
""fullscreenenter"",""1"",""1876""
","
","
","""event"",""trial"",""time""
""fullscreenenter"",""1"",""1876""
","
","","","-1","","","21","11206","4965","&#9826;","elianto","#f73b6a7A","-1","-1","1","0","[]","0","0","3","","","","","","","",""
"pit-trial","75","628264","0.0-2.0-14.3-1.3","battery-v0.2","","""event"",""trial"",""time""
""fullscreenenter"",""1"",""1876""
","
","
","""event"",""trial"",""time""
""fullscreenenter"",""1"",""1876""
","
","","","-1","","","21","11206","4965","&#9826;","elianto","#f73b6a7A","-1","-1","1","0","[]","0","0","3","","","","","","","",""
"pit-trial","76","633116","0.0-2.0-14.3-2.3","battery-v0.2","","""event"",""trial"",""time""
""fullscreenenter"",""1"",""1876""
","
","
","""event"",""trial"",""time""
""fullscreenenter"",""1"",""1876""
","
","","","-1","","","21","11206","4965","&#9826;","elianto","#f73b6a7A","-1","-1","1","0","[]","0","0","3","","","","","","","",""
"pit-trial","77","637969","0.0-2.0-14.3-3.3","battery-v0.2","","""event"",""trial"",""time""
""fullscreenenter"",""1"",""1876""
","
","
","""event"",""trial"",""time""
""fullscreenenter"",""1"",""1876""
","
","","","-1","","","21","11206","4965","&#9826;","elianto","#f73b6a7A","-1","-1","1","-10","[]","0","0","3","","","","","","","",""
"pit-trial","78","642821","0.0-2.0-14.3-4.3","battery-v0.2","","""event"",""trial"",""time""
""fullscreenenter"",""1"",""1876""
","
","
","""event"",""trial"",""time""
""fullscreenenter"",""1"",""1876""
","
","","","-1","","","21","11206","4965","&#9826;","elianto","#f73b6a7A","-1","-1","1","0","[]","0","0","3","","","","","","","",""
"call-function","79","642822","0.0-2.0-15.0","battery-v0.2","","""event"",""trial"",""time""
""fullscreenenter"",""1"",""1876""
","
","
","""event"",""trial"",""time""
""fullscreenenter"",""1"",""1876""
","
","","","","","","","","","","","","","","","","","","","","","","","","","","",""
"pit-instructions","80","666534","0.0-2.0-16.0","battery-v0.2","","""event"",""trial"",""time""
""fullscreenenter"",""1"",""1876""
","
","
","""event"",""trial"",""time""
""fullscreenenter"",""1"",""1876""
","
","","[{""page_index"":0,""viewing_time"":6454.300000000047},{""page_index"":1,""viewing_time"":8328.100000000093},{""page_index"":2,""viewing_time"":4115.59999999986},{""page_index"":3,""viewing_time"":4813.800000000047}]","23712","","","","","","","","","","","","","","","","","","","","","","","",""
"pit-trial","81","669965","0.0-2.0-17.0-0.0","battery-v0.2","","""event"",""trial"",""time""
""fullscreenenter"",""1"",""1876""
","
","
","""event"",""trial"",""time""
""fullscreenenter"",""1"",""1876""
","
","","","567.3999999999069","","","21","11206","4965","&#9789;","elianto","#f73b6a7A"," "," ","1","0","[1420.8999999999069]","1","0","4","","","","","","","",""
"pit-trial","82","673199","0.0-2.0-17.0-1.0","battery-v0.2","","""event"",""trial"",""time""
""fullscreenenter"",""1"",""1876""
","
","
","""event"",""trial"",""time""
""fullscreenenter"",""1"",""1876""
","
","","","375.69999999995343","","","21","11206","4965","&#9789;","elianto","#f73b6a7A"," "," ","1","0","[1229.1999999999534]","1","0","4","","","","","","","",""
"pit-trial","83","676383","0.0-2.0-17.0-2.0","battery-v0.2","","""event"",""trial"",""time""
""fullscreenenter"",""1"",""1876""
","
","
","""event"",""trial"",""time""
""fullscreenenter"",""1"",""1876""
","
","","","325","","","21","11206","4965","&#9789;","elianto","#f73b6a7A"," "," ","1","0","[1177.0999999998603]","1","0","4","","","","","","","",""
"pit-trial","84","679508","0.0-2.0-17.0-3.0","battery-v0.2","","""event"",""trial"",""time""
""fullscreenenter"",""1"",""1876""
","
","
","""event"",""trial"",""time""
""fullscreenenter"",""1"",""1876""
","
","","","262.9000000001397","","","21","11206","4965","&#9789;","elianto","#f73b6a7A"," "," ","1","-10","[1113]","1","0","4","","","","","","","",""
"pit-trial","85","682813","0.0-2.0-17.0-4.0","battery-v0.2","","""event"",""trial"",""time""
""fullscreenenter"",""1"",""1876""
","
","
","""event"",""trial"",""time""
""fullscreenenter"",""1"",""1876""
","
","","","437.4000000001397","","","21","11206","4965","&#9789;","elianto","#f73b6a7A"," "," ","1","0","[1288.6000000000931]","1","0","4","","","","","","","",""
"pit-trial","86","685861","0.0-2.0-17.1-0.1","battery-v0.2","","""event"",""trial"",""time""
""fullscreenenter"",""1"",""1876""
","
","
","""event"",""trial"",""time""
""fullscreenenter"",""1"",""1876""
","
","","","192.10000000009313","","","21","11206","4965","&#9789;","elianto","#f73b6a7A"," "," ","1","0","[1046]","1","0","4","","","","","","","",""
"pit-trial","87","689035","0.0-2.0-17.1-1.1","battery-v0.2","","""event"",""trial"",""time""
""fullscreenenter"",""1"",""1876""
","
","
","""event"",""trial"",""time""
""fullscreenenter"",""1"",""1876""
","
","","","313.4000000001397","","","21","11206","4965","&#9789;","elianto","#f73b6a7A"," "," ","1","0","[1169]","1","0","4","","","","","","","",""
"pit-trial","88","692558","0.0-2.0-17.1-2.1","battery-v0.2","","""event"",""trial"",""time""
""fullscreenenter"",""1"",""1876""
","
","
","""event"",""trial"",""time""
""fullscreenenter"",""1"",""1876""
","
","","","653.3000000000466","","","21","11206","4965","&#9789;","elianto","#f73b6a7A"," "," ","1","0","[1509.0999999998603]","1","0","4","","","","","","","",""
"pit-trial","89","695669","0.0-2.0-17.1-3.1","battery-v0.2","","""event"",""trial"",""time""
""fullscreenenter"",""1"",""1876""
","
","
","""event"",""trial"",""time""
""fullscreenenter"",""1"",""1876""
","
","","","242.69999999995343","","","21","11206","4965","&#9789;","elianto","#f73b6a7A"," "," ","1","-10","[1096.4000000001397]","1","0","4","","","","","","","",""
"pit-trial","90","698841","0.0-2.0-17.1-4.1","battery-v0.2","","""event"",""trial"",""time""
""fullscreenenter"",""1"",""1876""
","
","
","""event"",""trial"",""time""
""fullscreenenter"",""1"",""1876""
","
","","","319.5","","","21","11206","4965","&#9789;","elianto","#f73b6a7A"," "," ","1","0","[1170.3999999999069]","1","0","4","","","","","","","",""
"pit-trial","91","701884","0.0-2.0-17.2-0.2","battery-v0.2","","""event"",""trial"",""time""
""fullscreenenter"",""1"",""1876""
","
","
","""event"",""trial"",""time""
""fullscreenenter"",""1"",""1876""
","
","","","190.5","","","21","11206","4965","&#9789;","elianto","#f73b6a7A"," "," ","1","0","[1040.6999999999534]","1","0","4","","","","","","","",""
"pit-trial","92","705096","0.0-2.0-17.2-1.2","battery-v0.2","","""event"",""trial"",""time""
""fullscreenenter"",""1"",""1876""
","
","
","""event"",""trial"",""time""
""fullscreenenter"",""1"",""1876""
","
","","","359.60000000009313","","","21","11206","4965","&#9789;","elianto","#f73b6a7A"," "," ","1","0","[1209.8000000000466]","1","0","4","","","","","","","",""
"pit-trial","93","708378","0.0-2.0-17.2-2.2","battery-v0.2","","""event"",""trial"",""time""
""fullscreenenter"",""1"",""1876""
","
","
","""event"",""trial"",""time""
""fullscreenenter"",""1"",""1876""
","
","","","428.80000000004657","","","21","11206","4965","&#9789;","elianto","#f73b6a7A"," "," ","1","0","[1278.6999999999534]","1","0","4","","","","","","","",""
"pit-trial","94","711534","0.0-2.0-17.2-3.2","battery-v0.2","","""event"",""trial"",""time""
""fullscreenenter"",""1"",""1876""
","
","
","""event"",""trial"",""time""
""fullscreenenter"",""1"",""1876""
","
","","","303.30000000004657","","","21","11206","4965","&#9789;","elianto","#f73b6a7A"," "," ","1","-10","[1154]","1","0","4","","","","","","","",""
"pit-trial","95","714709","0.0-2.0-17.2-4.2","battery-v0.2","","""event"",""trial"",""time""
""fullscreenenter"",""1"",""1876""
","
","
","""event"",""trial"",""time""
""fullscreenenter"",""1"",""1876""
","
","","","323.10000000009313","","","21","11206","4965","&#9789;","elianto","#f73b6a7A"," "," ","1","0","[1173.3000000000466]","1","0","4","","","","","","","",""
"pit-trial","96","717931","0.0-2.0-17.3-0.3","battery-v0.2","","""event"",""trial"",""time""
""fullscreenenter"",""1"",""1876""
","
","
","""event"",""trial"",""time""
""fullscreenenter"",""1"",""1876""
","
","","","370.5","","","21","11206","4965","&#9789;","elianto","#f73b6a7A"," "," ","1","0","[1220.5999999998603]","1","0","4","","","","","","","",""
"pit-trial","97","721127","0.0-2.0-17.3-1.3","battery-v0.2","","""event"",""trial"",""time""
""fullscreenenter"",""1"",""1876""
","
","
","""event"",""trial"",""time""
""fullscreenenter"",""1"",""1876""
","
","","","343.10000000009313","","","21","11206","4965","&#9789;","elianto","#f73b6a7A"," "," ","1","0","[1193.1000000000931]","1","0","4","","","","","","","",""
"pit-trial","98","724405","0.0-2.0-17.3-2.3","battery-v0.2","","""event"",""trial"",""time""
""fullscreenenter"",""1"",""1876""
","
","
","""event"",""trial"",""time""
""fullscreenenter"",""1"",""1876""
","
","","","426.60000000009313","","","21","11206","4965","&#9789;","elianto","#f73b6a7A"," "," ","1","0","[1276.6999999999534]","1","0","4","","","","","","","",""
"pit-trial","99","727677","0.0-2.0-17.3-3.3","battery-v0.2","","""event"",""trial"",""time""
""fullscreenenter"",""1"",""1876""
","
","
","""event"",""trial"",""time""
""fullscreenenter"",""1"",""1876""
","
","","","420.29999999981374","","","21","11206","4965","&#9789;","elianto","#f73b6a7A"," "," ","1","-10","[1270.7999999998137]","1","0","4","","","","","","","",""
"pit-trial","100","730903","0.0-2.0-17.3-4.3","battery-v0.2","","""event"",""trial"",""time""
""fullscreenenter"",""1"",""1876""
","
","
","""event"",""trial"",""time""
""fullscreenenter"",""1"",""1876""
","
","","","374","","","21","11206","4965","&#9789;","elianto","#f73b6a7A"," "," ","1","0","[1224.6999999999534]","1","0","4","","","","","","","",""
"call-function","101","730904","0.0-2.0-18.0","battery-v0.2","","""event"",""trial"",""time""
""fullscreenenter"",""1"",""1876""
","
","
","""event"",""trial"",""time""
""fullscreenenter"",""1"",""1876""
","
","","","","","","","","","","","","","","","","","","","","","","","","","","",""
"pit-instructions","102","842027","0.0-2.0-19.0","battery-v0.2","","""event"",""trial"",""time""
""fullscreenenter"",""1"",""1876""
","
","
","""event"",""trial"",""time""
""fullscreenenter"",""1"",""1876""
","
","","[{""page_index"":0,""viewing_time"":14373.299999999814},{""page_index"":1,""viewing_time"":32772.10000000009},{""page_index"":2,""viewing_time"":14509.800000000047},{""page_index"":3,""viewing_time"":9246.59999999986},{""page_index"":4,""viewing_time"":11828.600000000093},{""page_index"":5,""viewing_time"":8179.600000000093},{""page_index"":6,""viewing_time"":9142.799999999814},{""page_index"":7,""viewing_time"":6789},{""page_index"":8,""viewing_time"":4280.700000000186}]","111122.69999999972","","","","","","","","","","","","","","","","","","","","","","","",""
"pit-comprehension","103","846471","0.0-2.0-20.0-0.0","battery-v0.2","","""event"",""trial"",""time""
""fullscreenenter"",""1"",""1876""
","
","
","""event"",""trial"",""time""
""fullscreenenter"",""1"",""1876""
","
","","","4442.399999999907","[""SPACE""]","0","21","11206","4965","","","","","","","","","","","","","","","","","","",""
"pit-instructions","104","849542","0.0-2.0-20.0-1.0","battery-v0.2","","""event"",""trial"",""time""
""fullscreenenter"",""1"",""1876""
","
","
","""event"",""trial"",""time""
""fullscreenenter"",""1"",""1876""
","
","","[{""page_index"":0,""viewing_time"":3050.100000000093}]","3050.3000000002794","","","","","","","","","","","","","","","","","","","","","","","",""
"pit-comprehension","105","854465","0.0-2.0-21.0-0.0","battery-v0.2","","""event"",""trial"",""time""
""fullscreenenter"",""1"",""1876""
","
","
","""event"",""trial"",""time""
""fullscreenenter"",""1"",""1876""
","
","","","4922.700000000186","[""10""]","0","21","11206","4965","","","","","","","","","","","","","","","","","","",""
"pit-instructions","106","862139","0.0-2.0-21.0-1.0","battery-v0.2","","""event"",""trial"",""time""
""fullscreenenter"",""1"",""1876""
","
","
","""event"",""trial"",""time""
""fullscreenenter"",""1"",""1876""
","
","","[{""page_index"":0,""viewing_time"":7655.399999999907}]","7655.5999999996275","","","","","","","","","","","","","","","","","","","","","","","",""
"pit-comprehension","107","869147","0.0-2.0-22.0-0.0","battery-v0.2","","""event"",""trial"",""time""
""fullscreenenter"",""1"",""1876""
","
","
","""event"",""trial"",""time""
""fullscreenenter"",""1"",""1876""
","
","","","7006.4000000003725","[""0""]","0","21","11206","4965","","","","","","","","","","","","","","","","","","",""
"pit-instructions","108","872968","0.0-2.0-22.0-1.0","battery-v0.2","","""event"",""trial"",""time""
""fullscreenenter"",""1"",""1876""
","
","
","""event"",""trial"",""time""
""fullscreenenter"",""1"",""1876""
","
","","[{""page_index"":0,""viewing_time"":3803.600000000093}]","3803.7999999998137","","","","","","","","","","","","","","","","","","","","","","","",""
"pit-comprehension","109","886171","0.0-2.0-23.0-0.0","battery-v0.2","","""event"",""trial"",""time""
""fullscreenenter"",""1"",""1876""
","
","
","""event"",""trial"",""time""
""fullscreenenter"",""1"",""1876""
","
","","","13201.600000000093","[""True""]","0","21","11206","4965","","","","","","","","","","","","","","","","","","",""
"pit-instructions","110","889795","0.0-2.0-23.0-1.0","battery-v0.2","","""event"",""trial"",""time""
""fullscreenenter"",""1"",""1876""
","
","
","""event"",""trial"",""time""
""fullscreenenter"",""1"",""1876""
","
","","[{""page_index"":0,""viewing_time"":3605.2999999998137}]","3605.399999999907","","","","","","","","","","","","","","","","","","","","","","","",""
"pit-comprehension","111","897241","0.0-2.0-24.0-0.0","battery-v0.2","","""event"",""trial"",""time""
""fullscreenenter"",""1"",""1876""
","
","
","""event"",""trial"",""time""
""fullscreenenter"",""1"",""1876""
","
","","","7444.5","[""True""]","0","21","11206","4965","","","","","","","","","","","","","","","","","","",""
"pit-instructions","112","899391","0.0-2.0-24.0-1.0","battery-v0.2","","""event"",""trial"",""time""
""fullscreenenter"",""1"",""1876""
","
","
","""event"",""trial"",""time""
""fullscreenenter"",""1"",""1876""
","
","","[{""page_index"":0,""viewing_time"":2131.3000000002794}]","2131.5","","","","","","","","","","","","","","","","","","","","","","","",""
"pit-comprehension","113","905769","0.0-2.0-25.0-0.0","battery-v0.2","","""event"",""trial"",""time""
""fullscreenenter"",""1"",""1876""
","
","
","""event"",""trial"",""time""
""fullscreenenter"",""1"",""1876""
","
","","","6376.399999999907","[""True""]","0","21","11206","4965","","","","","","","","","","","","","","","","","","",""
"pit-instructions","114","907387","0.0-2.0-25.0-1.0","battery-v0.2","","""event"",""trial"",""time""
""fullscreenenter"",""1"",""1876""
","
","
","""event"",""trial"",""time""
""fullscreenenter"",""1"",""1876""
","
","","[{""page_index"":0,""viewing_time"":1599.2999999998137}]","1599.5","","","","","","","","","","","","","","","","","","","","","","","",""
"pit-comprehension","115","912166","0.0-2.0-26.0-0.0","battery-v0.2","","""event"",""trial"",""time""
""fullscreenenter"",""1"",""1876""
","
","
","""event"",""trial"",""time""
""fullscreenenter"",""1"",""1876""
","
","","","4776.699999999721","[""False""]","0","21","11206","4965","","","","","","","","","","","","","","","","","","",""
"pit-instructions","116","914156","0.0-2.0-26.0-1.0","battery-v0.2","","""event"",""trial"",""time""
""fullscreenenter"",""1"",""1876""
","
","
","""event"",""trial"",""time""
""fullscreenenter"",""1"",""1876""
","
","","[{""page_index"":0,""viewing_time"":1969.5}]","1969.6000000000931","","","","","","","","","","","","","","","","","","","","","","","",""
"pit-instructions","117","933390","0.0-3.0","battery-v0.2","","""event"",""trial"",""time""
""fullscreenenter"",""1"",""1876""
","
","
","""event"",""trial"",""time""
""fullscreenenter"",""1"",""1876""
","
","","[{""page_index"":0,""viewing_time"":5262.5},{""page_index"":1,""viewing_time"":6033.899999999907},{""page_index"":2,""viewing_time"":7936.600000000093}]","19233.200000000186","","","","","","","","","","","","","","","","","","","","","","","",""
"pit-trial","118","936692","0.0-4.0","battery-v0.2","","""event"",""trial"",""time""
""fullscreenenter"",""1"",""1876""
","
","
","""event"",""trial"",""time""
""fullscreenenter"",""1"",""1876""
","
","","","442","","","21","11206","4965","&#9733;","elianto","#3366ff99","-1"," ","0","0","[1295.8999999999069]","1","1","","","11206","1","2","2","win","no-go","0"
"pit-trial","119","940154","0.0-5.0","battery-v0.2","","""event"",""trial"",""time""
""fullscreenenter"",""1"",""1876""
","
","
","""event"",""trial"",""time""
""fullscreenenter"",""1"",""1876""
","
","","","601.8999999999069","","","21","11206","4965","&#9730;","elianto","#3366ff99"," "," ","1","+10","[1453.8999999999069]","1","1","","","11206","2","1","1","win","go","0"
"pit-trial","120","945024","0.0-6.0","battery-v0.2","","""event"",""trial"",""time""
""fullscreenenter"",""1"",""1876""
","
","
","""event"",""trial"",""time""
""fullscreenenter"",""1"",""1876""
","
","","","-1","","","21","11206","4965","&#9752;","elianto","#f73b6a7A"," ","-1","0","-10","[]","0","1","","","11206","3","3","3","lose","go","0"
"pit-trial","121","949051","0.0-7.0","battery-v0.2","","""event"",""trial"",""time""
""fullscreenenter"",""1"",""1876""
","
","
","""event"",""trial"",""time""
""fullscreenenter"",""1"",""1876""
","
","","","1170.5","","","21","11206","4965","&#9728;","elianto","#f73b6a7A","-1"," ","0","-10","[2024.5]","1","1","","","11206","4","0","4","lose","no-go","0"
"pit-trial","122","953130","0.0-8.0","battery-v0.2","","""event"",""trial"",""time""
""fullscreenenter"",""1"",""1876""
","
","
","""event"",""trial"",""time""
""fullscreenenter"",""1"",""1876""
","
","","","1221.8999999999069","","","21","11206","4965","&#9752;","elianto","#f73b6a7A"," "," ","1","0","[2077.5]","1","1","","","11206","5","3","3","lose","go","0"
"pit-trial","123","956648","0.0-9.0","battery-v0.2","","""event"",""trial"",""time""
""fullscreenenter"",""1"",""1876""
","
","
","""event"",""trial"",""time""
""fullscreenenter"",""1"",""1876""
","
","","","652.1000000000931","","","21","11206","4965","&#9733;","elianto","#3366ff99","-1"," ","0","0","[1503.5]","1","1","","","11206","6","2","2","win","no-go","0"
"pit-trial","124","960028","0.0-10.0","battery-v0.2","","""event"",""trial"",""time""
""fullscreenenter"",""1"",""1876""
","
","
","""event"",""trial"",""time""
""fullscreenenter"",""1"",""1876""
","
","","","526.3000000002794","","","21","11206","4965","&#9730;","elianto","#3366ff99"," "," ","1","0","[1376.6000000000931]","1","1","","","11206","7","1","1","win","go","1"
"pit-trial","125","964881","0.0-11.0","battery-v0.2","","""event"",""trial"",""time""
""fullscreenenter"",""1"",""1876""
","
","
","""event"",""trial"",""time""
""fullscreenenter"",""1"",""1876""
","
","","","-1","","","21","11206","4965","&#9728;","elianto","#f73b6a7A","-1","-1","1","0","[]","0","1","","","11206","8","0","4","lose","no-go","0"
"pit-trial","126","968358","0.0-12.0","battery-v0.2","","""event"",""trial"",""time""
""fullscreenenter"",""1"",""1876""
","
","
","""event"",""trial"",""time""
""fullscreenenter"",""1"",""1876""
","
","","","623.8999999999069","","","21","11206","4965","&#9730;","elianto","#3366ff99"," "," ","1","+10","[1474.1000000000931]","1","1","","","11206","9","1","1","win","go","0"
"pit-trial","127","971928","0.0-13.0","battery-v0.2","","""event"",""trial"",""time""
""fullscreenenter"",""1"",""1876""
","
","
","""event"",""trial"",""time""
""fullscreenenter"",""1"",""1876""
","
","","","718.7000000001863","","","21","11206","4965","&#9752;","elianto","#f73b6a7A"," "," ","1","0","[1568.8000000002794]","1","1","","","11206","10","3","3","lose","go","0"
"pit-trial","128","976781","0.0-14.0","battery-v0.2","","""event"",""trial"",""time""
""fullscreenenter"",""1"",""1876""
","
","
","""event"",""trial"",""time""
""fullscreenenter"",""1"",""1876""
","
","","","-1","","","21","11206","4965","&#9733;","elianto","#3366ff99","-1","-1","1","+10","[]","0","1","","","11206","11","2","2","win","no-go","0"
"pit-trial","129","981635","0.0-15.0","battery-v0.2","","""event"",""trial"",""time""
""fullscreenenter"",""1"",""1876""
","
","
","""event"",""trial"",""time""
""fullscreenenter"",""1"",""1876""
","
","","","-1","","","21","11206","4965","&#9728;","elianto","#f73b6a7A","-1","-1","1","0","[]","0","1","","","11206","12","0","4","lose","no-go","0"
"pit-trial","130","985441","0.0-16.0","battery-v0.2","","""event"",""trial"",""time""
""fullscreenenter"",""1"",""1876""
","
","
","""event"",""trial"",""time""
""fullscreenenter"",""1"",""1876""
","
","","","952.6999999997206","","","21","11206","4965","&#9752;","elianto","#f73b6a7A"," "," ","1","0","[1803.3999999999069]","1","1","","","11206","13","3","3","lose","go","0"
"pit-trial","131","990293","0.0-17.0","battery-v0.2","","""event"",""trial"",""time""
""fullscreenenter"",""1"",""1876""
","
","
","""event"",""trial"",""time""
""fullscreenenter"",""1"",""1876""
","
","","","-1","","","21","11206","4965","&#9733;","elianto","#3366ff99","-1","-1","1","+10","[]","0","1","","","11206","14","2","2","win","no-go","0"
"pit-trial","132","993732","0.0-18.0","battery-v0.2","","""event"",""trial"",""time""
""fullscreenenter"",""1"",""1876""
","
","
","""event"",""trial"",""time""
""fullscreenenter"",""1"",""1876""
","
","","","586.2999999998137","","","21","11206","4965","&#9730;","elianto","#3366ff99"," "," ","1","+10","[1437.2000000001863]","1","1","","","11206","15","1","1","win","go","0"
"pit-trial","133","998584","0.0-19.0","battery-v0.2","","""event"",""trial"",""time""
""fullscreenenter"",""1"",""1876""
","
","
","""event"",""trial"",""time""
""fullscreenenter"",""1"",""1876""
","
","","","-1","","","21","11206","4965","&#9728;","elianto","#f73b6a7A","-1","-1","1","0","[]","0","1","","","11206","16","0","4","lose","no-go","0"
"pit-trial","134","1003437","0.0-20.0","battery-v0.2","","""event"",""trial"",""time""
""fullscreenenter"",""1"",""1876""
","
","
","""event"",""trial"",""time""
""fullscreenenter"",""1"",""1876""
","
","","","-1","","","21","11206","4965","&#9733;","elianto","#3366ff99","-1","-1","1","+10","[]","0","1","","","11206","17","2","2","win","no-go","0"
"pit-trial","135","1006926","0.0-21.0","battery-v0.2","","""event"",""trial"",""time""
""fullscreenenter"",""1"",""1876""
","
","
","""event"",""trial"",""time""
""fullscreenenter"",""1"",""1876""
","
","","","635.7000000001863","","","21","11206","4965","&#9730;","elianto","#3366ff99"," "," ","1","+10","[1486.7000000001863]","1","1","","","11206","18","1","1","win","go","0"
"pit-trial","136","1011778","0.0-22.0","battery-v0.2","","""event"",""trial"",""time""
""fullscreenenter"",""1"",""1876""
","
","
","""event"",""trial"",""time""
""fullscreenenter"",""1"",""1876""
","
","","","-1","","","21","11206","4965","&#9728;","elianto","#f73b6a7A","-1","-1","1","0","[]","0","1","","","11206","19","0","4","lose","no-go","0"
"pit-trial","137","1015275","0.0-23.0","battery-v0.2","","""event"",""trial"",""time""
""fullscreenenter"",""1"",""1876""
","
","
","""event"",""trial"",""time""
""fullscreenenter"",""1"",""1876""
","
","","","643.6000000000931","","","21","11206","4965","&#9752;","elianto","#f73b6a7A"," "," ","1","-10","[1493.8999999999069]","1","1","","","11206","20","3","3","lose","go","1"
"pit-instructions","138","1027305","0.0-24.0","battery-v0.2","","""event"",""trial"",""time""
""fullscreenenter"",""1"",""1876""
","
","
","""event"",""trial"",""time""
""fullscreenenter"",""1"",""1876""
","
","","[{""page_index"":0,""viewing_time"":5435.600000000093},{""page_index"":1,""viewing_time"":6593.799999999814}]","12029.600000000093","","","","","","","","","","","","","","","","","","","","","","","",""
"pit-trial","139","1031045","0.0-25.0","battery-v0.2","","""event"",""trial"",""time""
""fullscreenenter"",""1"",""1876""
","
","
","""event"",""trial"",""time""
""fullscreenenter"",""1"",""1876""
","
","","","884.5","","","21","11206","4965","m","elianto","#f73b6a7A","-1"," ","0","-10","[1738.5]","1","2","","","11206","21","0","4","lose","no-go","0"
"pit-trial","140","1034504","0.0-26.0","battery-v0.2","","""event"",""trial"",""time""
""fullscreenenter"",""1"",""1876""
","
","
","""event"",""trial"",""time""
""fullscreenenter"",""1"",""1876""
","
","","","598.1000000000931","","","21","11206","4965","r","elianto","#3366ff99"," "," ","1","+10","[1448.6000000000931]","1","2","","","11206","22","1","1","win","go","0"
"pit-trial","141","1039378","0.0-27.0","battery-v0.2","","""event"",""trial"",""time""
""fullscreenenter"",""1"",""1876""
","
","
","""event"",""trial"",""time""
""fullscreenenter"",""1"",""1876""
","
","","","-1","","","21","11206","4965","y","elianto","#f73b6a7A","-1","-1","1","0","[]","0","2","","","11206","23","2","4","lose","no-go","0"
"pit-trial","142","1044249","0.0-28.0","battery-v0.2","","""event"",""trial"",""time""
""fullscreenenter"",""1"",""1876""
","
","
","""event"",""trial"",""time""
""fullscreenenter"",""1"",""1876""
","
","","","-1","","","21","11206","4965","h","elianto","#f73b6a7A"," ","-1","0","-10","[]","0","2","","","11206","24","3","3","lose","go","0"
"pit-trial","143","1049122","0.0-29.0","battery-v0.2","","""event"",""trial"",""time""
""fullscreenenter"",""1"",""1876""
","
","
","""event"",""trial"",""time""
""fullscreenenter"",""1"",""1876""
","
","","","-1","","","21","11206","4965","m","elianto","#f73b6a7A","-1","-1","1","0","[]","0","2","","","11206","25","0","4","lose","no-go","0"
"pit-trial","144","1053982","0.0-30.0","battery-v0.2","","""event"",""trial"",""time""
""fullscreenenter"",""1"",""1876""
","
","
","""event"",""trial"",""time""
""fullscreenenter"",""1"",""1876""
","
","","","-1","","","21","11206","4965","y","elianto","#f73b6a7A","-1","-1","1","0","[]","0","2","","","11206","26","2","4","lose","no-go","0"
"pit-trial","145","1057454","0.0-31.0","battery-v0.2","","""event"",""trial"",""time""
""fullscreenenter"",""1"",""1876""
","
","
","""event"",""trial"",""time""
""fullscreenenter"",""1"",""1876""
","
","","","618.3999999999069","","","21","11206","4965","r","elianto","#3366ff99"," "," ","1","0","[1470.5]","1","2","","","11206","27","1","1","win","go","1"
"pit-trial","146","1060962","0.0-32.0","battery-v0.2","","""event"",""trial"",""time""
""fullscreenenter"",""1"",""1876""
","
","
","""event"",""trial"",""time""
""fullscreenenter"",""1"",""1876""
","
","","","655.3999999999069","","","21","11206","4965","h","elianto","#f73b6a7A"," "," ","1","0","[1505.8999999999069]","1","2","","","11206","28","3","3","lose","go","0"
"pit-trial","147","1064486","0.0-33.0","battery-v0.2","","""event"",""trial"",""time""
""fullscreenenter"",""1"",""1876""
","
","
","""event"",""trial"",""time""
""fullscreenenter"",""1"",""1876""
","
","","","671.3999999999069","","","21","11206","4965","r","elianto","#3366ff99"," "," ","1","0","[1522.1000000000931]","1","2","","","11206","29","1","1","win","go","1"
"pit-trial","148","1069339","0.0-34.0","battery-v0.2","","""event"",""trial"",""time""
""fullscreenenter"",""1"",""1876""
","
","
","""event"",""trial"",""time""
""fullscreenenter"",""1"",""1876""
","
","","","-1","","","21","11206","4965","y","elianto","#f73b6a7A","-1","-1","1","0","[]","0","2","","","11206","30","2","4","lose","no-go","0"
"pit-trial","149","1074192","0.0-35.0","battery-v0.2","","""event"",""trial"",""time""
""fullscreenenter"",""1"",""1876""
","
","
","""event"",""trial"",""time""
""fullscreenenter"",""1"",""1876""
","
","","","-1","","","21","11206","4965","m","elianto","#f73b6a7A","-1","-1","1","-10","[]","0","2","","","11206","31","0","4","lose","no-go","1"
"pit-trial","150","1077692","0.0-36.0","battery-v0.2","","""event"",""trial"",""time""
""fullscreenenter"",""1"",""1876""
","
","
","""event"",""trial"",""time""
""fullscreenenter"",""1"",""1876""
","
","","","647.6999999997206","","","21","11206","4965","h","elianto","#f73b6a7A"," "," ","1","0","[1497.7999999998137]","1","2","","","11206","32","3","3","lose","go","0"
"pit-trial","151","1081761","0.0-37.0","battery-v0.2","","""event"",""trial"",""time""
""fullscreenenter"",""1"",""1876""
","
","
","""event"",""trial"",""time""
""fullscreenenter"",""1"",""1876""
","
","","","1216.2999999998137","","","21","11206","4965","h","elianto","#f73b6a7A"," "," ","1","0","[2066.899999999907]","1","2","","","11206","33","3","3","lose","go","0"
"pit-trial","152","1086614","0.0-38.0","battery-v0.2","","""event"",""trial"",""time""
""fullscreenenter"",""1"",""1876""
","
","
","""event"",""trial"",""time""
""fullscreenenter"",""1"",""1876""
","
","","","-1","","","21","11206","4965","y","elianto","#f73b6a7A","-1","-1","1","0","[]","0","2","","","11206","34","2","4","lose","no-go","0"
"pit-trial","153","1090195","0.0-39.0","battery-v0.2","","""event"",""trial"",""time""
""fullscreenenter"",""1"",""1876""
","
","
","""event"",""trial"",""time""
""fullscreenenter"",""1"",""1876""
","
","","","728.2999999998137","","","21","11206","4965","r","elianto","#3366ff99"," "," ","1","+10","[1578.5]","1","2","","","11206","35","1","1","win","go","0"
"pit-trial","154","1094180","0.0-40.0","battery-v0.2","","""event"",""trial"",""time""
""fullscreenenter"",""1"",""1876""
","
","
","""event"",""trial"",""time""
""fullscreenenter"",""1"",""1876""
","
","","","1132.8999999999069","","","21","11206","4965","m","elianto","#f73b6a7A","-1"," ","0","0","[1983.2000000001863]","1","2","","","11206","36","0","4","lose","no-go","1"
"pit-trial","155","1097780","0.0-41.0","battery-v0.2","","""event"",""trial"",""time""
""fullscreenenter"",""1"",""1876""
","
","
","""event"",""trial"",""time""
""fullscreenenter"",""1"",""1876""
","
","","","748.5999999996275","","","21","11206","4965","r","elianto","#3366ff99"," "," ","1","0","[1598.7999999998137]","1","2","","","11206","37","1","1","win","go","1"
"pit-trial","156","1101341","0.0-42.0","battery-v0.2","","""event"",""trial"",""time""
""fullscreenenter"",""1"",""1876""
","
","
","""event"",""trial"",""time""
""fullscreenenter"",""1"",""1876""
","
","","","709.3999999999069","","","21","11206","4965","m","elianto","#f73b6a7A","-1"," ","0","-10","[1559.7999999998137]","1","2","","","11206","38","0","4","lose","no-go","0"
"pit-trial","157","1106195","0.0-43.0","battery-v0.2","","""event"",""trial"",""time""
""fullscreenenter"",""1"",""1876""
","
","
","""event"",""trial"",""time""
""fullscreenenter"",""1"",""1876""
","
","","","-1","","","21","11206","4965","h","elianto","#f73b6a7A"," ","-1","0","0","[]","0","2","","","11206","39","3","3","lose","go","1"
"pit-trial","158","1111048","0.0-44.0","battery-v0.2","","""event"",""trial"",""time""
""fullscreenenter"",""1"",""1876""
","
","
","""event"",""trial"",""time""
""fullscreenenter"",""1"",""1876""
","
","","","-1","","","21","11206","4965","y","elianto","#f73b6a7A","-1","-1","1","0","[]","0","2","","","11206","40","2","4","lose","no-go","0"
"pit-trial","159","1115900","0.0-45.0","battery-v0.2","","""event"",""trial"",""time""
""fullscreenenter"",""1"",""1876""
","
","
","""event"",""trial"",""time""
""fullscreenenter"",""1"",""1876""
","
","","","-1","","","21","11206","4965","y","elianto","#f73b6a7A","-1","-1","1","-10","[]","0","2","","","11206","41","2","4","lose","no-go","1"
"pit-trial","160","1120753","0.0-46.0","battery-v0.2","","""event"",""trial"",""time""
""fullscreenenter"",""1"",""1876""
","
","
","""event"",""trial"",""time""
""fullscreenenter"",""1"",""1876""
","
","","","-1","","","21","11206","4965","r","elianto","#3366ff99"," ","-1","0","0","[]","0","2","","","11206","42","1","1","win","go","0"
"pit-trial","161","1124731","0.0-47.0","battery-v0.2","","""event"",""trial"",""time""
""fullscreenenter"",""1"",""1876""
","
","
","""event"",""trial"",""time""
""fullscreenenter"",""1"",""1876""
","
","","","1125.3999999999069","","","21","11206","4965","m","elianto","#f73b6a7A","-1"," ","0","-10","[1975.8999999999069]","1","2","","","11206","43","0","4","lose","no-go","0"
"pit-trial","162","1129274","0.0-48.0","battery-v0.2","","""event"",""trial"",""time""
""fullscreenenter"",""1"",""1876""
","
","
","""event"",""trial"",""time""
""fullscreenenter"",""1"",""1876""
","
","","","1691.5","","","21","11206","4965","h","elianto","#f73b6a7A"," "," ","1","0","[2541.8000000002794]","1","2","","","11206","44","3","3","lose","go","0"
"pit-trial","163","1133092","0.0-49.0","battery-v0.2","","""event"",""trial"",""time""
""fullscreenenter"",""1"",""1876""
","
","
","""event"",""trial"",""time""
""fullscreenenter"",""1"",""1876""
","
","","","965.1999999997206","","","21","11206","4965","z","elianto","#3366ff99","-1"," ","0","0","[1815.6000000000931]","1","2","","","11206","45","4","2","win","no-go","0"
"pit-trial","164","1137100","0.0-50.0","battery-v0.2","","""event"",""trial"",""time""
""fullscreenenter"",""1"",""1876""
","
","
","""event"",""trial"",""time""
""fullscreenenter"",""1"",""1876""
","
","","","1155.3999999999069","","","21","11206","4965","h","elianto","#f73b6a7A"," "," ","1","0","[2006.3000000002794]","1","2","","","11206","46","3","3","lose","go","0"
"pit-trial","165","1140812","0.0-51.0","battery-v0.2","","""event"",""trial"",""time""
""fullscreenenter"",""1"",""1876""
","
","
","""event"",""trial"",""time""
""fullscreenenter"",""1"",""1876""
","
","","","858.9000000003725","","","21","11206","4965","m","elianto","#f73b6a7A","-1"," ","0","-10","[1709]","1","2","","","11206","47","0","4","lose","no-go","0"
"pit-trial","166","1145665","0.0-52.0","battery-v0.2","","""event"",""trial"",""time""
""fullscreenenter"",""1"",""1876""
","
","
","""event"",""trial"",""time""
""fullscreenenter"",""1"",""1876""
","
","","","-1","","","21","11206","4965","y","elianto","#f73b6a7A","-1","-1","1","0","[]","0","2","","","11206","48","2","4","lose","no-go","0"
"pit-trial","167","1150517","0.0-53.0","battery-v0.2","","""event"",""trial"",""time""
""fullscreenenter"",""1"",""1876""
","
","
","""event"",""trial"",""time""
""fullscreenenter"",""1"",""1876""
","
","","","-1","","","21","11206","4965","m","elianto","#f73b6a7A","-1","-1","1","0","[]","0","2","","","11206","49","0","4","lose","no-go","0"
"pit-trial","168","1154301","0.0-54.0","battery-v0.2","","""event"",""trial"",""time""
""fullscreenenter"",""1"",""1876""
","
","
","""event"",""trial"",""time""
""fullscreenenter"",""1"",""1876""
","
","","","932.1000000000931","","","21","11206","4965","h","elianto","#f73b6a7A"," "," ","1","0","[1782.5]","1","2","","","11206","50","3","3","lose","go","0"
"pit-trial","169","1159154","0.0-55.0","battery-v0.2","","""event"",""trial"",""time""
""fullscreenenter"",""1"",""1876""
","
","
","""event"",""trial"",""time""
""fullscreenenter"",""1"",""1876""
","
","","","-1","","","21","11206","4965","z","elianto","#3366ff99","-1","-1","1","+10","[]","0","2","","","11206","51","4","2","win","no-go","0"
"pit-trial","170","1164006","0.0-56.0","battery-v0.2","","""event"",""trial"",""time""
""fullscreenenter"",""1"",""1876""
","
","
","""event"",""trial"",""time""
""fullscreenenter"",""1"",""1876""
","
","","","-1","","","21","11206","4965","r","elianto","#3366ff99"," ","-1","0","0","[]","0","2","","","11206","52","1","1","win","go","0"
"pit-trial","171","1168360","0.0-57.0","battery-v0.2","","""event"",""trial"",""time""
""fullscreenenter"",""1"",""1876""
","
","
","""event"",""trial"",""time""
""fullscreenenter"",""1"",""1876""
","
","","","1501.5","","","21","11206","4965","r","elianto","#3366ff99"," "," ","1","+10","[2351.7000000001863]","1","2","","","11206","53","1","1","win","go","0"
"pit-trial","172","1172251","0.0-58.0","battery-v0.2","","""event"",""trial"",""time""
""fullscreenenter"",""1"",""1876""
","
","
","""event"",""trial"",""time""
""fullscreenenter"",""1"",""1876""
","
","","","1038.8000000002794","","","21","11206","4965","z","elianto","#3366ff99","-1"," ","0","0","[1889.2000000001863]","1","2","","","11206","54","4","2","win","no-go","0"
"pit-trial","173","1176324","0.0-59.0","battery-v0.2","","""event"",""trial"",""time""
""fullscreenenter"",""1"",""1876""
","
","
","""event"",""trial"",""time""
""fullscreenenter"",""1"",""1876""
","
","","","1220.6000000000931","","","21","11206","4965","m","elianto","#f73b6a7A","-1"," ","0","-10","[2071.2000000001863]","1","2","","","11206","55","0","4","lose","no-go","0"
"pit-trial","174","1181176","0.0-60.0","battery-v0.2","","""event"",""trial"",""time""
""fullscreenenter"",""1"",""1876""
","
","
","""event"",""trial"",""time""
""fullscreenenter"",""1"",""1876""
","
","","","-1","","","21","11206","4965","y","elianto","#f73b6a7A","-1","-1","1","-10","[]","0","2","","","11206","56","2","4","lose","no-go","1"
"pit-trial","175","1184817","0.0-61.0","battery-v0.2","","""event"",""trial"",""time""
""fullscreenenter"",""1"",""1876""
","
","
","""event"",""trial"",""time""
""fullscreenenter"",""1"",""1876""
","
","","","788.6999999997206","","","21","11206","4965","h","elianto","#f73b6a7A"," "," ","1","0","[1639.0999999996275]","1","2","","","11206","57","3","3","lose","go","0"
"pit-trial","176","1189669","0.0-62.0","battery-v0.2","","""event"",""trial"",""time""
""fullscreenenter"",""1"",""1876""
","
","
","""event"",""trial"",""time""
""fullscreenenter"",""1"",""1876""
","
","","","-1","","","21","11206","4965","z","elianto","#3366ff99","-1","-1","1","+10","[]","0","2","","","11206","58","4","2","win","no-go","0"
"pit-trial","177","1194522","0.0-63.0","battery-v0.2","","""event"",""trial"",""time""
""fullscreenenter"",""1"",""1876""
","
","
","""event"",""trial"",""time""
""fullscreenenter"",""1"",""1876""
","
","","","-1","","","21","11206","4965","m","elianto","#f73b6a7A","-1","-1","1","-10","[]","0","2","","","11206","59","0","4","lose","no-go","1"
"pit-trial","178","1199376","0.0-64.0","battery-v0.2","","""event"",""trial"",""time""
""fullscreenenter"",""1"",""1876""
","
","
","""event"",""trial"",""time""
""fullscreenenter"",""1"",""1876""
","
","","","-1","","","21","11206","4965","r","elianto","#3366ff99"," ","-1","0","+10","[]","0","2","","","11206","60","1","1","win","go","1"
"pit-trial","179","1204230","0.0-65.0","battery-v0.2","","""event"",""trial"",""time""
""fullscreenenter"",""1"",""1876""
","
","
","""event"",""trial"",""time""
""fullscreenenter"",""1"",""1876""
","
","","","-1","","","21","11206","4965","r","elianto","#3366ff99"," ","-1","0","0","[]","0","2","","","11206","61","1","1","win","go","0"
"pit-trial","180","1209083","0.0-66.0","battery-v0.2","","""event"",""trial"",""time""
""fullscreenenter"",""1"",""1876""
","
","
","""event"",""trial"",""time""
""fullscreenenter"",""1"",""1876""
","
","","","-1","","","21","11206","4965","z","elianto","#3366ff99","-1","-1","1","+10","[]","0","2","","","11206","62","4","2","win","no-go","0"
"pit-trial","181","1213935","0.0-67.0","battery-v0.2","","""event"",""trial"",""time""
""fullscreenenter"",""1"",""1876""
","
","
","""event"",""trial"",""time""
""fullscreenenter"",""1"",""1876""
","
","","","-1","","","21","11206","4965","y","elianto","#f73b6a7A","-1","-1","1","0","[]","0","2","","","11206","63","2","4","lose","no-go","0"
"pit-trial","182","1217569","0.0-68.0","battery-v0.2","","""event"",""trial"",""time""
""fullscreenenter"",""1"",""1876""
","
","
","""event"",""trial"",""time""
""fullscreenenter"",""1"",""1876""
","
","","","780.6000000000931","","","21","11206","4965","h","elianto","#f73b6a7A"," "," ","1","0","[1631]","1","2","","","11206","64","3","3","lose","go","0"
"pit-trial","183","1222422","0.0-69.0","battery-v0.2","","""event"",""trial"",""time""
""fullscreenenter"",""1"",""1876""
","
","
","""event"",""trial"",""time""
""fullscreenenter"",""1"",""1876""
","
","","","-1","","","21","11206","4965","r","elianto","#3366ff99"," ","-1","0","0","[]","0","2","","","11206","65","1","1","win","go","0"
"pit-trial","184","1227275","0.0-70.0","battery-v0.2","","""event"",""trial"",""time""
""fullscreenenter"",""1"",""1876""
","
","
","""event"",""trial"",""time""
""fullscreenenter"",""1"",""1876""
","
","","","-1","","","21","11206","4965","y","elianto","#f73b6a7A","-1","-1","1","0","[]","0","2","","","11206","66","2","4","lose","no-go","0"
"pit-trial","185","1230833","0.0-71.0","battery-v0.2","","""event"",""trial"",""time""
""fullscreenenter"",""1"",""1876""
","
","
","""event"",""trial"",""time""
""fullscreenenter"",""1"",""1876""
","
","","","705.8999999999069","","","21","11206","4965","h","elianto","#f73b6a7A"," "," ","1","0","[1556.6000000000931]","1","2","","","11206","67","3","3","lose","go","0"
"pit-trial","186","1235686","0.0-72.0","battery-v0.2","","""event"",""trial"",""time""
""fullscreenenter"",""1"",""1876""
","
","
","""event"",""trial"",""time""
""fullscreenenter"",""1"",""1876""
","
","","","-1","","","21","11206","4965","z","elianto","#3366ff99","-1","-1","1","+10","[]","0","2","","","11206","68","4","2","win","no-go","0"
"pit-trial","187","1240539","0.0-73.0","battery-v0.2","","""event"",""trial"",""time""
""fullscreenenter"",""1"",""1876""
","
","
","""event"",""trial"",""time""
""fullscreenenter"",""1"",""1876""
","
","","","-1","","","21","11206","4965","z","elianto","#3366ff99","-1","-1","1","0","[]","0","2","","","11206","69","4","2","win","no-go","1"
"pit-trial","188","1244188","0.0-74.0","battery-v0.2","","""event"",""trial"",""time""
""fullscreenenter"",""1"",""1876""
","
","
","""event"",""trial"",""time""
""fullscreenenter"",""1"",""1876""
","
","","","796.5","","","21","11206","4965","h","elianto","#f73b6a7A"," "," ","1","0","[1646.6000000000931]","1","2","","","11206","70","3","3","lose","go","0"
"pit-trial","189","1249041","0.0-75.0","battery-v0.2","","""event"",""trial"",""time""
""fullscreenenter"",""1"",""1876""
","
","
","""event"",""trial"",""time""
""fullscreenenter"",""1"",""1876""
","
","","","-1","","","21","11206","4965","r","elianto","#3366ff99"," ","-1","0","0","[]","0","2","","","11206","71","1","1","win","go","0"
"pit-trial","190","1252744","0.0-76.0","battery-v0.2","","""event"",""trial"",""time""
""fullscreenenter"",""1"",""1876""
","
","
","""event"",""trial"",""time""
""fullscreenenter"",""1"",""1876""
","
","","","850.8999999999069","","","21","11206","4965","c","elianto","#3366ff99"," "," ","1","+10","[1701.1000000000931]","1","2","","","11206","72","5","1","win","go","0"
"pit-trial","191","1257598","0.0-77.0","battery-v0.2","","""event"",""trial"",""time""
""fullscreenenter"",""1"",""1876""
","
","
","""event"",""trial"",""time""
""fullscreenenter"",""1"",""1876""
","
","","","-1","","","21","11206","4965","z","elianto","#3366ff99","-1","-1","1","+10","[]","0","2","","","11206","73","4","2","win","no-go","0"
"pit-trial","192","1262450","0.0-78.0","battery-v0.2","","""event"",""trial"",""time""
""fullscreenenter"",""1"",""1876""
","
","
","""event"",""trial"",""time""
""fullscreenenter"",""1"",""1876""
","
","","","-1","","","21","11206","4965","r","elianto","#3366ff99"," ","-1","0","0","[]","0","2","","","11206","74","1","1","win","go","0"
"pit-trial","193","1265969","0.0-79.0","battery-v0.2","","""event"",""trial"",""time""
""fullscreenenter"",""1"",""1876""
","
","
","""event"",""trial"",""time""
""fullscreenenter"",""1"",""1876""
","
","","","665.8999999999069","","","21","11206","4965","h","elianto","#f73b6a7A"," "," ","1","0","[1517]","1","2","","","11206","75","3","3","lose","go","0"
"pit-trial","194","1269568","0.0-80.0","battery-v0.2","","""event"",""trial"",""time""
""fullscreenenter"",""1"",""1876""
","
","
","""event"",""trial"",""time""
""fullscreenenter"",""1"",""1876""
","
","","","746.6000000000931","","","21","11206","4965","c","elianto","#3366ff99"," "," ","1","+10","[1597.1000000000931]","1","2","","","11206","76","5","1","win","go","0"
"pit-trial","195","1273225","0.0-81.0","battery-v0.2","","""event"",""trial"",""time""
""fullscreenenter"",""1"",""1876""
","
","
","""event"",""trial"",""time""
""fullscreenenter"",""1"",""1876""
","
","","","805","","","21","11206","4965","h","elianto","#f73b6a7A"," "," ","1","0","[1655.7000000001863]","1","2","","","11206","77","3","3","lose","go","0"
"pit-trial","196","1278077","0.0-82.0","battery-v0.2","","""event"",""trial"",""time""
""fullscreenenter"",""1"",""1876""
","
","
","""event"",""trial"",""time""
""fullscreenenter"",""1"",""1876""
","
","","","-1","","","21","11206","4965","b","elianto","#f73b6a7A","-1","-1","1","0","[]","0","2","","","11206","78","6","4","lose","no-go","0"
"pit-trial","197","1281573","0.0-83.0","battery-v0.2","","""event"",""trial"",""time""
""fullscreenenter"",""1"",""1876""
","
","
","""event"",""trial"",""time""
""fullscreenenter"",""1"",""1876""
","
","","","643.5","","","21","11206","4965","c","elianto","#3366ff99"," "," ","1","+10","[1494.1000000000931]","1","2","","","11206","79","5","1","win","go","0"
"pit-trial","198","1286154","0.0-84.0","battery-v0.2","","""event"",""trial"",""time""
""fullscreenenter"",""1"",""1876""
","
","
","""event"",""trial"",""time""
""fullscreenenter"",""1"",""1876""
","
","","","1727.7000000001863","","","21","11206","4965","z","elianto","#3366ff99","-1"," ","0","0","[2578.7000000001863]","1","2","","","11206","80","4","2","win","no-go","0"
"pit-trial","199","1289603","0.0-85.0","battery-v0.2","","""event"",""trial"",""time""
""fullscreenenter"",""1"",""1876""
","
","
","""event"",""trial"",""time""
""fullscreenenter"",""1"",""1876""
","
","","","596.7000000001863","","","21","11206","4965","c","elianto","#3366ff99"," "," ","1","+10","[1446.8999999999069]","1","2","","","11206","81","5","1","win","go","0"
"pit-trial","200","1294456","0.0-86.0","battery-v0.2","","""event"",""trial"",""time""
""fullscreenenter"",""1"",""1876""
","
","
","""event"",""trial"",""time""
""fullscreenenter"",""1"",""1876""
","
","","","-1","","","21","11206","4965","b","elianto","#f73b6a7A","-1","-1","1","0","[]","0","2","","","11206","82","6","4","lose","no-go","0"
"pit-trial","201","1299310","0.0-87.0","battery-v0.2","","""event"",""trial"",""time""
""fullscreenenter"",""1"",""1876""
","
","
","""event"",""trial"",""time""
""fullscreenenter"",""1"",""1876""
","
","","","-1","","","21","11206","4965","z","elianto","#3366ff99","-1","-1","1","+10","[]","0","2","","","11206","83","4","2","win","no-go","0"
"pit-trial","202","1304164","0.0-88.0","battery-v0.2","","""event"",""trial"",""time""
""fullscreenenter"",""1"",""1876""
","
","
","""event"",""trial"",""time""
""fullscreenenter"",""1"",""1876""
","
","","","-1","","","21","11206","4965","t","elianto","#f73b6a7A"," ","-1","0","0","[]","0","2","","","11206","84","7","3","lose","go","1"
"pit-trial","203","1309016","0.0-89.0","battery-v0.2","","""event"",""trial"",""time""
""fullscreenenter"",""1"",""1876""
","
","
","""event"",""trial"",""time""
""fullscreenenter"",""1"",""1876""
","
","","","-1","","","21","11206","4965","t","elianto","#f73b6a7A"," ","-1","0","0","[]","0","2","","","11206","85","7","3","lose","go","1"
"pit-trial","204","1312773","0.0-90.0","battery-v0.2","","""event"",""trial"",""time""
""fullscreenenter"",""1"",""1876""
","
","
","""event"",""trial"",""time""
""fullscreenenter"",""1"",""1876""
","
","","","904.5","","","21","11206","4965","c","elianto","#3366ff99"," "," ","1","+10","[1755]","1","2","","","11206","86","5","1","win","go","0"
"pit-trial","205","1317626","0.0-91.0","battery-v0.2","","""event"",""trial"",""time""
""fullscreenenter"",""1"",""1876""
","
","
","""event"",""trial"",""time""
""fullscreenenter"",""1"",""1876""
","
","","","-1","","","21","11206","4965","z","elianto","#3366ff99","-1","-1","1","+10","[]","0","2","","","11206","87","4","2","win","no-go","0"
"pit-trial","206","1322479","0.0-92.0","battery-v0.2","","""event"",""trial"",""time""
""fullscreenenter"",""1"",""1876""
","
","
","""event"",""trial"",""time""
""fullscreenenter"",""1"",""1876""
","
","","","-1","","","21","11206","4965","b","elianto","#f73b6a7A","-1","-1","1","0","[]","0","2","","","11206","88","6","4","lose","no-go","0"
"pit-trial","207","1327333","0.0-93.0","battery-v0.2","","""event"",""trial"",""time""
""fullscreenenter"",""1"",""1876""
","
","
","""event"",""trial"",""time""
""fullscreenenter"",""1"",""1876""
","
","","","-1","","","21","11206","4965","t","elianto","#f73b6a7A"," ","-1","0","0","[]","0","2","","","11206","89","7","3","lose","go","1"
"pit-trial","208","1332186","0.0-94.0","battery-v0.2","","""event"",""trial"",""time""
""fullscreenenter"",""1"",""1876""
","
","
","""event"",""trial"",""time""
""fullscreenenter"",""1"",""1876""
","
","","","-1","","","21","11206","4965","b","elianto","#f73b6a7A","-1","-1","1","0","[]","0","2","","","11206","90","6","4","lose","no-go","0"
"pit-trial","209","1337040","0.0-95.0","battery-v0.2","","""event"",""trial"",""time""
""fullscreenenter"",""1"",""1876""
","
","
","""event"",""trial"",""time""
""fullscreenenter"",""1"",""1876""
","
","","","-1","","","21","11206","4965","z","elianto","#3366ff99","-1","-1","1","+10","[]","0","2","","","11206","91","4","2","win","no-go","0"
"pit-trial","210","1340494","0.0-96.0","battery-v0.2","","""event"",""trial"",""time""
""fullscreenenter"",""1"",""1876""
","
","
","""event"",""trial"",""time""
""fullscreenenter"",""1"",""1876""
","
","","","601.1000000000931","","","21","11206","4965","c","elianto","#3366ff99"," "," ","1","+10","[1451.2999999998137]","1","2","","","11206","92","5","1","win","go","0"
"pit-trial","211","1345347","0.0-97.0","battery-v0.2","","""event"",""trial"",""time""
""fullscreenenter"",""1"",""1876""
","
","
","""event"",""trial"",""time""
""fullscreenenter"",""1"",""1876""
","
","","","-1","","","21","11206","4965","t","elianto","#f73b6a7A"," ","-1","0","-10","[]","0","2","","","11206","93","7","3","lose","go","0"
"pit-trial","212","1348789","0.0-98.0","battery-v0.2","","""event"",""trial"",""time""
""fullscreenenter"",""1"",""1876""
","
","
","""event"",""trial"",""time""
""fullscreenenter"",""1"",""1876""
","
","","","590","","","21","11206","4965","c","elianto","#3366ff99"," "," ","1","+10","[1440.1000000000931]","1","2","","","11206","94","5","1","win","go","0"
"pit-trial","213","1353364","0.0-99.0","battery-v0.2","","""event"",""trial"",""time""
""fullscreenenter"",""1"",""1876""
","
","
","""event"",""trial"",""time""
""fullscreenenter"",""1"",""1876""
","
","","","1722","","","21","11206","4965","f","elianto","#3366ff99","-1"," ","0","0","[2572.5]","1","2","","","11206","95","8","2","win","no-go","0"
"pit-trial","214","1358217","0.0-100.0","battery-v0.2","","""event"",""trial"",""time""
""fullscreenenter"",""1"",""1876""
","
","
","""event"",""trial"",""time""
""fullscreenenter"",""1"",""1876""
","
","","","-1","","","21","11206","4965","b","elianto","#f73b6a7A","-1","-1","1","0","[]","0","2","","","11206","96","6","4","lose","no-go","0"
"pit-trial","215","1363069","0.0-101.0","battery-v0.2","","""event"",""trial"",""time""
""fullscreenenter"",""1"",""1876""
","
","
","""event"",""trial"",""time""
""fullscreenenter"",""1"",""1876""
","
","","","-1","","","21","11206","4965","b","elianto","#f73b6a7A","-1","-1","1","0","[]","0","2","","","11206","97","6","4","lose","no-go","0"
"pit-trial","216","1367922","0.0-102.0","battery-v0.2","","""event"",""trial"",""time""
""fullscreenenter"",""1"",""1876""
","
","
","""event"",""trial"",""time""
""fullscreenenter"",""1"",""1876""
","
","","","-1","","","21","11206","4965","f","elianto","#3366ff99","-1","-1","1","+10","[]","0","2","","","11206","98","8","2","win","no-go","0"
"pit-trial","217","1372781","0.0-103.0","battery-v0.2","","""event"",""trial"",""time""
""fullscreenenter"",""1"",""1876""
","
","
","""event"",""trial"",""time""
""fullscreenenter"",""1"",""1876""
","
","","","-1","","","21","11206","4965","t","elianto","#f73b6a7A"," ","-1","0","-10","[]","0","2","","","11206","99","7","3","lose","go","0"
"pit-trial","218","1376283","0.0-104.0","battery-v0.2","","""event"",""trial"",""time""
""fullscreenenter"",""1"",""1876""
","
","
","""event"",""trial"",""time""
""fullscreenenter"",""1"",""1876""
","
","","","649.8999999999069","","","21","11206","4965","c","elianto","#3366ff99"," "," ","1","0","[1499.9000000003725]","1","2","","","11206","100","5","1","win","go","1"
"pit-trial","219","1380535","0.0-105.0","battery-v0.2","","""event"",""trial"",""time""
""fullscreenenter"",""1"",""1876""
","
","
","""event"",""trial"",""time""
""fullscreenenter"",""1"",""1876""
","
","","","1400","","","21","11206","4965","n","elianto","#3366ff99","-1"," ","0","0","[2250.6999999997206]","1","2","","","11206","101","9","2","win","no-go","0"
"pit-trial","220","1385388","0.0-106.0","battery-v0.2","","""event"",""trial"",""time""
""fullscreenenter"",""1"",""1876""
","
","
","""event"",""trial"",""time""
""fullscreenenter"",""1"",""1876""
","
","","","-1","","","21","11206","4965","b","elianto","#f73b6a7A","-1","-1","1","-10","[]","0","2","","","11206","102","6","4","lose","no-go","1"
"pit-trial","221","1388916","0.0-107.0","battery-v0.2","","""event"",""trial"",""time""
""fullscreenenter"",""1"",""1876""
","
","
","""event"",""trial"",""time""
""fullscreenenter"",""1"",""1876""
","
","","","674.5","","","21","11206","4965","c","elianto","#3366ff99"," "," ","1","+10","[1525.3999999999069]","1","2","","","11206","103","5","1","win","go","0"
"pit-trial","222","1393769","0.0-108.0","battery-v0.2","","""event"",""trial"",""time""
""fullscreenenter"",""1"",""1876""
","
","
","""event"",""trial"",""time""
""fullscreenenter"",""1"",""1876""
","
","","","-1","","","21","11206","4965","f","elianto","#3366ff99","-1","-1","1","+10","[]","0","2","","","11206","104","8","2","win","no-go","0"
"pit-trial","223","1398623","0.0-109.0","battery-v0.2","","""event"",""trial"",""time""
""fullscreenenter"",""1"",""1876""
","
","
","""event"",""trial"",""time""
""fullscreenenter"",""1"",""1876""
","
","","","-1","","","21","11206","4965","n","elianto","#3366ff99","-1","-1","1","+10","[]","0","2","","","11206","105","9","2","win","no-go","0"
"pit-trial","224","1403476","0.0-110.0","battery-v0.2","","""event"",""trial"",""time""
""fullscreenenter"",""1"",""1876""
","
","
","""event"",""trial"",""time""
""fullscreenenter"",""1"",""1876""
","
","","","-1","","","21","11206","4965","b","elianto","#f73b6a7A","-1","-1","1","0","[]","0","2","","","11206","106","6","4","lose","no-go","0"
"pit-trial","225","1407015","0.0-111.0","battery-v0.2","","""event"",""trial"",""time""
""fullscreenenter"",""1"",""1876""
","
","
","""event"",""trial"",""time""
""fullscreenenter"",""1"",""1876""
","
","","","687.5","","","21","11206","4965","c","elianto","#3366ff99"," "," ","1","0","[1537.8999999999069]","1","2","","","11206","107","5","1","win","go","1"
"pit-trial","226","1411868","0.0-112.0","battery-v0.2","","""event"",""trial"",""time""
""fullscreenenter"",""1"",""1876""
","
","
","""event"",""trial"",""time""
""fullscreenenter"",""1"",""1876""
","
","","","-1","","","21","11206","4965","f","elianto","#3366ff99","-1","-1","1","+10","[]","0","2","","","11206","108","8","2","win","no-go","0"
"pit-trial","227","1416721","0.0-113.0","battery-v0.2","","""event"",""trial"",""time""
""fullscreenenter"",""1"",""1876""
","
","
","""event"",""trial"",""time""
""fullscreenenter"",""1"",""1876""
","
","","","-1","","","21","11206","4965","n","elianto","#3366ff99","-1","-1","1","+10","[]","0","2","","","11206","109","9","2","win","no-go","0"
"pit-trial","228","1420414","0.0-114.0","battery-v0.2","","""event"",""trial"",""time""
""fullscreenenter"",""1"",""1876""
","
","
","""event"",""trial"",""time""
""fullscreenenter"",""1"",""1876""
","
","","","841.3999999999069","","","21","11206","4965","c","elianto","#3366ff99"," "," ","1","+10","[1691.3999999999069]","1","2","","","11206","110","5","1","win","go","0"
"pit-trial","229","1425268","0.0-115.0","battery-v0.2","","""event"",""trial"",""time""
""fullscreenenter"",""1"",""1876""
","
","
","""event"",""trial"",""time""
""fullscreenenter"",""1"",""1876""
","
","","","-1","","","21","11206","4965","f","elianto","#3366ff99","-1","-1","1","+10","[]","0","2","","","11206","111","8","2","win","no-go","0"
"pit-trial","230","1430121","0.0-116.0","battery-v0.2","","""event"",""trial"",""time""
""fullscreenenter"",""1"",""1876""
","
","
","""event"",""trial"",""time""
""fullscreenenter"",""1"",""1876""
","
","","","-1","","","21","11206","4965","b","elianto","#f73b6a7A","-1","-1","1","-10","[]","0","2","","","11206","112","6","4","lose","no-go","1"
"pit-trial","231","1434973","0.0-117.0","battery-v0.2","","""event"",""trial"",""time""
""fullscreenenter"",""1"",""1876""
","
","
","""event"",""trial"",""time""
""fullscreenenter"",""1"",""1876""
","
","","","-1","","","21","11206","4965","f","elianto","#3366ff99","-1","-1","1","0","[]","0","2","","","11206","113","8","2","win","no-go","1"
"pit-trial","232","1438532","0.0-118.0","battery-v0.2","","""event"",""trial"",""time""
""fullscreenenter"",""1"",""1876""
","
","
","""event"",""trial"",""time""
""fullscreenenter"",""1"",""1876""
","
","","","705.8999999999069","","","21","11206","4965","c","elianto","#3366ff99"," "," ","1","+10","[1556.1000000000931]","1","2","","","11206","114","5","1","win","go","0"
"pit-trial","233","1442734","0.0-119.0","battery-v0.2","","""event"",""trial"",""time""
""fullscreenenter"",""1"",""1876""
","
","
","""event"",""trial"",""time""
""fullscreenenter"",""1"",""1876""
","
","","","1350.1000000000931","","","21","11206","4965","t","elianto","#f73b6a7A"," "," ","1","-10","[2200.3000000002794]","1","2","","","11206","115","7","3","lose","go","1"
"pit-trial","234","1447587","0.0-120.0","battery-v0.2","","""event"",""trial"",""time""
""fullscreenenter"",""1"",""1876""
","
","
","""event"",""trial"",""time""
""fullscreenenter"",""1"",""1876""
","
","","","-1","","","21","11206","4965","n","elianto","#3366ff99","-1","-1","1","+10","[]","0","2","","","11206","116","9","2","win","no-go","0"
"pit-trial","235","1452439","0.0-121.0","battery-v0.2","","""event"",""trial"",""time""
""fullscreenenter"",""1"",""1876""
","
","
","""event"",""trial"",""time""
""fullscreenenter"",""1"",""1876""
","
","","","-1","","","21","11206","4965","f","elianto","#3366ff99","-1","-1","1","+10","[]","0","2","","","11206","117","8","2","win","no-go","0"
"pit-trial","236","1455863","0.0-122.0","battery-v0.2","","""event"",""trial"",""time""
""fullscreenenter"",""1"",""1876""
","
","
","""event"",""trial"",""time""
""fullscreenenter"",""1"",""1876""
","
","","","571.3999999999069","","","21","11206","4965","c","elianto","#3366ff99"," "," ","1","+10","[1421.5]","1","2","","","11206","118","5","1","win","go","0"
"pit-trial","237","1460715","0.0-123.0","battery-v0.2","","""event"",""trial"",""time""
""fullscreenenter"",""1"",""1876""
","
","
","""event"",""trial"",""time""
""fullscreenenter"",""1"",""1876""
","
","","","-1","","","21","11206","4965","b","elianto","#f73b6a7A","-1","-1","1","0","[]","0","2","","","11206","119","6","4","lose","no-go","0"
"pit-trial","238","1465569","0.0-124.0","battery-v0.2","","""event"",""trial"",""time""
""fullscreenenter"",""1"",""1876""
","
","
","""event"",""trial"",""time""
""fullscreenenter"",""1"",""1876""
","
","","","-1","","","21","11206","4965","n","elianto","#3366ff99","-1","-1","1","+10","[]","0","2","","","11206","120","9","2","win","no-go","0"
"pit-trial","239","1470422","0.0-125.0","battery-v0.2","","""event"",""trial"",""time""
""fullscreenenter"",""1"",""1876""
","
","
","""event"",""trial"",""time""
""fullscreenenter"",""1"",""1876""
","
","","","-1","","","21","11206","4965","f","elianto","#3366ff99","-1","-1","1","+10","[]","0","2","","","11206","121","8","2","win","no-go","0"
"pit-trial","240","1475277","0.0-126.0","battery-v0.2","","""event"",""trial"",""time""
""fullscreenenter"",""1"",""1876""
","
","
","""event"",""trial"",""time""
""fullscreenenter"",""1"",""1876""
","
","","","-1","","","21","11206","4965","n","elianto","#3366ff99","-1","-1","1","+10","[]","0","2","","","11206","122","9","2","win","no-go","0"
"pit-trial","241","1479428","0.0-127.0","battery-v0.2","","""event"",""trial"",""time""
""fullscreenenter"",""1"",""1876""
","
","
","""event"",""trial"",""time""
""fullscreenenter"",""1"",""1876""
","
","","","1298","","","21","11206","4965","c","elianto","#3366ff99"," "," ","1","0","[2148.6999999997206]","1","2","","","11206","123","5","1","win","go","1"
"pit-trial","242","1484280","0.0-128.0","battery-v0.2","","""event"",""trial"",""time""
""fullscreenenter"",""1"",""1876""
","
","
","""event"",""trial"",""time""
""fullscreenenter"",""1"",""1876""
","
","","","-1","","","21","11206","4965","t","elianto","#f73b6a7A"," ","-1","0","-10","[]","0","2","","","11206","124","7","3","lose","go","0"
"pit-trial","243","1489133","0.0-129.0","battery-v0.2","","""event"",""trial"",""time""
""fullscreenenter"",""1"",""1876""
","
","
","""event"",""trial"",""time""
""fullscreenenter"",""1"",""1876""
","
","","","-1","","","21","11206","4965","t","elianto","#f73b6a7A"," ","-1","0","-10","[]","0","2","","","11206","125","7","3","lose","go","0"
"pit-trial","244","1493985","0.0-130.0","battery-v0.2","","""event"",""trial"",""time""
""fullscreenenter"",""1"",""1876""
","
","
","""event"",""trial"",""time""
""fullscreenenter"",""1"",""1876""
","
","","","-1","","","21","11206","4965","f","elianto","#3366ff99","-1","-1","1","+10","[]","0","2","","","11206","126","8","2","win","no-go","0"
"pit-trial","245","1498839","0.0-131.0","battery-v0.2","","""event"",""trial"",""time""
""fullscreenenter"",""1"",""1876""
","
","
","""event"",""trial"",""time""
""fullscreenenter"",""1"",""1876""
","
","","","-1","","","21","11206","4965","b","elianto","#f73b6a7A","-1","-1","1","-10","[]","0","2","","","11206","127","6","4","lose","no-go","1"
"pit-trial","246","1503690","0.0-132.0","battery-v0.2","","""event"",""trial"",""time""
""fullscreenenter"",""1"",""1876""
","
","
","""event"",""trial"",""time""
""fullscreenenter"",""1"",""1876""
","
","","","-1","","","21","11206","4965","n","elianto","#3366ff99","-1","-1","1","+10","[]","0","2","","","11206","128","9","2","win","no-go","0"
"pit-trial","247","1507087","0.0-133.0","battery-v0.2","","""event"",""trial"",""time""
""fullscreenenter"",""1"",""1876""
","
","
","""event"",""trial"",""time""
""fullscreenenter"",""1"",""1876""
","
","","","544.2000000001863","","","21","11206","4965","t","elianto","#f73b6a7A"," "," ","1","0","[1395.3000000002794]","1","2","","","11206","129","7","3","lose","go","0"
"pit-trial","248","1511939","0.0-134.0","battery-v0.2","","""event"",""trial"",""time""
""fullscreenenter"",""1"",""1876""
","
","
","""event"",""trial"",""time""
""fullscreenenter"",""1"",""1876""
","
","","","-1","","","21","11206","4965","n","elianto","#3366ff99","-1","-1","1","+10","[]","0","2","","","11206","130","9","2","win","no-go","0"
"pit-trial","249","1516793","0.0-135.0","battery-v0.2","","""event"",""trial"",""time""
""fullscreenenter"",""1"",""1876""
","
","
","""event"",""trial"",""time""
""fullscreenenter"",""1"",""1876""
","
","","","-1","","","21","11206","4965","b","elianto","#f73b6a7A","-1","-1","1","0","[]","0","2","","","11206","131","6","4","lose","no-go","0"
"pit-trial","250","1521646","0.0-136.0","battery-v0.2","","""event"",""trial"",""time""
""fullscreenenter"",""1"",""1876""
","
","
","""event"",""trial"",""time""
""fullscreenenter"",""1"",""1876""
","
","","","-1","","","21","11206","4965","f","elianto","#3366ff99","-1","-1","1","+10","[]","0","2","","","11206","132","8","2","win","no-go","0"
"pit-trial","251","1526500","0.0-137.0","battery-v0.2","","""event"",""trial"",""time""
""fullscreenenter"",""1"",""1876""
","
","
","""event"",""trial"",""time""
""fullscreenenter"",""1"",""1876""
","
","","","-1","","","21","11206","4965","b","elianto","#f73b6a7A","-1","-1","1","0","[]","0","2","","","11206","133","6","4","lose","no-go","0"
"pit-trial","252","1530032","0.0-138.0","battery-v0.2","","""event"",""trial"",""time""
""fullscreenenter"",""1"",""1876""
","
","
","""event"",""trial"",""time""
""fullscreenenter"",""1"",""1876""
","
","","","677.7999999998137","","","21","11206","4965","t","elianto","#f73b6a7A"," "," ","1","0","[1528.6000000000931]","1","2","","","11206","134","7","3","lose","go","0"
"pit-trial","253","1534884","0.0-139.0","battery-v0.2","","""event"",""trial"",""time""
""fullscreenenter"",""1"",""1876""
","
","
","""event"",""trial"",""time""
""fullscreenenter"",""1"",""1876""
","
","","","-1","","","21","11206","4965","f","elianto","#3366ff99","-1","-1","1","+10","[]","0","2","","","11206","135","8","2","win","no-go","0"
"pit-trial","254","1539737","0.0-140.0","battery-v0.2","","""event"",""trial"",""time""
""fullscreenenter"",""1"",""1876""
","
","
","""event"",""trial"",""time""
""fullscreenenter"",""1"",""1876""
","
","","","-1","","","21","11206","4965","n","elianto","#3366ff99","-1","-1","1","+10","[]","0","2","","","11206","136","9","2","win","no-go","0"
"pit-trial","255","1544589","0.0-141.0","battery-v0.2","","""event"",""trial"",""time""
""fullscreenenter"",""1"",""1876""
","
","
","""event"",""trial"",""time""
""fullscreenenter"",""1"",""1876""
","
","","","-1","","","21","11206","4965","n","elianto","#3366ff99","-1","-1","1","+10","[]","0","2","","","11206","137","9","2","win","no-go","0"
"pit-trial","256","1549442","0.0-142.0","battery-v0.2","","""event"",""trial"",""time""
""fullscreenenter"",""1"",""1876""
","
","
","""event"",""trial"",""time""
""fullscreenenter"",""1"",""1876""
","
","","","-1","","","21","11206","4965","b","elianto","#f73b6a7A","-1","-1","1","0","[]","0","2","","","11206","138","6","4","lose","no-go","0"
"pit-trial","257","1554295","0.0-143.0","battery-v0.2","","""event"",""trial"",""time""
""fullscreenenter"",""1"",""1876""
","
","
","""event"",""trial"",""time""
""fullscreenenter"",""1"",""1876""
","
","","","-1","","","21","11206","4965","f","elianto","#3366ff99","-1","-1","1","+10","[]","0","2","","","11206","139","8","2","win","no-go","0"
"pit-trial","258","1557983","0.0-144.0","battery-v0.2","","""event"",""trial"",""time""
""fullscreenenter"",""1"",""1876""
","
","
","""event"",""trial"",""time""
""fullscreenenter"",""1"",""1876""
","
","","","835.7999999998137","","","21","11206","4965","t","elianto","#f73b6a7A"," "," ","1","0","[1686.3999999999069]","1","2","","","11206","140","7","3","lose","go","0"
"pit-instructions","259","1641357","0.0-145.0","battery-v0.2","","""event"",""trial"",""time""
""fullscreenenter"",""1"",""1876""
","
","
","""event"",""trial"",""time""
""fullscreenenter"",""1"",""1876""
","
","","[{""page_index"":0,""viewing_time"":75093.5},{""page_index"":1,""viewing_time"":8279.5}]","83373.20000000019","","","","","","","","","","","","","","","","","","","","","","","",""
"pit-trial","260","1645076","0.0-146.0","battery-v0.2","","""event"",""trial"",""time""
""fullscreenenter"",""1"",""1876""
","
","
","""event"",""trial"",""time""
""fullscreenenter"",""1"",""1876""
","
","","","859.7999999998137","","","21","11206","4965","d","elianto","#3366ff99","-1"," ","0","0","[1712.2999999998137]","1","3","","","11206","141","1","2","win","no-go","0"
"pit-trial","261","1649014","0.0-147.0","battery-v0.2","","""event"",""trial"",""time""
""fullscreenenter"",""1"",""1876""
","
","
","""event"",""trial"",""time""
""fullscreenenter"",""1"",""1876""
","
","","","1075.5999999996275","","","21","11206","4965","j","elianto","#f73b6a7A"," "," ","1","0","[1926]","1","3","","","11206","142","0","3","lose","go","0"
"pit-trial","262","1653889","0.0-148.0","battery-v0.2","","""event"",""trial"",""time""
""fullscreenenter"",""1"",""1876""
","
","
","""event"",""trial"",""time""
""fullscreenenter"",""1"",""1876""
","
","","","-1","","","21","11206","4965","w","elianto","#f73b6a7A","-1","-1","1","0","[]","0","3","","","11206","143","3","4","lose","no-go","0"
"pit-trial","263","1658760","0.0-149.0","battery-v0.2","","""event"",""trial"",""time""
""fullscreenenter"",""1"",""1876""
","
","
","""event"",""trial"",""time""
""fullscreenenter"",""1"",""1876""
","
","","","-1","","","21","11206","4965","e","elianto","#f73b6a7A"," ","-1","0","-10","[]","0","3","","","11206","144","2","3","lose","go","0"
"pit-trial","264","1662474","0.0-150.0","battery-v0.2","","""event"",""trial"",""time""
""fullscreenenter"",""1"",""1876""
","
","
","""event"",""trial"",""time""
""fullscreenenter"",""1"",""1876""
","
","","","854.4000000003725","","","21","11206","4965","e","elianto","#f73b6a7A"," "," ","1","0","[1709.7000000001863]","1","3","","","11206","145","2","3","lose","go","0"
"pit-trial","265","1667342","0.0-151.0","battery-v0.2","","""event"",""trial"",""time""
""fullscreenenter"",""1"",""1876""
","
","
","""event"",""trial"",""time""
""fullscreenenter"",""1"",""1876""
","
","","","-1","","","21","11206","4965","j","elianto","#f73b6a7A"," ","-1","0","-10","[]","0","3","","","11206","146","0","3","lose","go","0"
"pit-trial","266","1672199","0.0-152.0","battery-v0.2","","""event"",""trial"",""time""
""fullscreenenter"",""1"",""1876""
","
","
","""event"",""trial"",""time""
""fullscreenenter"",""1"",""1876""
","
","","","-1","","","21","11206","4965","w","elianto","#f73b6a7A","-1","-1","1","0","[]","0","3","","","11206","147","3","4","lose","no-go","0"
"pit-trial","267","1675746","0.0-153.0","battery-v0.2","","""event"",""trial"",""time""
""fullscreenenter"",""1"",""1876""
","
","
","""event"",""trial"",""time""
""fullscreenenter"",""1"",""1876""
","
","","","694.0999999996275","","","21","11206","4965","d","elianto","#3366ff99","-1"," ","0","+10","[1544.0999999996275]","1","3","","","11206","148","1","2","win","no-go","1"
"pit-trial","268","1679280","0.0-154.0","battery-v0.2","","""event"",""trial"",""time""
""fullscreenenter"",""1"",""1876""
","
","
","""event"",""trial"",""time""
