"trial_type","trial_index","time_elapsed","internal_node_id","task_version","subject_id","interactions","blur_events","focus_events","fullscreenenter_events","fullscreenexit_events","success","view_history","rt","responses","num_errors","age","subject","participantId","rune","rune_set","hex","correct","choice","accuracy","outcome","keys","total_keys","block","practice","value","sub","trial","stimulus","robot","valence","action","sham"
"pavlovia","0","49","0.0-0.0","battery-v0.2","","""event"",""trial"",""time""
""fullscreenenter"",""1"",""4293""
","
","
","""event"",""trial"",""time""
""fullscreenenter"",""1"",""4293""
","
","","","","","","","","","","","","","","","","","","","","","","","","","","",""
"fullscreen","1","5251","0.0-1.0","battery-v0.2","","""event"",""trial"",""time""
""fullscreenenter"",""1"",""4293""
","
","
","""event"",""trial"",""time""
""fullscreenenter"",""1"",""4293""
","
","true","","","","","","","","","","","","","","","","","","","","","","","","","",""
"pit-instructions","2","14416","0.0-2.0-0.0","battery-v0.2","","""event"",""trial"",""time""
""fullscreenenter"",""1"",""4293""
","
","
","""event"",""trial"",""time""
""fullscreenenter"",""1"",""4293""
","
","","[{""page_index"":0,""viewing_time"":9127.80000000447}]","9130.5","","","","","","","","","","","","","","","","","","","","","","","",""
"pit-comprehension","3","18316","0.0-2.0-1.0-0.0","battery-v0.2","","""event"",""trial"",""time""
""fullscreenenter"",""1"",""4293""
","
","
","""event"",""trial"",""time""
""fullscreenenter"",""1"",""4293""
","
","","","3869.7999999970198","[""shark""]","0","12","3082","2030","","","","","","","","","","","","","","","","","","",""
"pit-instructions","4","22707","0.0-2.0-1.0-1.0","battery-v0.2","","""event"",""trial"",""time""
""fullscreenenter"",""1"",""4293""
","
","
","""event"",""trial"",""time""
""fullscreenenter"",""1"",""4293""
","
","","[{""page_index"":0,""viewing_time"":4287.20000000298}]","4289.79999999702","","","","","","","","","","","","","","","","","","","","","","","",""
"pit-comprehension","5","28127","0.0-2.0-2.0-0.0","battery-v0.2","","""event"",""trial"",""time""
""fullscreenenter"",""1"",""4293""
","
","
","""event"",""trial"",""time""
""fullscreenenter"",""1"",""4293""
","
","","","5393.60000000149","[""tiger""]","0","12","3082","2030","","","","","","","","","","","","","","","","","","",""
"pit-instructions","6","30259","0.0-2.0-2.0-1.0","battery-v0.2","","""event"",""trial"",""time""
""fullscreenenter"",""1"",""4293""
","
","
","""event"",""trial"",""time""
""fullscreenenter"",""1"",""4293""
","
","","[{""page_index"":0,""viewing_time"":2113.2999999970198}]","2114.39999999851","","","","","","","","","","","","","","","","","","","","","","","",""
"pit-instructions","7","139765","0.0-2.0-3.0","battery-v0.2","","""event"",""trial"",""time""
""fullscreenenter"",""1"",""4293""
","
","
","""event"",""trial"",""time""
""fullscreenenter"",""1"",""4293""
","
","","[{""page_index"":0,""viewing_time"":8919.20000000298},{""page_index"":1,""viewing_time"":6688.70000000298},{""page_index"":2,""viewing_time"":10575.89999999851},{""page_index"":3,""viewing_time"":6553.39999999851},{""page_index"":4,""viewing_time"":6146.20000000298},{""page_index"":5,""viewing_time"":5628.19999999553},{""page_index"":6,""viewing_time"":7761.20000000298},{""page_index"":7,""viewing_time"":6529.19999999553},{""page_index"":8,""viewing_time"":6949.4000000059605},{""page_index"":9,""viewing_time"":8477.79999999702},{""page_index"":10,""viewing_time"":8737.10000000149},{""page_index"":11,""viewing_time"":7739.10000000149},{""page_index"":12,""viewing_time"":13377.89999999851},{""page_index"":13,""viewing_time"":5406.39999999851}]","109490.60000000149","","","","","","","","","","","","","","","","","","","","","","","",""
"pit-trial","8","143329","0.0-2.0-4.0-0.0","battery-v0.2","","""event"",""trial"",""time""
""fullscreenenter"",""1"",""4293""
","
","
","""event"",""trial"",""time""
""fullscreenenter"",""1"",""4293""
","
","","","693.2999999970198","","","12","3082","2030","&#9784;","elianto","#FFFFF080"," "," ","1","&#10004","[1545.6000000014901]","1","0","0","","","","","","","",""
"pit-trial","9","146884","0.0-2.0-4.1-0.1","battery-v0.2","","""event"",""trial"",""time""
""fullscreenenter"",""1"",""4293""
","
","
","""event"",""trial"",""time""
""fullscreenenter"",""1"",""4293""
","
","","","694.6000000014901","","","12","3082","2030","&#9784;","elianto","#FFFFF080"," "," ","1","&#10004","[1544.5999999940395]","1","0","0","","","","","","","",""
"pit-trial","10","150248","0.0-2.0-4.2-0.2","battery-v0.2","","""event"",""trial"",""time""
""fullscreenenter"",""1"",""4293""
","
","
","""event"",""trial"",""time""
""fullscreenenter"",""1"",""4293""
","
","","","498.1000000014901","","","12","3082","2030","&#9784;","elianto","#FFFFF080"," "," ","1","&#10004","[1350.0999999940395,2314]","2","0","0","","","","","","","",""
"pit-trial","11","153678","0.0-2.0-4.3-0.3","battery-v0.2","","""event"",""trial"",""time""
""fullscreenenter"",""1"",""4293""
","
","
","""event"",""trial"",""time""
""fullscreenenter"",""1"",""4293""
","
","","","561.5","","","12","3082","2030","&#9784;","elianto","#FFFFF080"," "," ","1","&#10004","[1411.7000000029802]","1","0","0","","","","","","","",""
"pit-trial","12","158181","0.0-2.0-4.4-0.4","battery-v0.2","","""event"",""trial"",""time""
""fullscreenenter"",""1"",""4293""
","
","
","""event"",""trial"",""time""
""fullscreenenter"",""1"",""4293""
","
","","","1619.7000000029802","","","12","3082","2030","&#9784;","elianto","#FFFFF080"," "," ","1","&#10004","[2481.89999999851]","1","0","0","","","","","","","",""
"pit-instructions","13","180584","0.0-2.0-5.0","battery-v0.2","","""event"",""trial"",""time""
""fullscreenenter"",""1"",""4293""
","
","
","""event"",""trial"",""time""
""fullscreenenter"",""1"",""4293""
","
","","[{""page_index"":0,""viewing_time"":5295.70000000298},{""page_index"":1,""viewing_time"":6121.39999999851},{""page_index"":2,""viewing_time"":5480.80000000447},{""page_index"":3,""viewing_time"":5493.29999999702}]","22392.70000000298","","","","","","","","","","","","","","","","","","","","","","","",""
"pit-trial","14","185447","0.0-2.0-6.0-0.0","battery-v0.2","","""event"",""trial"",""time""
""fullscreenenter"",""1"",""4293""
","
","
","""event"",""trial"",""time""
""fullscreenenter"",""1"",""4293""
","
","","","-1","","","12","3082","2030","&#9854;","elianto","#FFFFF080","-1","-1","1","&#10004","[]","0","0","1","","","","","","","",""
"pit-trial","15","190316","0.0-2.0-6.1-0.1","battery-v0.2","","""event"",""trial"",""time""
""fullscreenenter"",""1"",""4293""
","
","
","""event"",""trial"",""time""
""fullscreenenter"",""1"",""4293""
","
","","","-1","","","12","3082","2030","&#9854;","elianto","#FFFFF080","-1","-1","1","&#10004","[]","0","0","1","","","","","","","",""
"pit-trial","16","195189","0.0-2.0-6.2-0.2","battery-v0.2","","""event"",""trial"",""time""
""fullscreenenter"",""1"",""4293""
","
","
","""event"",""trial"",""time""
""fullscreenenter"",""1"",""4293""
","
","","","-1","","","12","3082","2030","&#9854;","elianto","#FFFFF080","-1","-1","1","&#10004","[4808.80000000447]","1","0","1","","","","","","","",""
"pit-trial","17","200055","0.0-2.0-6.3-0.3","battery-v0.2","","""event"",""trial"",""time""
""fullscreenenter"",""1"",""4293""
","
","
","""event"",""trial"",""time""
""fullscreenenter"",""1"",""4293""
","
","","","-1","","","12","3082","2030","&#9854;","elianto","#FFFFF080","-1","-1","1","&#10004","[]","0","0","1","","","","","","","",""
"pit-trial","18","204925","0.0-2.0-6.4-0.4","battery-v0.2","","""event"",""trial"",""time""
""fullscreenenter"",""1"",""4293""
","
","
","""event"",""trial"",""time""
""fullscreenenter"",""1"",""4293""
","
","","","-1","","","12","3082","2030","&#9854;","elianto","#FFFFF080","-1","-1","1","&#10004","[]","0","0","1","","","","","","","",""
"pit-instructions","19","333176","0.0-2.0-7.0","battery-v0.2","","""event"",""trial"",""time""
""fullscreenenter"",""1"",""4293""
","
","
","""event"",""trial"",""time""
""fullscreenenter"",""1"",""4293""
","
","","[{""page_index"":0,""viewing_time"":6854.69999999553},{""page_index"":1,""viewing_time"":6469.10000000149},{""page_index"":2,""viewing_time"":6419.10000000149},{""page_index"":3,""viewing_time"":7555},{""page_index"":4,""viewing_time"":8061.39999999851},{""page_index"":5,""viewing_time"":6431.10000000149},{""page_index"":6,""viewing_time"":5209.19999999553},{""page_index"":7,""viewing_time"":8223.20000000298},{""page_index"":8,""viewing_time"":6913.60000000149},{""page_index"":9,""viewing_time"":6394.69999999553},{""page_index"":10,""viewing_time"":7318.30000000447},{""page_index"":11,""viewing_time"":6037.69999999553},{""page_index"":12,""viewing_time"":7617},{""page_index"":13,""viewing_time"":7713.9000000059605},{""page_index"":14,""viewing_time"":7754.19999999553},{""page_index"":15,""viewing_time"":7035.10000000149},{""page_index"":16,""viewing_time"":7087.10000000149},{""page_index"":17,""viewing_time"":9134.29999999702}]","128229.69999999553","","","","","","","","","","","","","","","","","","","","","","","",""
"pit-trial","20","336724","0.0-2.0-8.0-0.0","battery-v0.2","","""event"",""trial"",""time""
""fullscreenenter"",""1"",""4293""
","
","
","""event"",""trial"",""time""
""fullscreenenter"",""1"",""4293""
","
","","","687.3999999985099","","","12","3082","2030","&#9776;","elianto","#3366ff99"," "," ","1","+10","[1540.5]","1","0","1","","","","","","","",""
"pit-trial","21","339972","0.0-2.0-8.0-1.0","battery-v0.2","","""event"",""trial"",""time""
""fullscreenenter"",""1"",""4293""
","
","
","""event"",""trial"",""time""
""fullscreenenter"",""1"",""4293""
","
","","","394.20000000298023","","","12","3082","2030","&#9776;","elianto","#3366ff99"," "," ","1","+10","[498.5,1244.2999999970198,2456.2999999970198]","3","0","1","","","","","","","",""
"pit-trial","22","343687","0.0-2.0-8.0-2.0","battery-v0.2","","""event"",""trial"",""time""
""fullscreenenter"",""1"",""4293""
","
","
","""event"",""trial"",""time""
""fullscreenenter"",""1"",""4293""
","
","","","852.6000000014901","","","12","3082","2030","&#9776;","elianto","#3366ff99"," "," ","1","+10","[1709.4000000059605]","1","0","1","","","","","","","",""
"pit-trial","23","346787","0.0-2.0-8.0-3.0","battery-v0.2","","""event"",""trial"",""time""
""fullscreenenter"",""1"",""4293""
","
","
","""event"",""trial"",""time""
""fullscreenenter"",""1"",""4293""
","
","","","240.60000000149012","","","12","3082","2030","&#9776;","elianto","#3366ff99"," "," ","1","0","[1093.6999999955297,1606.5999999940395,2221.0999999940395,2510.7999999970198,2704.2999999970198,2869.0999999940395,3066.39999999851]","7","0","1","","","","","","","",""
"pit-trial","24","350286","0.0-2.0-8.0-4.0","battery-v0.2","","""event"",""trial"",""time""
""fullscreenenter"",""1"",""4293""
","
","
","""event"",""trial"",""time""
""fullscreenenter"",""1"",""4293""
","
","","","635.3999999985099","","","12","3082","2030","&#9776;","elianto","#3366ff99"," "," ","1","+10","[1487.7000000029802]","1","0","1","","","","","","","",""
"call-function","25","350299","0.0-2.0-9.0","battery-v0.2","","""event"",""trial"",""time""
""fullscreenenter"",""1"",""4293""
","
","
","""event"",""trial"",""time""
""fullscreenenter"",""1"",""4293""
","
","","","","","","","","","","","","","","","","","","","","","","","","","","",""
"pit-instructions","26","390758","0.0-2.0-10.0","battery-v0.2","","""event"",""trial"",""time""
""fullscreenenter"",""1"",""4293""
","
","
","""event"",""trial"",""time""
""fullscreenenter"",""1"",""4293""
","
","","[{""page_index"":0,""viewing_time"":6477.20000000298},{""page_index"":1,""viewing_time"":7272.39999999851},{""page_index"":2,""viewing_time"":9506.10000000149},{""page_index"":3,""viewing_time"":9148.5},{""page_index"":4,""viewing_time"":8050}]","40455.20000000298","","","","","","","","","","","","","","","","","","","","","","","",""
"pit-trial","27","394727","0.0-2.0-11.0-0.0","battery-v0.2","","""event"",""trial"",""time""
""fullscreenenter"",""1"",""4293""
","
","
","""event"",""trial"",""time""
""fullscreenenter"",""1"",""4293""
","
","","","1109.8999999985099","","","12","3082","2030","&#9761;","elianto","#3366ff99","-1"," ","0","0","[1960.3999999985099]","1","0","2","","","","","","","",""
"pit-trial","28","397836","0.0-2.0-11.0-1.0","battery-v0.2","","""event"",""trial"",""time""
""fullscreenenter"",""1"",""4293""
","
","
","""event"",""trial"",""time""
""fullscreenenter"",""1"",""4293""
","
","","","236.5","","","12","3082","2030","&#9761;","elianto","#3366ff99","-1"," ","0","0","[1095.3999999985099]","1","0","2","","","","","","","",""
"pit-trial","29","402704","0.0-2.0-11.0-2.0","battery-v0.2","","""event"",""trial"",""time""
""fullscreenenter"",""1"",""4293""
","
","
","""event"",""trial"",""time""
""fullscreenenter"",""1"",""4293""
","
","","","-1","","","12","3082","2030","&#9761;","elianto","#3366ff99","-1","-1","1","+10","[]","0","0","2","","","","","","","",""
"pit-trial","30","407569","0.0-2.0-11.0-3.0","battery-v0.2","","""event"",""trial"",""time""
""fullscreenenter"",""1"",""4293""
","
","
","""event"",""trial"",""time""
""fullscreenenter"",""1"",""4293""
","
","","","-1","","","12","3082","2030","&#9761;","elianto","#3366ff99","-1","-1","1","0","[]","0","0","2","","","","","","","",""
"pit-trial","31","412435","0.0-2.0-11.0-4.0","battery-v0.2","","""event"",""trial"",""time""
""fullscreenenter"",""1"",""4293""
","
","
","""event"",""trial"",""time""
""fullscreenenter"",""1"",""4293""
","
","","","-1","","","12","3082","2030","&#9761;","elianto","#3366ff99","-1","-1","1","+10","[]","0","0","2","","","","","","","",""
"pit-trial","32","417305","0.0-2.0-11.1-0.1","battery-v0.2","","""event"",""trial"",""time""
""fullscreenenter"",""1"",""4293""
","
","
","""event"",""trial"",""time""
""fullscreenenter"",""1"",""4293""
","
","","","-1","","","12","3082","2030","&#9761;","elianto","#3366ff99","-1","-1","1","+10","[]","0","0","2","","","","","","","",""
"pit-trial","33","422170","0.0-2.0-11.1-1.1","battery-v0.2","","""event"",""trial"",""time""
""fullscreenenter"",""1"",""4293""
","
","
","""event"",""trial"",""time""
""fullscreenenter"",""1"",""4293""
","
","","","-1","","","12","3082","2030","&#9761;","elianto","#3366ff99","-1","-1","1","+10","[]","0","0","2","","","","","","","",""
"pit-trial","34","427033","0.0-2.0-11.1-2.1","battery-v0.2","","""event"",""trial"",""time""
""fullscreenenter"",""1"",""4293""
","
","
","""event"",""trial"",""time""
""fullscreenenter"",""1"",""4293""
","
","","","-1","","","12","3082","2030","&#9761;","elianto","#3366ff99","-1","-1","1","+10","[]","0","0","2","","","","","","","",""
"pit-trial","35","431897","0.0-2.0-11.1-3.1","battery-v0.2","","""event"",""trial"",""time""
""fullscreenenter"",""1"",""4293""
","
","
","""event"",""trial"",""time""
""fullscreenenter"",""1"",""4293""
","
","","","-1","","","12","3082","2030","&#9761;","elianto","#3366ff99","-1","-1","1","0","[]","0","0","2","","","","","","","",""
"pit-trial","36","436762","0.0-2.0-11.1-4.1","battery-v0.2","","""event"",""trial"",""time""
""fullscreenenter"",""1"",""4293""
","
","
","""event"",""trial"",""time""
""fullscreenenter"",""1"",""4293""
","
","","","-1","","","12","3082","2030","&#9761;","elianto","#3366ff99","-1","-1","1","+10","[]","0","0","2","","","","","","","",""
"call-function","37","436775","0.0-2.0-12.0","battery-v0.2","","""event"",""trial"",""time""
""fullscreenenter"",""1"",""4293""
","
","
","""event"",""trial"",""time""
""fullscreenenter"",""1"",""4293""
","
","","","","","","","","","","","","","","","","","","","","","","","","","","",""
"pit-instructions","38","476837","0.0-2.0-13.0","battery-v0.2","","""event"",""trial"",""time""
""fullscreenenter"",""1"",""4293""
","
","
","""event"",""trial"",""time""
""fullscreenenter"",""1"",""4293""
","
","","[{""page_index"":0,""viewing_time"":7758.89999999851},{""page_index"":1,""viewing_time"":9951.40000000596},{""page_index"":2,""viewing_time"":3492.89999999851},{""page_index"":3,""viewing_time"":12802.60000000149},{""page_index"":4,""viewing_time"":6049.79999999702}]","40057.5","","","","","","","","","","","","","","","","","","","","","","","",""
"pit-trial","39","480283","0.0-2.0-14.0-0.0","battery-v0.2","","""event"",""trial"",""time""
""fullscreenenter"",""1"",""4293""
","
","
","""event"",""trial"",""time""
""fullscreenenter"",""1"",""4293""
","
","","","581.1000000014901","","","12","3082","2030","&#9826;","elianto","#f73b6a7A","-1"," ","0","-10","[1437.0999999940395]","1","0","3","","","","","","","",""
"pit-trial","40","483466","0.0-2.0-14.0-1.0","battery-v0.2","","""event"",""trial"",""time""
""fullscreenenter"",""1"",""4293""
","
","
","""event"",""trial"",""time""
""fullscreenenter"",""1"",""4293""
","
","","","315.19999999552965","","","12","3082","2030","&#9826;","elianto","#f73b6a7A","-1"," ","0","-10","[1168.8999999985099]","1","0","3","","","","","","","",""
"pit-trial","41","488329","0.0-2.0-14.0-2.0","battery-v0.2","","""event"",""trial"",""time""
""fullscreenenter"",""1"",""4293""
","
","
","""event"",""trial"",""time""
""fullscreenenter"",""1"",""4293""
","
","","","-1","","","12","3082","2030","&#9826;","elianto","#f73b6a7A","-1","-1","1","0","[]","0","0","3","","","","","","","",""
"pit-trial","42","493187","0.0-2.0-14.0-3.0","battery-v0.2","","""event"",""trial"",""time""
""fullscreenenter"",""1"",""4293""
","
","
","""event"",""trial"",""time""
""fullscreenenter"",""1"",""4293""
","
","","","-1","","","12","3082","2030","&#9826;","elianto","#f73b6a7A","-1","-1","1","-10","[]","0","0","3","","","","","","","",""
"pit-trial","43","498061","0.0-2.0-14.0-4.0","battery-v0.2","","""event"",""trial"",""time""
""fullscreenenter"",""1"",""4293""
","
","
","""event"",""trial"",""time""
""fullscreenenter"",""1"",""4293""
","
","","","-1","","","12","3082","2030","&#9826;","elianto","#f73b6a7A","-1","-1","1","0","[]","0","0","3","","","","","","","",""
"pit-trial","44","502926","0.0-2.0-14.1-0.1","battery-v0.2","","""event"",""trial"",""time""
""fullscreenenter"",""1"",""4293""
","
","
","""event"",""trial"",""time""
""fullscreenenter"",""1"",""4293""
","
","","","-1","","","12","3082","2030","&#9826;","elianto","#f73b6a7A","-1","-1","1","0","[]","0","0","3","","","","","","","",""
"pit-trial","45","507791","0.0-2.0-14.1-1.1","battery-v0.2","","""event"",""trial"",""time""
""fullscreenenter"",""1"",""4293""
","
","
","""event"",""trial"",""time""
""fullscreenenter"",""1"",""4293""
","
","","","-1","","","12","3082","2030","&#9826;","elianto","#f73b6a7A","-1","-1","1","0","[]","0","0","3","","","","","","","",""
"pit-trial","46","512653","0.0-2.0-14.1-2.1","battery-v0.2","","""event"",""trial"",""time""
""fullscreenenter"",""1"",""4293""
","
","
","""event"",""trial"",""time""
""fullscreenenter"",""1"",""4293""
","
","","","-1","","","12","3082","2030","&#9826;","elianto","#f73b6a7A","-1","-1","1","0","[]","0","0","3","","","","","","","",""
"pit-trial","47","517514","0.0-2.0-14.1-3.1","battery-v0.2","","""event"",""trial"",""time""
""fullscreenenter"",""1"",""4293""
","
","
","""event"",""trial"",""time""
""fullscreenenter"",""1"",""4293""
","
","","","-1","","","12","3082","2030","&#9826;","elianto","#f73b6a7A","-1","-1","1","-10","[]","0","0","3","","","","","","","",""
"pit-trial","48","522379","0.0-2.0-14.1-4.1","battery-v0.2","","""event"",""trial"",""time""
""fullscreenenter"",""1"",""4293""
","
","
","""event"",""trial"",""time""
""fullscreenenter"",""1"",""4293""
","
","","","-1","","","12","3082","2030","&#9826;","elianto","#f73b6a7A","-1","-1","1","0","[]","0","0","3","","","","","","","",""
"call-function","49","522392","0.0-2.0-15.0","battery-v0.2","","""event"",""trial"",""time""
""fullscreenenter"",""1"",""4293""
","
","
","""event"",""trial"",""time""
""fullscreenenter"",""1"",""4293""
","
","","","","","","","","","","","","","","","","","","","","","","","","","","",""
"pit-instructions","50","559816","0.0-2.0-16.0","battery-v0.2","","""event"",""trial"",""time""
""fullscreenenter"",""1"",""4293""
","
","
","""event"",""trial"",""time""
""fullscreenenter"",""1"",""4293""
","
","","[{""page_index"":0,""viewing_time"":15381.60000000149},{""page_index"":1,""viewing_time"":9199.10000000149},{""page_index"":2,""viewing_time"":6060.5},{""page_index"":3,""viewing_time"":6778.39999999851}]","37420.70000000298","","","","","","","","","","","","","","","","","","","","","","","",""
"pit-trial","51","564677","0.0-2.0-17.0-0.0","battery-v0.2","","""event"",""trial"",""time""
""fullscreenenter"",""1"",""4293""
","
","
","""event"",""trial"",""time""
""fullscreenenter"",""1"",""4293""
","
","","","-1","","","12","3082","2030","&#9789;","elianto","#f73b6a7A"," ","-1","0","-10","[3804.10000000149,4676.29999999702]","2","0","4","","","","","","","",""
"pit-trial","52","567645","0.0-2.0-17.0-1.0","battery-v0.2","","""event"",""trial"",""time""
""fullscreenenter"",""1"",""4293""
","
","
","""event"",""trial"",""time""
""fullscreenenter"",""1"",""4293""
","
","","","103","","","12","3082","2030","&#9789;","elianto","#f73b6a7A"," "," ","1","0","[48.30000000447035,248,425.80000000447035,585.5,777.1000000014901,954.3000000044703,1160.2000000029802,1337.6000000014901,1521.3000000044703,1738.8000000044703,1931.1000000014901,2108.3000000044703,2291.2000000029802,2499.8000000044703,2718.7000000029802,2899]","16","0","4","","","","","","","",""
"pit-trial","53","570569","0.0-2.0-17.0-2.0","battery-v0.2","","""event"",""trial"",""time""
""fullscreenenter"",""1"",""4293""
","
","
","""event"",""trial"",""time""
""fullscreenenter"",""1"",""4293""
","
","","","60.599999994039536","","","12","3082","2030","&#9789;","elianto","#f73b6a7A"," "," ","1","0","[116.5,318.5,534.5,719.7999999970198,912.0999999940395,1117.8999999985099,1306.6999999955297,1507.0999999940395,1704.5,1903.5,2075.2999999970198,2280.5,2471,2669.1999999955297,2881.0999999940395]","15","0","4","","","","","","","",""
"pit-trial","54","573763","0.0-2.0-17.0-3.0","battery-v0.2","","""event"",""trial"",""time""
""fullscreenenter"",""1"",""4293""
","
","
","""event"",""trial"",""time""
""fullscreenenter"",""1"",""4293""
","
","","","319.8999999985099","","","12","3082","2030","&#9789;","elianto","#f73b6a7A"," "," ","1","-10","[157.09999999403954,364.69999999552965,564.5999999940395,778.6999999955297,1175.5,1404.5,1594.2999999970198,1805.8999999985099,2018,2204.0999999940395,2409.0999999940395,2564.39999999851,2722.0999999940395,2886.6999999955297,3084.6999999955297]","15","0","4","","","","","","","",""
"pit-trial","55","576846","0.0-2.0-17.0-4.0","battery-v0.2","","""event"",""trial"",""time""
""fullscreenenter"",""1"",""4293""
","
","
","""event"",""trial"",""time""
""fullscreenenter"",""1"",""4293""
","
","","","207.60000000149012","","","12","3082","2030","&#9789;","elianto","#f73b6a7A"," "," ","1","0","[114.69999999552965,314.8999999985099,476.69999999552965,669.2999999970198,862.8999999985099,1071.8999999985099,1287.1000000014901,1515,1711.1000000014901,1925.1999999955297,2116.7999999970198,2337.10000000149,2522.60000000149,2710.5]","14","0","4","","","","","","","",""
"call-function","56","576857","0.0-2.0-18.0","battery-v0.2","","""event"",""trial"",""time""
""fullscreenenter"",""1"",""4293""
","
","
","""event"",""trial"",""time""
""fullscreenenter"",""1"",""4293""
","
","","","","","","","","","","","","","","","","","","","","","","","","","","",""
"pit-instructions","57","691792","0.0-2.0-19.0","battery-v0.2","","""event"",""trial"",""time""
""fullscreenenter"",""1"",""4293""
","
","
","""event"",""trial"",""time""
""fullscreenenter"",""1"",""4293""
","
","","[{""page_index"":0,""viewing_time"":7684.60000000149},{""page_index"":1,""viewing_time"":10639.79999999702},{""page_index"":2,""viewing_time"":10987.79999999702},{""page_index"":3,""viewing_time"":55424.10000000149},{""page_index"":4,""viewing_time"":7613.89999999851},{""page_index"":5,""viewing_time"":8543},{""page_index"":6,""viewing_time"":4853.10000000149},{""page_index"":7,""viewing_time"":4124.5},{""page_index"":8,""viewing_time"":5060.5}]","114932.39999999851","","","","","","","","","","","","","","","","","","","","","","","",""
"pit-comprehension","58","698053","0.0-2.0-20.0-0.0","battery-v0.2","","""event"",""trial"",""time""
""fullscreenenter"",""1"",""4293""
","
","
","""event"",""trial"",""time""
""fullscreenenter"",""1"",""4293""
","
","","","6245.5","[""SPACE""]","0","12","3082","2030","","","","","","","","","","","","","","","","","","",""
"pit-instructions","59","701817","0.0-2.0-20.0-1.0","battery-v0.2","","""event"",""trial"",""time""
""fullscreenenter"",""1"",""4293""
","
","
","""event"",""trial"",""time""
""fullscreenenter"",""1"",""4293""
","
","","[{""page_index"":0,""viewing_time"":3644.7000000029802}]","3645.60000000149","","","","","","","","","","","","","","","","","","","","","","","",""
"pit-comprehension","60","714599","0.0-2.0-21.0-0.0","battery-v0.2","","""event"",""trial"",""time""
""fullscreenenter"",""1"",""4293""
","
","
","""event"",""trial"",""time""
""fullscreenenter"",""1"",""4293""
","
","","","12753.60000000149","[""10""]","0","12","3082","2030","","","","","","","","","","","","","","","","","","",""
"pit-instructions","61","724350","0.0-2.0-21.0-1.0","battery-v0.2","","""event"",""trial"",""time""
""fullscreenenter"",""1"",""4293""
","
","
","""event"",""trial"",""time""
""fullscreenenter"",""1"",""4293""
","
","","[{""page_index"":0,""viewing_time"":9627.30000000447}]","9628.30000000447","","","","","","","","","","","","","","","","","","","","","","","",""
"pit-comprehension","62","733216","0.0-2.0-22.0-0.0","battery-v0.2","","""event"",""trial"",""time""
""fullscreenenter"",""1"",""4293""
","
","
","""event"",""trial"",""time""
""fullscreenenter"",""1"",""4293""
","
","","","8842.29999999702","[""0""]","0","12","3082","2030","","","","","","","","","","","","","","","","","","",""
"pit-instructions","63","738904","0.0-2.0-22.0-1.0","battery-v0.2","","""event"",""trial"",""time""
""fullscreenenter"",""1"",""4293""
","
","
","""event"",""trial"",""time""
""fullscreenenter"",""1"",""4293""
","
","","[{""page_index"":0,""viewing_time"":5572}]","5573","","","","","","","","","","","","","","","","","","","","","","","",""
"pit-comprehension","64","755489","0.0-2.0-23.0-0.0","battery-v0.2","","""event"",""trial"",""time""
""fullscreenenter"",""1"",""4293""
","
","
","""event"",""trial"",""time""
""fullscreenenter"",""1"",""4293""
","
","","","16567.29999999702","[""True""]","0","12","3082","2030","","","","","","","","","","","","","","","","","","",""
"pit-instructions","65","757594","0.0-2.0-23.0-1.0","battery-v0.2","","""event"",""trial"",""time""
""fullscreenenter"",""1"",""4293""
","
","
","""event"",""trial"",""time""
""fullscreenenter"",""1"",""4293""
","
","","[{""page_index"":0,""viewing_time"":1981.4000000059605}]","1982.4000000059605","","","","","","","","","","","","","","","","","","","","","","","",""
"pit-comprehension","66","765137","0.0-2.0-24.0-0.0","battery-v0.2","","""event"",""trial"",""time""
""fullscreenenter"",""1"",""4293""
","
","
","""event"",""trial"",""time""
""fullscreenenter"",""1"",""4293""
","
","","","7527.79999999702","[""True""]","0","12","3082","2030","","","","","","","","","","","","","","","","","","",""
"pit-instructions","67","776001","0.0-2.0-24.0-1.0","battery-v0.2","","""event"",""trial"",""time""
""fullscreenenter"",""1"",""4293""
","
","
","""event"",""trial"",""time""
""fullscreenenter"",""1"",""4293""
","
","","[{""page_index"":0,""viewing_time"":10744.10000000149}]","10747.5","","","","","","","","","","","","","","","","","","","","","","","",""
"pit-comprehension","68","782508","0.0-2.0-25.0-0.0","battery-v0.2","","""event"",""trial"",""time""
""fullscreenenter"",""1"",""4293""
","
","
","""event"",""trial"",""time""
""fullscreenenter"",""1"",""4293""
","
","","","6491.80000000447","[""True""]","0","12","3082","2030","","","","","","","","","","","","","","","","","","",""
"pit-instructions","69","785037","0.0-2.0-25.0-1.0","battery-v0.2","","""event"",""trial"",""time""
""fullscreenenter"",""1"",""4293""
","
","
","""event"",""trial"",""time""
""fullscreenenter"",""1"",""4293""
","
","","[{""page_index"":0,""viewing_time"":2388.7000000029802}]","2389.60000000149","","","","","","","","","","","","","","","","","","","","","","","",""
"pit-comprehension","70","791755","0.0-2.0-26.0-0.0","battery-v0.2","","""event"",""trial"",""time""
""fullscreenenter"",""1"",""4293""
","
","
","""event"",""trial"",""time""
""fullscreenenter"",""1"",""4293""
","
","","","6700.69999999553","[""False""]","0","12","3082","2030","","","","","","","","","","","","","","","","","","",""
"pit-instructions","71","796704","0.0-2.0-26.0-1.0","battery-v0.2","","""event"",""trial"",""time""
""fullscreenenter"",""1"",""4293""
","
","
","""event"",""trial"",""time""
""fullscreenenter"",""1"",""4293""
","
","","[{""page_index"":0,""viewing_time"":4826.60000000149}]","4827.60000000149","","","","","","","","","","","","","","","","","","","","","","","",""
"pit-instructions","72","816485","0.0-3.0","battery-v0.2","","""event"",""trial"",""time""
""fullscreenenter"",""1"",""4293""
","
","
","""event"",""trial"",""time""
""fullscreenenter"",""1"",""4293""
","
","","[{""page_index"":0,""viewing_time"":6063.70000000298},{""page_index"":1,""viewing_time"":5495.5},{""page_index"":2,""viewing_time"":8211.70000000298}]","19771.90000000596","","","","","","","","","","","","","","","","","","","","","","","",""
"pit-trial","73","819907","0.0-4.0","battery-v0.2","","""event"",""trial"",""time""
""fullscreenenter"",""1"",""4293""
""blur"",""74"",""823644""
","""event"",""trial"",""time""
""blur"",""74"",""823644""
","
","""event"",""trial"",""time""
""fullscreenenter"",""1"",""4293""
","
","","","552","","","12","3082","2030","&#9733;","elianto","#3366ff99","-1"," ","0","0","[1402.4000000059605]","1","1","","","3082","1","2","2","win","no-go","0"
"pit-trial","74","826947","0.0-5.0","battery-v0.2","","""event"",""trial"",""time""
""fullscreenenter"",""1"",""4293""
""blur"",""74"",""823644""
","""event"",""trial"",""time""
""blur"",""74"",""823644""
","
","""event"",""trial"",""time""
""fullscreenenter"",""1"",""4293""
","
","","","1355.3000000044703","","","12","3082","2030","&#9752;","elianto","#f73b6a7A"," "," ","1","0","[2231.7000000029802,2916.2000000029802,3141.39999999851]","3","1","","","3082","2","3","3","lose","go","0"
"pit-trial","75","955670","0.0-6.0","battery-v0.2","","""event"",""trial"",""time""
""fullscreenenter"",""1"",""4293""
""blur"",""74"",""823644""
""focus"",""76"",""959085""
","""event"",""trial"",""time""
""blur"",""74"",""823644""
","""event"",""trial"",""time""
""focus"",""76"",""959085""
","""event"",""trial"",""time""
""fullscreenenter"",""1"",""4293""
","
","","","-1","","","12","3082","2030","&#9728;","elianto","#f73b6a7A","-1","-1","1","0","[]","0","1","","","3082","3","0","4","lose","no-go","0"
"pit-trial","76","960539","0.0-7.0","battery-v0.2","","""event"",""trial"",""time""
""fullscreenenter"",""1"",""4293""
""blur"",""74"",""823644""
""focus"",""76"",""959085""
","""event"",""trial"",""time""
""blur"",""74"",""823644""
","""event"",""trial"",""time""
""focus"",""76"",""959085""
","""event"",""trial"",""time""
""fullscreenenter"",""1"",""4293""
","
","","","-1","","","12","3082","2030","&#9730;","elianto","#3366ff99"," ","-1","0","+10","[]","0","1","","","3082","4","1","1","win","go","1"
"pit-trial","77","964810","0.0-8.0","battery-v0.2","","""event"",""trial"",""time""
""fullscreenenter"",""1"",""4293""
""blur"",""74"",""823644""
""focus"",""76"",""959085""
","""event"",""trial"",""time""
""blur"",""74"",""823644""
","""event"",""trial"",""time""
""focus"",""76"",""959085""
","""event"",""trial"",""time""
""fullscreenenter"",""1"",""4293""
","
","","","1326.3000000044703","","","12","3082","2030","&#9752;","elianto","#f73b6a7A"," "," ","1","0","[2159.10000000149]","1","1","","","3082","5","3","3","lose","go","0"
"pit-trial","78","968565","0.0-9.0","battery-v0.2","","""event"",""trial"",""time""
""fullscreenenter"",""1"",""4293""
""blur"",""74"",""823644""
""focus"",""76"",""959085""
","""event"",""trial"",""time""
""blur"",""74"",""823644""
","""event"",""trial"",""time""
""focus"",""76"",""959085""
","""event"",""trial"",""time""
""fullscreenenter"",""1"",""4293""
","
","","","895.7000000029802","","","12","3082","2030","&#9730;","elianto","#3366ff99"," "," ","1","+10","[1746.8999999985099]","1","1","","","3082","6","1","1","win","go","0"
"pit-trial","79","972660","0.0-10.0","battery-v0.2","","""event"",""trial"",""time""
""fullscreenenter"",""1"",""4293""
""blur"",""74"",""823644""
""focus"",""76"",""959085""
","""event"",""trial"",""time""
""blur"",""74"",""823644""
","""event"",""trial"",""time""
""focus"",""76"",""959085""
","""event"",""trial"",""time""
""fullscreenenter"",""1"",""4293""
","
","","","1237.7000000029802","","","12","3082","2030","&#9728;","elianto","#f73b6a7A","-1"," ","0","-10","[2089.6999999955297]","1","1","","","3082","7","0","4","lose","no-go","0"
"pit-trial","80","976239","0.0-11.0","battery-v0.2","","""event"",""trial"",""time""
""fullscreenenter"",""1"",""4293""
""blur"",""74"",""823644""
""focus"",""76"",""959085""
","""event"",""trial"",""time""
""blur"",""74"",""823644""
","""event"",""trial"",""time""
""focus"",""76"",""959085""
","""event"",""trial"",""time""
""fullscreenenter"",""1"",""4293""
","
","","","719.8999999985099","","","12","3082","2030","&#9733;","elianto","#3366ff99","-1"," ","0","+10","[1573.3000000044703]","1","1","","","3082","8","2","2","win","no-go","1"
"pit-trial","81","981098","0.0-12.0","battery-v0.2","","""event"",""trial"",""time""
""fullscreenenter"",""1"",""4293""
""blur"",""74"",""823644""
""focus"",""76"",""959085""
","""event"",""trial"",""time""
""blur"",""74"",""823644""
","""event"",""trial"",""time""
""focus"",""76"",""959085""
","""event"",""trial"",""time""
""fullscreenenter"",""1"",""4293""
","
","","","-1","","","12","3082","2030","&#9728;","elianto","#f73b6a7A","-1","-1","1","0","[]","0","1","","","3082","9","0","4","lose","no-go","0"
"pit-trial","82","984570","0.0-13.0","battery-v0.2","","""event"",""trial"",""time""
""fullscreenenter"",""1"",""4293""
""blur"",""74"",""823644""
""focus"",""76"",""959085""
","""event"",""trial"",""time""
""blur"",""74"",""823644""
","""event"",""trial"",""time""
""focus"",""76"",""959085""
","""event"",""trial"",""time""
""fullscreenenter"",""1"",""4293""
","
","","","614.8999999985099","","","12","3082","2030","&#9730;","elianto","#3366ff99"," "," ","1","+10","[1466.6000000014901]","1","1","","","3082","10","1","1","win","go","0"
"pit-trial","83","988506","0.0-14.0","battery-v0.2","","""event"",""trial"",""time""
""fullscreenenter"",""1"",""4293""
""blur"",""74"",""823644""
""focus"",""76"",""959085""
","""event"",""trial"",""time""
""blur"",""74"",""823644""
","""event"",""trial"",""time""
""focus"",""76"",""959085""
","""event"",""trial"",""time""
""fullscreenenter"",""1"",""4293""
","
","","","1071.7000000029802","","","12","3082","2030","&#9733;","elianto","#3366ff99","-1"," ","0","0","[1928.7000000029802]","1","1","","","3082","11","2","2","win","no-go","0"
"pit-trial","84","991975","0.0-15.0","battery-v0.2","","""event"",""trial"",""time""
""fullscreenenter"",""1"",""4293""
""blur"",""74"",""823644""
""focus"",""76"",""959085""
","""event"",""trial"",""time""
""blur"",""74"",""823644""
","""event"",""trial"",""time""
""focus"",""76"",""959085""
","""event"",""trial"",""time""
""fullscreenenter"",""1"",""4293""
","
","","","610.3999999985099","","","12","3082","2030","&#9752;","elianto","#f73b6a7A"," "," ","1","0","[1462.6999999955297]","1","1","","","3082","12","3","3","lose","go","0"
"pit-trial","85","995049","0.0-16.0","battery-v0.2","","""event"",""trial"",""time""
""fullscreenenter"",""1"",""4293""
""blur"",""74"",""823644""
""focus"",""76"",""959085""
","""event"",""trial"",""time""
""blur"",""74"",""823644""
","""event"",""trial"",""time""
""focus"",""76"",""959085""
","""event"",""trial"",""time""
""fullscreenenter"",""1"",""4293""
","
","","","214.29999999701977","","","12","3082","2030","&#9752;","elianto","#f73b6a7A"," "," ","1","0","[1066.6000000014901]","1","1","","","3082","13","3","3","lose","go","0"
"pit-trial","86","999161","0.0-17.0","battery-v0.2","","""event"",""trial"",""time""
""fullscreenenter"",""1"",""4293""
""blur"",""74"",""823644""
""focus"",""76"",""959085""
","""event"",""trial"",""time""
""blur"",""74"",""823644""
","""event"",""trial"",""time""
""focus"",""76"",""959085""
","""event"",""trial"",""time""
""fullscreenenter"",""1"",""4293""
","
","","","1254.2000000029802","","","12","3082","2030","&#9728;","elianto","#f73b6a7A","-1"," ","0","0","[2105.10000000149]","1","1","","","3082","14","0","4","lose","no-go","1"
"pit-trial","87","1002934","0.0-18.0","battery-v0.2","","""event"",""trial"",""time""
""fullscreenenter"",""1"",""4293""
""blur"",""74"",""823644""
""focus"",""76"",""959085""
","""event"",""trial"",""time""
""blur"",""74"",""823644""
","""event"",""trial"",""time""
""focus"",""76"",""959085""
","""event"",""trial"",""time""
""fullscreenenter"",""1"",""4293""
","
","","","916.7999999970198","","","12","3082","2030","&#9733;","elianto","#3366ff99","-1"," ","0","0","[1767.2999999970198]","1","1","","","3082","15","2","2","win","no-go","0"
"pit-trial","88","1006232","0.0-19.0","battery-v0.2","","""event"",""trial"",""time""
""fullscreenenter"",""1"",""4293""
""blur"",""74"",""823644""
""focus"",""76"",""959085""
","""event"",""trial"",""time""
""blur"",""74"",""823644""
","""event"",""trial"",""time""
""focus"",""76"",""959085""
","""event"",""trial"",""time""
""fullscreenenter"",""1"",""4293""
","
","","","432.1000000014901","","","12","3082","2030","&#9730;","elianto","#3366ff99"," "," ","1","0","[1291.2000000029802]","1","1","","","3082","16","1","1","win","go","1"
"pit-trial","89","1010082","0.0-20.0","battery-v0.2","","""event"",""trial"",""time""
""fullscreenenter"",""1"",""4293""
""blur"",""74"",""823644""
""focus"",""76"",""959085""
","""event"",""trial"",""time""
""blur"",""74"",""823644""
","""event"",""trial"",""time""
""focus"",""76"",""959085""
","""event"",""trial"",""time""
""fullscreenenter"",""1"",""4293""
","
","","","991","","","12","3082","2030","&#9733;","elianto","#3366ff99","-1"," ","0","0","[1841.9000000059605]","1","1","","","3082","17","2","2","win","no-go","0"
"pit-trial","90","1012986","0.0-21.0","battery-v0.2","","""event"",""trial"",""time""
""fullscreenenter"",""1"",""4293""
""blur"",""74"",""823644""
""focus"",""76"",""959085""
","""event"",""trial"",""time""
""blur"",""74"",""823644""
","""event"",""trial"",""time""
""focus"",""76"",""959085""
","""event"",""trial"",""time""
""fullscreenenter"",""1"",""4293""
","
","","","45.5","","","12","3082","2030","&#9730;","elianto","#3366ff99"," "," ","1","+10","[896]","1","1","","","3082","18","1","1","win","go","0"
"pit-trial","91","1016076","0.0-22.0","battery-v0.2","","""event"",""trial"",""time""
""fullscreenenter"",""1"",""4293""
""blur"",""74"",""823644""
""focus"",""76"",""959085""
","""event"",""trial"",""time""
""blur"",""74"",""823644""
","""event"",""trial"",""time""
""focus"",""76"",""959085""
","""event"",""trial"",""time""
""fullscreenenter"",""1"",""4293""
","
","","","224.19999999552965","","","12","3082","2030","&#9728;","elianto","#f73b6a7A","-1"," ","0","-10","[446.1000000014901,1081.8999999985099,2938.60000000149]","3","1","","","3082","19","0","4","lose","no-go","0"
"pit-trial","92","1019438","0.0-23.0","battery-v0.2","","""event"",""trial"",""time""
""fullscreenenter"",""1"",""4293""
""blur"",""74"",""823644""
""focus"",""76"",""959085""
","""event"",""trial"",""time""
""blur"",""74"",""823644""
","""event"",""trial"",""time""
""focus"",""76"",""959085""
","""event"",""trial"",""time""
""fullscreenenter"",""1"",""4293""
","
","","","504.59999999403954","","","12","3082","2030","&#9752;","elianto","#f73b6a7A"," "," ","1","0","[1357.2999999970198,2189.10000000149]","2","1","","","3082","20","3","3","lose","go","0"
"pit-instructions","93","1105266","0.0-24.0","battery-v0.2","","""event"",""trial"",""time""
""fullscreenenter"",""1"",""4293""
""blur"",""74"",""823644""
""focus"",""76"",""959085""
","""event"",""trial"",""time""
""blur"",""74"",""823644""
","""event"",""trial"",""time""
""focus"",""76"",""959085""
","""event"",""trial"",""time""
""fullscreenenter"",""1"",""4293""
","
","","[{""page_index"":0,""viewing_time"":77736.89999999851},{""page_index"":1,""viewing_time"":8086.89999999851}]","85824.89999999851","","","","","","","","","","","","","","","","","","","","","","","",""
"pit-trial","94","1109207","0.0-25.0","battery-v0.2","","""event"",""trial"",""time""
""fullscreenenter"",""1"",""4293""
""blur"",""74"",""823644""
""focus"",""76"",""959085""
","""event"",""trial"",""time""
""blur"",""74"",""823644""
","""event"",""trial"",""time""
""focus"",""76"",""959085""
","""event"",""trial"",""time""
""fullscreenenter"",""1"",""4293""
","
","","","1065","","","12","3082","2030","w","elianto","#f73b6a7A","-1"," ","0","-10","[1924]","1","2","","","3082","21","3","4","lose","no-go","0"
"pit-trial","95","1113511","0.0-26.0","battery-v0.2","","""event"",""trial"",""time""
""fullscreenenter"",""1"",""4293""
""blur"",""74"",""823644""
""focus"",""76"",""959085""
","""event"",""trial"",""time""
""blur"",""74"",""823644""
","""event"",""trial"",""time""
""focus"",""76"",""959085""
","""event"",""trial"",""time""
""fullscreenenter"",""1"",""4293""
","
","","","1436.2000000029802","","","12","3082","2030","e","elianto","#f73b6a7A"," "," ","1","0","[2290.5999999940395]","1","2","","","3082","22","2","3","lose","go","0"
"pit-trial","96","1117759","0.0-27.0","battery-v0.2","","""event"",""trial"",""time""
""fullscreenenter"",""1"",""4293""
""blur"",""74"",""823644""
""focus"",""76"",""959085""
","""event"",""trial"",""time""
""blur"",""74"",""823644""
","""event"",""trial"",""time""
""focus"",""76"",""959085""
","""event"",""trial"",""time""
""fullscreenenter"",""1"",""4293""
","
","","","1379.7000000029802","","","12","3082","2030","j","elianto","#f73b6a7A"," "," ","1","-10","[2231.10000000149]","1","2","","","3082","23","0","3","lose","go","1"
"pit-trial","97","1121677","0.0-28.0","battery-v0.2","","""event"",""trial"",""time""
""fullscreenenter"",""1"",""4293""
""blur"",""74"",""823644""
""focus"",""76"",""959085""
","""event"",""trial"",""time""
""blur"",""74"",""823644""
","""event"",""trial"",""time""
""focus"",""76"",""959085""
","""event"",""trial"",""time""
""fullscreenenter"",""1"",""4293""
","
","","","1049.7000000029802","","","12","3082","2030","d","elianto","#3366ff99","-1"," ","0","0","[1900.8999999985099]","1","2","","","3082","24","1","2","win","no-go","0"
"pit-trial","98","1125263","0.0-29.0","battery-v0.2","","""event"",""trial"",""time""
""fullscreenenter"",""1"",""4293""
""blur"",""74"",""823644""
""focus"",""76"",""959085""
","""event"",""trial"",""time""
""blur"",""74"",""823644""
","""event"",""trial"",""time""
""focus"",""76"",""959085""
","""event"",""trial"",""time""
""fullscreenenter"",""1"",""4293""
","
","","","720","","","12","3082","2030","e","elianto","#f73b6a7A"," "," ","1","-10","[1571]","1","2","","","3082","25","2","3","lose","go","1"
"pit-trial","99","1130131","0.0-30.0","battery-v0.2","","""event"",""trial"",""time""
""fullscreenenter"",""1"",""4293""
""blur"",""74"",""823644""
""focus"",""76"",""959085""
","""event"",""trial"",""time""
""blur"",""74"",""823644""
","""event"",""trial"",""time""
""focus"",""76"",""959085""
","""event"",""trial"",""time""
""fullscreenenter"",""1"",""4293""
","
","","","-1","","","12","3082","2030","w","elianto","#f73b6a7A","-1","-1","1","0","[]","0","2","","","3082","26","3","4","lose","no-go","0"
"pit-trial","100","1134725","0.0-31.0","battery-v0.2","","""event"",""trial"",""time""
""fullscreenenter"",""1"",""4293""
""blur"",""74"",""823644""
""focus"",""76"",""959085""
","""event"",""trial"",""time""
""blur"",""74"",""823644""
","""event"",""trial"",""time""
""focus"",""76"",""959085""
","""event"",""trial"",""time""
""fullscreenenter"",""1"",""4293""
","
","","","1727.5","","","12","3082","2030","d","elianto","#3366ff99","-1"," ","0","0","[2579.1999999955297]","1","2","","","3082","27","1","2","win","no-go","0"
"pit-trial","101","1139591","0.0-32.0","battery-v0.2","","""event"",""trial"",""time""
""fullscreenenter"",""1"",""4293""
""blur"",""74"",""823644""
""focus"",""76"",""959085""
","""event"",""trial"",""time""
""blur"",""74"",""823644""
","""event"",""trial"",""time""
""focus"",""76"",""959085""
","""event"",""trial"",""time""
""fullscreenenter"",""1"",""4293""
","
","","","-1","","","12","3082","2030","j","elianto","#f73b6a7A"," ","-1","0","0","[]","0","2","","","3082","28","0","3","lose","go","1"
"pit-trial","102","1144458","0.0-33.0","battery-v0.2","","""event"",""trial"",""time""
""fullscreenenter"",""1"",""4293""
""blur"",""74"",""823644""
""focus"",""76"",""959085""
","""event"",""trial"",""time""
""blur"",""74"",""823644""
","""event"",""trial"",""time""
""focus"",""76"",""959085""
","""event"",""trial"",""time""
""fullscreenenter"",""1"",""4293""
","
","","","-1","","","12","3082","2030","j","elianto","#f73b6a7A"," ","-1","0","-10","[]","0","2","","","3082","29","0","3","lose","go","0"
"pit-trial","103","1149319","0.0-34.0","battery-v0.2","","""event"",""trial"",""time""
""fullscreenenter"",""1"",""4293""
""blur"",""74"",""823644""
""focus"",""76"",""959085""
","""event"",""trial"",""time""
""blur"",""74"",""823644""
","""event"",""trial"",""time""
""focus"",""76"",""959085""
","""event"",""trial"",""time""
""fullscreenenter"",""1"",""4293""
","
","","","1993.7999999970198","","","12","3082","2030","d","elianto","#3366ff99","-1"," ","0","0","[2844.89999999851]","1","2","","","3082","30","1","2","win","no-go","0"
"pit-trial","104","1154188","0.0-35.0","battery-v0.2","","""event"",""trial"",""time""
""fullscreenenter"",""1"",""4293""
""blur"",""74"",""823644""
""focus"",""76"",""959085""
","""event"",""trial"",""time""
""blur"",""74"",""823644""
","""event"",""trial"",""time""
""focus"",""76"",""959085""
","""event"",""trial"",""time""
""fullscreenenter"",""1"",""4293""
","
","","","-1","","","12","3082","2030","w","elianto","#f73b6a7A","-1","-1","1","0","[]","0","2","","","3082","31","3","4","lose","no-go","0"
"pit-trial","105","1159058","0.0-36.0","battery-v0.2","","""event"",""trial"",""time""
""fullscreenenter"",""1"",""4293""
""blur"",""74"",""823644""
""focus"",""76"",""959085""
","""event"",""trial"",""time""
""blur"",""74"",""823644""
","""event"",""trial"",""time""
""focus"",""76"",""959085""
","""event"",""trial"",""time""
""fullscreenenter"",""1"",""4293""
","
","","","-1","","","12","3082","2030","e","elianto","#f73b6a7A"," ","-1","0","-10","[]","0","2","","","3082","32","2","3","lose","go","0"
"pit-trial","106","1163524","0.0-37.0","battery-v0.2","","""event"",""trial"",""time""
""fullscreenenter"",""1"",""4293""
""blur"",""74"",""823644""
""focus"",""76"",""959085""
","""event"",""trial"",""time""
""blur"",""74"",""823644""
","""event"",""trial"",""time""
""focus"",""76"",""959085""
","""event"",""trial"",""time""
""fullscreenenter"",""1"",""4293""
","
","","","1599.7000000029802","","","12","3082","2030","e","elianto","#f73b6a7A"," "," ","1","-10","[2450.7999999970198]","1","2","","","3082","33","2","3","lose","go","1"
"pit-trial","107","1168387","0.0-38.0","battery-v0.2","","""event"",""trial"",""time""
""fullscreenenter"",""1"",""4293""
""blur"",""74"",""823644""
""focus"",""76"",""959085""
","""event"",""trial"",""time""
""blur"",""74"",""823644""
","""event"",""trial"",""time""
""focus"",""76"",""959085""
","""event"",""trial"",""time""
""fullscreenenter"",""1"",""4293""
","
","","","-1","","","12","3082","2030","d","elianto","#3366ff99","-1","-1","1","0","[]","0","2","","","3082","34","1","2","win","no-go","1"
"pit-trial","108","1173256","0.0-39.0","battery-v0.2","","""event"",""trial"",""time""
""fullscreenenter"",""1"",""4293""
""blur"",""74"",""823644""
""focus"",""76"",""959085""
","""event"",""trial"",""time""
""blur"",""74"",""823644""
","""event"",""trial"",""time""
""focus"",""76"",""959085""
","""event"",""trial"",""time""
""fullscreenenter"",""1"",""4293""
","
","","","-1","","","12","3082","2030","j","elianto","#f73b6a7A"," ","-1","0","-10","[]","0","2","","","3082","35","0","3","lose","go","0"
"pit-trial","109","1178125","0.0-40.0","battery-v0.2","","""event"",""trial"",""time""
""fullscreenenter"",""1"",""4293""
""blur"",""74"",""823644""
""focus"",""76"",""959085""
","""event"",""trial"",""time""
""blur"",""74"",""823644""
","""event"",""trial"",""time""
""focus"",""76"",""959085""
","""event"",""trial"",""time""
""fullscreenenter"",""1"",""4293""
","
","","","-1","","","12","3082","2030","w","elianto","#f73b6a7A","-1","-1","1","0","[]","0","2","","","3082","36","3","4","lose","no-go","0"
"pit-trial","110","1182993","0.0-41.0","battery-v0.2","","""event"",""trial"",""time""
""fullscreenenter"",""1"",""4293""
""blur"",""74"",""823644""
""focus"",""76"",""959085""
","""event"",""trial"",""time""
""blur"",""74"",""823644""
","""event"",""trial"",""time""
""focus"",""76"",""959085""
","""event"",""trial"",""time""
""fullscreenenter"",""1"",""4293""
","
","","","-1","","","12","3082","2030","d","elianto","#3366ff99","-1","-1","1","0","[]","0","2","","","3082","37","1","2","win","no-go","1"
"pit-trial","111","1187864","0.0-42.0","battery-v0.2","","""event"",""trial"",""time""
""fullscreenenter"",""1"",""4293""
""blur"",""74"",""823644""
""focus"",""76"",""959085""
","""event"",""trial"",""time""
""blur"",""74"",""823644""
","""event"",""trial"",""time""
""focus"",""76"",""959085""
","""event"",""trial"",""time""
""fullscreenenter"",""1"",""4293""
","
","","","-1","","","12","3082","2030","j","elianto","#f73b6a7A"," ","-1","0","0","[]","0","2","","","3082","38","0","3","lose","go","1"
"pit-trial","112","1192734","0.0-43.0","battery-v0.2","","""event"",""trial"",""time""
""fullscreenenter"",""1"",""4293""
""blur"",""74"",""823644""
""focus"",""76"",""959085""
","""event"",""trial"",""time""
""blur"",""74"",""823644""
","""event"",""trial"",""time""
""focus"",""76"",""959085""
","""event"",""trial"",""time""
""fullscreenenter"",""1"",""4293""
","
","","","-1","","","12","3082","2030","e","elianto","#f73b6a7A"," ","-1","0","-10","[]","0","2","","","3082","39","2","3","lose","go","0"
"pit-trial","113","1197604","0.0-44.0","battery-v0.2","","""event"",""trial"",""time""
""fullscreenenter"",""1"",""4293""
""blur"",""74"",""823644""
""focus"",""76"",""959085""
","""event"",""trial"",""time""
""blur"",""74"",""823644""
","""event"",""trial"",""time""
""focus"",""76"",""959085""
","""event"",""trial"",""time""
""fullscreenenter"",""1"",""4293""
","
","","","-1","","","12","3082","2030","w","elianto","#f73b6a7A","-1","-1","1","0","[]","0","2","","","3082","40","3","4","lose","no-go","0"
"pit-trial","114","1202474","0.0-45.0","battery-v0.2","","""event"",""trial"",""time""
""fullscreenenter"",""1"",""4293""
""blur"",""74"",""823644""
""focus"",""76"",""959085""
","""event"",""trial"",""time""
""blur"",""74"",""823644""
","""event"",""trial"",""time""
""focus"",""76"",""959085""
","""event"",""trial"",""time""
""fullscreenenter"",""1"",""4293""
","
","","","-1","","","12","3082","2030","w","elianto","#f73b6a7A","-1","-1","1","0","[]","0","2","","","3082","41","3","4","lose","no-go","0"
"pit-trial","115","1207344","0.0-46.0","battery-v0.2","","""event"",""trial"",""time""
""fullscreenenter"",""1"",""4293""
""blur"",""74"",""823644""
""focus"",""76"",""959085""
","""event"",""trial"",""time""
""blur"",""74"",""823644""
","""event"",""trial"",""time""
""focus"",""76"",""959085""
","""event"",""trial"",""time""
""fullscreenenter"",""1"",""4293""
","
","","","-1","","","12","3082","2030","d","elianto","#3366ff99","-1","-1","1","+10","[]","0","2","","","3082","42","1","2","win","no-go","0"
"pit-trial","116","1212212","0.0-47.0","battery-v0.2","","""event"",""trial"",""time""
""fullscreenenter"",""1"",""4293""
""blur"",""74"",""823644""
""focus"",""76"",""959085""
","""event"",""trial"",""time""
""blur"",""74"",""823644""
","""event"",""trial"",""time""
""focus"",""76"",""959085""
","""event"",""trial"",""time""
""fullscreenenter"",""1"",""4293""
","
","","","-1","","","12","3082","2030","e","elianto","#f73b6a7A"," ","-1","0","0","[]","0","2","","","3082","43","2","3","lose","go","1"
"pit-trial","117","1217078","0.0-48.0","battery-v0.2","","""event"",""trial"",""time""
""fullscreenenter"",""1"",""4293""
""blur"",""74"",""823644""
""focus"",""76"",""959085""
","""event"",""trial"",""time""
""blur"",""74"",""823644""
","""event"",""trial"",""time""
""focus"",""76"",""959085""
","""event"",""trial"",""time""
""fullscreenenter"",""1"",""4293""
","
","","","-1","","","12","3082","2030","j","elianto","#f73b6a7A"," ","-1","0","-10","[]","0","2","","","3082","44","0","3","lose","go","0"
"pit-trial","118","1221942","0.0-49.0","battery-v0.2","","""event"",""trial"",""time""
""fullscreenenter"",""1"",""4293""
""blur"",""74"",""823644""
""focus"",""76"",""959085""
","""event"",""trial"",""time""
""blur"",""74"",""823644""
","""event"",""trial"",""time""
""focus"",""76"",""959085""
","""event"",""trial"",""time""
""fullscreenenter"",""1"",""4293""
","
","","","-1","","","12","3082","2030","d","elianto","#3366ff99","-1","-1","1","+10","[]","0","2","","","3082","45","1","2","win","no-go","0"
"pit-trial","119","1226807","0.0-50.0","battery-v0.2","","""event"",""trial"",""time""
""fullscreenenter"",""1"",""4293""
""blur"",""74"",""823644""
""focus"",""76"",""959085""
","""event"",""trial"",""time""
""blur"",""74"",""823644""
","""event"",""trial"",""time""
""focus"",""76"",""959085""
","""event"",""trial"",""time""
""fullscreenenter"",""1"",""4293""
","
","","","-1","","","12","3082","2030","e","elianto","#f73b6a7A"," ","-1","0","-10","[]","0","2","","","3082","46","2","3","lose","go","0"
"pit-trial","120","1231672","0.0-51.0","battery-v0.2","","""event"",""trial"",""time""
""fullscreenenter"",""1"",""4293""
""blur"",""74"",""823644""
""focus"",""76"",""959085""
","""event"",""trial"",""time""
""blur"",""74"",""823644""
","""event"",""trial"",""time""
""focus"",""76"",""959085""
","""event"",""trial"",""time""
""fullscreenenter"",""1"",""4293""
","
","","","-1","","","12","3082","2030","j","elianto","#f73b6a7A"," ","-1","0","-10","[]","0","2","","","3082","47","0","3","lose","go","0"
"pit-trial","121","1236536","0.0-52.0","battery-v0.2","","""event"",""trial"",""time""
""fullscreenenter"",""1"",""4293""
""blur"",""74"",""823644""
""focus"",""76"",""959085""
","""event"",""trial"",""time""
""blur"",""74"",""823644""
","""event"",""trial"",""time""
""focus"",""76"",""959085""
","""event"",""trial"",""time""
""fullscreenenter"",""1"",""4293""
","
","","","-1","","","12","3082","2030","w","elianto","#f73b6a7A","-1","-1","1","0","[]","0","2","","","3082","48","3","4","lose","no-go","0"
"pit-trial","122","1241396","0.0-53.0","battery-v0.2","","""event"",""trial"",""time""
""fullscreenenter"",""1"",""4293""
""blur"",""74"",""823644""
""focus"",""76"",""959085""
","""event"",""trial"",""time""
""blur"",""74"",""823644""
","""event"",""trial"",""time""
""focus"",""76"",""959085""
","""event"",""trial"",""time""
""fullscreenenter"",""1"",""4293""
","
","","","-1","","","12","3082","2030","j","elianto","#f73b6a7A"," ","-1","0","-10","[]","0","2","","","3082","49","0","3","lose","go","0"
"pit-trial","123","1246263","0.0-54.0","battery-v0.2","","""event"",""trial"",""time""
""fullscreenenter"",""1"",""4293""
""blur"",""74"",""823644""
""focus"",""76"",""959085""
","""event"",""trial"",""time""
""blur"",""74"",""823644""
","""event"",""trial"",""time""
""focus"",""76"",""959085""
","""event"",""trial"",""time""
""fullscreenenter"",""1"",""4293""
","
","","","-1","","","12","3082","2030","d","elianto","#3366ff99","-1","-1","1","0","[]","0","2","","","3082","50","1","2","win","no-go","1"
"pit-trial","124","1249689","0.0-55.0","battery-v0.2","","""event"",""trial"",""time""
""fullscreenenter"",""1"",""4293""
""blur"",""74"",""823644""
""focus"",""76"",""959085""
","""event"",""trial"",""time""
""blur"",""74"",""823644""
","""event"",""trial"",""time""
""focus"",""76"",""959085""
","""event"",""trial"",""time""
""fullscreenenter"",""1"",""4293""
","
","","","558.8999999985099","","","12","3082","2030","e","elianto","#f73b6a7A"," "," ","1","0","[1410.1999999955297]","1","2","","","3082","51","2","3","lose","go","0"
"pit-trial","125","1253076","0.0-56.0","battery-v0.2","","""event"",""trial"",""time""
""fullscreenenter"",""1"",""4293""
""blur"",""74"",""823644""
""focus"",""76"",""959085""
","""event"",""trial"",""time""
""blur"",""74"",""823644""
","""event"",""trial"",""time""
""focus"",""76"",""959085""
","""event"",""trial"",""time""
""fullscreenenter"",""1"",""4293""
","
","","","525.5","","","12","3082","2030","w","elianto","#f73b6a7A","-1"," ","0","-10","[1376.1000000014901]","1","2","","","3082","52","3","4","lose","no-go","0"
"pit-trial","126","1256340","0.0-57.0","battery-v0.2","","""event"",""trial"",""time""
""fullscreenenter"",""1"",""4293""
""blur"",""74"",""823644""
""focus"",""76"",""959085""
","""event"",""trial"",""time""
""blur"",""74"",""823644""
","""event"",""trial"",""time""
""focus"",""76"",""959085""
","""event"",""trial"",""time""
""fullscreenenter"",""1"",""4293""
","
","","","392.8999999985099","","","12","3082","2030","j","elianto","#f73b6a7A"," "," ","1","0","[1247.6000000014901]","1","2","","","3082","53","0","3","lose","go","0"
"pit-trial","127","1259544","0.0-58.0","battery-v0.2","","""event"",""trial"",""time""
""fullscreenenter"",""1"",""4293""
""blur"",""74"",""823644""
""focus"",""76"",""959085""
","""event"",""trial"",""time""
""blur"",""74"",""823644""
","""event"",""trial"",""time""
""focus"",""76"",""959085""
","""event"",""trial"",""time""
""fullscreenenter"",""1"",""4293""
","
","","","332.5","","","12","3082","2030","e","elianto","#f73b6a7A"," "," ","1","0","[1190.6000000014901]","1","2","","","3082","54","2","3","lose","go","0"
"pit-trial","128","1262562","0.0-59.0","battery-v0.2","","""event"",""trial"",""time""
""fullscreenenter"",""1"",""4293""
""blur"",""74"",""823644""
""focus"",""76"",""959085""
","""event"",""trial"",""time""
""blur"",""74"",""823644""
","""event"",""trial"",""time""
""focus"",""76"",""959085""
","""event"",""trial"",""time""
""fullscreenenter"",""1"",""4293""
","
","","","150.5","","","12","3082","2030","w","elianto","#f73b6a7A","-1"," ","0","0","[478.29999999701977,1007.1000000014901]","2","2","","","3082","55","3","4","lose","no-go","1"
"pit-trial","129","1265441","0.0-60.0","battery-v0.2","","""event"",""trial"",""time""
""fullscreenenter"",""1"",""4293""
""blur"",""74"",""823644""
""focus"",""76"",""959085""
","""event"",""trial"",""time""
""blur"",""74"",""823644""
","""event"",""trial"",""time""
""focus"",""76"",""959085""
","""event"",""trial"",""time""
""fullscreenenter"",""1"",""4293""
","
","","","11.700000002980232","","","12","3082","2030","d","elianto","#3366ff99","-1"," ","0","+10","[861.8999999985099]","1","2","","","3082","56","1","2","win","no-go","1"
"pit-trial","130","1269022","0.0-61.0","battery-v0.2","","""event"",""trial"",""time""
""fullscreenenter"",""1"",""4293""
""blur"",""74"",""823644""
""focus"",""76"",""959085""
","""event"",""trial"",""time""
""blur"",""74"",""823644""
","""event"",""trial"",""time""
""focus"",""76"",""959085""
","""event"",""trial"",""time""
""fullscreenenter"",""1"",""4293""
","
","","","707.6000000014901","","","12","3082","2030","e","elianto","#f73b6a7A"," "," ","1","0","[641.6000000014901,1563.6000000014901]","2","2","","","3082","57","2","3","lose","go","0"
"pit-trial","131","1271944","0.0-62.0","battery-v0.2","","""event"",""trial"",""time""
""fullscreenenter"",""1"",""4293""
""blur"",""74"",""823644""
""focus"",""76"",""959085""
","""event"",""trial"",""time""
""blur"",""74"",""823644""
","""event"",""trial"",""time""
""focus"",""76"",""959085""
","""event"",""trial"",""time""
""fullscreenenter"",""1"",""4293""
","
","","","47.399999998509884","","","12","3082","2030","w","elianto","#f73b6a7A","-1"," ","0","0","[905.8000000044703]","1","2","","","3082","58","3","4","lose","no-go","1"
"pit-trial","132","1275118","0.0-63.0","battery-v0.2","","""event"",""trial"",""time""
""fullscreenenter"",""1"",""4293""
""blur"",""74"",""823644""
""focus"",""76"",""959085""
","""event"",""trial"",""time""
""blur"",""74"",""823644""
","""event"",""trial"",""time""
""focus"",""76"",""959085""
","""event"",""trial"",""time""
""fullscreenenter"",""1"",""4293""
","
","","","304.30000000447035","","","12","3082","2030","j","elianto","#f73b6a7A"," "," ","1","0","[1155.5]","1","2","","","3082","59","0","3","lose","go","0"
"pit-trial","133","1278163","0.0-64.0","battery-v0.2","","""event"",""trial"",""time""
""fullscreenenter"",""1"",""4293""
""blur"",""74"",""823644""
""focus"",""76"",""959085""
","""event"",""trial"",""time""
""blur"",""74"",""823644""
","""event"",""trial"",""time""
""focus"",""76"",""959085""
","""event"",""trial"",""time""
""fullscreenenter"",""1"",""4293""
","
","","","177.80000000447035","","","12","3082","2030","s","elianto","#3366ff99"," "," ","1","+10","[1029,1787.5]","2","2","","","3082","60","4","1","win","go","0"
"pit-trial","134","1283034","0.0-65.0","battery-v0.2","","""event"",""trial"",""time""
""fullscreenenter"",""1"",""4293""
""blur"",""74"",""823644""
""focus"",""76"",""959085""
","""event"",""trial"",""time""
""blur"",""74"",""823644""
","""event"",""trial"",""time""
""focus"",""76"",""959085""
","""event"",""trial"",""time""
""fullscreenenter"",""1"",""4293""
","
","","","-1","","","12","3082","2030","d","elianto","#3366ff99","-1","-1","1","0","[]","0","2","","","3082","61","1","2","win","no-go","1"
"pit-trial","135","1287903","0.0-66.0","battery-v0.2","","""event"",""trial"",""time""
""fullscreenenter"",""1"",""4293""
""blur"",""74"",""823644""
""focus"",""76"",""959085""
","""event"",""trial"",""time""
""blur"",""74"",""823644""
","""event"",""trial"",""time""
""focus"",""76"",""959085""
","""event"",""trial"",""time""
""fullscreenenter"",""1"",""4293""
","
","","","-1","","","12","3082","2030","e","elianto","#f73b6a7A"," ","-1","0","-10","[]","0","2","","","3082","62","2","3","lose","go","0"
"pit-trial","136","1292593","0.0-67.0","battery-v0.2","","""event"",""trial"",""time""
""fullscreenenter"",""1"",""4293""
""blur"",""74"",""823644""
""focus"",""76"",""959085""
","""event"",""trial"",""time""
""blur"",""74"",""823644""
","""event"",""trial"",""time""
""focus"",""76"",""959085""
","""event"",""trial"",""time""
""fullscreenenter"",""1"",""4293""
","
","","","1820.6000000014901","","","12","3082","2030","s","elianto","#3366ff99"," "," ","1","+10","[2672.2999999970198]","1","2","","","3082","63","4","1","win","go","0"
"pit-trial","137","1297122","0.0-68.0","battery-v0.2","","""event"",""trial"",""time""
""fullscreenenter"",""1"",""4293""
""blur"",""74"",""823644""
""focus"",""76"",""959085""
","""event"",""trial"",""time""
""blur"",""74"",""823644""
","""event"",""trial"",""time""
""focus"",""76"",""959085""
","""event"",""trial"",""time""
""fullscreenenter"",""1"",""4293""
","
","","","1657.7000000029802","","","12","3082","2030","w","elianto","#f73b6a7A","-1"," ","0","-10","[2510.6999999955297]","1","2","","","3082","64","3","4","lose","no-go","0"
"pit-trial","138","1301991","0.0-69.0","battery-v0.2","","""event"",""trial"",""time""
""fullscreenenter"",""1"",""4293""
""blur"",""74"",""823644""
""focus"",""76"",""959085""
","""event"",""trial"",""time""
""blur"",""74"",""823644""
","""event"",""trial"",""time""
""focus"",""76"",""959085""
","""event"",""trial"",""time""
""fullscreenenter"",""1"",""4293""
","
","","","-1","","","12","3082","2030","d","elianto","#3366ff99","-1","-1","1","0","[]","0","2","","","3082","65","1","2","win","no-go","1"
"pit-trial","139","1306858","0.0-70.0","battery-v0.2","","""event"",""trial"",""time""
""fullscreenenter"",""1"",""4293""
""blur"",""74"",""823644""
""focus"",""76"",""959085""
","""event"",""trial"",""time""
""blur"",""74"",""823644""
","""event"",""trial"",""time""
""focus"",""76"",""959085""
","""event"",""trial"",""time""
""fullscreenenter"",""1"",""4293""
","
","","","-1","","","12","3082","2030","w","elianto","#f73b6a7A","-1","-1","1","0","[]","0","2","","","3082","66","3","4","lose","no-go","0"
"pit-trial","140","1310630","0.0-71.0","battery-v0.2","","""event"",""trial"",""time""
""fullscreenenter"",""1"",""4293""
""blur"",""74"",""823644""
""focus"",""76"",""959085""
","""event"",""trial"",""time""
""blur"",""74"",""823644""
","""event"",""trial"",""time""
""focus"",""76"",""959085""
","""event"",""trial"",""time""
""fullscreenenter"",""1"",""4293""
","
","","","898.8000000044703","","","12","3082","2030","s","elianto","#3366ff99"," "," ","1","+10","[1754.7999999970198]","1","2","","","3082","67","4","1","win","go","0"
"pit-trial","141","1314428","0.0-72.0","battery-v0.2","","""event"",""trial"",""time""
""fullscreenenter"",""1"",""4293""
""blur"",""74"",""823644""
""focus"",""76"",""959085""
","""event"",""trial"",""time""
""blur"",""74"",""823644""
","""event"",""trial"",""time""
""focus"",""76"",""959085""
","""event"",""trial"",""time""
""fullscreenenter"",""1"",""4293""
","
","","","929.1000000014901","","","12","3082","2030","p","elianto","#3366ff99","-1"," ","0","0","[1782.3999999985099]","1","2","","","3082","68","5","2","win","no-go","0"
"pit-trial","142","1319297","0.0-73.0","battery-v0.2","","""event"",""trial"",""time""
""fullscreenenter"",""1"",""4293""
""blur"",""74"",""823644""
""focus"",""76"",""959085""
","""event"",""trial"",""time""
""blur"",""74"",""823644""
","""event"",""trial"",""time""
""focus"",""76"",""959085""
","""event"",""trial"",""time""
""fullscreenenter"",""1"",""4293""
","
","","","-1","","","12","3082","2030","d","elianto","#3366ff99","-1","-1","1","0","[3886]","1","2","","","3082","69","1","2","win","no-go","1"
"pit-trial","143","1322978","0.0-74.0","battery-v0.2","","""event"",""trial"",""time""
""fullscreenenter"",""1"",""4293""
""blur"",""74"",""823644""
""focus"",""76"",""959085""
","""event"",""trial"",""time""
""blur"",""74"",""823644""
","""event"",""trial"",""time""
""focus"",""76"",""959085""
","""event"",""trial"",""time""
""fullscreenenter"",""1"",""4293""
","
","","","812.5","","","12","3082","2030","s","elianto","#3366ff99"," "," ","1","+10","[1662.7000000029802]","1","2","","","3082","70","4","1","win","go","0"
"pit-trial","144","1327842","0.0-75.0","battery-v0.2","","""event"",""trial"",""time""
""fullscreenenter"",""1"",""4293""
""blur"",""74"",""823644""
""focus"",""76"",""959085""
","""event"",""trial"",""time""
""blur"",""74"",""823644""
","""event"",""trial"",""time""
""focus"",""76"",""959085""
","""event"",""trial"",""time""
""fullscreenenter"",""1"",""4293""
","
","","","-1","","","12","3082","2030","e","elianto","#f73b6a7A"," ","-1","0","-10","[4324.39999999851]","1","2","","","3082","71","2","3","lose","go","0"
"pit-trial","145","1331558","0.0-76.0","battery-v0.2","","""event"",""trial"",""time""
""fullscreenenter"",""1"",""4293""
""blur"",""74"",""823644""
""focus"",""76"",""959085""
","""event"",""trial"",""time""
""blur"",""74"",""823644""
","""event"",""trial"",""time""
""focus"",""76"",""959085""
","""event"",""trial"",""time""
""fullscreenenter"",""1"",""4293""
","
","","","854.2000000029802","","","12","3082","2030","p","elianto","#3366ff99","-1"," ","0","0","[1704.2000000029802]","1","2","","","3082","72","5","2","win","no-go","0"
"pit-trial","146","1335170","0.0-77.0","battery-v0.2","","""event"",""trial"",""time""
""fullscreenenter"",""1"",""4293""
""blur"",""74"",""823644""
""focus"",""76"",""959085""
","""event"",""trial"",""time""
""blur"",""74"",""823644""
","""event"",""trial"",""time""
""focus"",""76"",""959085""
","""event"",""trial"",""time""
""fullscreenenter"",""1"",""4293""
","
","","","750.7999999970198","","","12","3082","2030","s","elianto","#3366ff99"," "," ","1","+10","[1601.5999999940395]","1","2","","","3082","73","4","1","win","go","0"
"pit-trial","147","1339718","0.0-78.0","battery-v0.2","","""event"",""trial"",""time""
""fullscreenenter"",""1"",""4293""
""blur"",""74"",""823644""
""focus"",""76"",""959085""
","""event"",""trial"",""time""
""blur"",""74"",""823644""
","""event"",""trial"",""time""
""focus"",""76"",""959085""
","""event"",""trial"",""time""
""fullscreenenter"",""1"",""4293""
","
","","","1682.3999999985099","","","12","3082","2030","d","elianto","#3366ff99","-1"," ","0","0","[2533.2999999970198,3777.7999999970198]","2","2","","","3082","74","1","2","win","no-go","0"
"pit-trial","148","1343241","0.0-79.0","battery-v0.2","","""event"",""trial"",""time""
""fullscreenenter"",""1"",""4293""
""blur"",""74"",""823644""
""focus"",""76"",""959085""
","""event"",""trial"",""time""
""blur"",""74"",""823644""
","""event"",""trial"",""time""
""focus"",""76"",""959085""
","""event"",""trial"",""time""
""fullscreenenter"",""1"",""4293""
","
","","","655.5","","","12","3082","2030","w","elianto","#f73b6a7A","-1"," ","0","-10","[1506.6999999955297,2530]","2","2","","","3082","75","3","4","lose","no-go","0"
"pit-trial","149","1346604","0.0-80.0","battery-v0.2","","""event"",""trial"",""time""
""fullscreenenter"",""1"",""4293""
""blur"",""74"",""823644""
""focus"",""76"",""959085""
","""event"",""trial"",""time""
""blur"",""74"",""823644""
","""event"",""trial"",""time""
""focus"",""76"",""959085""
","""event"",""trial"",""time""
""fullscreenenter"",""1"",""4293""
","
","","","497.09999999403954","","","12","3082","2030","p","elianto","#3366ff99","-1"," ","0","+10","[1348]","1","2","","","3082","76","5","2","win","no-go","1"
"pit-trial","150","1350298","0.0-81.0","battery-v0.2","","""event"",""trial"",""time""
""fullscreenenter"",""1"",""4293""
""blur"",""74"",""823644""
""focus"",""76"",""959085""
","""event"",""trial"",""time""
""blur"",""74"",""823644""
","""event"",""trial"",""time""
""focus"",""76"",""959085""
","""event"",""trial"",""time""
""fullscreenenter"",""1"",""4293""
","
","","","827","","","12","3082","2030","w","elianto","#f73b6a7A","-1"," ","0","-10","[1678.2000000029802]","1","2","","","3082","77","3","4","lose","no-go","0"
"pit-trial","151","1353826","0.0-82.0","battery-v0.2","","""event"",""trial"",""time""
""fullscreenenter"",""1"",""4293""
""blur"",""74"",""823644""
""focus"",""76"",""959085""
","""event"",""trial"",""time""
""blur"",""74"",""823644""
","""event"",""trial"",""time""
""focus"",""76"",""959085""
","""event"",""trial"",""time""
""fullscreenenter"",""1"",""4293""
","
","","","660.1000000014901","","","12","3082","2030","p","elianto","#3366ff99","-1"," ","0","0","[1512.7999999970198]","1","2","","","3082","78","5","2","win","no-go","0"
"pit-trial","152","1358700","0.0-83.0","battery-v0.2","","""event"",""trial"",""time""
""fullscreenenter"",""1"",""4293""
""blur"",""74"",""823644""
""focus"",""76"",""959085""
""blur"",""153"",""1360660""
","""event"",""trial"",""time""
""blur"",""74"",""823644""
""blur"",""153"",""1360660""
","""event"",""trial"",""time""
""focus"",""76"",""959085""
","""event"",""trial"",""time""
""fullscreenenter"",""1"",""4293""
","
","","","-1","","","12","3082","2030","s","elianto","#3366ff99"," ","-1","0","0","[3117.1999999955297]","1","2","","","3082","79","4","1","win","go","0"
"pit-trial","153","1363570","0.0-84.0","battery-v0.2","","""event"",""trial"",""time""
""fullscreenenter"",""1"",""4293""
""blur"",""74"",""823644""
""focus"",""76"",""959085""
""blur"",""153"",""1360660""
""focus"",""154"",""1367656""
","""event"",""trial"",""time""
""blur"",""74"",""823644""
""blur"",""153"",""1360660""
","""event"",""trial"",""time""
""focus"",""76"",""959085""
""focus"",""154"",""1367656""
","""event"",""trial"",""time""
""fullscreenenter"",""1"",""4293""
","
","","","-1","","","12","3082","2030","s","elianto","#3366ff99"," ","-1","0","0","[]","0","2","","","3082","80","4","1","win","go","0"
"pit-trial","154","1368439","0.0-85.0","battery-v0.2","","""event"",""trial"",""time""
""fullscreenenter"",""1"",""4293""
""blur"",""74"",""823644""
""focus"",""76"",""959085""
""blur"",""153"",""1360660""
""focus"",""154"",""1367656""
","""event"",""trial"",""time""
""blur"",""74"",""823644""
""blur"",""153"",""1360660""
","""event"",""trial"",""time""
""focus"",""76"",""959085""
""focus"",""154"",""1367656""
","""event"",""trial"",""time""
""fullscreenenter"",""1"",""4293""
","
","","","-1","","","12","3082","2030","p","elianto","#3366ff99","-1","-1","1","+10","[]","0","2","","","3082","81","5","2","win","no-go","0"
"pit-trial","155","1373301","0.0-86.0","battery-v0.2","","""event"",""trial"",""time""
""fullscreenenter"",""1"",""4293""
""blur"",""74"",""823644""
""focus"",""76"",""959085""
""blur"",""153"",""1360660""
""focus"",""154"",""1367656""
","""event"",""trial"",""time""
""blur"",""74"",""823644""
""blur"",""153"",""1360660""
","""event"",""trial"",""time""
""focus"",""76"",""959085""
""focus"",""154"",""1367656""
","""event"",""trial"",""time""
""fullscreenenter"",""1"",""4293""
","
","","","-1","","","12","3082","2030","w","elianto","#f73b6a7A","-1","-1","1","-10","[]","0","2","","","3082","82","3","4","lose","no-go","1"
"pit-trial","156","1376799","0.0-87.0","battery-v0.2","","""event"",""trial"",""time""
""fullscreenenter"",""1"",""4293""
""blur"",""74"",""823644""
""focus"",""76"",""959085""
""blur"",""153"",""1360660""
""focus"",""154"",""1367656""
","""event"",""trial"",""time""
""blur"",""74"",""823644""
""blur"",""153"",""1360660""
","""event"",""trial"",""time""
""focus"",""76"",""959085""
""focus"",""154"",""1367656""
","""event"",""trial"",""time""
""fullscreenenter"",""1"",""4293""
","
","","","630.9000000059605","","","12","3082","2030","s","elianto","#3366ff99"," "," ","1","+10","[1481.2999999970198]","1","2","","","3082","83","4","1","win","go","0"
"pit-trial","157","1381668","0.0-88.0","battery-v0.2","","""event"",""trial"",""time""
""fullscreenenter"",""1"",""4293""
""blur"",""74"",""823644""
""focus"",""76"",""959085""
""blur"",""153"",""1360660""
""focus"",""154"",""1367656""
","""event"",""trial"",""time""
""blur"",""74"",""823644""
""blur"",""153"",""1360660""
","""event"",""trial"",""time""
""focus"",""76"",""959085""
""focus"",""154"",""1367656""
","""event"",""trial"",""time""
""fullscreenenter"",""1"",""4293""
","
","","","-1","","","12","3082","2030","a","elianto","#f73b6a7A","-1","-1","1","0","[]","0","2","","","3082","84","7","4","lose","no-go","0"
"pit-trial","158","1386536","0.0-89.0","battery-v0.2","","""event"",""trial"",""time""
""fullscreenenter"",""1"",""4293""
""blur"",""74"",""823644""
""focus"",""76"",""959085""
""blur"",""153"",""1360660""
""focus"",""154"",""1367656""
","""event"",""trial"",""time""
""blur"",""74"",""823644""
""blur"",""153"",""1360660""
","""event"",""trial"",""time""
""focus"",""76"",""959085""
""focus"",""154"",""1367656""
","""event"",""trial"",""time""
""fullscreenenter"",""1"",""4293""
","
","","","-1","","","12","3082","2030","g","elianto","#f73b6a7A"," ","-1","0","-10","[]","0","2","","","3082","85","6","3","lose","go","0"
"pit-trial","159","1390945","0.0-90.0","battery-v0.2","","""event"",""trial"",""time""
""fullscreenenter"",""1"",""4293""
""blur"",""74"",""823644""
""focus"",""76"",""959085""
""blur"",""153"",""1360660""
""focus"",""154"",""1367656""
","""event"",""trial"",""time""
""blur"",""74"",""823644""
""blur"",""153"",""1360660""
","""event"",""trial"",""time""
""focus"",""76"",""959085""
""focus"",""154"",""1367656""
","""event"",""trial"",""time""
""fullscreenenter"",""1"",""4293""
","
","","","1537.7999999970198","","","12","3082","2030","p","elianto","#3366ff99","-1"," ","0","0","[2388.2000000029802]","1","2","","","3082","86","5","2","win","no-go","0"
"pit-trial","160","1395735","0.0-91.0","battery-v0.2","","""event"",""trial"",""time""
""fullscreenenter"",""1"",""4293""
""blur"",""74"",""823644""
""focus"",""76"",""959085""
""blur"",""153"",""1360660""
""focus"",""154"",""1367656""
","""event"",""trial"",""time""
""blur"",""74"",""823644""
""blur"",""153"",""1360660""
","""event"",""trial"",""time""
""focus"",""76"",""959085""
""focus"",""154"",""1367656""
","""event"",""trial"",""time""
""fullscreenenter"",""1"",""4293""
","
","","","1916.2000000029802","","","12","3082","2030","a","elianto","#f73b6a7A","-1"," ","0","-10","[2769.5]","1","2","","","3082","87","7","4","lose","no-go","0"
"pit-trial","161","1399885","0.0-92.0","battery-v0.2","","""event"",""trial"",""time""
""fullscreenenter"",""1"",""4293""
""blur"",""74"",""823644""
""focus"",""76"",""959085""
""blur"",""153"",""1360660""
""focus"",""154"",""1367656""
","""event"",""trial"",""time""
""blur"",""74"",""823644""
""blur"",""153"",""1360660""
","""event"",""trial"",""time""
""focus"",""76"",""959085""
""focus"",""154"",""1367656""
","""event"",""trial"",""time""
""fullscreenenter"",""1"",""4293""
","
","","","1280.6000000014901","","","12","3082","2030","s","elianto","#3366ff99"," "," ","1","+10","[770.1000000014901,2132]","2","2","","","3082","88","4","1","win","go","0"
"pit-trial","162","1403815","0.0-93.0","battery-v0.2","","""event"",""trial"",""time""
""fullscreenenter"",""1"",""4293""
""blur"",""74"",""823644""
""focus"",""76"",""959085""
""blur"",""153"",""1360660""
""focus"",""154"",""1367656""
","""event"",""trial"",""time""
""blur"",""74"",""823644""
""blur"",""153"",""1360660""
","""event"",""trial"",""time""
""focus"",""76"",""959085""
""focus"",""154"",""1367656""
","""event"",""trial"",""time""
""fullscreenenter"",""1"",""4293""
","
","","","1064.0999999940395","","","12","3082","2030","s","elianto","#3366ff99"," "," ","1","0","[1914.2999999970198,3872.5999999940395]","2","2","","","3082","89","4","1","win","go","1"
"pit-trial","163","1407430","0.0-94.0","battery-v0.2","","""event"",""trial"",""time""
""fullscreenenter"",""1"",""4293""
""blur"",""74"",""823644""
""focus"",""76"",""959085""
""blur"",""153"",""1360660""
""focus"",""154"",""1367656""
","""event"",""trial"",""time""
""blur"",""74"",""823644""
""blur"",""153"",""1360660""
","""event"",""trial"",""time""
""focus"",""76"",""959085""
""focus"",""154"",""1367656""
","""event"",""trial"",""time""
""fullscreenenter"",""1"",""4293""
","
","","","754.6999999955297","","","12","3082","2030","g","elianto","#f73b6a7A"," "," ","1","0","[1605.0999999940395,2555.6999999955297]","2","2","","","3082","90","6","3","lose","go","0"
"pit-trial","164","1411379","0.0-95.0","battery-v0.2","","""event"",""trial"",""time""
""fullscreenenter"",""1"",""4293""
""blur"",""74"",""823644""
""focus"",""76"",""959085""
""blur"",""153"",""1360660""
""focus"",""154"",""1367656""
","""event"",""trial"",""time""
""blur"",""74"",""823644""
""blur"",""153"",""1360660""
","""event"",""trial"",""time""
""focus"",""76"",""959085""
""focus"",""154"",""1367656""
","""event"",""trial"",""time""
""fullscreenenter"",""1"",""4293""
","
","","","1077.3999999985099","","","12","3082","2030","p","elianto","#3366ff99","-1"," ","0","0","[1932.1000000014901]","1","2","","","3082","91","5","2","win","no-go","0"
"pit-trial","165","1415329","0.0-96.0","battery-v0.2","","""event"",""trial"",""time""
""fullscreenenter"",""1"",""4293""
""blur"",""74"",""823644""
""focus"",""76"",""959085""
""blur"",""153"",""1360660""
""focus"",""154"",""1367656""
","""event"",""trial"",""time""
""blur"",""74"",""823644""
""blur"",""153"",""1360660""
","""event"",""trial"",""time""
""focus"",""76"",""959085""
""focus"",""154"",""1367656""
","""event"",""trial"",""time""
""fullscreenenter"",""1"",""4293""
","
","","","1076.8000000044703","","","12","3082","2030","a","elianto","#f73b6a7A","-1"," ","0","-10","[1935]","1","2","","","3082","92","7","4","lose","no-go","0"
"pit-trial","166","1420194","0.0-97.0","battery-v0.2","","""event"",""trial"",""time""
""fullscreenenter"",""1"",""4293""
""blur"",""74"",""823644""
""focus"",""76"",""959085""
""blur"",""153"",""1360660""
""focus"",""154"",""1367656""
","""event"",""trial"",""time""
""blur"",""74"",""823644""
""blur"",""153"",""1360660""
","""event"",""trial"",""time""
""focus"",""76"",""959085""
""focus"",""154"",""1367656""
","""event"",""trial"",""time""
""fullscreenenter"",""1"",""4293""
","
","","","-1","","","12","3082","2030","l","elianto","#3366ff99"," ","-1","0","0","[]","0","2","","","3082","93","8","1","win","go","0"
"pit-trial","167","1423584","0.0-98.0","battery-v0.2","","""event"",""trial"",""time""
""fullscreenenter"",""1"",""4293""
""blur"",""74"",""823644""
""focus"",""76"",""959085""
""blur"",""153"",""1360660""
""focus"",""154"",""1367656""
","""event"",""trial"",""time""
""blur"",""74"",""823644""
""blur"",""153"",""1360660""
","""event"",""trial"",""time""
""focus"",""76"",""959085""
""focus"",""154"",""1367656""
","""event"",""trial"",""time""
""fullscreenenter"",""1"",""4293""
","
","","","522.3999999985099","","","12","3082","2030","a","elianto","#f73b6a7A","-1"," ","0","0","[1372.7000000029802]","1","2","","","3082","94","7","4","lose","no-go","1"
"pit-trial","168","1428453","0.0-99.0","battery-v0.2","","""event"",""trial"",""time""
""fullscreenenter"",""1"",""4293""
""blur"",""74"",""823644""
""focus"",""76"",""959085""
""blur"",""153"",""1360660""
""focus"",""154"",""1367656""
","""event"",""trial"",""time""
""blur"",""74"",""823644""
""blur"",""153"",""1360660""
","""event"",""trial"",""time""
""focus"",""76"",""959085""
""focus"",""154"",""1367656""
","""event"",""trial"",""time""
""fullscreenenter"",""1"",""4293""
","
","","","-1","","","12","3082","2030","p","elianto","#3366ff99","-1","-1","1","+10","[]","0","2","","","3082","95","5","2","win","no-go","0"
"pit-trial","169","1432393","0.0-100.0","battery-v0.2","","""event"",""trial"",""time""
""fullscreenenter"",""1"",""4293""
""blur"",""74"",""823644""
""focus"",""76"",""959085""
""blur"",""153"",""1360660""
""focus"",""154"",""1367656""
","""event"",""trial"",""time""
""blur"",""74"",""823644""
""blur"",""153"",""1360660""
","""event"",""trial"",""time""
""focus"",""76"",""959085""
""focus"",""154"",""1367656""
","""event"",""trial"",""time""
""fullscreenenter"",""1"",""4293""
","
","","","1071.8999999985099","","","12","3082","2030","g","elianto","#f73b6a7A"," "," ","1","0","[1923.2999999970198]","1","2","","","3082","96","6","3","lose","go","0"
"pit-trial","170","1435840","0.0-101.0","battery-v0.2","","""event"",""trial"",""time""
""fullscreenenter"",""1"",""4293""
""blur"",""74"",""823644""
""focus"",""76"",""959085""
""blur"",""153"",""1360660""
""focus"",""154"",""1367656""
","""event"",""trial"",""time""
""blur"",""74"",""823644""
""blur"",""153"",""1360660""
","""event"",""trial"",""time""
""focus"",""76"",""959085""
""focus"",""154"",""1367656""
","""event"",""trial"",""time""
""fullscreenenter"",""1"",""4293""
","
","","","581.5","","","12","3082","2030","a","elianto","#f73b6a7A","-1"," ","0","-10","[1432,2029.5]","2","2","","","3082","97","7","4","lose","no-go","0"
"pit-trial","171","1438879","0.0-102.0","battery-v0.2","","""event"",""trial"",""time""
""fullscreenenter"",""1"",""4293""
""blur"",""74"",""823644""
""focus"",""76"",""959085""
""blur"",""153"",""1360660""
""focus"",""154"",""1367656""
","""event"",""trial"",""time""
""blur"",""74"",""823644""
""blur"",""153"",""1360660""
","""event"",""trial"",""time""
""focus"",""76"",""959085""
""focus"",""154"",""1367656""
","""event"",""trial"",""time""
""fullscreenenter"",""1"",""4293""
","
","","","171.29999999701977","","","12","3082","2030","g","elianto","#f73b6a7A"," "," ","1","0","[652.2999999970198,1021.2999999970198,1396.2999999970198,1591.8999999985099]","4","2","","","3082","98","6","3","lose","go","0"
"pit-trial","172","1442471","0.0-103.0","battery-v0.2","","""event"",""trial"",""time""
""fullscreenenter"",""1"",""4293""
""blur"",""74"",""823644""
""focus"",""76"",""959085""
""blur"",""153"",""1360660""
""focus"",""154"",""1367656""
","""event"",""trial"",""time""
""blur"",""74"",""823644""
""blur"",""153"",""1360660""
","""event"",""trial"",""time""
""focus"",""76"",""959085""
""focus"",""154"",""1367656""
","""event"",""trial"",""time""
""fullscreenenter"",""1"",""4293""
","
","","","725.8999999985099","","","12","3082","2030","l","elianto","#3366ff99"," "," ","1","+10","[1576.8999999985099]","1","2","","","3082","99","8","1","win","go","0"
"pit-trial","173","1445822","0.0-104.0","battery-v0.2","","""event"",""trial"",""time""
""fullscreenenter"",""1"",""4293""
""blur"",""74"",""823644""
""focus"",""76"",""959085""
""blur"",""153"",""1360660""
""focus"",""154"",""1367656""
","""event"",""trial"",""time""
""blur"",""74"",""823644""
""blur"",""153"",""1360660""
","""event"",""trial"",""time""
""focus"",""76"",""959085""
""focus"",""154"",""1367656""
","""event"",""trial"",""time""
""fullscreenenter"",""1"",""4293""
","
","","","482.8999999985099","","","12","3082","2030","p","elianto","#3366ff99","-1"," ","0","0","[1333.8999999985099,2583.39999999851,3080.89999999851,3326.7999999970198]","4","2","","","3082","100","5","2","win","no-go","0"
"pit-trial","174","1448952","0.0-105.0","battery-v0.2","","""event"",""trial"",""time""
""fullscreenenter"",""1"",""4293""
""blur"",""74"",""823644""
""focus"",""76"",""959085""
""blur"",""153"",""1360660""
""focus"",""154"",""1367656""
","""event"",""trial"",""time""
""blur"",""74"",""823644""
""blur"",""153"",""1360660""
","""event"",""trial"",""time""
""focus"",""76"",""959085""
""focus"",""154"",""1367656""
","""event"",""trial"",""time""
""fullscreenenter"",""1"",""4293""
","
","","","262.8999999985099","","","12","3082","2030","l","elianto","#3366ff99"," "," ","1","+10","[263.1000000014901,803.8999999985099,1114.1000000014901,1367.7999999970198,1859.1000000014901,2054.5,2265.7999999970198,2447.39999999851,2655.1999999955297,2847]","10","2","","","3082","101","8","1","win","go","0"
"pit-trial","175","1452139","0.0-106.0","battery-v0.2","","""event"",""trial"",""time""
""fullscreenenter"",""1"",""4293""
""blur"",""74"",""823644""
""focus"",""76"",""959085""
""blur"",""153"",""1360660""
""focus"",""154"",""1367656""
","""event"",""trial"",""time""
""blur"",""74"",""823644""
""blur"",""153"",""1360660""
","""event"",""trial"",""time""
""focus"",""76"",""959085""
""focus"",""154"",""1367656""
","""event"",""trial"",""time""
""fullscreenenter"",""1"",""4293""
","
","","","318.19999999552965","","","12","3082","2030","p","elianto","#3366ff99","-1"," ","0","0","[315.8999999985099,732.6999999955297,1169.5,1601.8999999985099,2611.1999999955297,3052.5]","6","2","","","3082","102","5","2","win","no-go","0"
"pit-trial","176","1456664","0.0-107.0","battery-v0.2","","""event"",""trial"",""time""
""fullscreenenter"",""1"",""4293""
""blur"",""74"",""823644""
""focus"",""76"",""959085""
""blur"",""153"",""1360660""
""focus"",""154"",""1367656""
","""event"",""trial"",""time""
""blur"",""74"",""823644""
""blur"",""153"",""1360660""
","""event"",""trial"",""time""
""focus"",""76"",""959085""
""focus"",""154"",""1367656""
","""event"",""trial"",""time""
""fullscreenenter"",""1"",""4293""
","
","","","1656.0999999940395","","","12","3082","2030","a","elianto","#f73b6a7A","-1"," ","0","0","[2506.4000000059605]","1","2","","","3082","103","7","4","lose","no-go","1"
"pit-trial","177","1461533","0.0-108.0","battery-v0.2","","""event"",""trial"",""time""
""fullscreenenter"",""1"",""4293""
""blur"",""74"",""823644""
""focus"",""76"",""959085""
""blur"",""153"",""1360660""
""focus"",""154"",""1367656""
","""event"",""trial"",""time""
""blur"",""74"",""823644""
""blur"",""153"",""1360660""
","""event"",""trial"",""time""
""focus"",""76"",""959085""
""focus"",""154"",""1367656""
","""event"",""trial"",""time""
""fullscreenenter"",""1"",""4293""
","
","","","-1","","","12","3082","2030","u","elianto","#3366ff99"," ","-1","0","0","[3258]","1","2","","","3082","104","9","1","win","go","0"
"pit-trial","178","1465037","0.0-109.0","battery-v0.2","","""event"",""trial"",""time""
""fullscreenenter"",""1"",""4293""
""blur"",""74"",""823644""
""focus"",""76"",""959085""
""blur"",""153"",""1360660""
""focus"",""154"",""1367656""
","""event"",""trial"",""time""
""blur"",""74"",""823644""
""blur"",""153"",""1360660""
","""event"",""trial"",""time""
""focus"",""76"",""959085""
""focus"",""154"",""1367656""
","""event"",""trial"",""time""
""fullscreenenter"",""1"",""4293""
","
","","","632.2999999970198","","","12","3082","2030","u","elianto","#3366ff99"," "," ","1","+10","[1487.5]","1","2","","","3082","105","9","1","win","go","0"
"pit-trial","179","1469905","0.0-110.0","battery-v0.2","","""event"",""trial"",""time""
""fullscreenenter"",""1"",""4293""
""blur"",""74"",""823644""
""focus"",""76"",""959085""
""blur"",""153"",""1360660""
""focus"",""154"",""1367656""
","""event"",""trial"",""time""
""blur"",""74"",""823644""
""blur"",""153"",""1360660""
","""event"",""trial"",""time""
""focus"",""76"",""959085""
""focus"",""154"",""1367656""
","""event"",""trial"",""time""
""fullscreenenter"",""1"",""4293""
","
","","","-1","","","12","3082","2030","l","elianto","#3366ff99"," ","-1","0","0","[3299.89999999851]","1","2","","","3082","106","8","1","win","go","0"
"pit-trial","180","1474046","0.0-111.0","battery-v0.2","","""event"",""trial"",""time""
""fullscreenenter"",""1"",""4293""
""blur"",""74"",""823644""
""focus"",""76"",""959085""
""blur"",""153"",""1360660""
""focus"",""154"",""1367656""
","""event"",""trial"",""time""
""blur"",""74"",""823644""
""blur"",""153"",""1360660""
","""event"",""trial"",""time""
""focus"",""76"",""959085""
""focus"",""154"",""1367656""
","""event"",""trial"",""time""
""fullscreenenter"",""1"",""4293""
","
","","","1271.7000000029802","","","12","3082","2030","g","elianto","#f73b6a7A"," "," ","1","0","[2122.2000000029802]","1","2","","","3082","107","6","3","lose","go","0"
"pit-trial","181","1478194","0.0-112.0","battery-v0.2","","""event"",""trial"",""time""
""fullscreenenter"",""1"",""4293""
""blur"",""74"",""823644""
""focus"",""76"",""959085""
""blur"",""153"",""1360660""
""focus"",""154"",""1367656""
","""event"",""trial"",""time""
""blur"",""74"",""823644""
""blur"",""153"",""1360660""
","""event"",""trial"",""time""
""focus"",""76"",""959085""
""focus"",""154"",""1367656""
","""event"",""trial"",""time""
""fullscreenenter"",""1"",""4293""
","
","","","1273","","","12","3082","2030","s","elianto","#3366ff99"," "," ","1","+10","[2131]","1","2","","","3082","108","4","1","win","go","0"
"pit-trial","182","1483060","0.0-113.0","battery-v0.2","","""event"",""trial"",""time""
""fullscreenenter"",""1"",""4293""
""blur"",""74"",""823644""
""focus"",""76"",""959085""
""blur"",""153"",""1360660""
""focus"",""154"",""1367656""
","""event"",""trial"",""time""
""blur"",""74"",""823644""
""blur"",""153"",""1360660""
","""event"",""trial"",""time""
""focus"",""76"",""959085""
""focus"",""154"",""1367656""
","""event"",""trial"",""time""
""fullscreenenter"",""1"",""4293""
","
","","","-1","","","12","3082","2030","g","elianto","#f73b6a7A"," ","-1","0","-10","[]","0","2","","","3082","109","6","3","lose","go","0"
"pit-trial","183","1487618","0.0-114.0","battery-v0.2","","""event"",""trial"",""time""
""fullscreenenter"",""1"",""4293""
""blur"",""74"",""823644""
""focus"",""76"",""959085""
""blur"",""153"",""1360660""
""focus"",""154"",""1367656""
","""event"",""trial"",""time""
""blur"",""74"",""823644""
""blur"",""153"",""1360660""
","""event"",""trial"",""time""
""focus"",""76"",""959085""
""focus"",""154"",""1367656""
","""event"",""trial"",""time""
""fullscreenenter"",""1"",""4293""
","
","","","1691.2999999970198","","","12","3082","2030","u","elianto","#3366ff99"," "," ","1","+10","[763.7999999970198,2542.2999999970198]","2","2","","","3082","110","9","1","win","go","0"
"pit-trial","184","1491440","0.0-115.0","battery-v0.2","","""event"",""trial"",""time""
""fullscreenenter"",""1"",""4293""
""blur"",""74"",""823644""
""focus"",""76"",""959085""
""blur"",""153"",""1360660""
""focus"",""154"",""1367656""
","""event"",""trial"",""time""
""blur"",""74"",""823644""
""blur"",""153"",""1360660""
","""event"",""trial"",""time""
""focus"",""76"",""959085""
""focus"",""154"",""1367656""
","""event"",""trial"",""time""
""fullscreenenter"",""1"",""4293""
","
","","","950.3999999985099","","","12","3082","2030","p","elianto","#3366ff99","-1"," ","0","0","[1805.5]","1","2","","","3082","111","5","2","win","no-go","0"
"pit-trial","185","1495866","0.0-116.0","battery-v0.2","","""event"",""trial"",""time""
""fullscreenenter"",""1"",""4293""
""blur"",""74"",""823644""
""focus"",""76"",""959085""
""blur"",""153"",""1360660""
""focus"",""154"",""1367656""
","""event"",""trial"",""time""
""blur"",""74"",""823644""
""blur"",""153"",""1360660""
","""event"",""trial"",""time""
""focus"",""76"",""959085""
""focus"",""154"",""1367656""
","""event"",""trial"",""time""
""fullscreenenter"",""1"",""4293""
","
","","","1555.5","","","12","3082","2030","l","elianto","#3366ff99"," "," ","1","+10","[2406.8000000044703]","1","2","","","3082","112","8","1","win","go","0"
"pit-trial","186","1499369","0.0-117.0","battery-v0.2","","""event"",""trial"",""time""
""fullscreenenter"",""1"",""4293""
""blur"",""74"",""823644""
""focus"",""76"",""959085""
""blur"",""153"",""1360660""
""focus"",""154"",""1367656""
","""event"",""trial"",""time""
""blur"",""74"",""823644""
""blur"",""153"",""1360660""
","""event"",""trial"",""time""
""focus"",""76"",""959085""
""focus"",""154"",""1367656""
","""event"",""trial"",""time""
""fullscreenenter"",""1"",""4293""
","
","","","630.8999999985099","","","12","3082","2030","u","elianto","#3366ff99"," "," ","1","+10","[1487.2999999970198]","1","2","","","3082","113","9","1","win","go","0"
"pit-trial","187","1502683","0.0-118.0","battery-v0.2","","""event"",""trial"",""time""
""fullscreenenter"",""1"",""4293""
""blur"",""74"",""823644""
""focus"",""76"",""959085""
""blur"",""153"",""1360660""
""focus"",""154"",""1367656""
","""event"",""trial"",""time""
""blur"",""74"",""823644""
""blur"",""153"",""1360660""
","""event"",""trial"",""time""
""focus"",""76"",""959085""
""focus"",""154"",""1367656""
","""event"",""trial"",""time""
""fullscreenenter"",""1"",""4293""
","
","","","446.5","","","12","3082","2030","p","elianto","#3366ff99","-1"," ","0","0","[423.1000000014901,1298]","2","2","","","3082","114","5","2","win","no-go","0"
"pit-trial","188","1507131","0.0-119.0","battery-v0.2","","""event"",""trial"",""time""
""fullscreenenter"",""1"",""4293""
""blur"",""74"",""823644""
""focus"",""76"",""959085""
""blur"",""153"",""1360660""
""focus"",""154"",""1367656""
","""event"",""trial"",""time""
""blur"",""74"",""823644""
""blur"",""153"",""1360660""
","""event"",""trial"",""time""
""focus"",""76"",""959085""
""focus"",""154"",""1367656""
","""event"",""trial"",""time""
""fullscreenenter"",""1"",""4293""
","
","","","1577.3999999985099","","","12","3082","2030","g","elianto","#f73b6a7A"," "," ","1","0","[2434.10000000149]","1","2","","","3082","115","6","3","lose","go","0"
"pit-trial","189","1511997","0.0-120.0","battery-v0.2","","""event"",""trial"",""time""
""fullscreenenter"",""1"",""4293""
""blur"",""74"",""823644""
""focus"",""76"",""959085""
""blur"",""153"",""1360660""
""focus"",""154"",""1367656""
","""event"",""trial"",""time""
""blur"",""74"",""823644""
""blur"",""153"",""1360660""
","""event"",""trial"",""time""
""focus"",""76"",""959085""
""focus"",""154"",""1367656""
","""event"",""trial"",""time""
""fullscreenenter"",""1"",""4293""
","
","","","-1","","","12","3082","2030","l","elianto","#3366ff99"," ","-1","0","0","[]","0","2","","","3082","116","8","1","win","go","0"
"pit-trial","190","1515478","0.0-121.0","battery-v0.2","","""event"",""trial"",""time""
""fullscreenenter"",""1"",""4293""
""blur"",""74"",""823644""
""focus"",""76"",""959085""
""blur"",""153"",""1360660""
""focus"",""154"",""1367656""
","""event"",""trial"",""time""
""blur"",""74"",""823644""
""blur"",""153"",""1360660""
","""event"",""trial"",""time""
""focus"",""76"",""959085""
""focus"",""154"",""1367656""
","""event"",""trial"",""time""
""fullscreenenter"",""1"",""4293""
","
","","","617.5","","","12","3082","2030","g","elianto","#f73b6a7A"," "," ","1","0","[1468.5999999940395]","1","2","","","3082","117","6","3","lose","go","0"
"pit-trial","191","1520344","0.0-122.0","battery-v0.2","","""event"",""trial"",""time""
""fullscreenenter"",""1"",""4293""
""blur"",""74"",""823644""
""focus"",""76"",""959085""
""blur"",""153"",""1360660""
""focus"",""154"",""1367656""
","""event"",""trial"",""time""
""blur"",""74"",""823644""
""blur"",""153"",""1360660""
","""event"",""trial"",""time""
""focus"",""76"",""959085""
""focus"",""154"",""1367656""
","""event"",""trial"",""time""
""fullscreenenter"",""1"",""4293""
","
","","","-1","","","12","3082","2030","l","elianto","#3366ff99"," ","-1","0","0","[3248.89999999851]","1","2","","","3082","118","8","1","win","go","0"
"pit-trial","192","1525209","0.0-123.0","battery-v0.2","","""event"",""trial"",""time""
""fullscreenenter"",""1"",""4293""
""blur"",""74"",""823644""
""focus"",""76"",""959085""
""blur"",""153"",""1360660""
""focus"",""154"",""1367656""
","""event"",""trial"",""time""
""blur"",""74"",""823644""
""blur"",""153"",""1360660""
","""event"",""trial"",""time""
""focus"",""76"",""959085""
""focus"",""154"",""1367656""
","""event"",""trial"",""time""
""fullscreenenter"",""1"",""4293""
","
","","","-1","","","12","3082","2030","u","elianto","#3366ff99"," ","-1","0","0","[]","0","2","","","3082","119","9","1","win","go","0"
"pit-trial","193","1528894","0.0-124.0","battery-v0.2","","""event"",""trial"",""time""
""fullscreenenter"",""1"",""4293""
""blur"",""74"",""823644""
""focus"",""76"",""959085""
