"trial_type","trial_index","time_elapsed","internal_node_id","task_version","subject_id","interactions","blur_events","focus_events","fullscreenenter_events","fullscreenexit_events","success","view_history","rt","responses","num_errors","age","subject","participantId","rune","rune_set","hex","correct","choice","accuracy","outcome","keys","total_keys","block","practice","value","sub","trial","stimulus","robot","valence","action","sham"
"pavlovia","0","104","0.0-0.0","battery-v0.2","","""event"",""trial"",""time""
""fullscreenenter"",""1"",""2045""
","
","
","""event"",""trial"",""time""
""fullscreenenter"",""1"",""2045""
","
","","","","","","","","","","","","","","","","","","","","","","","","","","",""
"fullscreen","1","3023","0.0-1.0","battery-v0.2","","""event"",""trial"",""time""
""fullscreenenter"",""1"",""2045""
","
","
","""event"",""trial"",""time""
""fullscreenenter"",""1"",""2045""
","
","true","","","","","","","","","","","","","","","","","","","","","","","","","",""
"pit-instructions","2","31360","0.0-2.0-0.0","battery-v0.2","","""event"",""trial"",""time""
""fullscreenenter"",""1"",""2045""
","
","
","""event"",""trial"",""time""
""fullscreenenter"",""1"",""2045""
","
","","[{""page_index"":0,""viewing_time"":28331.099999964237}]","28332.399999976158","","","","","","","","","","","","","","","","","","","","","","","",""
"pit-comprehension","3","36145","0.0-2.0-1.0-0.0","battery-v0.2","","""event"",""trial"",""time""
""fullscreenenter"",""1"",""2045""
","
","
","""event"",""trial"",""time""
""fullscreenenter"",""1"",""2045""
","
","","","4775.5","[""shark""]","0","12","10580","4939","","","","","","","","","","","","","","","","","","",""
"pit-instructions","4","37309","0.0-2.0-1.0-1.0","battery-v0.2","","""event"",""trial"",""time""
""fullscreenenter"",""1"",""2045""
","
","
","""event"",""trial"",""time""
""fullscreenenter"",""1"",""2045""
","
","","[{""page_index"":0,""viewing_time"":1126.1000000238419}]","1126.699999988079","","","","","","","","","","","","","","","","","","","","","","","",""
"pit-comprehension","5","40118","0.0-2.0-2.0-0.0","battery-v0.2","","""event"",""trial"",""time""
""fullscreenenter"",""1"",""2045""
","
","
","""event"",""trial"",""time""
""fullscreenenter"",""1"",""2045""
","
","","","2804.100000023842","[""tiger""]","0","12","10580","4939","","","","","","","","","","","","","","","","","","",""
"pit-instructions","6","41094","0.0-2.0-2.0-1.0","battery-v0.2","","""event"",""trial"",""time""
""fullscreenenter"",""1"",""2045""
","
","
","""event"",""trial"",""time""
""fullscreenenter"",""1"",""2045""
","
","","[{""page_index"":0,""viewing_time"":968.3999999761581}]","968.5999999642372","","","","","","","","","","","","","","","","","","","","","","","",""
"pit-instructions","7","131023","0.0-2.0-3.0","battery-v0.2","","""event"",""trial"",""time""
""fullscreenenter"",""1"",""2045""
","
","
","""event"",""trial"",""time""
""fullscreenenter"",""1"",""2045""
","
","","[{""page_index"":0,""viewing_time"":9789.5},{""page_index"":1,""viewing_time"":5812.699999988079},{""page_index"":2,""viewing_time"":6339.200000047684},{""page_index"":3,""viewing_time"":5190.5},{""page_index"":4,""viewing_time"":5465.699999988079},{""page_index"":5,""viewing_time"":5271.399999976158},{""page_index"":6,""viewing_time"":6663.699999988079},{""page_index"":7,""viewing_time"":6232.600000023842},{""page_index"":8,""viewing_time"":8748.399999976158},{""page_index"":9,""viewing_time"":5861.900000035763},{""page_index"":10,""viewing_time"":7580.899999976158},{""page_index"":11,""viewing_time"":4854.900000035763},{""page_index"":12,""viewing_time"":6187.599999964237},{""page_index"":13,""viewing_time"":5929.600000023842}]","89929","","","","","","","","","","","","","","","","","","","","","","","",""
"pit-trial","8","134405","0.0-2.0-4.0-0.0","battery-v0.2","","""event"",""trial"",""time""
""fullscreenenter"",""1"",""2045""
","
","
","""event"",""trial"",""time""
""fullscreenenter"",""1"",""2045""
","
","","","510.39999997615814","","","12","10580","4939","&#9784;","elianto","#FFFFF080"," "," ","1","&#10004","[1370.699999988079]","1","0","0","","","","","","","",""
"pit-trial","9","138111","0.0-2.0-4.1-0.1","battery-v0.2","","""event"",""trial"",""time""
""fullscreenenter"",""1"",""2045""
","
","
","""event"",""trial"",""time""
""fullscreenenter"",""1"",""2045""
","
","","","834.5","","","12","10580","4939","&#9784;","elianto","#FFFFF080"," "," ","1","&#10004","[1693.800000011921]","1","0","0","","","","","","","",""
"pit-trial","10","141022","0.0-2.0-4.2-0.2","battery-v0.2","","""event"",""trial"",""time""
""fullscreenenter"",""1"",""2045""
","
","
","""event"",""trial"",""time""
""fullscreenenter"",""1"",""2045""
","
","","","49.39999997615814","","","12","10580","4939","&#9784;","elianto","#FFFFF080"," "," ","1","&#10004","[900.6999999880791]","1","0","0","","","","","","","",""
"pit-trial","11","144137","0.0-2.0-4.3-0.3","battery-v0.2","","""event"",""trial"",""time""
""fullscreenenter"",""1"",""2045""
","
","
","""event"",""trial"",""time""
""fullscreenenter"",""1"",""2045""
","
","","","247.10000002384186","","","12","10580","4939","&#9784;","elianto","#FFFFF080"," "," ","1","&#10004","[1102]","1","0","0","","","","","","","",""
"pit-trial","12","147072","0.0-2.0-4.4-0.4","battery-v0.2","","""event"",""trial"",""time""
""fullscreenenter"",""1"",""2045""
","
","
","""event"",""trial"",""time""
""fullscreenenter"",""1"",""2045""
","
","","","64.69999998807907","","","12","10580","4939","&#9784;","elianto","#FFFFF080"," "," ","1","&#10004","[920]","1","0","0","","","","","","","",""
"pit-instructions","13","167165","0.0-2.0-5.0","battery-v0.2","","""event"",""trial"",""time""
""fullscreenenter"",""1"",""2045""
","
","
","""event"",""trial"",""time""
""fullscreenenter"",""1"",""2045""
","
","","[{""page_index"":0,""viewing_time"":4792.899999976158},{""page_index"":1,""viewing_time"":5220.800000011921},{""page_index"":2,""viewing_time"":4417.399999976158},{""page_index"":3,""viewing_time"":5655.5}]","20086.799999952316","","","","","","","","","","","","","","","","","","","","","","","",""
"pit-trial","14","172028","0.0-2.0-6.0-0.0","battery-v0.2","","""event"",""trial"",""time""
""fullscreenenter"",""1"",""2045""
","
","
","""event"",""trial"",""time""
""fullscreenenter"",""1"",""2045""
","
","","","-1","","","12","10580","4939","&#9854;","elianto","#FFFFF080","-1","-1","1","&#10004","[]","0","0","1","","","","","","","",""
"pit-trial","15","176903","0.0-2.0-6.1-0.1","battery-v0.2","","""event"",""trial"",""time""
""fullscreenenter"",""1"",""2045""
","
","
","""event"",""trial"",""time""
""fullscreenenter"",""1"",""2045""
","
","","","-1","","","12","10580","4939","&#9854;","elianto","#FFFFF080","-1","-1","1","&#10004","[]","0","0","1","","","","","","","",""
"pit-trial","16","181773","0.0-2.0-6.2-0.2","battery-v0.2","","""event"",""trial"",""time""
""fullscreenenter"",""1"",""2045""
","
","
","""event"",""trial"",""time""
""fullscreenenter"",""1"",""2045""
","
","","","-1","","","12","10580","4939","&#9854;","elianto","#FFFFF080","-1","-1","1","&#10004","[]","0","0","1","","","","","","","",""
"pit-trial","17","186643","0.0-2.0-6.3-0.3","battery-v0.2","","""event"",""trial"",""time""
""fullscreenenter"",""1"",""2045""
","
","
","""event"",""trial"",""time""
""fullscreenenter"",""1"",""2045""
","
","","","-1","","","12","10580","4939","&#9854;","elianto","#FFFFF080","-1","-1","1","&#10004","[]","0","0","1","","","","","","","",""
"pit-trial","18","191510","0.0-2.0-6.4-0.4","battery-v0.2","","""event"",""trial"",""time""
""fullscreenenter"",""1"",""2045""
","
","
","""event"",""trial"",""time""
""fullscreenenter"",""1"",""2045""
","
","","","-1","","","12","10580","4939","&#9854;","elianto","#FFFFF080","-1","-1","1","&#10004","[]","0","0","1","","","","","","","",""
"pit-instructions","19","343464","0.0-2.0-7.0","battery-v0.2","","""event"",""trial"",""time""
""fullscreenenter"",""1"",""2045""
","
","
","""event"",""trial"",""time""
""fullscreenenter"",""1"",""2045""
","
","","[{""page_index"":0,""viewing_time"":6729.5},{""page_index"":1,""viewing_time"":6646.699999988079},{""page_index"":2,""viewing_time"":6270.900000035763},{""page_index"":3,""viewing_time"":6185.599999964237},{""page_index"":4,""viewing_time"":5278.600000023842},{""page_index"":5,""viewing_time"":5122.300000011921},{""page_index"":6,""viewing_time"":4544.599999964237},{""page_index"":7,""viewing_time"":7272.900000035763},{""page_index"":8,""viewing_time"":6291.800000011921},{""page_index"":9,""viewing_time"":5228.799999952316},{""page_index"":10,""viewing_time"":6374.600000023842},{""page_index"":11,""viewing_time"":43225.10000002384},{""page_index"":12,""viewing_time"":6093.599999964237},{""page_index"":13,""viewing_time"":11027.300000011921},{""page_index"":14,""viewing_time"":6169.300000011921},{""page_index"":15,""viewing_time"":6855.5},{""page_index"":16,""viewing_time"":6286.099999964237},{""page_index"":17,""viewing_time"":6351.100000023842}]","151955","","","","","","","","","","","","","","","","","","","","","","","",""
"pit-trial","20","346970","0.0-2.0-8.0-0.0","battery-v0.2","","""event"",""trial"",""time""
""fullscreenenter"",""1"",""2045""
","
","
","""event"",""trial"",""time""
""fullscreenenter"",""1"",""2045""
","
","","","642.4000000357628","","","12","10580","4939","&#9776;","elianto","#3366ff99"," "," ","1","+10","[1493.699999988079]","1","0","1","","","","","","","",""
"pit-trial","21","350273","0.0-2.0-8.0-1.0","battery-v0.2","","""event"",""trial"",""time""
""fullscreenenter"",""1"",""2045""
","
","
","""event"",""trial"",""time""
""fullscreenenter"",""1"",""2045""
","
","","","446","","","12","10580","4939","&#9776;","elianto","#3366ff99"," "," ","1","+10","[1298.699999988079]","1","0","1","","","","","","","",""
"pit-trial","22","353636","0.0-2.0-8.0-2.0","battery-v0.2","","""event"",""trial"",""time""
""fullscreenenter"",""1"",""2045""
","
","
","""event"",""trial"",""time""
""fullscreenenter"",""1"",""2045""
","
","","","501.5999999642372","","","12","10580","4939","&#9776;","elianto","#3366ff99"," "," ","1","+10","[1356.199999988079]","1","0","1","","","","","","","",""
"pit-trial","23","356925","0.0-2.0-8.0-3.0","battery-v0.2","","""event"",""trial"",""time""
""fullscreenenter"",""1"",""2045""
","
","
","""event"",""trial"",""time""
""fullscreenenter"",""1"",""2045""
","
","","","420.2000000476837","","","12","10580","4939","&#9776;","elianto","#3366ff99"," "," ","1","0","[1274.8999999761581]","1","0","1","","","","","","","",""
"pit-trial","24","360004","0.0-2.0-8.0-4.0","battery-v0.2","","""event"",""trial"",""time""
""fullscreenenter"",""1"",""2045""
","
","
","""event"",""trial"",""time""
""fullscreenenter"",""1"",""2045""
","
","","","219.60000002384186","","","12","10580","4939","&#9776;","elianto","#3366ff99"," "," ","1","+10","[1071]","1","0","1","","","","","","","",""
"pit-trial","25","363035","0.0-2.0-8.1-0.1","battery-v0.2","","""event"",""trial"",""time""
""fullscreenenter"",""1"",""2045""
","
","
","""event"",""trial"",""time""
""fullscreenenter"",""1"",""2045""
","
","","","172.39999997615814","","","12","10580","4939","&#9776;","elianto","#3366ff99"," "," ","1","+10","[1026.199999988079]","1","0","1","","","","","","","",""
"pit-trial","26","366005","0.0-2.0-8.1-1.1","battery-v0.2","","""event"",""trial"",""time""
""fullscreenenter"",""1"",""2045""
","
","
","""event"",""trial"",""time""
""fullscreenenter"",""1"",""2045""
","
","","","103","","","12","10580","4939","&#9776;","elianto","#3366ff99"," "," ","1","+10","[957.1999999880791]","1","0","1","","","","","","","",""
"pit-trial","27","368952","0.0-2.0-8.1-2.1","battery-v0.2","","""event"",""trial"",""time""
""fullscreenenter"",""1"",""2045""
","
","
","""event"",""trial"",""time""
""fullscreenenter"",""1"",""2045""
","
","","","80","","","12","10580","4939","&#9776;","elianto","#3366ff99"," "," ","1","+10","[936.6000000238419]","1","0","1","","","","","","","",""
"pit-trial","28","371851","0.0-2.0-8.1-3.1","battery-v0.2","","""event"",""trial"",""time""
""fullscreenenter"",""1"",""2045""
","
","
","""event"",""trial"",""time""
""fullscreenenter"",""1"",""2045""
","
","","","31.69999998807907","","","12","10580","4939","&#9776;","elianto","#3366ff99"," "," ","1","0","[886.5]","1","0","1","","","","","","","",""
"pit-trial","29","374882","0.0-2.0-8.1-4.1","battery-v0.2","","""event"",""trial"",""time""
""fullscreenenter"",""1"",""2045""
","
","
","""event"",""trial"",""time""
""fullscreenenter"",""1"",""2045""
","
","","","160.19999998807907","","","12","10580","4939","&#9776;","elianto","#3366ff99"," "," ","1","+10","[1018]","1","0","1","","","","","","","",""
"pit-trial","30","379756","0.0-2.0-8.2-0.2","battery-v0.2","","""event"",""trial"",""time""
""fullscreenenter"",""1"",""2045""
","
","
","""event"",""trial"",""time""
""fullscreenenter"",""1"",""2045""
","
","","","-1","","","12","10580","4939","&#9776;","elianto","#3366ff99"," ","-1","0","0","[856.9000000357628]","1","0","1","","","","","","","",""
"pit-trial","31","382945","0.0-2.0-8.2-1.2","battery-v0.2","","""event"",""trial"",""time""
""fullscreenenter"",""1"",""2045""
","
","
","""event"",""trial"",""time""
""fullscreenenter"",""1"",""2045""
","
","","","325.80000001192093","","","12","10580","4939","&#9776;","elianto","#3366ff99"," "," ","1","+10","[1177.3999999761581]","1","0","1","","","","","","","",""
"pit-trial","32","385963","0.0-2.0-8.2-2.2","battery-v0.2","","""event"",""trial"",""time""
""fullscreenenter"",""1"",""2045""
","
","
","""event"",""trial"",""time""
""fullscreenenter"",""1"",""2045""
","
","","","149.20000004768372","","","12","10580","4939","&#9776;","elianto","#3366ff99"," "," ","1","+10","[1007.7000000476837]","1","0","1","","","","","","","",""
"pit-trial","33","388923","0.0-2.0-8.2-3.2","battery-v0.2","","""event"",""trial"",""time""
""fullscreenenter"",""1"",""2045""
","
","
","""event"",""trial"",""time""
""fullscreenenter"",""1"",""2045""
","
","","","94.29999995231628","","","12","10580","4939","&#9776;","elianto","#3366ff99"," "," ","1","0","[948.6999999880791]","1","0","1","","","","","","","",""
"pit-trial","34","391903","0.0-2.0-8.2-4.2","battery-v0.2","","""event"",""trial"",""time""
""fullscreenenter"",""1"",""2045""
","
","
","""event"",""trial"",""time""
""fullscreenenter"",""1"",""2045""
","
","","","117.39999997615814","","","12","10580","4939","&#9776;","elianto","#3366ff99"," "," ","1","+10","[972.3999999761581]","1","0","1","","","","","","","",""
"call-function","35","391906","0.0-2.0-9.0","battery-v0.2","","""event"",""trial"",""time""
""fullscreenenter"",""1"",""2045""
","
","
","""event"",""trial"",""time""
""fullscreenenter"",""1"",""2045""
","
","","","","","","","","","","","","","","","","","","","","","","","","","","",""
"pit-instructions","36","452416","0.0-2.0-10.0","battery-v0.2","","""event"",""trial"",""time""
""fullscreenenter"",""1"",""2045""
","
","
","""event"",""trial"",""time""
""fullscreenenter"",""1"",""2045""
","
","","[{""page_index"":0,""viewing_time"":29595.19999998808},{""page_index"":1,""viewing_time"":6218.399999976158},{""page_index"":2,""viewing_time"":9093.400000035763},{""page_index"":3,""viewing_time"":8439.099999964237},{""page_index"":4,""viewing_time"":7165.600000023842}]","60512.19999998808","","","","","","","","","","","","","","","","","","","","","","","",""
"pit-trial","37","455847","0.0-2.0-11.0-0.0","battery-v0.2","","""event"",""trial"",""time""
""fullscreenenter"",""1"",""2045""
","
","
","""event"",""trial"",""time""
""fullscreenenter"",""1"",""2045""
","
","","","564.4000000357628","","","12","10580","4939","&#9761;","elianto","#3366ff99","-1"," ","0","0","[1420.699999988079]","1","0","2","","","","","","","",""
"pit-trial","38","458948","0.0-2.0-11.0-1.0","battery-v0.2","","""event"",""trial"",""time""
""fullscreenenter"",""1"",""2045""
","
","
","""event"",""trial"",""time""
""fullscreenenter"",""1"",""2045""
","
","","","233.19999998807907","","","12","10580","4939","&#9761;","elianto","#3366ff99","-1"," ","0","0","[1087.699999988079]","1","0","2","","","","","","","",""
"pit-trial","39","463636","0.0-2.0-11.0-2.0","battery-v0.2","","""event"",""trial"",""time""
""fullscreenenter"",""1"",""2045""
","
","
","""event"",""trial"",""time""
""fullscreenenter"",""1"",""2045""
","
","","","1823.5999999642372","","","12","10580","4939","&#9761;","elianto","#3366ff99","-1"," ","0","0","[2680.100000023842]","1","0","2","","","","","","","",""
"pit-trial","40","468502","0.0-2.0-11.0-3.0","battery-v0.2","","""event"",""trial"",""time""
""fullscreenenter"",""1"",""2045""
","
","
","""event"",""trial"",""time""
""fullscreenenter"",""1"",""2045""
","
","","","-1","","","12","10580","4939","&#9761;","elianto","#3366ff99","-1","-1","1","0","[]","0","0","2","","","","","","","",""
"pit-trial","41","473373","0.0-2.0-11.0-4.0","battery-v0.2","","""event"",""trial"",""time""
""fullscreenenter"",""1"",""2045""
","
","
","""event"",""trial"",""time""
""fullscreenenter"",""1"",""2045""
","
","","","-1","","","12","10580","4939","&#9761;","elianto","#3366ff99","-1","-1","1","+10","[]","0","0","2","","","","","","","",""
"pit-trial","42","477150","0.0-2.0-11.1-0.1","battery-v0.2","","""event"",""trial"",""time""
""fullscreenenter"",""1"",""2045""
","
","
","""event"",""trial"",""time""
""fullscreenenter"",""1"",""2045""
","
","","","916.9000000357628","","","12","10580","4939","&#9761;","elianto","#3366ff99","-1"," ","0","0","[1768.9000000357628,2990.300000011921,3265.600000023842,3491.300000011921,3661.7000000476837]","5","0","2","","","","","","","",""
"pit-trial","43","480052","0.0-2.0-11.1-1.1","battery-v0.2","","""event"",""trial"",""time""
""fullscreenenter"",""1"",""2045""
","
","
","""event"",""trial"",""time""
""fullscreenenter"",""1"",""2045""
","
","","","37.90000003576279","","","12","10580","4939","&#9761;","elianto","#3366ff99","-1"," ","0","0","[20.400000035762787,184.10000002384186,319.9000000357628,461.80000001192093,596.3000000119209,741.4000000357628,894.1000000238419,1050.6000000238419,1198.5,1362.800000011921,1508.6000000238419,1647.199999988079,1801,1960.6000000238419,2127.199999988079,2267.900000035763,2408.699999988079,2566.199999988079,2712.400000035763]","19","0","2","","","","","","","",""
"pit-trial","44","483009","0.0-2.0-11.1-2.1","battery-v0.2","","""event"",""trial"",""time""
""fullscreenenter"",""1"",""2045""
","
","
","""event"",""trial"",""time""
""fullscreenenter"",""1"",""2045""
","
","","","93.80000001192093","","","12","10580","4939","&#9761;","elianto","#3366ff99","-1"," ","0","0","[944,2113.300000011921]","2","0","2","","","","","","","",""
"pit-trial","45","486290","0.0-2.0-11.1-3.1","battery-v0.2","","""event"",""trial"",""time""
""fullscreenenter"",""1"",""2045""
","
","
","""event"",""trial"",""time""
""fullscreenenter"",""1"",""2045""
","
","","","417.69999998807907","","","12","10580","4939","&#9761;","elianto","#3366ff99","-1"," ","0","+10","[1273]","1","0","2","","","","","","","",""
"pit-trial","46","491154","0.0-2.0-11.1-4.1","battery-v0.2","","""event"",""trial"",""time""
""fullscreenenter"",""1"",""2045""
","
","
","""event"",""trial"",""time""
""fullscreenenter"",""1"",""2045""
","
","","","-1","","","12","10580","4939","&#9761;","elianto","#3366ff99","-1","-1","1","+10","[]","0","0","2","","","","","","","",""
"pit-trial","47","496022","0.0-2.0-11.2-0.2","battery-v0.2","","""event"",""trial"",""time""
""fullscreenenter"",""1"",""2045""
","
","
","""event"",""trial"",""time""
""fullscreenenter"",""1"",""2045""
","
","","","-1","","","12","10580","4939","&#9761;","elianto","#3366ff99","-1","-1","1","+10","[]","0","0","2","","","","","","","",""
"pit-trial","48","500898","0.0-2.0-11.2-1.2","battery-v0.2","","""event"",""trial"",""time""
""fullscreenenter"",""1"",""2045""
","
","
","""event"",""trial"",""time""
""fullscreenenter"",""1"",""2045""
","
","","","-1","","","12","10580","4939","&#9761;","elianto","#3366ff99","-1","-1","1","+10","[]","0","0","2","","","","","","","",""
"pit-trial","49","505766","0.0-2.0-11.2-2.2","battery-v0.2","","""event"",""trial"",""time""
""fullscreenenter"",""1"",""2045""
","
","
","""event"",""trial"",""time""
""fullscreenenter"",""1"",""2045""
","
","","","-1","","","12","10580","4939","&#9761;","elianto","#3366ff99","-1","-1","1","+10","[]","0","0","2","","","","","","","",""
"pit-trial","50","510636","0.0-2.0-11.2-3.2","battery-v0.2","","""event"",""trial"",""time""
""fullscreenenter"",""1"",""2045""
","
","
","""event"",""trial"",""time""
""fullscreenenter"",""1"",""2045""
","
","","","-1","","","12","10580","4939","&#9761;","elianto","#3366ff99","-1","-1","1","0","[]","0","0","2","","","","","","","",""
"pit-trial","51","515507","0.0-2.0-11.2-4.2","battery-v0.2","","""event"",""trial"",""time""
""fullscreenenter"",""1"",""2045""
","
","
","""event"",""trial"",""time""
""fullscreenenter"",""1"",""2045""
","
","","","-1","","","12","10580","4939","&#9761;","elianto","#3366ff99","-1","-1","1","+10","[]","0","0","2","","","","","","","",""
"pit-trial","52","520380","0.0-2.0-11.3-0.3","battery-v0.2","","""event"",""trial"",""time""
""fullscreenenter"",""1"",""2045""
","
","
","""event"",""trial"",""time""
""fullscreenenter"",""1"",""2045""
","
","","","-1","","","12","10580","4939","&#9761;","elianto","#3366ff99","-1","-1","1","+10","[]","0","0","2","","","","","","","",""
"pit-trial","53","525249","0.0-2.0-11.3-1.3","battery-v0.2","","""event"",""trial"",""time""
""fullscreenenter"",""1"",""2045""
","
","
","""event"",""trial"",""time""
""fullscreenenter"",""1"",""2045""
","
","","","-1","","","12","10580","4939","&#9761;","elianto","#3366ff99","-1","-1","1","+10","[]","0","0","2","","","","","","","",""
"pit-trial","54","530123","0.0-2.0-11.3-2.3","battery-v0.2","","""event"",""trial"",""time""
""fullscreenenter"",""1"",""2045""
","
","
","""event"",""trial"",""time""
""fullscreenenter"",""1"",""2045""
","
","","","-1","","","12","10580","4939","&#9761;","elianto","#3366ff99","-1","-1","1","+10","[]","0","0","2","","","","","","","",""
"pit-trial","55","534992","0.0-2.0-11.3-3.3","battery-v0.2","","""event"",""trial"",""time""
""fullscreenenter"",""1"",""2045""
","
","
","""event"",""trial"",""time""
""fullscreenenter"",""1"",""2045""
","
","","","-1","","","12","10580","4939","&#9761;","elianto","#3366ff99","-1","-1","1","0","[]","0","0","2","","","","","","","",""
"pit-trial","56","539858","0.0-2.0-11.3-4.3","battery-v0.2","","""event"",""trial"",""time""
""fullscreenenter"",""1"",""2045""
","
","
","""event"",""trial"",""time""
""fullscreenenter"",""1"",""2045""
","
","","","-1","","","12","10580","4939","&#9761;","elianto","#3366ff99","-1","-1","1","+10","[]","0","0","2","","","","","","","",""
"call-function","57","539863","0.0-2.0-12.0","battery-v0.2","","""event"",""trial"",""time""
""fullscreenenter"",""1"",""2045""
","
","
","""event"",""trial"",""time""
""fullscreenenter"",""1"",""2045""
","
","","","","","","","","","","","","","","","","","","","","","","","","","","",""
"pit-instructions","58","568116","0.0-2.0-13.0","battery-v0.2","","""event"",""trial"",""time""
""fullscreenenter"",""1"",""2045""
","
","
","""event"",""trial"",""time""
""fullscreenenter"",""1"",""2045""
","
","","[{""page_index"":0,""viewing_time"":4251.199999988079},{""page_index"":1,""viewing_time"":6219.599999964237},{""page_index"":2,""viewing_time"":3083.5},{""page_index"":3,""viewing_time"":10113.400000035763},{""page_index"":4,""viewing_time"":4586.099999964237}]","28254.299999952316","","","","","","","","","","","","","","","","","","","","","","","",""
"pit-trial","59","571640","0.0-2.0-14.0-0.0","battery-v0.2","","""event"",""trial"",""time""
""fullscreenenter"",""1"",""2045""
","
","
","""event"",""trial"",""time""
""fullscreenenter"",""1"",""2045""
","
","","","657.1000000238419","","","12","10580","4939","&#9826;","elianto","#f73b6a7A","-1"," ","0","-10","[1513.199999988079]","1","0","3","","","","","","","",""
"pit-trial","60","576511","0.0-2.0-14.0-1.0","battery-v0.2","","""event"",""trial"",""time""
""fullscreenenter"",""1"",""2045""
","
","
","""event"",""trial"",""time""
""fullscreenenter"",""1"",""2045""
","
","","","-1","","","12","10580","4939","&#9826;","elianto","#f73b6a7A","-1","-1","1","0","[]","0","0","3","","","","","","","",""
"pit-trial","61","581386","0.0-2.0-14.0-2.0","battery-v0.2","","""event"",""trial"",""time""
""fullscreenenter"",""1"",""2045""
","
","
","""event"",""trial"",""time""
""fullscreenenter"",""1"",""2045""
","
","","","-1","","","12","10580","4939","&#9826;","elianto","#f73b6a7A","-1","-1","1","0","[]","0","0","3","","","","","","","",""
"pit-trial","62","586255","0.0-2.0-14.0-3.0","battery-v0.2","","""event"",""trial"",""time""
""fullscreenenter"",""1"",""2045""
","
","
","""event"",""trial"",""time""
""fullscreenenter"",""1"",""2045""
","
","","","-1","","","12","10580","4939","&#9826;","elianto","#f73b6a7A","-1","-1","1","-10","[]","0","0","3","","","","","","","",""
"pit-trial","63","591130","0.0-2.0-14.0-4.0","battery-v0.2","","""event"",""trial"",""time""
""fullscreenenter"",""1"",""2045""
","
","
","""event"",""trial"",""time""
""fullscreenenter"",""1"",""2045""
","
","","","-1","","","12","10580","4939","&#9826;","elianto","#f73b6a7A","-1","-1","1","0","[]","0","0","3","","","","","","","",""
"pit-trial","64","595998","0.0-2.0-14.1-0.1","battery-v0.2","","""event"",""trial"",""time""
""fullscreenenter"",""1"",""2045""
","
","
","""event"",""trial"",""time""
""fullscreenenter"",""1"",""2045""
","
","","","-1","","","12","10580","4939","&#9826;","elianto","#f73b6a7A","-1","-1","1","0","[]","0","0","3","","","","","","","",""
"pit-trial","65","600863","0.0-2.0-14.1-1.1","battery-v0.2","","""event"",""trial"",""time""
""fullscreenenter"",""1"",""2045""
","
","
","""event"",""trial"",""time""
""fullscreenenter"",""1"",""2045""
","
","","","-1","","","12","10580","4939","&#9826;","elianto","#f73b6a7A","-1","-1","1","0","[]","0","0","3","","","","","","","",""
"pit-trial","66","605733","0.0-2.0-14.1-2.1","battery-v0.2","","""event"",""trial"",""time""
""fullscreenenter"",""1"",""2045""
","
","
","""event"",""trial"",""time""
""fullscreenenter"",""1"",""2045""
","
","","","-1","","","12","10580","4939","&#9826;","elianto","#f73b6a7A","-1","-1","1","0","[]","0","0","3","","","","","","","",""
"pit-trial","67","610606","0.0-2.0-14.1-3.1","battery-v0.2","","""event"",""trial"",""time""
""fullscreenenter"",""1"",""2045""
","
","
","""event"",""trial"",""time""
""fullscreenenter"",""1"",""2045""
","
","","","-1","","","12","10580","4939","&#9826;","elianto","#f73b6a7A","-1","-1","1","-10","[]","0","0","3","","","","","","","",""
"pit-trial","68","615470","0.0-2.0-14.1-4.1","battery-v0.2","","""event"",""trial"",""time""
""fullscreenenter"",""1"",""2045""
","
","
","""event"",""trial"",""time""
""fullscreenenter"",""1"",""2045""
","
","","","-1","","","12","10580","4939","&#9826;","elianto","#f73b6a7A","-1","-1","1","0","[]","0","0","3","","","","","","","",""
"pit-trial","69","620339","0.0-2.0-14.2-0.2","battery-v0.2","","""event"",""trial"",""time""
""fullscreenenter"",""1"",""2045""
","
","
","""event"",""trial"",""time""
""fullscreenenter"",""1"",""2045""
","
","","","-1","","","12","10580","4939","&#9826;","elianto","#f73b6a7A","-1","-1","1","0","[]","0","0","3","","","","","","","",""
"pit-trial","70","625215","0.0-2.0-14.2-1.2","battery-v0.2","","""event"",""trial"",""time""
""fullscreenenter"",""1"",""2045""
","
","
","""event"",""trial"",""time""
""fullscreenenter"",""1"",""2045""
","
","","","-1","","","12","10580","4939","&#9826;","elianto","#f73b6a7A","-1","-1","1","0","[]","0","0","3","","","","","","","",""
"pit-trial","71","630084","0.0-2.0-14.2-2.2","battery-v0.2","","""event"",""trial"",""time""
""fullscreenenter"",""1"",""2045""
","
","
","""event"",""trial"",""time""
""fullscreenenter"",""1"",""2045""
","
","","","-1","","","12","10580","4939","&#9826;","elianto","#f73b6a7A","-1","-1","1","0","[]","0","0","3","","","","","","","",""
"pit-trial","72","634959","0.0-2.0-14.2-3.2","battery-v0.2","","""event"",""trial"",""time""
""fullscreenenter"",""1"",""2045""
","
","
","""event"",""trial"",""time""
""fullscreenenter"",""1"",""2045""
","
","","","-1","","","12","10580","4939","&#9826;","elianto","#f73b6a7A","-1","-1","1","-10","[]","0","0","3","","","","","","","",""
"pit-trial","73","639826","0.0-2.0-14.2-4.2","battery-v0.2","","""event"",""trial"",""time""
""fullscreenenter"",""1"",""2045""
","
","
","""event"",""trial"",""time""
""fullscreenenter"",""1"",""2045""
","
","","","-1","","","12","10580","4939","&#9826;","elianto","#f73b6a7A","-1","-1","1","0","[]","0","0","3","","","","","","","",""
"pit-trial","74","644702","0.0-2.0-14.3-0.3","battery-v0.2","","""event"",""trial"",""time""
""fullscreenenter"",""1"",""2045""
","
","
","""event"",""trial"",""time""
""fullscreenenter"",""1"",""2045""
","
","","","-1","","","12","10580","4939","&#9826;","elianto","#f73b6a7A","-1","-1","1","0","[]","0","0","3","","","","","","","",""
"pit-trial","75","649571","0.0-2.0-14.3-1.3","battery-v0.2","","""event"",""trial"",""time""
""fullscreenenter"",""1"",""2045""
","
","
","""event"",""trial"",""time""
""fullscreenenter"",""1"",""2045""
","
","","","-1","","","12","10580","4939","&#9826;","elianto","#f73b6a7A","-1","-1","1","0","[]","0","0","3","","","","","","","",""
"pit-trial","76","654435","0.0-2.0-14.3-2.3","battery-v0.2","","""event"",""trial"",""time""
""fullscreenenter"",""1"",""2045""
","
","
","""event"",""trial"",""time""
""fullscreenenter"",""1"",""2045""
","
","","","-1","","","12","10580","4939","&#9826;","elianto","#f73b6a7A","-1","-1","1","0","[]","0","0","3","","","","","","","",""
"pit-trial","77","659298","0.0-2.0-14.3-3.3","battery-v0.2","","""event"",""trial"",""time""
""fullscreenenter"",""1"",""2045""
","
","
","""event"",""trial"",""time""
""fullscreenenter"",""1"",""2045""
","
","","","-1","","","12","10580","4939","&#9826;","elianto","#f73b6a7A","-1","-1","1","-10","[]","0","0","3","","","","","","","",""
"pit-trial","78","664172","0.0-2.0-14.3-4.3","battery-v0.2","","""event"",""trial"",""time""
""fullscreenenter"",""1"",""2045""
","
","
","""event"",""trial"",""time""
""fullscreenenter"",""1"",""2045""
","
","","","-1","","","12","10580","4939","&#9826;","elianto","#f73b6a7A","-1","-1","1","0","[]","0","0","3","","","","","","","",""
"call-function","79","664177","0.0-2.0-15.0","battery-v0.2","","""event"",""trial"",""time""
""fullscreenenter"",""1"",""2045""
","
","
","""event"",""trial"",""time""
""fullscreenenter"",""1"",""2045""
","
","","","","","","","","","","","","","","","","","","","","","","","","","","",""
"pit-instructions","80","688409","0.0-2.0-16.0","battery-v0.2","","""event"",""trial"",""time""
""fullscreenenter"",""1"",""2045""
","
","
","""event"",""trial"",""time""
""fullscreenenter"",""1"",""2045""
","
","","[{""page_index"":0,""viewing_time"":6841.400000035763},{""page_index"":1,""viewing_time"":8293.399999976158},{""page_index"":2,""viewing_time"":4197.100000023842},{""page_index"":3,""viewing_time"":4899.5}]","24232.400000035763","","","","","","","","","","","","","","","","","","","","","","","",""
"pit-trial","81","691817","0.0-2.0-17.0-0.0","battery-v0.2","","""event"",""trial"",""time""
""fullscreenenter"",""1"",""2045""
","
","
","""event"",""trial"",""time""
""fullscreenenter"",""1"",""2045""
","
","","","550.9000000357628","","","12","10580","4939","&#9789;","elianto","#f73b6a7A"," "," ","1","0","[1402.199999988079]","1","0","4","","","","","","","",""
"pit-trial","82","695427","0.0-2.0-17.0-1.0","battery-v0.2","","""event"",""trial"",""time""
""fullscreenenter"",""1"",""2045""
","
","
","""event"",""trial"",""time""
""fullscreenenter"",""1"",""2045""
","
","","","745.3000000119209","","","12","10580","4939","&#9789;","elianto","#f73b6a7A"," "," ","1","0","[1596.3999999761581]","1","0","4","","","","","","","",""
"pit-trial","83","699178","0.0-2.0-17.0-2.0","battery-v0.2","","""event"",""trial"",""time""
""fullscreenenter"",""1"",""2045""
","
","
","""event"",""trial"",""time""
""fullscreenenter"",""1"",""2045""
","
","","","881.3000000119209","","","12","10580","4939","&#9789;","elianto","#f73b6a7A"," "," ","1","0","[1738.300000011921]","1","0","4","","","","","","","",""
"pit-trial","84","704047","0.0-2.0-17.0-3.0","battery-v0.2","","""event"",""trial"",""time""
""fullscreenenter"",""1"",""2045""
","
","
","""event"",""trial"",""time""
""fullscreenenter"",""1"",""2045""
","
","","","-1","","","12","10580","4939","&#9789;","elianto","#f73b6a7A"," ","-1","0","0","[]","0","0","4","","","","","","","",""
"pit-trial","85","708921","0.0-2.0-17.0-4.0","battery-v0.2","","""event"",""trial"",""time""
""fullscreenenter"",""1"",""2045""
","
","
","""event"",""trial"",""time""
""fullscreenenter"",""1"",""2045""
","
","","","-1","","","12","10580","4939","&#9789;","elianto","#f73b6a7A"," ","-1","0","-10","[]","0","0","4","","","","","","","",""
"pit-trial","86","713795","0.0-2.0-17.1-0.1","battery-v0.2","","""event"",""trial"",""time""
""fullscreenenter"",""1"",""2045""
","
","
","""event"",""trial"",""time""
""fullscreenenter"",""1"",""2045""
","
","","","-1","","","12","10580","4939","&#9789;","elianto","#f73b6a7A"," ","-1","0","-10","[]","0","0","4","","","","","","","",""
"pit-trial","87","718663","0.0-2.0-17.1-1.1","battery-v0.2","","""event"",""trial"",""time""
""fullscreenenter"",""1"",""2045""
","
","
","""event"",""trial"",""time""
""fullscreenenter"",""1"",""2045""
","
","","","-1","","","12","10580","4939","&#9789;","elianto","#f73b6a7A"," ","-1","0","-10","[]","0","0","4","","","","","","","",""
"pit-trial","88","723538","0.0-2.0-17.1-2.1","battery-v0.2","","""event"",""trial"",""time""
""fullscreenenter"",""1"",""2045""
","
","
","""event"",""trial"",""time""
""fullscreenenter"",""1"",""2045""
","
","","","-1","","","12","10580","4939","&#9789;","elianto","#f73b6a7A"," ","-1","0","-10","[]","0","0","4","","","","","","","",""
"pit-trial","89","728409","0.0-2.0-17.1-3.1","battery-v0.2","","""event"",""trial"",""time""
""fullscreenenter"",""1"",""2045""
","
","
","""event"",""trial"",""time""
""fullscreenenter"",""1"",""2045""
","
","","","-1","","","12","10580","4939","&#9789;","elianto","#f73b6a7A"," ","-1","0","0","[]","0","0","4","","","","","","","",""
"pit-trial","90","733278","0.0-2.0-17.1-4.1","battery-v0.2","","""event"",""trial"",""time""
""fullscreenenter"",""1"",""2045""
","
","
","""event"",""trial"",""time""
""fullscreenenter"",""1"",""2045""
","
","","","-1","","","12","10580","4939","&#9789;","elianto","#f73b6a7A"," ","-1","0","-10","[]","0","0","4","","","","","","","",""
"pit-trial","91","738149","0.0-2.0-17.2-0.2","battery-v0.2","","""event"",""trial"",""time""
""fullscreenenter"",""1"",""2045""
","
","
","""event"",""trial"",""time""
""fullscreenenter"",""1"",""2045""
","
","","","-1","","","12","10580","4939","&#9789;","elianto","#f73b6a7A"," ","-1","0","-10","[]","0","0","4","","","","","","","",""
"pit-trial","92","743015","0.0-2.0-17.2-1.2","battery-v0.2","","""event"",""trial"",""time""
""fullscreenenter"",""1"",""2045""
","
","
","""event"",""trial"",""time""
""fullscreenenter"",""1"",""2045""
","
","","","-1","","","12","10580","4939","&#9789;","elianto","#f73b6a7A"," ","-1","0","-10","[]","0","0","4","","","","","","","",""
"pit-trial","93","747887","0.0-2.0-17.2-2.2","battery-v0.2","","""event"",""trial"",""time""
""fullscreenenter"",""1"",""2045""
","
","
","""event"",""trial"",""time""
""fullscreenenter"",""1"",""2045""
","
","","","-1","","","12","10580","4939","&#9789;","elianto","#f73b6a7A"," ","-1","0","-10","[]","0","0","4","","","","","","","",""
"pit-trial","94","752760","0.0-2.0-17.2-3.2","battery-v0.2","","""event"",""trial"",""time""
""fullscreenenter"",""1"",""2045""
","
","
","""event"",""trial"",""time""
""fullscreenenter"",""1"",""2045""
","
","","","-1","","","12","10580","4939","&#9789;","elianto","#f73b6a7A"," ","-1","0","0","[]","0","0","4","","","","","","","",""
"pit-trial","95","757631","0.0-2.0-17.2-4.2","battery-v0.2","","""event"",""trial"",""time""
""fullscreenenter"",""1"",""2045""
","
","
","""event"",""trial"",""time""
""fullscreenenter"",""1"",""2045""
","
","","","-1","","","12","10580","4939","&#9789;","elianto","#f73b6a7A"," ","-1","0","-10","[]","0","0","4","","","","","","","",""
"pit-trial","96","762502","0.0-2.0-17.3-0.3","battery-v0.2","","""event"",""trial"",""time""
""fullscreenenter"",""1"",""2045""
","
","
","""event"",""trial"",""time""
""fullscreenenter"",""1"",""2045""
","
","","","-1","","","12","10580","4939","&#9789;","elianto","#f73b6a7A"," ","-1","0","-10","[]","0","0","4","","","","","","","",""
"pit-trial","97","767376","0.0-2.0-17.3-1.3","battery-v0.2","","""event"",""trial"",""time""
""fullscreenenter"",""1"",""2045""
","
","
","""event"",""trial"",""time""
""fullscreenenter"",""1"",""2045""
","
","","","-1","","","12","10580","4939","&#9789;","elianto","#f73b6a7A"," ","-1","0","-10","[]","0","0","4","","","","","","","",""
"pit-trial","98","772243","0.0-2.0-17.3-2.3","battery-v0.2","","""event"",""trial"",""time""
""fullscreenenter"",""1"",""2045""
","
","
","""event"",""trial"",""time""
""fullscreenenter"",""1"",""2045""
","
","","","-1","","","12","10580","4939","&#9789;","elianto","#f73b6a7A"," ","-1","0","-10","[]","0","0","4","","","","","","","",""
"pit-trial","99","777110","0.0-2.0-17.3-3.3","battery-v0.2","","""event"",""trial"",""time""
""fullscreenenter"",""1"",""2045""
","
","
","""event"",""trial"",""time""
""fullscreenenter"",""1"",""2045""
","
","","","-1","","","12","10580","4939","&#9789;","elianto","#f73b6a7A"," ","-1","0","0","[]","0","0","4","","","","","","","",""
"pit-trial","100","781979","0.0-2.0-17.3-4.3","battery-v0.2","","""event"",""trial"",""time""
""fullscreenenter"",""1"",""2045""
","
","
","""event"",""trial"",""time""
""fullscreenenter"",""1"",""2045""
","
","","","-1","","","12","10580","4939","&#9789;","elianto","#f73b6a7A"," ","-1","0","-10","[]","0","0","4","","","","","","","",""
"call-function","101","781983","0.0-2.0-18.0","battery-v0.2","","""event"",""trial"",""time""
""fullscreenenter"",""1"",""2045""
","
","
","""event"",""trial"",""time""
""fullscreenenter"",""1"",""2045""
","
","","","","","","","","","","","","","","","","","","","","","","","","","","",""
"pit-instructions","102","853572","0.0-2.0-19.0","battery-v0.2","","""event"",""trial"",""time""
""fullscreenenter"",""1"",""2045""
","
","
","""event"",""trial"",""time""
""fullscreenenter"",""1"",""2045""
","
","","[{""page_index"":0,""viewing_time"":20155.100000023842},{""page_index"":1,""viewing_time"":5383.699999988079},{""page_index"":2,""viewing_time"":8785.800000011921},{""page_index"":3,""viewing_time"":4161.300000011921},{""page_index"":4,""viewing_time"":6307.300000011921},{""page_index"":5,""viewing_time"":9034.899999976158},{""page_index"":6,""viewing_time"":5717.800000011921},{""page_index"":7,""viewing_time"":7600.5},{""page_index"":8,""viewing_time"":4445.199999988079}]","71592.10000002384","","","","","","","","","","","","","","","","","","","","","","","",""
"pit-comprehension","103","857622","0.0-2.0-20.0-0.0","battery-v0.2","","""event"",""trial"",""time""
""fullscreenenter"",""1"",""2045""
","
","
","""event"",""trial"",""time""
""fullscreenenter"",""1"",""2045""
","
","","","4041.099999964237","[""SPACE""]","0","12","10580","4939","","","","","","","","","","","","","","","","","","",""
"pit-instructions","104","860260","0.0-2.0-20.0-1.0","battery-v0.2","","""event"",""trial"",""time""
""fullscreenenter"",""1"",""2045""
","
","
","""event"",""trial"",""time""
""fullscreenenter"",""1"",""2045""
","
","","[{""page_index"":0,""viewing_time"":2578.099999964237}]","2578.2999999523163","","","","","","","","","","","","","","","","","","","","","","","",""
"pit-comprehension","105","865640","0.0-2.0-21.0-0.0","battery-v0.2","","""event"",""trial"",""time""
""fullscreenenter"",""1"",""2045""
","
","
","""event"",""trial"",""time""
""fullscreenenter"",""1"",""2045""
","
","","","5377.900000035763","[""10""]","0","12","10580","4939","","","","","","","","","","","","","","","","","","",""
"pit-instructions","106","866840","0.0-2.0-21.0-1.0","battery-v0.2","","""event"",""trial"",""time""
""fullscreenenter"",""1"",""2045""
","
","
","""event"",""trial"",""time""
""fullscreenenter"",""1"",""2045""
","
","","[{""page_index"":0,""viewing_time"":1172.0999999642372}]","1172.2999999523163","","","","","","","","","","","","","","","","","","","","","","","",""
"pit-comprehension","107","873085","0.0-2.0-22.0-0.0","battery-v0.2","","""event"",""trial"",""time""
""fullscreenenter"",""1"",""2045""
","
","
","""event"",""trial"",""time""
""fullscreenenter"",""1"",""2045""
","
","","","6239.800000011921","[""-10""]","1","12","10580","4939","","","","","","","","","","","","","","","","","","",""
"pit-instructions","108","876080","0.0-2.0-22.0-1.0","battery-v0.2","","""event"",""trial"",""time""
""fullscreenenter"",""1"",""2045""
","
","
","""event"",""trial"",""time""
""fullscreenenter"",""1"",""2045""
","
","","[{""page_index"":0,""viewing_time"":2945.399999976158}]","2945.399999976158","","","","","","","","","","","","","","","","","","","","","","","",""
"pit-instructions","109","876851","0.0-2.0-22.0-2.0-0.0","battery-v0.2","","""event"",""trial"",""time""
""fullscreenenter"",""1"",""2045""
","
","
","""event"",""trial"",""time""
""fullscreenenter"",""1"",""2045""
","
","","[{""page_index"":0,""viewing_time"":769}]","769.3000000119209","","","","","","","","","","","","","","","","","","","","","","","",""
"pit-comprehension","110","882926","0.0-2.0-22.1-0.1","battery-v0.2","","""event"",""trial"",""time""
""fullscreenenter"",""1"",""2045""
","
","
","""event"",""trial"",""time""
""fullscreenenter"",""1"",""2045""
","
","","","6072.099999964237","[""0""]","0","12","10580","4939","","","","","","","","","","","","","","","","","","",""
"pit-instructions","111","884535","0.0-2.0-22.1-1.1","battery-v0.2","","""event"",""trial"",""time""
""fullscreenenter"",""1"",""2045""
","
","
","""event"",""trial"",""time""
""fullscreenenter"",""1"",""2045""
","
","","[{""page_index"":0,""viewing_time"":1544.8999999761581}]","1545.199999988079","","","","","","","","","","","","","","","","","","","","","","","",""
"pit-comprehension","112","898068","0.0-2.0-23.0-0.0","battery-v0.2","","""event"",""trial"",""time""
""fullscreenenter"",""1"",""2045""
","
","
","""event"",""trial"",""time""
""fullscreenenter"",""1"",""2045""
","
","","","13526.400000035763","[""True""]","0","12","10580","4939","","","","","","","","","","","","","","","","","","",""
"pit-instructions","113","899815","0.0-2.0-23.0-1.0","battery-v0.2","","""event"",""trial"",""time""
""fullscreenenter"",""1"",""2045""
","
","
","""event"",""trial"",""time""
""fullscreenenter"",""1"",""2045""
","
","","[{""page_index"":0,""viewing_time"":1691}]","1691.7000000476837","","","","","","","","","","","","","","","","","","","","","","","",""
"pit-comprehension","114","907083","0.0-2.0-24.0-0.0","battery-v0.2","","""event"",""trial"",""time""
""fullscreenenter"",""1"",""2045""
","
","
","""event"",""trial"",""time""
""fullscreenenter"",""1"",""2045""
","
","","","7262.100000023842","[""True""]","0","12","10580","4939","","","","","","","","","","","","","","","","","","",""
"pit-instructions","115","908737","0.0-2.0-24.0-1.0","battery-v0.2","","""event"",""trial"",""time""
""fullscreenenter"",""1"",""2045""
","
","
","""event"",""trial"",""time""
""fullscreenenter"",""1"",""2045""
","
","","[{""page_index"":0,""viewing_time"":1599.800000011921}]","1600.199999988079","","","","","","","","","","","","","","","","","","","","","","","",""
"pit-comprehension","116","915062","0.0-2.0-25.0-0.0","battery-v0.2","","""event"",""trial"",""time""
""fullscreenenter"",""1"",""2045""
","
","
","""event"",""trial"",""time""
""fullscreenenter"",""1"",""2045""
","
","","","6317.299999952316","[""True""]","0","12","10580","4939","","","","","","","","","","","","","","","","","","",""
"pit-instructions","117","916670","0.0-2.0-25.0-1.0","battery-v0.2","","""event"",""trial"",""time""
""fullscreenenter"",""1"",""2045""
","
","
","""event"",""trial"",""time""
""fullscreenenter"",""1"",""2045""
","
","","[{""page_index"":0,""viewing_time"":1553.6000000238419}]","1554.300000011921","","","","","","","","","","","","","","","","","","","","","","","",""
"pit-comprehension","118","925352","0.0-2.0-26.0-0.0","battery-v0.2","","""event"",""trial"",""time""
""fullscreenenter"",""1"",""2045""
","
","
","""event"",""trial"",""time""
""fullscreenenter"",""1"",""2045""
","
","","","8674.899999976158","[""False""]","0","12","10580","4939","","","","","","","","","","","","","","","","","","",""
"pit-instructions","119","927542","0.0-2.0-26.0-1.0","battery-v0.2","","""event"",""trial"",""time""
""fullscreenenter"",""1"",""2045""
","
","
","""event"",""trial"",""time""
""fullscreenenter"",""1"",""2045""
","
","","[{""page_index"":0,""viewing_time"":2137.2000000476837}]","2137.5","","","","","","","","","","","","","","","","","","","","","","","",""
"pit-instructions","120","958984","0.0-3.0","battery-v0.2","","""event"",""trial"",""time""
""fullscreenenter"",""1"",""2045""
","
","
","""event"",""trial"",""time""
""fullscreenenter"",""1"",""2045""
","
","","[{""page_index"":0,""viewing_time"":14103.800000011921},{""page_index"":1,""viewing_time"":11020},{""page_index"":2,""viewing_time"":6314}]","31438.19999998808","","","","","","","","","","","","","","","","","","","","","","","",""
"pit-trial","121","963773","0.0-4.0","battery-v0.2","","""event"",""trial"",""time""
""fullscreenenter"",""1"",""2045""
","
","
","""event"",""trial"",""time""
""fullscreenenter"",""1"",""2045""
","
","","","1909","","","12","10580","4939","&#9752;","elianto","#f73b6a7A"," "," ","1","0","[2763.5]","1","1","","","10580","1","3","3","lose","go","0"
"pit-trial","122","967180","0.0-5.0","battery-v0.2","","""event"",""trial"",""time""
""fullscreenenter"",""1"",""2045""
","
","
","""event"",""trial"",""time""
""fullscreenenter"",""1"",""2045""
","
","","","541.4000000357628","","","12","10580","4939","&#9730;","elianto","#3366ff99"," "," ","1","0","[1393.300000011921]","1","1","","","10580","2","1","1","win","go","1"
"pit-trial","123","970590","0.0-6.0","battery-v0.2","","""event"",""trial"",""time""
""fullscreenenter"",""1"",""2045""
","
","
","""event"",""trial"",""time""
""fullscreenenter"",""1"",""2045""
","
","","","538","","","12","10580","4939","&#9733;","elianto","#3366ff99","-1"," ","0","0","[1393.4000000357628]","1","1","","","10580","3","2","2","win","no-go","0"
"pit-trial","124","974146","0.0-7.0","battery-v0.2","","""event"",""trial"",""time""
""fullscreenenter"",""1"",""2045""
","
","
","""event"",""trial"",""time""
""fullscreenenter"",""1"",""2045""
","
","","","689.3999999761581","","","12","10580","4939","&#9728;","elianto","#f73b6a7A","-1"," ","0","-10","[1545.699999988079]","1","1","","","10580","4","0","4","lose","no-go","0"
"pit-trial","125","977564","0.0-8.0","battery-v0.2","","""event"",""trial"",""time""
""fullscreenenter"",""1"",""2045""
","
","
","""event"",""trial"",""time""
""fullscreenenter"",""1"",""2045""
","
","","","552.5999999642372","","","12","10580","4939","&#9730;","elianto","#3366ff99"," "," ","1","+10","[1407.0999999642372]","1","1","","","10580","5","1","1","win","go","0"
"pit-trial","126","981308","0.0-9.0","battery-v0.2","","""event"",""trial"",""time""
""fullscreenenter"",""1"",""2045""
","
","
","""event"",""trial"",""time""
""fullscreenenter"",""1"",""2045""
","
","","","884","","","12","10580","4939","&#9728;","elianto","#f73b6a7A","-1"," ","0","-10","[1734.1000000238419]","1","1","","","10580","6","0","4","lose","no-go","0"
"pit-trial","127","984546","0.0-10.0","battery-v0.2","","""event"",""trial"",""time""
""fullscreenenter"",""1"",""2045""
","
","
","""event"",""trial"",""time""
""fullscreenenter"",""1"",""2045""
","
","","","373.2999999523163","","","12","10580","4939","&#9752;","elianto","#f73b6a7A"," "," ","1","-10","[1223.5]","1","1","","","10580","7","3","3","lose","go","1"
"pit-trial","128","988043","0.0-11.0","battery-v0.2","","""event"",""trial"",""time""
""fullscreenenter"",""1"",""2045""
","
","
","""event"",""trial"",""time""
""fullscreenenter"",""1"",""2045""
","
","","","624.8000000119209","","","12","10580","4939","&#9733;","elianto","#3366ff99","-1"," ","0","0","[1484.199999988079]","1","1","","","10580","8","2","2","win","no-go","0"
"pit-trial","129","992226","0.0-12.0","battery-v0.2","","""event"",""trial"",""time""
""fullscreenenter"",""1"",""2045""
","
","
","""event"",""trial"",""time""
""fullscreenenter"",""1"",""2045""
","
","","","1312.9000000357628","","","12","10580","4939","&#9752;","elianto","#f73b6a7A"," "," ","1","0","[2171.300000011921]","1","1","","","10580","9","3","3","lose","go","0"
"pit-trial","130","995527","0.0-13.0","battery-v0.2","","""event"",""trial"",""time""
""fullscreenenter"",""1"",""2045""
","
","
","""event"",""trial"",""time""
""fullscreenenter"",""1"",""2045""
","
","","","432.19999998807907","","","12","10580","4939","&#9733;","elianto","#3366ff99","-1"," ","0","0","[1292.3999999761581]","1","1","","","10580","10","2","2","win","no-go","0"
"pit-trial","131","998471","0.0-14.0","battery-v0.2","","""event"",""trial"",""time""
""fullscreenenter"",""1"",""2045""
","
","
","""event"",""trial"",""time""
""fullscreenenter"",""1"",""2045""
","
","","","81.20000004768372","","","12","10580","4939","&#9730;","elianto","#3366ff99"," "," ","1","+10","[933.8000000119209]","1","1","","","10580","11","1","1","win","go","0"
"pit-trial","132","1003335","0.0-15.0","battery-v0.2","","""event"",""trial"",""time""
""fullscreenenter"",""1"",""2045""
","
","
","""event"",""trial"",""time""
""fullscreenenter"",""1"",""2045""
","
","","","-1","","","12","10580","4939","&#9728;","elianto","#f73b6a7A","-1","-1","1","0","[]","0","1","","","10580","12","0","4","lose","no-go","0"
"pit-trial","133","1006605","0.0-16.0","battery-v0.2","","""event"",""trial"",""time""
""fullscreenenter"",""1"",""2045""
","
","
","""event"",""trial"",""time""
""fullscreenenter"",""1"",""2045""
","
","","","400.2999999523163","","","12","10580","4939","&#9730;","elianto","#3366ff99"," "," ","1","+10","[1252]","1","1","","","10580","13","1","1","win","go","0"
"pit-trial","134","1011472","0.0-17.0","battery-v0.2","","""event"",""trial"",""time""
""fullscreenenter"",""1"",""2045""
","
","
","""event"",""trial"",""time""
""fullscreenenter"",""1"",""2045""
","
","","","-1","","","12","10580","4939","&#9752;","elianto","#f73b6a7A"," ","-1","0","0","[]","0","1","","","10580","14","3","3","lose","go","1"
"pit-trial","135","1016347","0.0-18.0","battery-v0.2","","""event"",""trial"",""time""
""fullscreenenter"",""1"",""2045""
","
","
","""event"",""trial"",""time""
""fullscreenenter"",""1"",""2045""
","
","","","-1","","","12","10580","4939","&#9728;","elianto","#f73b6a7A","-1","-1","1","0","[]","0","1","","","10580","15","0","4","lose","no-go","0"
"pit-trial","136","1019665","0.0-19.0","battery-v0.2","","""event"",""trial"",""time""
""fullscreenenter"",""1"",""2045""
","
","
","""event"",""trial"",""time""
""fullscreenenter"",""1"",""2045""
","
","","","451.69999998807907","","","12","10580","4939","&#9733;","elianto","#3366ff99","-1"," ","0","0","[1306.699999988079]","1","1","","","10580","16","2","2","win","no-go","0"
"pit-trial","137","1024534","0.0-20.0","battery-v0.2","","""event"",""trial"",""time""
""fullscreenenter"",""1"",""2045""
","
","
","""event"",""trial"",""time""
""fullscreenenter"",""1"",""2045""
","
","","","-1","","","12","10580","4939","&#9728;","elianto","#f73b6a7A","-1","-1","1","-10","[]","0","1","","","10580","17","0","4","lose","no-go","1"
"pit-trial","138","1027887","0.0-21.0","battery-v0.2","","""event"",""trial"",""time""
""fullscreenenter"",""1"",""2045""
","
","
","""event"",""trial"",""time""
""fullscreenenter"",""1"",""2045""
","
","","","489.80000001192093","","","12","10580","4939","&#9733;","elianto","#3366ff99","-1"," ","0","0","[1342]","1","1","","","10580","18","2","2","win","no-go","0"
"pit-trial","139","1031110","0.0-22.0","battery-v0.2","","""event"",""trial"",""time""
""fullscreenenter"",""1"",""2045""
","
","
","""event"",""trial"",""time""
""fullscreenenter"",""1"",""2045""
","
","","","354.60000002384186","","","12","10580","4939","&#9730;","elianto","#3366ff99"," "," ","1","+10","[1208.300000011921]","1","1","","","10580","19","1","1","win","go","0"
"pit-trial","140","1034360","0.0-23.0","battery-v0.2","","""event"",""trial"",""time""
""fullscreenenter"",""1"",""2045""
","
","
","""event"",""trial"",""time""
""fullscreenenter"",""1"",""2045""
","
","","","384.5","","","12","10580","4939","&#9752;","elianto","#f73b6a7A"," "," ","1","0","[1235.8999999761581]","1","1","","","10580","20","3","3","lose","go","0"
"pit-instructions","141","1047622","0.0-24.0","battery-v0.2","","""event"",""trial"",""time""
""fullscreenenter"",""1"",""2045""
","
","
","""event"",""trial"",""time""
""fullscreenenter"",""1"",""2045""
","
","","[{""page_index"":0,""viewing_time"":5966.699999988079},{""page_index"":1,""viewing_time"":7292.399999976158}]","13259.599999964237","","","","","","","","","","","","","","","","","","","","","","","",""
"pit-trial","142","1051335","0.0-25.0","battery-v0.2","","""event"",""trial"",""time""
""fullscreenenter"",""1"",""2045""
","
","
","""event"",""trial"",""time""
""fullscreenenter"",""1"",""2045""
","
","","","839.8999999761581","","","12","10580","4939","l","elianto","#3366ff99"," "," ","1","0","[1694.300000011921]","1","2","","","10580","21","1","1","win","go","1"
"pit-trial","143","1054476","0.0-26.0","battery-v0.2","","""event"",""trial"",""time""
""fullscreenenter"",""1"",""2045""
","
","
","""event"",""trial"",""time""
""fullscreenenter"",""1"",""2045""
","
","","","277.30000001192093","","","12","10580","4939","g","elianto","#f73b6a7A"," "," ","1","-10","[1134.800000011921]","1","2","","","10580","22","3","3","lose","go","1"
"pit-trial","144","1058044","0.0-27.0","battery-v0.2","","""event"",""trial"",""time""
""fullscreenenter"",""1"",""2045""
","
","
","""event"",""trial"",""time""
""fullscreenenter"",""1"",""2045""
","
","","","707","","","12","10580","4939","a","elianto","#f73b6a7A","-1"," ","0","-10","[1558.4000000357628]","1","2","","","10580","23","2","4","lose","no-go","0"
"pit-trial","145","1061676","0.0-28.0","battery-v0.2","","""event"",""trial"",""time""
""fullscreenenter"",""1"",""2045""
","
","
","""event"",""trial"",""time""
""fullscreenenter"",""1"",""2045""
","
","","","772","","","12","10580","4939","u","elianto","#f73b6a7A","-1"," ","0","-10","[1623.699999988079]","1","2","","","10580","24","0","4","lose","no-go","0"
"pit-trial","146","1065547","0.0-29.0","battery-v0.2","","""event"",""trial"",""time""
""fullscreenenter"",""1"",""2045""
","
","
","""event"",""trial"",""time""
""fullscreenenter"",""1"",""2045""
","
","","","1006.7999999523163","","","12","10580","4939","g","elianto","#f73b6a7A"," "," ","1","0","[1859.3999999761581]","1","2","","","10580","25","3","3","lose","go","0"
"pit-trial","147","1069302","0.0-30.0","battery-v0.2","","""event"",""trial"",""time""
""fullscreenenter"",""1"",""2045""
","
","
","""event"",""trial"",""time""
""fullscreenenter"",""1"",""2045""
","
","","","889.1000000238419","","","12","10580","4939","a","elianto","#f73b6a7A","-1"," ","0","-10","[1739.699999988079]","1","2","","","10580","26","2","4","lose","no-go","0"
"pit-trial","148","1074176","0.0-31.0","battery-v0.2","","""event"",""trial"",""time""
""fullscreenenter"",""1"",""2045""
","
","
","""event"",""trial"",""time""
""fullscreenenter"",""1"",""2045""
","
","","","-1","","","12","10580","4939","u","elianto","#f73b6a7A","-1","-1","1","0","[]","0","2","","","10580","27","0","4","lose","no-go","0"
"pit-trial","149","1078087","0.0-32.0","battery-v0.2","","""event"",""trial"",""time""
""fullscreenenter"",""1"",""2045""
","
","
","""event"",""trial"",""time""
""fullscreenenter"",""1"",""2045""
","
","","","1049.8999999761581","","","12","10580","4939","l","elianto","#3366ff99"," "," ","1","+10","[1900.3999999761581]","1","2","","","10580","28","1","1","win","go","0"
"pit-trial","150","1081933","0.0-33.0","battery-v0.2","","""event"",""trial"",""time""
""fullscreenenter"",""1"",""2045""
","
","
","""event"",""trial"",""time""
""fullscreenenter"",""1"",""2045""
","
","","","985.8000000119209","","","12","10580","4939","u","elianto","#f73b6a7A","-1"," ","0","-10","[1837]","1","2","","","10580","29","0","4","lose","no-go","0"
"pit-trial","151","1085401","0.0-34.0","battery-v0.2","","""event"",""trial"",""time""
""fullscreenenter"",""1"",""2045""
","
","
","""event"",""trial"",""time""
""fullscreenenter"",""1"",""2045""
","
","","","597.4000000357628","","","12","10580","4939","l","elianto","#3366ff99"," "," ","1","+10","[1453.1000000238419]","1","2","","","10580","30","1","1","win","go","0"
"pit-trial","152","1089419","0.0-35.0","battery-v0.2","","""event"",""trial"",""time""
""fullscreenenter"",""1"",""2045""
","
","
","""event"",""trial"",""time""
""fullscreenenter"",""1"",""2045""
","
","","","1158.300000011921","","","12","10580","4939","g","elianto","#f73b6a7A"," "," ","1","0","[2010.800000011921]","1","2","","","10580","31","3","3","lose","go","0"
"pit-trial","153","1093190","0.0-36.0","battery-v0.2","","""event"",""trial"",""time""
""fullscreenenter"",""1"",""2045""
","
","
","""event"",""trial"",""time""
""fullscreenenter"",""1"",""2045""
","
","","","905.1999999880791","","","12","10580","4939","a","elianto","#f73b6a7A","-1"," ","0","0","[639.3999999761581,1756]","2","2","","","10580","32","2","4","lose","no-go","1"
"pit-trial","154","1097147","0.0-37.0","battery-v0.2","","""event"",""trial"",""time""
""fullscreenenter"",""1"",""2045""
","
","
","""event"",""trial"",""time""
""fullscreenenter"",""1"",""2045""
","
","","","1087.5","","","12","10580","4939","a","elianto","#f73b6a7A","-1"," ","0","-10","[1947.4000000357628]","1","2","","","10580","33","2","4","lose","no-go","0"
"pit-trial","155","1100430","0.0-38.0","battery-v0.2","","""event"",""trial"",""time""
""fullscreenenter"",""1"",""2045""
","
","
","""event"",""trial"",""time""
""fullscreenenter"",""1"",""2045""
","
","","","410","","","12","10580","4939","g","elianto","#f73b6a7A"," "," ","1","-10","[1269.3999999761581]","1","2","","","10580","34","3","3","lose","go","1"
"pit-trial","156","1103846","0.0-39.0","battery-v0.2","","""event"",""trial"",""time""
""fullscreenenter"",""1"",""2045""
","
","
","""event"",""trial"",""time""
""fullscreenenter"",""1"",""2045""
","
","","","549.3000000119209","","","12","10580","4939","l","elianto","#3366ff99"," "," ","1","+10","[1405.199999988079,3024.899999976158]","2","2","","","10580","35","1","1","win","go","0"
"pit-trial","157","1107837","0.0-40.0","battery-v0.2","","""event"",""trial"",""time""
""fullscreenenter"",""1"",""2045""
","
","
","""event"",""trial"",""time""
""fullscreenenter"",""1"",""2045""
","
","","","1122.5","","","12","10580","4939","u","elianto","#f73b6a7A","-1"," ","0","-10","[1977.5999999642372]","1","2","","","10580","36","0","4","lose","no-go","0"
"pit-trial","158","1112709","0.0-41.0","battery-v0.2","","""event"",""trial"",""time""
""fullscreenenter"",""1"",""2045""
","
","
","""event"",""trial"",""time""
""fullscreenenter"",""1"",""2045""
","
","","","-1","","","12","10580","4939","g","elianto","#f73b6a7A"," ","-1","0","-10","[]","0","2","","","10580","37","3","3","lose","go","0"
"pit-trial","159","1116464","0.0-42.0","battery-v0.2","","""event"",""trial"",""time""
""fullscreenenter"",""1"",""2045""
","
","
","""event"",""trial"",""time""
""fullscreenenter"",""1"",""2045""
","
","","","887.3999999761581","","","12","10580","4939","l","elianto","#3366ff99"," "," ","1","+10","[1743.5]","1","2","","","10580","38","1","1","win","go","0"
"pit-trial","160","1121333","0.0-43.0","battery-v0.2","","""event"",""trial"",""time""
""fullscreenenter"",""1"",""2045""
","
","
","""event"",""trial"",""time""
""fullscreenenter"",""1"",""2045""
","
","","","-1","","","12","10580","4939","u","elianto","#f73b6a7A","-1","-1","1","-10","[]","0","2","","","10580","39","0","4","lose","no-go","1"
"pit-trial","161","1125216","0.0-44.0","battery-v0.2","","""event"",""trial"",""time""
""fullscreenenter"",""1"",""2045""
","
","
","""event"",""trial"",""time""
""fullscreenenter"",""1"",""2045""
","
","","","1019","","","12","10580","4939","a","elianto","#f73b6a7A","-1"," ","0","-10","[1874.2000000476837,2798,3073.600000023842,3266.300000011921,3440.600000023842,3582.400000035763,3731.2000000476837,3872.800000011921]","8","2","","","10580","40","2","4","lose","no-go","0"
"pit-trial","162","1128085","0.0-45.0","battery-v0.2","","""event"",""trial"",""time""
""fullscreenenter"",""1"",""2045""
","
","
","""event"",""trial"",""time""
""fullscreenenter"",""1"",""2045""
","
","","","4.900000035762787","","","12","10580","4939","g","elianto","#f73b6a7A"," "," ","1","0","[141.89999997615814,276.69999998807907,433.19999998807907,577.3999999761581,728.5,859,1012.6999999880791,1168.5,1329.699999988079,1504.1000000238419,1670.199999988079,1814.5,1964.3999999761581,2098.300000011921]","14","2","","","10580","41","3","3","lose","go","0"
"pit-trial","163","1131419","0.0-46.0","battery-v0.2","","""event"",""trial"",""time""
""fullscreenenter"",""1"",""2045""
","
","
","""event"",""trial"",""time""
""fullscreenenter"",""1"",""2045""
","
","","","464.69999998807907","","","12","10580","4939","u","elianto","#f73b6a7A","-1"," ","0","0","[1320.3999999761581]","1","2","","","10580","42","0","4","lose","no-go","1"
"pit-trial","164","1134794","0.0-47.0","battery-v0.2","","""event"",""trial"",""time""
""fullscreenenter"",""1"",""2045""
","
","
","""event"",""trial"",""time""
""fullscreenenter"",""1"",""2045""
","
","","","510.19999998807907","","","12","10580","4939","a","elianto","#f73b6a7A","-1"," ","0","-10","[1360.7999999523163]","1","2","","","10580","43","2","4","lose","no-go","0"
"pit-trial","165","1138156","0.0-48.0","battery-v0.2","","""event"",""trial"",""time""
""fullscreenenter"",""1"",""2045""
","
","
","""event"",""trial"",""time""
""fullscreenenter"",""1"",""2045""
","
","","","489.5","","","12","10580","4939","l","elianto","#3366ff99"," "," ","1","+10","[1346.3999999761581]","1","2","","","10580","44","1","1","win","go","0"
"pit-trial","166","1141688","0.0-49.0","battery-v0.2","","""event"",""trial"",""time""
""fullscreenenter"",""1"",""2045""
","
","
","""event"",""trial"",""time""
""fullscreenenter"",""1"",""2045""
","
","","","668.1000000238419","","","12","10580","4939","a","elianto","#f73b6a7A","-1"," ","0","-10","[1525.199999988079]","1","2","","","10580","45","2","4","lose","no-go","0"
"pit-trial","167","1145144","0.0-50.0","battery-v0.2","","""event"",""trial"",""time""
""fullscreenenter"",""1"",""2045""
","
","
","""event"",""trial"",""time""
""fullscreenenter"",""1"",""2045""
","
","","","590.5","","","12","10580","4939","p","elianto","#3366ff99","-1"," ","0","+10","[1443.699999988079]","1","2","","","10580","46","4","2","win","no-go","1"
"pit-trial","168","1148569","0.0-51.0","battery-v0.2","","""event"",""trial"",""time""
""fullscreenenter"",""1"",""2045""
","
","
","""event"",""trial"",""time""
""fullscreenenter"",""1"",""2045""
","
","","","567.3999999761581","","","12","10580","4939","u","elianto","#f73b6a7A","-1"," ","0","0","[1418.5]","1","2","","","10580","47","0","4","lose","no-go","1"
"pit-trial","169","1152211","0.0-52.0","battery-v0.2","","""event"",""trial"",""time""
""fullscreenenter"",""1"",""2045""
","
","
","""event"",""trial"",""time""
""fullscreenenter"",""1"",""2045""
","
","","","779.2999999523163","","","12","10580","4939","g","elianto","#f73b6a7A"," "," ","1","0","[1632.5]","1","2","","","10580","48","3","3","lose","go","0"
"pit-trial","170","1155786","0.0-53.0","battery-v0.2","","""event"",""trial"",""time""
""fullscreenenter"",""1"",""2045""
","
","
","""event"",""trial"",""time""
""fullscreenenter"",""1"",""2045""
","
","","","708.3999999761581","","","12","10580","4939","u","elianto","#f73b6a7A","-1"," ","0","0","[1564.0999999642372]","1","2","","","10580","49","0","4","lose","no-go","1"
"pit-trial","171","1159130","0.0-54.0","battery-v0.2","","""event"",""trial"",""time""
""fullscreenenter"",""1"",""2045""
","
","
","""event"",""trial"",""time""
""fullscreenenter"",""1"",""2045""
","
","","","482.80000001192093","","","12","10580","4939","l","elianto","#3366ff99"," "," ","1","+10","[1333.0999999642372]","1","2","","","10580","50","1","1","win","go","0"
"pit-trial","172","1162520","0.0-55.0","battery-v0.2","","""event"",""trial"",""time""
""fullscreenenter"",""1"",""2045""
","
","
","""event"",""trial"",""time""
""fullscreenenter"",""1"",""2045""
","
","","","524.3000000119209","","","12","10580","4939","g","elianto","#f73b6a7A"," "," ","1","0","[1377]","1","2","","","10580","51","3","3","lose","go","0"
"pit-trial","173","1166024","0.0-56.0","battery-v0.2","","""event"",""trial"",""time""
""fullscreenenter"",""1"",""2045""
","
","
","""event"",""trial"",""time""
""fullscreenenter"",""1"",""2045""
","
","","","631.3000000119209","","","12","10580","4939","p","elianto","#3366ff99","-1"," ","0","0","[1488.800000011921]","1","2","","","10580","52","4","2","win","no-go","0"
"pit-trial","174","1169176","0.0-57.0","battery-v0.2","","""event"",""trial"",""time""
""fullscreenenter"",""1"",""2045""
","
","
","""event"",""trial"",""time""
""fullscreenenter"",""1"",""2045""
","
","","","290.0999999642372","","","12","10580","4939","u","elianto","#f73b6a7A","-1"," ","0","-10","[1141]","1","2","","","10580","53","0","4","lose","no-go","0"
"pit-trial","175","1172424","0.0-58.0","battery-v0.2","","""event"",""trial"",""time""
""fullscreenenter"",""1"",""2045""
","
","
","""event"",""trial"",""time""
""fullscreenenter"",""1"",""2045""
","
","","","386.5","","","12","10580","4939","l","elianto","#3366ff99"," "," ","1","0","[1238.300000011921]","1","2","","","10580","54","1","1","win","go","1"
"pit-trial","176","1176068","0.0-59.0","battery-v0.2","","""event"",""trial"",""time""
""fullscreenenter"",""1"",""2045""
","
","
","""event"",""trial"",""time""
""fullscreenenter"",""1"",""2045""
","
","","","774.8000000119209","","","12","10580","4939","p","elianto","#3366ff99","-1"," ","0","0","[1628.7000000476837]","1","2","","","10580","55","4","2","win","no-go","0"
"pit-trial","177","1180856","0.0-60.0","battery-v0.2","","""event"",""trial"",""time""
""fullscreenenter"",""1"",""2045""
","
","
","""event"",""trial"",""time""
""fullscreenenter"",""1"",""2045""
","
","","","1920","","","12","10580","4939","a","elianto","#f73b6a7A","-1"," ","0","-10","[2774.699999988079]","1","2","","","10580","56","2","4","lose","no-go","0"
"pit-trial","178","1184356","0.0-61.0","battery-v0.2","","""event"",""trial"",""time""
""fullscreenenter"",""1"",""2045""
","
","
","""event"",""trial"",""time""
""fullscreenenter"",""1"",""2045""
","
","","","634.1999999880791","","","12","10580","4939","g","elianto","#f73b6a7A"," "," ","1","0","[1485.199999988079]","1","2","","","10580","57","3","3","lose","go","0"
"pit-trial","179","1187862","0.0-62.0","battery-v0.2","","""event"",""trial"",""time""
""fullscreenenter"",""1"",""2045""
","
","
","""event"",""trial"",""time""
""fullscreenenter"",""1"",""2045""
","
","","","647.4000000357628","","","12","10580","4939","p","elianto","#3366ff99","-1"," ","0","0","[1499.199999988079]","1","2","","","10580","58","4","2","win","no-go","0"
"pit-trial","180","1191358","0.0-63.0","battery-v0.2","","""event"",""trial"",""time""
""fullscreenenter"",""1"",""2045""
","
","
","""event"",""trial"",""time""
""fullscreenenter"",""1"",""2045""
","
","","","629.3999999761581","","","12","10580","4939","l","elianto","#3366ff99"," "," ","1","+10","[1481.800000011921]","1","2","","","10580","59","1","1","win","go","0"
"pit-trial","181","1194887","0.0-64.0","battery-v0.2","","""event"",""trial"",""time""
""fullscreenenter"",""1"",""2045""
","
","
","""event"",""trial"",""time""
""fullscreenenter"",""1"",""2045""
","
","","","660.1000000238419","","","12","10580","4939","u","elianto","#f73b6a7A","-1"," ","0","-10","[1514.5]","1","2","","","10580","60","0","4","lose","no-go","0"
"pit-trial","182","1198094","0.0-65.0","battery-v0.2","","""event"",""trial"",""time""
""fullscreenenter"",""1"",""2045""
","
","
","""event"",""trial"",""time""
""fullscreenenter"",""1"",""2045""
","
","","","342.7000000476837","","","12","10580","4939","p","elianto","#3366ff99","-1"," ","0","0","[1195]","1","2","","","10580","61","4","2","win","no-go","0"
"pit-trial","183","1201958","0.0-66.0","battery-v0.2","","""event"",""trial"",""time""
""fullscreenenter"",""1"",""2045""
","
","
","""event"",""trial"",""time""
""fullscreenenter"",""1"",""2045""
","
","","","989.4000000357628","","","12","10580","4939","l","elianto","#3366ff99"," "," ","1","0","[1850.800000011921]","1","2","","","10580","62","1","1","win","go","1"
"pit-trial","184","1206304","0.0-67.0","battery-v0.2","","""event"",""trial"",""time""
""fullscreenenter"",""1"",""2045""
","
","
","""event"",""trial"",""time""
""fullscreenenter"",""1"",""2045""
","
","","","1475.699999988079","","","12","10580","4939","a","elianto","#f73b6a7A","-1"," ","0","-10","[2334.399999976158]","1","2","","","10580","63","2","4","lose","no-go","0"
"pit-trial","185","1211173","0.0-68.0","battery-v0.2","","""event"",""trial"",""time""
""fullscreenenter"",""1"",""2045""
","
","
","""event"",""trial"",""time""
""fullscreenenter"",""1"",""2045""
","
","","","-1","","","12","10580","4939","g","elianto","#f73b6a7A"," ","-1","0","-10","[]","0","2","","","10580","64","3","3","lose","go","0"
"pit-trial","186","1214661","0.0-69.0","battery-v0.2","","""event"",""trial"",""time""
""fullscreenenter"",""1"",""2045""
","
","
","""event"",""trial"",""time""
""fullscreenenter"",""1"",""2045""
","
","","","620.8000000119209","","","12","10580","4939","a","elianto","#f73b6a7A","-1"," ","0","-10","[1476.800000011921]","1","2","","","10580","65","2","4","lose","no-go","0"
"pit-trial","187","1218086","0.0-70.0","battery-v0.2","","""event"",""trial"",""time""
""fullscreenenter"",""1"",""2045""
","
","
","""event"",""trial"",""time""
""fullscreenenter"",""1"",""2045""
","
","","","557.3000000119209","","","12","10580","4939","g","elianto","#f73b6a7A"," "," ","1","-10","[1415.800000011921]","1","2","","","10580","66","3","3","lose","go","1"
"pit-trial","188","1221311","0.0-71.0","battery-v0.2","","""event"",""trial"",""time""
""fullscreenenter"",""1"",""2045""
","
","
","""event"",""trial"",""time""
""fullscreenenter"",""1"",""2045""
","
","","","352.0999999642372","","","12","10580","4939","l","elianto","#3366ff99"," "," ","1","0","[1208.699999988079]","1","2","","","10580","67","1","1","win","go","1"
"pit-trial","189","1224597","0.0-72.0","battery-v0.2","","""event"",""trial"",""time""
""fullscreenenter"",""1"",""2045""
","
","
","""event"",""trial"",""time""
""fullscreenenter"",""1"",""2045""
","
","","","414","","","12","10580","4939","p","elianto","#3366ff99","-1"," ","0","0","[1272.0999999642372]","1","2","","","10580","68","4","2","win","no-go","0"
"pit-trial","190","1228383","0.0-73.0","battery-v0.2","","""event"",""trial"",""time""
""fullscreenenter"",""1"",""2045""
","
","
","""event"",""trial"",""time""
""fullscreenenter"",""1"",""2045""
","
","","","921.1999999880791","","","12","10580","4939","l","elianto","#3366ff99"," "," ","1","+10","[1775.699999988079]","1","2","","","10580","69","1","1","win","go","0"
"pit-trial","191","1232037","0.0-74.0","battery-v0.2","","""event"",""trial"",""time""
""fullscreenenter"",""1"",""2045""
","
","
","""event"",""trial"",""time""
""fullscreenenter"",""1"",""2045""
","
","","","788.7000000476837","","","12","10580","4939","s","elianto","#3366ff99"," "," ","1","+10","[1639.4000000357628]","1","2","","","10580","70","5","1","win","go","0"
"pit-trial","192","1235471","0.0-75.0","battery-v0.2","","""event"",""trial"",""time""
""fullscreenenter"",""1"",""2045""
","
","
","""event"",""trial"",""time""
""fullscreenenter"",""1"",""2045""
","
","","","559.1999999880791","","","12","10580","4939","p","elianto","#3366ff99","-1"," ","0","0","[1417.800000011921]","1","2","","","10580","71","4","2","win","no-go","0"
"pit-trial","193","1240340","0.0-76.0","battery-v0.2","","""event"",""trial"",""time""
""fullscreenenter"",""1"",""2045""
","
","
","""event"",""trial"",""time""
""fullscreenenter"",""1"",""2045""
","
","","","-1","","","12","10580","4939","g","elianto","#f73b6a7A"," ","-1","0","-10","[]","0","2","","","10580","72","3","3","lose","go","0"
"pit-trial","194","1243956","0.0-77.0","battery-v0.2","","""event"",""trial"",""time""
""fullscreenenter"",""1"",""2045""
","
","
","""event"",""trial"",""time""
""fullscreenenter"",""1"",""2045""
","
","","","755.8999999761581","","","12","10580","4939","l","elianto","#3366ff99"," "," ","1","+10","[1607.2999999523163]","1","2","","","10580","73","1","1","win","go","0"
"pit-trial","195","1247337","0.0-78.0","battery-v0.2","","""event"",""trial"",""time""
""fullscreenenter"",""1"",""2045""
","
","
","""event"",""trial"",""time""
""fullscreenenter"",""1"",""2045""
","
","","","518","","","12","10580","4939","s","elianto","#3366ff99"," "," ","1","+10","[1368.699999988079]","1","2","","","10580","74","5","1","win","go","0"
"pit-trial","196","1250885","0.0-79.0","battery-v0.2","","""event"",""trial"",""time""
""fullscreenenter"",""1"",""2045""
","
","
","""event"",""trial"",""time""
""fullscreenenter"",""1"",""2045""
","
","","","680.5","","","12","10580","4939","g","elianto","#f73b6a7A"," "," ","1","0","[1531.699999988079]","1","2","","","10580","75","3","3","lose","go","0"
"pit-trial","197","1254253","0.0-80.0","battery-v0.2","","""event"",""trial"",""time""
""fullscreenenter"",""1"",""2045""
","
","
","""event"",""trial"",""time""
""fullscreenenter"",""1"",""2045""
","
","","","505.2999999523163","","","12","10580","4939","p","elianto","#3366ff99","-1"," ","0","+10","[1355.199999988079]","1","2","","","10580","76","4","2","win","no-go","1"
"pit-trial","198","1257605","0.0-81.0","battery-v0.2","","""event"",""trial"",""time""
""fullscreenenter"",""1"",""2045""
","
","
","""event"",""trial"",""time""
""fullscreenenter"",""1"",""2045""
","
","","","481.19999998807907","","","12","10580","4939","p","elianto","#3366ff99","-1"," ","0","0","[1337.300000011921]","1","2","","","10580","77","4","2","win","no-go","0"
"pit-trial","199","1261022","0.0-82.0","battery-v0.2","","""event"",""trial"",""time""
""fullscreenenter"",""1"",""2045""
","
","
","""event"",""trial"",""time""
""fullscreenenter"",""1"",""2045""
","
","","","541.6999999880791","","","12","10580","4939","g","elianto","#f73b6a7A"," "," ","1","0","[1402.1000000238419]","1","2","","","10580","78","3","3","lose","go","0"
"pit-trial","200","1264259","0.0-83.0","battery-v0.2","","""event"",""trial"",""time""
""fullscreenenter"",""1"",""2045""
","
","
","""event"",""trial"",""time""
""fullscreenenter"",""1"",""2045""
","
","","","372.9000000357628","","","12","10580","4939","s","elianto","#3366ff99"," "," ","1","+10","[1229.6000000238419]","1","2","","","10580","79","5","1","win","go","0"
"pit-trial","201","1268019","0.0-84.0","battery-v0.2","","""event"",""trial"",""time""
""fullscreenenter"",""1"",""2045""
","
","
","""event"",""trial"",""time""
""fullscreenenter"",""1"",""2045""
","
","","","894.8000000119209","","","12","10580","4939","w","elianto","#f73b6a7A","-1"," ","0","-10","[1745]","1","2","","","10580","80","6","4","lose","no-go","0"
"pit-trial","202","1272189","0.0-85.0","battery-v0.2","","""event"",""trial"",""time""
""fullscreenenter"",""1"",""2045""
","
","
","""event"",""trial"",""time""
""fullscreenenter"",""1"",""2045""
","
","","","1305.300000011921","","","12","10580","4939","e","elianto","#f73b6a7A"," "," ","1","-10","[2156.399999976158]","1","2","","","10580","81","7","3","lose","go","1"
"pit-trial","203","1276084","0.0-86.0","battery-v0.2","","""event"",""trial"",""time""
""fullscreenenter"",""1"",""2045""
","
","
","""event"",""trial"",""time""
""fullscreenenter"",""1"",""2045""
","
","","","1025","","","12","10580","4939","p","elianto","#3366ff99","-1"," ","0","0","[1880.8999999761581]","1","2","","","10580","82","4","2","win","no-go","0"
"pit-trial","204","1279924","0.0-87.0","battery-v0.2","","""event"",""trial"",""time""
""fullscreenenter"",""1"",""2045""
","
","
","""event"",""trial"",""time""
""fullscreenenter"",""1"",""2045""
","
","","","968.3000000119209","","","12","10580","4939","s","elianto","#3366ff99"," "," ","1","+10","[1823.8999999761581]","1","2","","","10580","83","5","1","win","go","0"
"pit-trial","205","1283100","0.0-88.0","battery-v0.2","","""event"",""trial"",""time""
""fullscreenenter"",""1"",""2045""
","
","
","""event"",""trial"",""time""
""fullscreenenter"",""1"",""2045""
","
","","","300.30000001192093","","","12","10580","4939","w","elianto","#f73b6a7A","-1"," ","0","-10","[1158.2000000476837]","1","2","","","10580","84","6","4","lose","no-go","0"
"pit-trial","206","1286514","0.0-89.0","battery-v0.2","","""event"",""trial"",""time""
""fullscreenenter"",""1"",""2045""
","
","
","""event"",""trial"",""time""
""fullscreenenter"",""1"",""2045""
","
","","","548.1999999880791","","","12","10580","4939","s","elianto","#3366ff99"," "," ","1","0","[1405.199999988079]","1","2","","","10580","85","5","1","win","go","1"
"pit-trial","207","1291388","0.0-90.0","battery-v0.2","","""event"",""trial"",""time""
""fullscreenenter"",""1"",""2045""
","
","
","""event"",""trial"",""time""
""fullscreenenter"",""1"",""2045""
","
","","","-1","","","12","10580","4939","e","elianto","#f73b6a7A"," ","-1","0","-10","[]","0","2","","","10580","86","7","3","lose","go","0"
"pit-trial","208","1295499","0.0-91.0","battery-v0.2","","""event"",""trial"",""time""
""fullscreenenter"",""1"",""2045""
","
","
","""event"",""trial"",""time""
""fullscreenenter"",""1"",""2045""
","
","","","1245.300000011921","","","12","10580","4939","w","elianto","#f73b6a7A","-1"," ","0","-10","[2097.399999976158]","1","2","","","10580","87","6","4","lose","no-go","0"
"pit-trial","209","1298843","0.0-92.0","battery-v0.2","","""event"",""trial"",""time""
""fullscreenenter"",""1"",""2045""
","
","
","""event"",""trial"",""time""
""fullscreenenter"",""1"",""2045""
","
","","","476.80000001192093","","","12","10580","4939","p","elianto","#3366ff99","-1"," ","0","+10","[1328.5,3161.400000035763]","2","2","","","10580","88","4","2","win","no-go","1"
"pit-trial","210","1302365","0.0-93.0","battery-v0.2","","""event"",""trial"",""time""
""fullscreenenter"",""1"",""2045""
","
","
","""event"",""trial"",""time""
""fullscreenenter"",""1"",""2045""
","
","","","653.8000000119209","","","12","10580","4939","w","elianto","#f73b6a7A","-1"," ","0","-10","[1508]","1","2","","","10580","89","6","4","lose","no-go","0"
"pit-trial","211","1305835","0.0-94.0","battery-v0.2","","""event"",""trial"",""time""
""fullscreenenter"",""1"",""2045""
","
","
","""event"",""trial"",""time""
""fullscreenenter"",""1"",""2045""
","
","","","599.1000000238419","","","12","10580","4939","s","elianto","#3366ff99"," "," ","1","+10","[1452.1000000238419]","1","2","","","10580","90","5","1","win","go","0"
"pit-trial","212","1309342","0.0-95.0","battery-v0.2","","""event"",""trial"",""time""
""fullscreenenter"",""1"",""2045""
","
","
","""event"",""trial"",""time""
""fullscreenenter"",""1"",""2045""
","
","","","644.1999999880791","","","12","10580","4939","e","elianto","#f73b6a7A"," "," ","1","0","[1498.8999999761581]","1","2","","","10580","91","7","3","lose","go","0"
"pit-trial","213","1312752","0.0-96.0","battery-v0.2","","""event"",""trial"",""time""
""fullscreenenter"",""1"",""2045""
","
","
","""event"",""trial"",""time""
""fullscreenenter"",""1"",""2045""
","
","","","547.8999999761581","","","12","10580","4939","p","elianto","#3366ff99","-1"," ","0","0","[1399.2999999523163]","1","2","","","10580","92","4","2","win","no-go","0"
"pit-trial","214","1317626","0.0-97.0","battery-v0.2","","""event"",""trial"",""time""
""fullscreenenter"",""1"",""2045""
","
","
","""event"",""trial"",""time""
""fullscreenenter"",""1"",""2045""
","
","","","-1","","","12","10580","4939","w","elianto","#f73b6a7A","-1","-1","1","0","[]","0","2","","","10580","93","6","4","lose","no-go","0"
"pit-trial","215","1321378","0.0-98.0","battery-v0.2","","""event"",""trial"",""time""
""fullscreenenter"",""1"",""2045""
","
","
","""event"",""trial"",""time""
""fullscreenenter"",""1"",""2045""
","
","","","879.5","","","12","10580","4939","d","elianto","#3366ff99","-1"," ","0","+10","[1735.4000000357628]","1","2","","","10580","94","8","2","win","no-go","1"
"pit-trial","216","1324719","0.0-99.0","battery-v0.2","","""event"",""trial"",""time""
""fullscreenenter"",""1"",""2045""
","
","
","""event"",""trial"",""time""
""fullscreenenter"",""1"",""2045""
","
","","","470.5","","","12","10580","4939","s","elianto","#3366ff99"," "," ","1","+10","[1329.5]","1","2","","","10580","95","5","1","win","go","0"
"pit-trial","217","1329583","0.0-100.0","battery-v0.2","","""event"",""trial"",""time""
""fullscreenenter"",""1"",""2045""
","
","
","""event"",""trial"",""time""
""fullscreenenter"",""1"",""2045""
","
","","","-1","","","12","10580","4939","e","elianto","#f73b6a7A"," ","-1","0","-10","[]","0","2","","","10580","96","7","3","lose","go","0"
"pit-trial","218","1333321","0.0-101.0","battery-v0.2","","""event"",""trial"",""time""
""fullscreenenter"",""1"",""2045""
","
","
","""event"",""trial"",""time""
""fullscreenenter"",""1"",""2045""
","
","","","867.0999999642372","","","12","10580","4939","d","elianto","#3366ff99","-1"," ","0","+10","[1727.199999988079]","1","2","","","10580","97","8","2","win","no-go","1"
"pit-trial","219","1336857","0.0-102.0","battery-v0.2","","""event"",""trial"",""time""
""fullscreenenter"",""1"",""2045""
","
","
","""event"",""trial"",""time""
""fullscreenenter"",""1"",""2045""
","
","","","666.0999999642372","","","12","10580","4939","e","elianto","#f73b6a7A"," "," ","1","0","[1519.800000011921]","1","2","","","10580","98","7","3","lose","go","0"
"pit-trial","220","1340286","0.0-103.0","battery-v0.2","","""event"",""trial"",""time""
""fullscreenenter"",""1"",""2045""
","
","
","""event"",""trial"",""time""
""fullscreenenter"",""1"",""2045""
","
","","","563.3999999761581","","","12","10580","4939","s","elianto","#3366ff99"," "," ","1","+10","[1418.8999999761581]","1","2","","","10580","99","5","1","win","go","0"
"pit-trial","221","1345160","0.0-104.0","battery-v0.2","","""event"",""trial"",""time""
""fullscreenenter"",""1"",""2045""
","
","
","""event"",""trial"",""time""
""fullscreenenter"",""1"",""2045""
","
","","","-1","","","12","10580","4939","w","elianto","#f73b6a7A","-1","-1","1","0","[]","0","2","","","10580","100","6","4","lose","no-go","0"
"pit-trial","222","1348606","0.0-105.0","battery-v0.2","","""event"",""trial"",""time""
""fullscreenenter"",""1"",""2045""
","
","
","""event"",""trial"",""time""
""fullscreenenter"",""1"",""2045""
","
","","","580.1999999880791","","","12","10580","4939","j","elianto","#3366ff99","-1"," ","0","0","[1438.3999999761581]","1","2","","","10580","101","9","2","win","no-go","0"
"pit-trial","223","1351921","0.0-106.0","battery-v0.2","","""event"",""trial"",""time""
""fullscreenenter"",""1"",""2045""
","
","
","""event"",""trial"",""time""
""fullscreenenter"",""1"",""2045""
","
","","","438.69999998807907","","","12","10580","4939","s","elianto","#3366ff99"," "," ","1","+10","[1299.5999999642372]","1","2","","","10580","102","5","1","win","go","0"
"pit-trial","224","1355200","0.0-107.0","battery-v0.2","","""event"",""trial"",""time""
""fullscreenenter"",""1"",""2045""
","
","
","""event"",""trial"",""time""
""fullscreenenter"",""1"",""2045""
","
","","","412.19999998807907","","","12","10580","4939","d","elianto","#3366ff99","-1"," ","0","0","[1267.9000000357628]","1","2","","","10580","103","8","2","win","no-go","0"
"pit-trial","225","1358728","0.0-108.0","battery-v0.2","","""event"",""trial"",""time""
""fullscreenenter"",""1"",""2045""
","
","
","""event"",""trial"",""time""
""fullscreenenter"",""1"",""2045""
","
","","","653.8000000119209","","","12","10580","4939","w","elianto","#f73b6a7A","-1"," ","0","-10","[1510.300000011921]","1","2","","","10580","104","6","4","lose","no-go","0"
"pit-trial","226","1363416","0.0-109.0","battery-v0.2","","""event"",""trial"",""time""
""fullscreenenter"",""1"",""2045""
","
","
","""event"",""trial"",""time""
""fullscreenenter"",""1"",""2045""
","
","","","1817.9000000357628","","","12","10580","4939","s","elianto","#3366ff99"," "," ","1","+10","[2674.199999988079]","1","2","","","10580","105","5","1","win","go","0"
"pit-trial","227","1367375","0.0-110.0","battery-v0.2","","""event"",""trial"",""time""
""fullscreenenter"",""1"",""2045""
","
","
","""event"",""trial"",""time""
""fullscreenenter"",""1"",""2045""
","
","","","1094.300000011921","","","12","10580","4939","d","elianto","#3366ff99","-1"," ","0","0","[1950.2000000476837]","1","2","","","10580","106","8","2","win","no-go","0"
"pit-trial","228","1372247","0.0-111.0","battery-v0.2","","""event"",""trial"",""time""
""fullscreenenter"",""1"",""2045""
","
","
","""event"",""trial"",""time""
""fullscreenenter"",""1"",""2045""
","
","","","-1","","","12","10580","4939","w","elianto","#f73b6a7A","-1","-1","1","0","[]","0","2","","","10580","107","6","4","lose","no-go","0"
"pit-trial","229","1375693","0.0-112.0","battery-v0.2","","""event"",""trial"",""time""
""fullscreenenter"",""1"",""2045""
","
","
","""event"",""trial"",""time""
""fullscreenenter"",""1"",""2045""
","
","","","580.8999999761581","","","12","10580","4939","j","elianto","#3366ff99","-1"," ","0","0","[1431.300000011921]","1","2","","","10580","108","9","2","win","no-go","0"
"pit-trial","230","1380563","0.0-113.0","battery-v0.2","","""event"",""trial"",""time""
""fullscreenenter"",""1"",""2045""
","
","
","""event"",""trial"",""time""
""fullscreenenter"",""1"",""2045""
","
","","","-1","","","12","10580","4939","w","elianto","#f73b6a7A","-1","-1","1","0","[]","0","2","","","10580","109","6","4","lose","no-go","0"
"pit-trial","231","1384089","0.0-114.0","battery-v0.2","","""event"",""trial"",""time""
""fullscreenenter"",""1"",""2045""
","
","
","""event"",""trial"",""time""
""fullscreenenter"",""1"",""2045""
","
","","","660.6999999880791","","","12","10580","4939","j","elianto","#3366ff99","-1"," ","0","0","[1511.300000011921]","1","2","","","10580","110","9","2","win","no-go","0"
"pit-trial","232","1388092","0.0-115.0","battery-v0.2","","""event"",""trial"",""time""
""fullscreenenter"",""1"",""2045""
""blur"",""233"",""1391418""
","""event"",""trial"",""time""
""blur"",""233"",""1391418""
","
","""event"",""trial"",""time""
""fullscreenenter"",""1"",""2045""
","
","","","1140.4000000357628","","","12","10580","4939","s","elianto","#3366ff99"," "," ","1","+10","[1991.1000000238419]","1","2","","","10580","111","5","1","win","go","0"
"pit-trial","233","1392218","0.0-116.0","battery-v0.2","","""event"",""trial"",""time""
""fullscreenenter"",""1"",""2045""
""blur"",""233"",""1391418""
","""event"",""trial"",""time""
""blur"",""233"",""1391418""
","
","""event"",""trial"",""time""
""fullscreenenter"",""1"",""2045""
","
","","","1261.5999999642372","","","12","10580","4939","d","elianto","#3366ff99","-1"," ","0","0","[2118.899999976158]","1","2","","","10580","112","8","2","win","no-go","0"
"pit-trial","234","1397084","0.0-117.0","battery-v0.2","","""event"",""trial"",""time""
""fullscreenenter"",""1"",""2045""
""blur"",""233"",""1391418""
","""event"",""trial"",""time""
""blur"",""233"",""1391418""
","
","""event"",""trial"",""time""
""fullscreenenter"",""1"",""2045""
","
","","","-1","","","12","10580","4939","e","elianto","#f73b6a7A"," ","-1","0","-10","[]","0","2","","","10580","113","7","3","lose","go","0"
"pit-trial","235","1401982","0.0-118.0","battery-v0.2","","""event"",""trial"",""time""
""fullscreenenter"",""1"",""2045""
""blur"",""233"",""1391418""
","""event"",""trial"",""time""
""blur"",""233"",""1391418""
","
","""event"",""trial"",""time""
""fullscreenenter"",""1"",""2045""
","
","","","-1","","","12","10580","4939","j","elianto","#3366ff99","-1","-1","1","+10","[]","0","2","","","10580","114","9","2","win","no-go","0"
"pit-trial","236","1406853","0.0-119.0","battery-v0.2","","""event"",""trial"",""time""
""fullscreenenter"",""1"",""2045""
""blur"",""233"",""1391418""
","""event"",""trial"",""time""
""blur"",""233"",""1391418""
","
","""event"",""trial"",""time""
""fullscreenenter"",""1"",""2045""
","
","","","-1","","","12","10580","4939","s","elianto","#3366ff99"," ","-1","0","0","[]","0","2","","","10580","115","5","1","win","go","0"
"pit-trial","237","1411725","0.0-120.0","battery-v0.2","","""event"",""trial"",""time""
""fullscreenenter"",""1"",""2045""
""blur"",""233"",""1391418""
","""event"",""trial"",""time""
""blur"",""233"",""1391418""
","
","""event"",""trial"",""time""
""fullscreenenter"",""1"",""2045""
","
","","","-1","","","12","10580","4939","d","elianto","#3366ff99","-1","-1","1","+10","[]","0","2","","","10580","116","8","2","win","no-go","0"
"pit-trial","238","1416597","0.0-121.0","battery-v0.2","","""event"",""trial"",""time""
""fullscreenenter"",""1"",""2045""
""blur"",""233"",""1391418""
""focus"",""239"",""1417235""
","""event"",""trial"",""time""
""blur"",""233"",""1391418""
","""event"",""trial"",""time""
""focus"",""239"",""1417235""
","""event"",""trial"",""time""
""fullscreenenter"",""1"",""2045""
","
","","","-1","","","12","10580","4939","j","elianto","#3366ff99","-1","-1","1","+10","[]","0","2","","","10580","117","9","2","win","no-go","0"
"pit-trial","239","1419850","0.0-122.0","battery-v0.2","","""event"",""trial"",""time""
""fullscreenenter"",""1"",""2045""
""blur"",""233"",""1391418""
""focus"",""239"",""1417235""
","""event"",""trial"",""time""
""blur"",""233"",""1391418""
","""event"",""trial"",""time""
""focus"",""239"",""1417235""
","""event"",""trial"",""time""
""fullscreenenter"",""1"",""2045""
","
","","","390","","","12","10580","4939","s","elianto","#3366ff99"," "," ","1","+10","[1241.5,1659.300000011921]","2","2","","","10580","118","5","1","win","go","0"
"pit-trial","240","1424724","0.0-123.0","battery-v0.2","","""event"",""trial"",""time""
""fullscreenenter"",""1"",""2045""
""blur"",""233"",""1391418""
""focus"",""239"",""1417235""
","""event"",""trial"",""time""
""blur"",""233"",""1391418""
","""event"",""trial"",""time""
""focus"",""239"",""1417235""
","""event"",""trial"",""time""
""fullscreenenter"",""1"",""2045""
","
","","","-1","","","12","10580","4939","w","elianto","#f73b6a7A","-1","-1","1","-10","[]","0","2","","","10580","119","6","4","lose","no-go","1"
"pit-trial","241","1428250","0.0-124.0","battery-v0.2","","""event"",""trial"",""time""
""fullscreenenter"",""1"",""2045""
""blur"",""233"",""1391418""
""focus"",""239"",""1417235""
","""event"",""trial"",""time""
""blur"",""233"",""1391418""
","""event"",""trial"",""time""
""focus"",""239"",""1417235""
","""event"",""trial"",""time""
""fullscreenenter"",""1"",""2045""
","
","","","662.1999999880791","","","12","10580","4939","d","elianto","#3366ff99","-1"," ","0","0","[1513.9000000357628]","1","2","","","10580","120","8","2","win","no-go","0"
"pit-trial","242","1431834","0.0-125.0","battery-v0.2","","""event"",""trial"",""time""
""fullscreenenter"",""1"",""2045""
""blur"",""233"",""1391418""
""focus"",""239"",""1417235""
","""event"",""trial"",""time""
""blur"",""233"",""1391418""
","""event"",""trial"",""time""
""focus"",""239"",""1417235""
","""event"",""trial"",""time""
""fullscreenenter"",""1"",""2045""
","
","","","715.3000000119209","","","12","10580","4939","d","elianto","#3366ff99","-1"," ","0","0","[1570.2000000476837]","1","2","","","10580","121","8","2","win","no-go","0"
"pit-trial","243","1436703","0.0-126.0","battery-v0.2","","""event"",""trial"",""time""
""fullscreenenter"",""1"",""2045""
""blur"",""233"",""1391418""
""focus"",""239"",""1417235""
","""event"",""trial"",""time""
""blur"",""233"",""1391418""
","""event"",""trial"",""time""
""focus"",""239"",""1417235""
","""event"",""trial"",""time""
""fullscreenenter"",""1"",""2045""
","
","","","-1","","","12","10580","4939","e","elianto","#f73b6a7A"," ","-1","0","-10","[]","0","2","","","10580","122","7","3","lose","go","0"
"pit-trial","244","1441571","0.0-127.0","battery-v0.2","","""event"",""trial"",""time""
""fullscreenenter"",""1"",""2045""
""blur"",""233"",""1391418""
""focus"",""239"",""1417235""
","""event"",""trial"",""time""
""blur"",""233"",""1391418""
","""event"",""trial"",""time""
""focus"",""239"",""1417235""
","""event"",""trial"",""time""
""fullscreenenter"",""1"",""2045""
","
","","","-1","","","12","10580","4939","j","elianto","#3366ff99","-1","-1","1","+10","[3285.599999964237]","1","2","","","10580","123","9","2","win","no-go","0"
"pit-trial","245","1446441","0.0-128.0","battery-v0.2","","""event"",""trial"",""time""
""fullscreenenter"",""1"",""2045""
""blur"",""233"",""1391418""
""focus"",""239"",""1417235""
","""event"",""trial"",""time""
""blur"",""233"",""1391418""
","""event"",""trial"",""time""
""focus"",""239"",""1417235""
","""event"",""trial"",""time""
""fullscreenenter"",""1"",""2045""
","
","","","-1","","","12","10580","4939","s","elianto","#3366ff99"," ","-1","0","0","[3219.199999988079]","1","2","","","10580","124","5","1","win","go","0"
"pit-trial","246","1449778","0.0-129.0","battery-v0.2","","""event"",""trial"",""time""
""fullscreenenter"",""1"",""2045""
""blur"",""233"",""1391418""
""focus"",""239"",""1417235""
","""event"",""trial"",""time""
""blur"",""233"",""1391418""
","""event"",""trial"",""time""
""focus"",""239"",""1417235""
","""event"",""trial"",""time""
""fullscreenenter"",""1"",""2045""
","
","","","469.30000001192093","","","12","10580","4939","d","elianto","#3366ff99","-1"," ","0","+10","[1321]","1","2","","","10580","125","8","2","win","no-go","1"
"pit-trial","247","1454650","0.0-130.0","battery-v0.2","","""event"",""trial"",""time""
""fullscreenenter"",""1"",""2045""
""blur"",""233"",""1391418""
""focus"",""239"",""1417235""
","""event"",""trial"",""time""
""blur"",""233"",""1391418""
","""event"",""trial"",""time""
""focus"",""239"",""1417235""
","""event"",""trial"",""time""
""fullscreenenter"",""1"",""2045""
","
","","","-1","","","12","10580","4939","e","elianto","#f73b6a7A"," ","-1","0","-10","[]","0","2","","","10580","126","7","3","lose","go","0"
"pit-trial","248","1458055","0.0-131.0","battery-v0.2","","""event"",""trial"",""time""
""fullscreenenter"",""1"",""2045""
""blur"",""233"",""1391418""
""focus"",""239"",""1417235""
","""event"",""trial"",""time""
""blur"",""233"",""1391418""
","""event"",""trial"",""time""
""focus"",""239"",""1417235""
","""event"",""trial"",""time""
""fullscreenenter"",""1"",""2045""
","
","","","545.5","","","12","10580","4939","j","elianto","#3366ff99","-1"," ","0","0","[1396.300000011921]","1","2","","","10580","127","9","2","win","no-go","0"
"pit-trial","249","1462931","0.0-132.0","battery-v0.2","","""event"",""trial"",""time""
""fullscreenenter"",""1"",""2045""
""blur"",""233"",""1391418""
""focus"",""239"",""1417235""
","""event"",""trial"",""time""
""blur"",""233"",""1391418""
","""event"",""trial"",""time""
""focus"",""239"",""1417235""
","""event"",""trial"",""time""
""fullscreenenter"",""1"",""2045""
","
","","","-1","","","12","10580","4939","w","elianto","#f73b6a7A","-1","-1","1","0","[]","0","2","","","10580","128","6","4","lose","no-go","0"
"pit-trial","250","1466423","0.0-133.0","battery-v0.2","","""event"",""trial"",""time""
""fullscreenenter"",""1"",""2045""
""blur"",""233"",""1391418""
""focus"",""239"",""1417235""
","""event"",""trial"",""time""
""blur"",""233"",""1391418""
","""event"",""trial"",""time""
""focus"",""239"",""1417235""
","""event"",""trial"",""time""
""fullscreenenter"",""1"",""2045""
","
","","","631","","","12","10580","4939","d","elianto","#3366ff99","-1"," ","0","0","[1482.7000000476837]","1","2","","","10580","129","8","2","win","no-go","0"
"pit-trial","251","1471298","0.0-134.0","battery-v0.2","","""event"",""trial"",""time""
""fullscreenenter"",""1"",""2045""
""blur"",""233"",""1391418""
""focus"",""239"",""1417235""
","""event"",""trial"",""time""
""blur"",""233"",""1391418""
","""event"",""trial"",""time""
""focus"",""239"",""1417235""
","""event"",""trial"",""time""
""fullscreenenter"",""1"",""2045""
","
","","","-1","","","12","10580","4939","e","elianto","#f73b6a7A"," ","-1","0","-10","[]","0","2","","","10580","130","7","3","lose","go","0"
"pit-trial","252","1474642","0.0-135.0","battery-v0.2","","""event"",""trial"",""time""
""fullscreenenter"",""1"",""2045""
""blur"",""233"",""1391418""
""focus"",""239"",""1417235""
","""event"",""trial"",""time""
""blur"",""233"",""1391418""
","""event"",""trial"",""time""
""focus"",""239"",""1417235""
","""event"",""trial"",""time""
""fullscreenenter"",""1"",""2045""
","
","","","476.19999998807907","","","12","10580","4939","j","elianto","#3366ff99","-1"," ","0","0","[1330.4000000357628]","1","2","","","10580","131","9","2","win","no-go","0"
"pit-trial","253","1479513","0.0-136.0","battery-v0.2","","""event"",""trial"",""time""
""fullscreenenter"",""1"",""2045""
""blur"",""233"",""1391418""
""focus"",""239"",""1417235""
","""event"",""trial"",""time""
""blur"",""233"",""1391418""
","""event"",""trial"",""time""
""focus"",""239"",""1417235""
","""event"",""trial"",""time""
""fullscreenenter"",""1"",""2045""
","
","","","-1","","","12","10580","4939","w","elianto","#f73b6a7A","-1","-1","1","0","[]","0","2","","","10580","132","6","4","lose","no-go","0"
"pit-trial","254","1484386","0.0-137.0","battery-v0.2","","""event"",""trial"",""time""
""fullscreenenter"",""1"",""2045""
""blur"",""233"",""1391418""
