"trial_type","trial_index","time_elapsed","internal_node_id","task_version","subject_id","interactions","blur_events","focus_events","fullscreenenter_events","fullscreenexit_events","success","view_history","rt","responses","num_errors","age","subject","participantId","rune","rune_set","hex","correct","choice","accuracy","outcome","keys","total_keys","block","practice","value","sub","trial","stimulus","robot","valence","action","sham"
"pavlovia","0","46","0.0-0.0","battery-v0.2","","""event"",""trial"",""time""
""fullscreenenter"",""1"",""2082""
","
","
","""event"",""trial"",""time""
""fullscreenenter"",""1"",""2082""
","
","","","","","","","","","","","","","","","","","","","","","","","","","","",""
"fullscreen","1","3039","0.0-1.0","battery-v0.2","","""event"",""trial"",""time""
""fullscreenenter"",""1"",""2082""
","
","
","""event"",""trial"",""time""
""fullscreenenter"",""1"",""2082""
","
","true","","","","","","","","","","","","","","","","","","","","","","","","","",""
"pit-instructions","2","14169","0.0-2.0-0.0","battery-v0.2","","""event"",""trial"",""time""
""fullscreenenter"",""1"",""2082""
","
","
","""event"",""trial"",""time""
""fullscreenenter"",""1"",""2082""
","
","","[{""page_index"":0,""viewing_time"":11123.900000035763}]","11125","","","","","","","","","","","","","","","","","","","","","","","",""
"pit-comprehension","3","18301","0.0-2.0-1.0-0.0","battery-v0.2","","""event"",""trial"",""time""
""fullscreenenter"",""1"",""2082""
","
","
","""event"",""trial"",""time""
""fullscreenenter"",""1"",""2082""
","
","","","4122.5","[""shark""]","0","18","4117","2803","","","","","","","","","","","","","","","","","","",""
"pit-instructions","4","19796","0.0-2.0-1.0-1.0","battery-v0.2","","""event"",""trial"",""time""
""fullscreenenter"",""1"",""2082""
","
","
","""event"",""trial"",""time""
""fullscreenenter"",""1"",""2082""
","
","","[{""page_index"":0,""viewing_time"":1461.800000011921}]","1462.3999999761581","","","","","","","","","","","","","","","","","","","","","","","",""
"pit-comprehension","5","22777","0.0-2.0-2.0-0.0","battery-v0.2","","""event"",""trial"",""time""
""fullscreenenter"",""1"",""2082""
","
","
","""event"",""trial"",""time""
""fullscreenenter"",""1"",""2082""
","
","","","2976.899999976158","[""tiger""]","0","18","4117","2803","","","","","","","","","","","","","","","","","","",""
"pit-instructions","6","24129","0.0-2.0-2.0-1.0","battery-v0.2","","""event"",""trial"",""time""
""fullscreenenter"",""1"",""2082""
","
","
","""event"",""trial"",""time""
""fullscreenenter"",""1"",""2082""
","
","","[{""page_index"":0,""viewing_time"":1347.1000000238419}]","1347.5","","","","","","","","","","","","","","","","","","","","","","","",""
"pit-instructions","7","143507","0.0-2.0-3.0","battery-v0.2","","""event"",""trial"",""time""
""fullscreenenter"",""1"",""2082""
","
","
","""event"",""trial"",""time""
""fullscreenenter"",""1"",""2082""
","
","","[{""page_index"":0,""viewing_time"":10595.100000023842},{""page_index"":1,""viewing_time"":7640.399999976158},{""page_index"":2,""viewing_time"":8802.700000047684},{""page_index"":3,""viewing_time"":5736.199999988079},{""page_index"":4,""viewing_time"":6143.399999976158},{""page_index"":5,""viewing_time"":7092.199999988079},{""page_index"":6,""viewing_time"":8726.800000011921},{""page_index"":7,""viewing_time"":6656},{""page_index"":8,""viewing_time"":6561.5},{""page_index"":9,""viewing_time"":10525.400000035763},{""page_index"":10,""viewing_time"":9507},{""page_index"":9,""viewing_time"":3299.199999988079},{""page_index"":10,""viewing_time"":1710.8999999761581},{""page_index"":11,""viewing_time"":9824.600000023842},{""page_index"":12,""viewing_time"":9423.199999988079},{""page_index"":13,""viewing_time"":7125.300000011921}]","119370.40000003576","","","","","","","","","","","","","","","","","","","","","","","",""
"pit-trial","8","147179","0.0-2.0-4.0-0.0","battery-v0.2","","""event"",""trial"",""time""
""fullscreenenter"",""1"",""2082""
","
","
","""event"",""trial"",""time""
""fullscreenenter"",""1"",""2082""
","
","","","796.7999999523163","","","18","4117","2803","&#9784;","elianto","#FFFFF080"," "," ","1","&#10004","[1648.800000011921]","1","0","0","","","","","","","",""
"pit-trial","9","150719","0.0-2.0-4.1-0.1","battery-v0.2","","""event"",""trial"",""time""
""fullscreenenter"",""1"",""2082""
","
","
","""event"",""trial"",""time""
""fullscreenenter"",""1"",""2082""
","
","","","676.9000000357628","","","18","4117","2803","&#9784;","elianto","#FFFFF080"," "," ","1","&#10004","[1529.199999988079]","1","0","0","","","","","","","",""
"pit-trial","10","154298","0.0-2.0-4.2-0.2","battery-v0.2","","""event"",""trial"",""time""
""fullscreenenter"",""1"",""2082""
","
","
","""event"",""trial"",""time""
""fullscreenenter"",""1"",""2082""
","
","","","702.1000000238419","","","18","4117","2803","&#9784;","elianto","#FFFFF080"," "," ","1","&#10004","[1559.5999999642372]","1","0","0","","","","","","","",""
"pit-trial","11","157796","0.0-2.0-4.3-0.3","battery-v0.2","","""event"",""trial"",""time""
""fullscreenenter"",""1"",""2082""
","
","
","""event"",""trial"",""time""
""fullscreenenter"",""1"",""2082""
","
","","","621.8000000119209","","","18","4117","2803","&#9784;","elianto","#FFFFF080"," "," ","1","&#10004","[1481.699999988079]","1","0","0","","","","","","","",""
"pit-trial","12","161276","0.0-2.0-4.4-0.4","battery-v0.2","","""event"",""trial"",""time""
""fullscreenenter"",""1"",""2082""
","
","
","""event"",""trial"",""time""
""fullscreenenter"",""1"",""2082""
","
","","","607.5","","","18","4117","2803","&#9784;","elianto","#FFFFF080"," "," ","1","&#10004","[1464.8999999761581]","1","0","0","","","","","","","",""
"pit-instructions","13","186552","0.0-2.0-5.0","battery-v0.2","","""event"",""trial"",""time""
""fullscreenenter"",""1"",""2082""
","
","
","""event"",""trial"",""time""
""fullscreenenter"",""1"",""2082""
","
","","[{""page_index"":0,""viewing_time"":6404.899999976158},{""page_index"":1,""viewing_time"":7174},{""page_index"":2,""viewing_time"":5378.300000011921},{""page_index"":3,""viewing_time"":6312.5}]","25270.19999998808","","","","","","","","","","","","","","","","","","","","","","","",""
"pit-trial","14","191430","0.0-2.0-6.0-0.0","battery-v0.2","","""event"",""trial"",""time""
""fullscreenenter"",""1"",""2082""
","
","
","""event"",""trial"",""time""
""fullscreenenter"",""1"",""2082""
","
","","","-1","","","18","4117","2803","&#9854;","elianto","#FFFFF080","-1","-1","1","&#10004","[]","0","0","1","","","","","","","",""
"pit-trial","15","196293","0.0-2.0-6.1-0.1","battery-v0.2","","""event"",""trial"",""time""
""fullscreenenter"",""1"",""2082""
","
","
","""event"",""trial"",""time""
""fullscreenenter"",""1"",""2082""
","
","","","-1","","","18","4117","2803","&#9854;","elianto","#FFFFF080","-1","-1","1","&#10004","[]","0","0","1","","","","","","","",""
"pit-trial","16","201173","0.0-2.0-6.2-0.2","battery-v0.2","","""event"",""trial"",""time""
""fullscreenenter"",""1"",""2082""
","
","
","""event"",""trial"",""time""
""fullscreenenter"",""1"",""2082""
","
","","","-1","","","18","4117","2803","&#9854;","elianto","#FFFFF080","-1","-1","1","&#10004","[]","0","0","1","","","","","","","",""
"pit-trial","17","206054","0.0-2.0-6.3-0.3","battery-v0.2","","""event"",""trial"",""time""
""fullscreenenter"",""1"",""2082""
","
","
","""event"",""trial"",""time""
""fullscreenenter"",""1"",""2082""
","
","","","-1","","","18","4117","2803","&#9854;","elianto","#FFFFF080","-1","-1","1","&#10004","[]","0","0","1","","","","","","","",""
"pit-trial","18","210929","0.0-2.0-6.4-0.4","battery-v0.2","","""event"",""trial"",""time""
""fullscreenenter"",""1"",""2082""
","
","
","""event"",""trial"",""time""
""fullscreenenter"",""1"",""2082""
","
","","","-1","","","18","4117","2803","&#9854;","elianto","#FFFFF080","-1","-1","1","&#10004","[]","0","0","1","","","","","","","",""
"pit-instructions","19","352603","0.0-2.0-7.0","battery-v0.2","","""event"",""trial"",""time""
""fullscreenenter"",""1"",""2082""
","
","
","""event"",""trial"",""time""
""fullscreenenter"",""1"",""2082""
","
","","[{""page_index"":0,""viewing_time"":6499.199999988079},{""page_index"":1,""viewing_time"":8456.300000011921},{""page_index"":2,""viewing_time"":6061.100000023842},{""page_index"":3,""viewing_time"":7659},{""page_index"":4,""viewing_time"":7426.899999976158},{""page_index"":5,""viewing_time"":7825},{""page_index"":6,""viewing_time"":6675.5},{""page_index"":7,""viewing_time"":9742.300000011921},{""page_index"":8,""viewing_time"":9006},{""page_index"":9,""viewing_time"":7159.699999988079},{""page_index"":10,""viewing_time"":8511.100000023842},{""page_index"":11,""viewing_time"":6441.399999976158},{""page_index"":12,""viewing_time"":8041.600000023842},{""page_index"":13,""viewing_time"":7442.300000011921},{""page_index"":14,""viewing_time"":8594.5},{""page_index"":15,""viewing_time"":8741.799999952316},{""page_index"":16,""viewing_time"":8555.300000011921},{""page_index"":17,""viewing_time"":8824}]","141663.5","","","","","","","","","","","","","","","","","","","","","","","",""
"pit-trial","20","357483","0.0-2.0-8.0-0.0","battery-v0.2","","""event"",""trial"",""time""
""fullscreenenter"",""1"",""2082""
","
","
","""event"",""trial"",""time""
""fullscreenenter"",""1"",""2082""
","
","","","-1","","","18","4117","2803","&#9776;","elianto","#3366ff99"," ","-1","0","0","[]","0","0","1","","","","","","","",""
"pit-trial","21","361187","0.0-2.0-8.0-1.0","battery-v0.2","","""event"",""trial"",""time""
""fullscreenenter"",""1"",""2082""
","
","
","""event"",""trial"",""time""
""fullscreenenter"",""1"",""2082""
","
","","","830.0999999642372","","","18","4117","2803","&#9776;","elianto","#3366ff99"," "," ","1","+10","[1689.800000011921]","1","0","1","","","","","","","",""
"pit-trial","22","364693","0.0-2.0-8.0-2.0","battery-v0.2","","""event"",""trial"",""time""
""fullscreenenter"",""1"",""2082""
","
","
","""event"",""trial"",""time""
""fullscreenenter"",""1"",""2082""
","
","","","637.5","","","18","4117","2803","&#9776;","elianto","#3366ff99"," "," ","1","+10","[1488.300000011921]","1","0","1","","","","","","","",""
"pit-trial","23","368239","0.0-2.0-8.0-3.0","battery-v0.2","","""event"",""trial"",""time""
""fullscreenenter"",""1"",""2082""
","
","
","""event"",""trial"",""time""
""fullscreenenter"",""1"",""2082""
","
","","","674.5","","","18","4117","2803","&#9776;","elianto","#3366ff99"," "," ","1","0","[1533.5999999642372]","1","0","1","","","","","","","",""
"pit-trial","24","371769","0.0-2.0-8.0-4.0","battery-v0.2","","""event"",""trial"",""time""
""fullscreenenter"",""1"",""2082""
","
","
","""event"",""trial"",""time""
""fullscreenenter"",""1"",""2082""
","
","","","649.8000000119209","","","18","4117","2803","&#9776;","elianto","#3366ff99"," "," ","1","+10","[1511.1000000238419]","1","0","1","","","","","","","",""
"pit-trial","25","376251","0.0-2.0-8.1-0.1","battery-v0.2","","""event"",""trial"",""time""
""fullscreenenter"",""1"",""2082""
","
","
","""event"",""trial"",""time""
""fullscreenenter"",""1"",""2082""
","
","","","1602.1000000238419","","","18","4117","2803","&#9776;","elianto","#3366ff99"," "," ","1","+10","[2461.5]","1","0","1","","","","","","","",""
"pit-trial","26","379833","0.0-2.0-8.1-1.1","battery-v0.2","","""event"",""trial"",""time""
""fullscreenenter"",""1"",""2082""
","
","
","""event"",""trial"",""time""
""fullscreenenter"",""1"",""2082""
","
","","","710.8999999761581","","","18","4117","2803","&#9776;","elianto","#3366ff99"," "," ","1","+10","[1565.5]","1","0","1","","","","","","","",""
"pit-trial","27","383260","0.0-2.0-8.1-2.1","battery-v0.2","","""event"",""trial"",""time""
""fullscreenenter"",""1"",""2082""
","
","
","""event"",""trial"",""time""
""fullscreenenter"",""1"",""2082""
","
","","","567.3000000119209","","","18","4117","2803","&#9776;","elianto","#3366ff99"," "," ","1","+10","[1417.4000000357628]","1","0","1","","","","","","","",""
"pit-trial","28","387110","0.0-2.0-8.1-3.1","battery-v0.2","","""event"",""trial"",""time""
""fullscreenenter"",""1"",""2082""
","
","
","""event"",""trial"",""time""
""fullscreenenter"",""1"",""2082""
","
","","","979.4000000357628","","","18","4117","2803","&#9776;","elianto","#3366ff99"," "," ","1","0","[1838]","1","0","1","","","","","","","",""
"pit-trial","29","390836","0.0-2.0-8.1-4.1","battery-v0.2","","""event"",""trial"",""time""
""fullscreenenter"",""1"",""2082""
","
","
","""event"",""trial"",""time""
""fullscreenenter"",""1"",""2082""
","
","","","867.5","","","18","4117","2803","&#9776;","elianto","#3366ff99"," "," ","1","+10","[1718.9000000357628]","1","0","1","","","","","","","",""
"pit-trial","30","394589","0.0-2.0-8.2-0.2","battery-v0.2","","""event"",""trial"",""time""
""fullscreenenter"",""1"",""2082""
","
","
","""event"",""trial"",""time""
""fullscreenenter"",""1"",""2082""
","
","","","889.2999999523163","","","18","4117","2803","&#9776;","elianto","#3366ff99"," "," ","1","+10","[1745.3999999761581]","1","0","1","","","","","","","",""
"pit-trial","31","398292","0.0-2.0-8.2-1.2","battery-v0.2","","""event"",""trial"",""time""
""fullscreenenter"",""1"",""2082""
","
","
","""event"",""trial"",""time""
""fullscreenenter"",""1"",""2082""
","
","","","840.5","","","18","4117","2803","&#9776;","elianto","#3366ff99"," "," ","1","+10","[1693]","1","0","1","","","","","","","",""
"pit-trial","32","402083","0.0-2.0-8.2-2.2","battery-v0.2","","""event"",""trial"",""time""
""fullscreenenter"",""1"",""2082""
","
","
","""event"",""trial"",""time""
""fullscreenenter"",""1"",""2082""
","
","","","925","","","18","4117","2803","&#9776;","elianto","#3366ff99"," "," ","1","+10","[1783.800000011921]","1","0","1","","","","","","","",""
"pit-trial","33","405988","0.0-2.0-8.2-3.2","battery-v0.2","","""event"",""trial"",""time""
""fullscreenenter"",""1"",""2082""
","
","
","""event"",""trial"",""time""
""fullscreenenter"",""1"",""2082""
","
","","","1040.4000000357628","","","18","4117","2803","&#9776;","elianto","#3366ff99"," "," ","1","0","[1894.5]","1","0","1","","","","","","","",""
"pit-trial","34","409268","0.0-2.0-8.2-4.2","battery-v0.2","","""event"",""trial"",""time""
""fullscreenenter"",""1"",""2082""
","
","
","""event"",""trial"",""time""
""fullscreenenter"",""1"",""2082""
","
","","","416","","","18","4117","2803","&#9776;","elianto","#3366ff99"," "," ","1","+10","[1272.8999999761581]","1","0","1","","","","","","","",""
"call-function","35","409270","0.0-2.0-9.0","battery-v0.2","","""event"",""trial"",""time""
""fullscreenenter"",""1"",""2082""
","
","
","""event"",""trial"",""time""
""fullscreenenter"",""1"",""2082""
","
","","","","","","","","","","","","","","","","","","","","","","","","","","",""
"pit-instructions","36","453292","0.0-2.0-10.0","battery-v0.2","","""event"",""trial"",""time""
""fullscreenenter"",""1"",""2082""
","
","
","""event"",""trial"",""time""
""fullscreenenter"",""1"",""2082""
","
","","[{""page_index"":0,""viewing_time"":6554.400000035763},{""page_index"":1,""viewing_time"":8040},{""page_index"":2,""viewing_time"":9875.5},{""page_index"":3,""viewing_time"":11071.899999976158},{""page_index"":4,""viewing_time"":8477.199999988079}]","44019.90000003576","","","","","","","","","","","","","","","","","","","","","","","",""
"pit-trial","37","457121","0.0-2.0-11.0-0.0","battery-v0.2","","""event"",""trial"",""time""
""fullscreenenter"",""1"",""2082""
","
","
","""event"",""trial"",""time""
""fullscreenenter"",""1"",""2082""
","
","","","963.8000000119209","","","18","4117","2803","&#9761;","elianto","#3366ff99","-1"," ","0","0","[1815.5]","1","0","2","","","","","","","",""
"pit-trial","38","460731","0.0-2.0-11.0-1.0","battery-v0.2","","""event"",""trial"",""time""
""fullscreenenter"",""1"",""2082""
","
","
","""event"",""trial"",""time""
""fullscreenenter"",""1"",""2082""
","
","","","740.3999999761581","","","18","4117","2803","&#9761;","elianto","#3366ff99","-1"," ","0","0","[1598]","1","0","2","","","","","","","",""
"pit-trial","39","465596","0.0-2.0-11.0-2.0","battery-v0.2","","""event"",""trial"",""time""
""fullscreenenter"",""1"",""2082""
","
","
","""event"",""trial"",""time""
""fullscreenenter"",""1"",""2082""
","
","","","-1","","","18","4117","2803","&#9761;","elianto","#3366ff99","-1","-1","1","+10","[]","0","0","2","","","","","","","",""
"pit-trial","40","470481","0.0-2.0-11.0-3.0","battery-v0.2","","""event"",""trial"",""time""
""fullscreenenter"",""1"",""2082""
","
","
","""event"",""trial"",""time""
""fullscreenenter"",""1"",""2082""
","
","","","-1","","","18","4117","2803","&#9761;","elianto","#3366ff99","-1","-1","1","0","[]","0","0","2","","","","","","","",""
"pit-trial","41","475357","0.0-2.0-11.0-4.0","battery-v0.2","","""event"",""trial"",""time""
""fullscreenenter"",""1"",""2082""
","
","
","""event"",""trial"",""time""
""fullscreenenter"",""1"",""2082""
","
","","","-1","","","18","4117","2803","&#9761;","elianto","#3366ff99","-1","-1","1","+10","[]","0","0","2","","","","","","","",""
"pit-trial","42","480233","0.0-2.0-11.1-0.1","battery-v0.2","","""event"",""trial"",""time""
""fullscreenenter"",""1"",""2082""
","
","
","""event"",""trial"",""time""
""fullscreenenter"",""1"",""2082""
","
","","","-1","","","18","4117","2803","&#9761;","elianto","#3366ff99","-1","-1","1","+10","[]","0","0","2","","","","","","","",""
"pit-trial","43","485100","0.0-2.0-11.1-1.1","battery-v0.2","","""event"",""trial"",""time""
""fullscreenenter"",""1"",""2082""
","
","
","""event"",""trial"",""time""
""fullscreenenter"",""1"",""2082""
","
","","","-1","","","18","4117","2803","&#9761;","elianto","#3366ff99","-1","-1","1","+10","[]","0","0","2","","","","","","","",""
"pit-trial","44","489965","0.0-2.0-11.1-2.1","battery-v0.2","","""event"",""trial"",""time""
""fullscreenenter"",""1"",""2082""
","
","
","""event"",""trial"",""time""
""fullscreenenter"",""1"",""2082""
","
","","","-1","","","18","4117","2803","&#9761;","elianto","#3366ff99","-1","-1","1","+10","[]","0","0","2","","","","","","","",""
"pit-trial","45","494827","0.0-2.0-11.1-3.1","battery-v0.2","","""event"",""trial"",""time""
""fullscreenenter"",""1"",""2082""
","
","
","""event"",""trial"",""time""
""fullscreenenter"",""1"",""2082""
","
","","","-1","","","18","4117","2803","&#9761;","elianto","#3366ff99","-1","-1","1","0","[]","0","0","2","","","","","","","",""
"pit-trial","46","499708","0.0-2.0-11.1-4.1","battery-v0.2","","""event"",""trial"",""time""
""fullscreenenter"",""1"",""2082""
","
","
","""event"",""trial"",""time""
""fullscreenenter"",""1"",""2082""
","
","","","-1","","","18","4117","2803","&#9761;","elianto","#3366ff99","-1","-1","1","+10","[]","0","0","2","","","","","","","",""
"pit-trial","47","504571","0.0-2.0-11.2-0.2","battery-v0.2","","""event"",""trial"",""time""
""fullscreenenter"",""1"",""2082""
","
","
","""event"",""trial"",""time""
""fullscreenenter"",""1"",""2082""
","
","","","-1","","","18","4117","2803","&#9761;","elianto","#3366ff99","-1","-1","1","+10","[]","0","0","2","","","","","","","",""
"pit-trial","48","509436","0.0-2.0-11.2-1.2","battery-v0.2","","""event"",""trial"",""time""
""fullscreenenter"",""1"",""2082""
","
","
","""event"",""trial"",""time""
""fullscreenenter"",""1"",""2082""
","
","","","-1","","","18","4117","2803","&#9761;","elianto","#3366ff99","-1","-1","1","+10","[]","0","0","2","","","","","","","",""
"pit-trial","49","514300","0.0-2.0-11.2-2.2","battery-v0.2","","""event"",""trial"",""time""
""fullscreenenter"",""1"",""2082""
","
","
","""event"",""trial"",""time""
""fullscreenenter"",""1"",""2082""
","
","","","-1","","","18","4117","2803","&#9761;","elianto","#3366ff99","-1","-1","1","+10","[]","0","0","2","","","","","","","",""
"pit-trial","50","519165","0.0-2.0-11.2-3.2","battery-v0.2","","""event"",""trial"",""time""
""fullscreenenter"",""1"",""2082""
","
","
","""event"",""trial"",""time""
""fullscreenenter"",""1"",""2082""
","
","","","-1","","","18","4117","2803","&#9761;","elianto","#3366ff99","-1","-1","1","0","[]","0","0","2","","","","","","","",""
"pit-trial","51","524029","0.0-2.0-11.2-4.2","battery-v0.2","","""event"",""trial"",""time""
""fullscreenenter"",""1"",""2082""
","
","
","""event"",""trial"",""time""
""fullscreenenter"",""1"",""2082""
","
","","","-1","","","18","4117","2803","&#9761;","elianto","#3366ff99","-1","-1","1","+10","[]","0","0","2","","","","","","","",""
"pit-trial","52","528908","0.0-2.0-11.3-0.3","battery-v0.2","","""event"",""trial"",""time""
""fullscreenenter"",""1"",""2082""
","
","
","""event"",""trial"",""time""
""fullscreenenter"",""1"",""2082""
","
","","","-1","","","18","4117","2803","&#9761;","elianto","#3366ff99","-1","-1","1","+10","[]","0","0","2","","","","","","","",""
"pit-trial","53","533780","0.0-2.0-11.3-1.3","battery-v0.2","","""event"",""trial"",""time""
""fullscreenenter"",""1"",""2082""
","
","
","""event"",""trial"",""time""
""fullscreenenter"",""1"",""2082""
","
","","","-1","","","18","4117","2803","&#9761;","elianto","#3366ff99","-1","-1","1","+10","[]","0","0","2","","","","","","","",""
"pit-trial","54","538651","0.0-2.0-11.3-2.3","battery-v0.2","","""event"",""trial"",""time""
""fullscreenenter"",""1"",""2082""
","
","
","""event"",""trial"",""time""
""fullscreenenter"",""1"",""2082""
","
","","","-1","","","18","4117","2803","&#9761;","elianto","#3366ff99","-1","-1","1","+10","[]","0","0","2","","","","","","","",""
"pit-trial","55","543516","0.0-2.0-11.3-3.3","battery-v0.2","","""event"",""trial"",""time""
""fullscreenenter"",""1"",""2082""
","
","
","""event"",""trial"",""time""
""fullscreenenter"",""1"",""2082""
","
","","","-1","","","18","4117","2803","&#9761;","elianto","#3366ff99","-1","-1","1","0","[]","0","0","2","","","","","","","",""
"pit-trial","56","548380","0.0-2.0-11.3-4.3","battery-v0.2","","""event"",""trial"",""time""
""fullscreenenter"",""1"",""2082""
","
","
","""event"",""trial"",""time""
""fullscreenenter"",""1"",""2082""
","
","","","-1","","","18","4117","2803","&#9761;","elianto","#3366ff99","-1","-1","1","+10","[]","0","0","2","","","","","","","",""
"call-function","57","548382","0.0-2.0-12.0","battery-v0.2","","""event"",""trial"",""time""
""fullscreenenter"",""1"",""2082""
","
","
","""event"",""trial"",""time""
""fullscreenenter"",""1"",""2082""
","
","","","","","","","","","","","","","","","","","","","","","","","","","","",""
"pit-instructions","58","595184","0.0-2.0-13.0","battery-v0.2","","""event"",""trial"",""time""
""fullscreenenter"",""1"",""2082""
","
","
","""event"",""trial"",""time""
""fullscreenenter"",""1"",""2082""
","
","","[{""page_index"":0,""viewing_time"":7488.900000035763},{""page_index"":1,""viewing_time"":9838.300000011921},{""page_index"":2,""viewing_time"":6449},{""page_index"":3,""viewing_time"":16629.69999998808},{""page_index"":4,""viewing_time"":6394.399999976158}]","46801.10000002384","","","","","","","","","","","","","","","","","","","","","","","",""
"pit-trial","59","598749","0.0-2.0-14.0-0.0","battery-v0.2","","""event"",""trial"",""time""
""fullscreenenter"",""1"",""2082""
","
","
","""event"",""trial"",""time""
""fullscreenenter"",""1"",""2082""
","
","","","692.6999999880791","","","18","4117","2803","&#9826;","elianto","#f73b6a7A","-1"," ","0","-10","[1545.199999988079]","1","0","3","","","","","","","",""
"pit-trial","60","603629","0.0-2.0-14.0-1.0","battery-v0.2","","""event"",""trial"",""time""
""fullscreenenter"",""1"",""2082""
","
","
","""event"",""trial"",""time""
""fullscreenenter"",""1"",""2082""
","
","","","-1","","","18","4117","2803","&#9826;","elianto","#f73b6a7A","-1","-1","1","0","[]","0","0","3","","","","","","","",""
"pit-trial","61","608512","0.0-2.0-14.0-2.0","battery-v0.2","","""event"",""trial"",""time""
""fullscreenenter"",""1"",""2082""
","
","
","""event"",""trial"",""time""
""fullscreenenter"",""1"",""2082""
","
","","","-1","","","18","4117","2803","&#9826;","elianto","#f73b6a7A","-1","-1","1","0","[]","0","0","3","","","","","","","",""
"pit-trial","62","613385","0.0-2.0-14.0-3.0","battery-v0.2","","""event"",""trial"",""time""
""fullscreenenter"",""1"",""2082""
","
","
","""event"",""trial"",""time""
""fullscreenenter"",""1"",""2082""
","
","","","-1","","","18","4117","2803","&#9826;","elianto","#f73b6a7A","-1","-1","1","-10","[]","0","0","3","","","","","","","",""
"pit-trial","63","618276","0.0-2.0-14.0-4.0","battery-v0.2","","""event"",""trial"",""time""
""fullscreenenter"",""1"",""2082""
","
","
","""event"",""trial"",""time""
""fullscreenenter"",""1"",""2082""
","
","","","-1","","","18","4117","2803","&#9826;","elianto","#f73b6a7A","-1","-1","1","0","[]","0","0","3","","","","","","","",""
"pit-trial","64","623149","0.0-2.0-14.1-0.1","battery-v0.2","","""event"",""trial"",""time""
""fullscreenenter"",""1"",""2082""
","
","
","""event"",""trial"",""time""
""fullscreenenter"",""1"",""2082""
","
","","","-1","","","18","4117","2803","&#9826;","elianto","#f73b6a7A","-1","-1","1","0","[]","0","0","3","","","","","","","",""
"pit-trial","65","628013","0.0-2.0-14.1-1.1","battery-v0.2","","""event"",""trial"",""time""
""fullscreenenter"",""1"",""2082""
","
","
","""event"",""trial"",""time""
""fullscreenenter"",""1"",""2082""
","
","","","-1","","","18","4117","2803","&#9826;","elianto","#f73b6a7A","-1","-1","1","0","[]","0","0","3","","","","","","","",""
"pit-trial","66","632877","0.0-2.0-14.1-2.1","battery-v0.2","","""event"",""trial"",""time""
""fullscreenenter"",""1"",""2082""
","
","
","""event"",""trial"",""time""
""fullscreenenter"",""1"",""2082""
","
","","","-1","","","18","4117","2803","&#9826;","elianto","#f73b6a7A","-1","-1","1","0","[]","0","0","3","","","","","","","",""
"pit-trial","67","637740","0.0-2.0-14.1-3.1","battery-v0.2","","""event"",""trial"",""time""
""fullscreenenter"",""1"",""2082""
","
","
","""event"",""trial"",""time""
""fullscreenenter"",""1"",""2082""
","
","","","-1","","","18","4117","2803","&#9826;","elianto","#f73b6a7A","-1","-1","1","-10","[]","0","0","3","","","","","","","",""
"pit-trial","68","642616","0.0-2.0-14.1-4.1","battery-v0.2","","""event"",""trial"",""time""
""fullscreenenter"",""1"",""2082""
","
","
","""event"",""trial"",""time""
""fullscreenenter"",""1"",""2082""
","
","","","-1","","","18","4117","2803","&#9826;","elianto","#f73b6a7A","-1","-1","1","0","[]","0","0","3","","","","","","","",""
"pit-trial","69","647485","0.0-2.0-14.2-0.2","battery-v0.2","","""event"",""trial"",""time""
""fullscreenenter"",""1"",""2082""
","
","
","""event"",""trial"",""time""
""fullscreenenter"",""1"",""2082""
","
","","","-1","","","18","4117","2803","&#9826;","elianto","#f73b6a7A","-1","-1","1","0","[]","0","0","3","","","","","","","",""
"pit-trial","70","652357","0.0-2.0-14.2-1.2","battery-v0.2","","""event"",""trial"",""time""
""fullscreenenter"",""1"",""2082""
","
","
","""event"",""trial"",""time""
""fullscreenenter"",""1"",""2082""
","
","","","-1","","","18","4117","2803","&#9826;","elianto","#f73b6a7A","-1","-1","1","0","[]","0","0","3","","","","","","","",""
"pit-trial","71","657221","0.0-2.0-14.2-2.2","battery-v0.2","","""event"",""trial"",""time""
""fullscreenenter"",""1"",""2082""
","
","
","""event"",""trial"",""time""
""fullscreenenter"",""1"",""2082""
","
","","","-1","","","18","4117","2803","&#9826;","elianto","#f73b6a7A","-1","-1","1","0","[]","0","0","3","","","","","","","",""
"pit-trial","72","662084","0.0-2.0-14.2-3.2","battery-v0.2","","""event"",""trial"",""time""
""fullscreenenter"",""1"",""2082""
","
","
","""event"",""trial"",""time""
""fullscreenenter"",""1"",""2082""
","
","","","-1","","","18","4117","2803","&#9826;","elianto","#f73b6a7A","-1","-1","1","-10","[]","0","0","3","","","","","","","",""
"pit-trial","73","666962","0.0-2.0-14.2-4.2","battery-v0.2","","""event"",""trial"",""time""
""fullscreenenter"",""1"",""2082""
","
","
","""event"",""trial"",""time""
""fullscreenenter"",""1"",""2082""
","
","","","-1","","","18","4117","2803","&#9826;","elianto","#f73b6a7A","-1","-1","1","0","[]","0","0","3","","","","","","","",""
"pit-trial","74","671829","0.0-2.0-14.3-0.3","battery-v0.2","","""event"",""trial"",""time""
""fullscreenenter"",""1"",""2082""
","
","
","""event"",""trial"",""time""
""fullscreenenter"",""1"",""2082""
","
","","","-1","","","18","4117","2803","&#9826;","elianto","#f73b6a7A","-1","-1","1","0","[]","0","0","3","","","","","","","",""
"pit-trial","75","676693","0.0-2.0-14.3-1.3","battery-v0.2","","""event"",""trial"",""time""
""fullscreenenter"",""1"",""2082""
","
","
","""event"",""trial"",""time""
""fullscreenenter"",""1"",""2082""
","
","","","-1","","","18","4117","2803","&#9826;","elianto","#f73b6a7A","-1","-1","1","0","[]","0","0","3","","","","","","","",""
"pit-trial","76","681557","0.0-2.0-14.3-2.3","battery-v0.2","","""event"",""trial"",""time""
""fullscreenenter"",""1"",""2082""
","
","
","""event"",""trial"",""time""
""fullscreenenter"",""1"",""2082""
","
","","","-1","","","18","4117","2803","&#9826;","elianto","#f73b6a7A","-1","-1","1","0","[]","0","0","3","","","","","","","",""
"pit-trial","77","686420","0.0-2.0-14.3-3.3","battery-v0.2","","""event"",""trial"",""time""
""fullscreenenter"",""1"",""2082""
","
","
","""event"",""trial"",""time""
""fullscreenenter"",""1"",""2082""
","
","","","-1","","","18","4117","2803","&#9826;","elianto","#f73b6a7A","-1","-1","1","-10","[]","0","0","3","","","","","","","",""
"pit-trial","78","691283","0.0-2.0-14.3-4.3","battery-v0.2","","""event"",""trial"",""time""
""fullscreenenter"",""1"",""2082""
","
","
","""event"",""trial"",""time""
""fullscreenenter"",""1"",""2082""
","
","","","-1","","","18","4117","2803","&#9826;","elianto","#f73b6a7A","-1","-1","1","0","[]","0","0","3","","","","","","","",""
"call-function","79","691287","0.0-2.0-15.0","battery-v0.2","","""event"",""trial"",""time""
""fullscreenenter"",""1"",""2082""
","
","
","""event"",""trial"",""time""
""fullscreenenter"",""1"",""2082""
","
","","","","","","","","","","","","","","","","","","","","","","","","","","",""
"pit-instructions","80","736248","0.0-2.0-16.0","battery-v0.2","","""event"",""trial"",""time""
""fullscreenenter"",""1"",""2082""
","
","
","""event"",""trial"",""time""
""fullscreenenter"",""1"",""2082""
","
","","[{""page_index"":0,""viewing_time"":12893.099999964237},{""page_index"":1,""viewing_time"":16995.100000023842},{""page_index"":2,""viewing_time"":6107.399999976158},{""page_index"":3,""viewing_time"":8963.300000011921}]","44959.69999998808","","","","","","","","","","","","","","","","","","","","","","","",""
"pit-trial","81","739632","0.0-2.0-17.0-0.0","battery-v0.2","","""event"",""trial"",""time""
""fullscreenenter"",""1"",""2082""
","
","
","""event"",""trial"",""time""
""fullscreenenter"",""1"",""2082""
","
","","","515.1000000238419","","","18","4117","2803","&#9789;","elianto","#f73b6a7A"," "," ","1","0","[1369.699999988079]","1","0","4","","","","","","","",""
"pit-trial","82","744515","0.0-2.0-17.0-1.0","battery-v0.2","","""event"",""trial"",""time""
""fullscreenenter"",""1"",""2082""
","
","
","""event"",""trial"",""time""
""fullscreenenter"",""1"",""2082""
","
","","","-1","","","18","4117","2803","&#9789;","elianto","#f73b6a7A"," ","-1","0","-10","[]","0","0","4","","","","","","","",""
"pit-trial","83","747992","0.0-2.0-17.0-2.0","battery-v0.2","","""event"",""trial"",""time""
""fullscreenenter"",""1"",""2082""
","
","
","""event"",""trial"",""time""
""fullscreenenter"",""1"",""2082""
","
","","","613","","","18","4117","2803","&#9789;","elianto","#f73b6a7A"," "," ","1","0","[1467]","1","0","4","","","","","","","",""
"pit-trial","84","751705","0.0-2.0-17.0-3.0","battery-v0.2","","""event"",""trial"",""time""
""fullscreenenter"",""1"",""2082""
","
","
","""event"",""trial"",""time""
""fullscreenenter"",""1"",""2082""
","
","","","840.5","","","18","4117","2803","&#9789;","elianto","#f73b6a7A"," "," ","1","-10","[1690.6000000238419]","1","0","4","","","","","","","",""
"pit-trial","85","755026","0.0-2.0-17.0-4.0","battery-v0.2","","""event"",""trial"",""time""
""fullscreenenter"",""1"",""2082""
","
","
","""event"",""trial"",""time""
""fullscreenenter"",""1"",""2082""
","
","","","455.0999999642372","","","18","4117","2803","&#9789;","elianto","#f73b6a7A"," "," ","1","0","[1306.3999999761581]","1","0","4","","","","","","","",""
"pit-trial","86","758250","0.0-2.0-17.1-0.1","battery-v0.2","","""event"",""trial"",""time""
""fullscreenenter"",""1"",""2082""
","
","
","""event"",""trial"",""time""
""fullscreenenter"",""1"",""2082""
","
","","","351.0999999642372","","","18","4117","2803","&#9789;","elianto","#f73b6a7A"," "," ","1","0","[1211.5]","1","0","4","","","","","","","",""
"pit-trial","87","761623","0.0-2.0-17.1-1.1","battery-v0.2","","""event"",""trial"",""time""
""fullscreenenter"",""1"",""2082""
","
","
","""event"",""trial"",""time""
""fullscreenenter"",""1"",""2082""
","
","","","501.10000002384186","","","18","4117","2803","&#9789;","elianto","#f73b6a7A"," "," ","1","0","[1351.2000000476837]","1","0","4","","","","","","","",""
"pit-trial","88","764927","0.0-2.0-17.1-2.1","battery-v0.2","","""event"",""trial"",""time""
""fullscreenenter"",""1"",""2082""
","
","
","""event"",""trial"",""time""
""fullscreenenter"",""1"",""2082""
","
","","","436.4000000357628","","","18","4117","2803","&#9789;","elianto","#f73b6a7A"," "," ","1","0","[1295]","1","0","4","","","","","","","",""
"pit-trial","89","768022","0.0-2.0-17.1-3.1","battery-v0.2","","""event"",""trial"",""time""
""fullscreenenter"",""1"",""2082""
","
","
","""event"",""trial"",""time""
""fullscreenenter"",""1"",""2082""
","
","","","226.5999999642372","","","18","4117","2803","&#9789;","elianto","#f73b6a7A"," "," ","1","-10","[1084.8999999761581]","1","0","4","","","","","","","",""
"pit-trial","90","771071","0.0-2.0-17.1-4.1","battery-v0.2","","""event"",""trial"",""time""
""fullscreenenter"",""1"",""2082""
","
","
","""event"",""trial"",""time""
""fullscreenenter"",""1"",""2082""
","
","","","183.5","","","18","4117","2803","&#9789;","elianto","#f73b6a7A"," "," ","1","0","[1034.5999999642372]","1","0","4","","","","","","","",""
"pit-trial","91","774674","0.0-2.0-17.2-0.2","battery-v0.2","","""event"",""trial"",""time""
""fullscreenenter"",""1"",""2082""
","
","
","""event"",""trial"",""time""
""fullscreenenter"",""1"",""2082""
","
","","","725.8000000119209","","","18","4117","2803","&#9789;","elianto","#f73b6a7A"," "," ","1","0","[1589.8999999761581]","1","0","4","","","","","","","",""
"pit-trial","92","777676","0.0-2.0-17.2-1.2","battery-v0.2","","""event"",""trial"",""time""
""fullscreenenter"",""1"",""2082""
","
","
","""event"",""trial"",""time""
""fullscreenenter"",""1"",""2082""
","
","","","137.19999998807907","","","18","4117","2803","&#9789;","elianto","#f73b6a7A"," "," ","1","0","[996]","1","0","4","","","","","","","",""
"pit-trial","93","781052","0.0-2.0-17.2-2.2","battery-v0.2","","""event"",""trial"",""time""
""fullscreenenter"",""1"",""2082""
","
","
","""event"",""trial"",""time""
""fullscreenenter"",""1"",""2082""
","
","","","510.0999999642372","","","18","4117","2803","&#9789;","elianto","#f73b6a7A"," "," ","1","0","[1362.4000000357628]","1","0","4","","","","","","","",""
"pit-trial","94","784491","0.0-2.0-17.2-3.2","battery-v0.2","","""event"",""trial"",""time""
""fullscreenenter"",""1"",""2082""
","
","
","""event"",""trial"",""time""
""fullscreenenter"",""1"",""2082""
","
","","","568.8999999761581","","","18","4117","2803","&#9789;","elianto","#f73b6a7A"," "," ","1","-10","[1421.800000011921]","1","0","4","","","","","","","",""
"pit-trial","95","787844","0.0-2.0-17.2-4.2","battery-v0.2","","""event"",""trial"",""time""
""fullscreenenter"",""1"",""2082""
","
","
","""event"",""trial"",""time""
""fullscreenenter"",""1"",""2082""
","
","","","494.7999999523163","","","18","4117","2803","&#9789;","elianto","#f73b6a7A"," "," ","1","0","[1346.699999988079]","1","0","4","","","","","","","",""
"pit-trial","96","790797","0.0-2.0-17.3-0.3","battery-v0.2","","""event"",""trial"",""time""
""fullscreenenter"",""1"",""2082""
","
","
","""event"",""trial"",""time""
""fullscreenenter"",""1"",""2082""
","
","","","87.40000003576279","","","18","4117","2803","&#9789;","elianto","#f73b6a7A"," "," ","1","0","[948.3000000119209]","1","0","4","","","","","","","",""
"pit-trial","97","793957","0.0-2.0-17.3-1.3","battery-v0.2","","""event"",""trial"",""time""
""fullscreenenter"",""1"",""2082""
","
","
","""event"",""trial"",""time""
""fullscreenenter"",""1"",""2082""
","
","","","293.5","","","18","4117","2803","&#9789;","elianto","#f73b6a7A"," "," ","1","0","[1145.5]","1","0","4","","","","","","","",""
"pit-trial","98","797012","0.0-2.0-17.3-2.3","battery-v0.2","","""event"",""trial"",""time""
""fullscreenenter"",""1"",""2082""
","
","
","""event"",""trial"",""time""
""fullscreenenter"",""1"",""2082""
","
","","","187.0999999642372","","","18","4117","2803","&#9789;","elianto","#f73b6a7A"," "," ","1","0","[1044.5]","1","0","4","","","","","","","",""
"pit-trial","99","800021","0.0-2.0-17.3-3.3","battery-v0.2","","""event"",""trial"",""time""
""fullscreenenter"",""1"",""2082""
","
","
","""event"",""trial"",""time""
""fullscreenenter"",""1"",""2082""
","
","","","154.30000001192093","","","18","4117","2803","&#9789;","elianto","#f73b6a7A"," "," ","1","-10","[1004.6000000238419]","1","0","4","","","","","","","",""
"pit-trial","100","803126","0.0-2.0-17.3-4.3","battery-v0.2","","""event"",""trial"",""time""
""fullscreenenter"",""1"",""2082""
","
","
","""event"",""trial"",""time""
""fullscreenenter"",""1"",""2082""
","
","","","239.80000001192093","","","18","4117","2803","&#9789;","elianto","#f73b6a7A"," "," ","1","0","[1091]","1","0","4","","","","","","","",""
"call-function","101","803129","0.0-2.0-18.0","battery-v0.2","","""event"",""trial"",""time""
""fullscreenenter"",""1"",""2082""
","
","
","""event"",""trial"",""time""
""fullscreenenter"",""1"",""2082""
","
","","","","","","","","","","","","","","","","","","","","","","","","","","",""
"pit-instructions","102","973199","0.0-2.0-19.0","battery-v0.2","","""event"",""trial"",""time""
""fullscreenenter"",""1"",""2082""
","
","
","""event"",""trial"",""time""
""fullscreenenter"",""1"",""2082""
","
","","[{""page_index"":0,""viewing_time"":102364.80000001192},{""page_index"":1,""viewing_time"":8147.699999988079},{""page_index"":2,""viewing_time"":15814.199999988079},{""page_index"":3,""viewing_time"":9100.900000035763},{""page_index"":4,""viewing_time"":9479.199999988079},{""page_index"":5,""viewing_time"":8481.5},{""page_index"":6,""viewing_time"":5497.099999964237},{""page_index"":7,""viewing_time"":6517.200000047684},{""page_index"":8,""viewing_time"":4665.699999988079}]","170069.30000001192","","","","","","","","","","","","","","","","","","","","","","","",""
"pit-comprehension","103","978607","0.0-2.0-20.0-0.0","battery-v0.2","","""event"",""trial"",""time""
""fullscreenenter"",""1"",""2082""
","
","
","""event"",""trial"",""time""
""fullscreenenter"",""1"",""2082""
","
","","","5396.800000011921","[""SPACE""]","0","18","4117","2803","","","","","","","","","","","","","","","","","","",""
"pit-instructions","104","982039","0.0-2.0-20.0-1.0","battery-v0.2","","""event"",""trial"",""time""
""fullscreenenter"",""1"",""2082""
","
","
","""event"",""trial"",""time""
""fullscreenenter"",""1"",""2082""
","
","","[{""page_index"":0,""viewing_time"":3346.600000023842}]","3349.100000023842","","","","","","","","","","","","","","","","","","","","","","","",""
"pit-comprehension","105","987085","0.0-2.0-21.0-0.0","battery-v0.2","","""event"",""trial"",""time""
""fullscreenenter"",""1"",""2082""
","
","
","""event"",""trial"",""time""
""fullscreenenter"",""1"",""2082""
","
","","","5041","[""10""]","0","18","4117","2803","","","","","","","","","","","","","","","","","","",""
"pit-instructions","106","989583","0.0-2.0-21.0-1.0","battery-v0.2","","""event"",""trial"",""time""
""fullscreenenter"",""1"",""2082""
","
","
","""event"",""trial"",""time""
""fullscreenenter"",""1"",""2082""
","
","","[{""page_index"":0,""viewing_time"":2402.100000023842}]","2402.5","","","","","","","","","","","","","","","","","","","","","","","",""
"pit-comprehension","107","1000406","0.0-2.0-22.0-0.0","battery-v0.2","","""event"",""trial"",""time""
""fullscreenenter"",""1"",""2082""
","
","
","""event"",""trial"",""time""
""fullscreenenter"",""1"",""2082""
","
","","","10817.699999988079","[""0""]","0","18","4117","2803","","","","","","","","","","","","","","","","","","",""
"pit-instructions","108","1002867","0.0-2.0-22.0-1.0","battery-v0.2","","""event"",""trial"",""time""
""fullscreenenter"",""1"",""2082""
","
","
","""event"",""trial"",""time""
""fullscreenenter"",""1"",""2082""
","
","","[{""page_index"":0,""viewing_time"":2368.599999964237}]","2369.699999988079","","","","","","","","","","","","","","","","","","","","","","","",""
"pit-comprehension","109","1020351","0.0-2.0-23.0-0.0","battery-v0.2","","""event"",""trial"",""time""
""fullscreenenter"",""1"",""2082""
","
","
","""event"",""trial"",""time""
""fullscreenenter"",""1"",""2082""
","
","","","17477.100000023842","[""True""]","0","18","4117","2803","","","","","","","","","","","","","","","","","","",""
"pit-instructions","110","1022401","0.0-2.0-23.0-1.0","battery-v0.2","","""event"",""trial"",""time""
""fullscreenenter"",""1"",""2082""
","
","
","""event"",""trial"",""time""
""fullscreenenter"",""1"",""2082""
","
","","[{""page_index"":0,""viewing_time"":1969.300000011921}]","1969.800000011921","","","","","","","","","","","","","","","","","","","","","","","",""
"pit-comprehension","111","1030181","0.0-2.0-24.0-0.0","battery-v0.2","","""event"",""trial"",""time""
""fullscreenenter"",""1"",""2082""
","
","
","""event"",""trial"",""time""
""fullscreenenter"",""1"",""2082""
","
","","","7774.699999988079","[""True""]","0","18","4117","2803","","","","","","","","","","","","","","","","","","",""
"pit-instructions","112","1032805","0.0-2.0-24.0-1.0","battery-v0.2","","""event"",""trial"",""time""
""fullscreenenter"",""1"",""2082""
","
","
","""event"",""trial"",""time""
""fullscreenenter"",""1"",""2082""
","
","","[{""page_index"":0,""viewing_time"":2520.699999988079}]","2521.100000023842","","","","","","","","","","","","","","","","","","","","","","","",""
"pit-comprehension","113","1039667","0.0-2.0-25.0-0.0","battery-v0.2","","""event"",""trial"",""time""
""fullscreenenter"",""1"",""2082""
","
","
","""event"",""trial"",""time""
""fullscreenenter"",""1"",""2082""
","
","","","6858.899999976158","[""True""]","0","18","4117","2803","","","","","","","","","","","","","","","","","","",""
"pit-instructions","114","1042031","0.0-2.0-25.0-1.0","battery-v0.2","","""event"",""trial"",""time""
""fullscreenenter"",""1"",""2082""
","
","
","""event"",""trial"",""time""
""fullscreenenter"",""1"",""2082""
","
","","[{""page_index"":0,""viewing_time"":2278.400000035763}]","2278.699999988079","","","","","","","","","","","","","","","","","","","","","","","",""
"pit-comprehension","115","1047228","0.0-2.0-26.0-0.0","battery-v0.2","","""event"",""trial"",""time""
""fullscreenenter"",""1"",""2082""
","
","
","""event"",""trial"",""time""
""fullscreenenter"",""1"",""2082""
","
","","","5185.899999976158","[""False""]","0","18","4117","2803","","","","","","","","","","","","","","","","","","",""
"pit-instructions","116","1049624","0.0-2.0-26.0-1.0","battery-v0.2","","""event"",""trial"",""time""
""fullscreenenter"",""1"",""2082""
","
","
","""event"",""trial"",""time""
""fullscreenenter"",""1"",""2082""
","
","","[{""page_index"":0,""viewing_time"":2298.800000011921}]","2299.300000011921","","","","","","","","","","","","","","","","","","","","","","","",""
"pit-instructions","117","1067706","0.0-3.0","battery-v0.2","","""event"",""trial"",""time""
""fullscreenenter"",""1"",""2082""
","
","
","""event"",""trial"",""time""
""fullscreenenter"",""1"",""2082""
","
","","[{""page_index"":0,""viewing_time"":4456.300000011921},{""page_index"":1,""viewing_time"":6211.5},{""page_index"":2,""viewing_time"":7410.699999988079}]","18079.5","","","","","","","","","","","","","","","","","","","","","","","",""
"pit-trial","118","1071513","0.0-4.0","battery-v0.2","","""event"",""trial"",""time""
""fullscreenenter"",""1"",""2082""
","
","
","""event"",""trial"",""time""
""fullscreenenter"",""1"",""2082""
","
","","","917.3999999761581","","","18","4117","2803","&#9733;","elianto","#3366ff99","-1"," ","0","0","[1779.3999999761581]","1","1","","","4117","1","2","2","win","no-go","0"
"pit-trial","119","1075082","0.0-5.0","battery-v0.2","","""event"",""trial"",""time""
""fullscreenenter"",""1"",""2082""
","
","
","""event"",""trial"",""time""
""fullscreenenter"",""1"",""2082""
","
","","","679.4000000357628","","","18","4117","2803","&#9730;","elianto","#3366ff99"," "," ","1","+10","[1543.5]","1","1","","","4117","2","1","1","win","go","0"
"pit-trial","120","1079979","0.0-6.0","battery-v0.2","","""event"",""trial"",""time""
""fullscreenenter"",""1"",""2082""
","
","
","""event"",""trial"",""time""
""fullscreenenter"",""1"",""2082""
","
","","","-1","","","18","4117","2803","&#9752;","elianto","#f73b6a7A"," ","-1","0","0","[]","0","1","","","4117","3","3","3","lose","go","1"
"pit-trial","121","1083487","0.0-7.0","battery-v0.2","","""event"",""trial"",""time""
""fullscreenenter"",""1"",""2082""
","
","
","""event"",""trial"",""time""
""fullscreenenter"",""1"",""2082""
","
","","","637.7999999523163","","","18","4117","2803","&#9728;","elianto","#f73b6a7A","-1"," ","0","-10","[1492.9000000357628]","1","1","","","4117","4","0","4","lose","no-go","0"
"pit-trial","122","1087383","0.0-8.0","battery-v0.2","","""event"",""trial"",""time""
""fullscreenenter"",""1"",""2082""
","
","
","""event"",""trial"",""time""
""fullscreenenter"",""1"",""2082""
","
","","","1032.800000011921","","","18","4117","2803","&#9730;","elianto","#3366ff99"," "," ","1","0","[1883.199999988079]","1","1","","","4117","5","1","1","win","go","1"
"pit-trial","123","1092257","0.0-9.0","battery-v0.2","","""event"",""trial"",""time""
""fullscreenenter"",""1"",""2082""
","
","
","""event"",""trial"",""time""
""fullscreenenter"",""1"",""2082""
","
","","","-1","","","18","4117","2803","&#9752;","elianto","#f73b6a7A"," ","-1","0","0","[]","0","1","","","4117","6","3","3","lose","go","1"
"pit-trial","124","1097127","0.0-10.0","battery-v0.2","","""event"",""trial"",""time""
""fullscreenenter"",""1"",""2082""
","
","
","""event"",""trial"",""time""
""fullscreenenter"",""1"",""2082""
","
","","","-1","","","18","4117","2803","&#9728;","elianto","#f73b6a7A","-1","-1","1","0","[]","0","1","","","4117","7","0","4","lose","no-go","0"
"pit-trial","125","1101988","0.0-11.0","battery-v0.2","","""event"",""trial"",""time""
""fullscreenenter"",""1"",""2082""
","
","
","""event"",""trial"",""time""
""fullscreenenter"",""1"",""2082""
","
","","","-1","","","18","4117","2803","&#9733;","elianto","#3366ff99","-1","-1","1","+10","[]","0","1","","","4117","8","2","2","win","no-go","0"
"pit-trial","126","1106852","0.0-12.0","battery-v0.2","","""event"",""trial"",""time""
""fullscreenenter"",""1"",""2082""
","
","
","""event"",""trial"",""time""
""fullscreenenter"",""1"",""2082""
","
","","","-1","","","18","4117","2803","&#9728;","elianto","#f73b6a7A","-1","-1","1","-10","[]","0","1","","","4117","9","0","4","lose","no-go","1"
"pit-trial","127","1111724","0.0-13.0","battery-v0.2","","""event"",""trial"",""time""
""fullscreenenter"",""1"",""2082""
","
","
","""event"",""trial"",""time""
""fullscreenenter"",""1"",""2082""
","
","","","-1","","","18","4117","2803","&#9733;","elianto","#3366ff99","-1","-1","1","+10","[]","0","1","","","4117","10","2","2","win","no-go","0"
"pit-trial","128","1116588","0.0-14.0","battery-v0.2","","""event"",""trial"",""time""
""fullscreenenter"",""1"",""2082""
","
","
","""event"",""trial"",""time""
""fullscreenenter"",""1"",""2082""
","
","","","-1","","","18","4117","2803","&#9752;","elianto","#f73b6a7A"," ","-1","0","0","[]","0","1","","","4117","11","3","3","lose","go","1"
"pit-trial","129","1120445","0.0-15.0","battery-v0.2","","""event"",""trial"",""time""
""fullscreenenter"",""1"",""2082""
","
","
","""event"",""trial"",""time""
""fullscreenenter"",""1"",""2082""
","
","","","991.4000000357628","","","18","4117","2803","&#9730;","elianto","#3366ff99"," "," ","1","0","[1844.9000000357628]","1","1","","","4117","12","1","1","win","go","1"
"pit-trial","130","1125308","0.0-16.0","battery-v0.2","","""event"",""trial"",""time""
""fullscreenenter"",""1"",""2082""
","
","
","""event"",""trial"",""time""
""fullscreenenter"",""1"",""2082""
","
","","","-1","","","18","4117","2803","&#9752;","elianto","#f73b6a7A"," ","-1","0","-10","[]","0","1","","","4117","13","3","3","lose","go","0"
"pit-trial","131","1130171","0.0-17.0","battery-v0.2","","""event"",""trial"",""time""
""fullscreenenter"",""1"",""2082""
","
","
","""event"",""trial"",""time""
""fullscreenenter"",""1"",""2082""
","
","","","-1","","","18","4117","2803","&#9730;","elianto","#3366ff99"," ","-1","0","0","[]","0","1","","","4117","14","1","1","win","go","0"
"pit-trial","132","1135109","0.0-18.0","battery-v0.2","","""event"",""trial"",""time""
""fullscreenenter"",""1"",""2082""
","
","
","""event"",""trial"",""time""
""fullscreenenter"",""1"",""2082""
","
","","","-1","","","18","4117","2803","&#9733;","elianto","#3366ff99","-1","-1","1","+10","[]","0","1","","","4117","15","2","2","win","no-go","0"
"pit-trial","133","1139334","0.0-19.0","battery-v0.2","","""event"",""trial"",""time""
""fullscreenenter"",""1"",""2082""
","
","
","""event"",""trial"",""time""
""fullscreenenter"",""1"",""2082""
","
","","","1352.300000011921","","","18","4117","2803","&#9728;","elianto","#f73b6a7A","-1"," ","0","-10","[2208.300000011921]","1","1","","","4117","16","0","4","lose","no-go","0"
"pit-trial","134","1144197","0.0-20.0","battery-v0.2","","""event"",""trial"",""time""
""fullscreenenter"",""1"",""2082""
","
","
","""event"",""trial"",""time""
""fullscreenenter"",""1"",""2082""
","
","","","-1","","","18","4117","2803","&#9752;","elianto","#f73b6a7A"," ","-1","0","0","[]","0","1","","","4117","17","3","3","lose","go","1"
"pit-trial","135","1149060","0.0-21.0","battery-v0.2","","""event"",""trial"",""time""
""fullscreenenter"",""1"",""2082""
","
","
","""event"",""trial"",""time""
""fullscreenenter"",""1"",""2082""
","
","","","-1","","","18","4117","2803","&#9728;","elianto","#f73b6a7A","-1","-1","1","0","[]","0","1","","","4117","18","0","4","lose","no-go","0"
"pit-trial","136","1153925","0.0-22.0","battery-v0.2","","""event"",""trial"",""time""
""fullscreenenter"",""1"",""2082""
","
","
","""event"",""trial"",""time""
""fullscreenenter"",""1"",""2082""
","
","","","-1","","","18","4117","2803","&#9733;","elianto","#3366ff99","-1","-1","1","+10","[]","0","1","","","4117","19","2","2","win","no-go","0"
"pit-trial","137","1157677","0.0-23.0","battery-v0.2","","""event"",""trial"",""time""
""fullscreenenter"",""1"",""2082""
","
","
","""event"",""trial"",""time""
""fullscreenenter"",""1"",""2082""
","
","","","890.6999999880791","","","18","4117","2803","&#9730;","elianto","#3366ff99"," "," ","1","+10","[1744.2999999523163]","1","1","","","4117","20","1","1","win","go","0"
"pit-instructions","138","1171801","0.0-24.0","battery-v0.2","","""event"",""trial"",""time""
""fullscreenenter"",""1"",""2082""
","
","
","""event"",""trial"",""time""
""fullscreenenter"",""1"",""2082""
","
","","[{""page_index"":0,""viewing_time"":6763.699999988079},{""page_index"":1,""viewing_time"":7358.600000023842}]","14122.800000011921","","","","","","","","","","","","","","","","","","","","","","","",""
"pit-trial","139","1176680","0.0-25.0","battery-v0.2","","""event"",""trial"",""time""
""fullscreenenter"",""1"",""2082""
","
","
","""event"",""trial"",""time""
""fullscreenenter"",""1"",""2082""
","
","","","-1","","","18","4117","2803","j","elianto","#f73b6a7A","-1","-1","1","0","[]","0","2","","","4117","21","0","4","lose","no-go","0"
"pit-trial","140","1180595","0.0-26.0","battery-v0.2","","""event"",""trial"",""time""
""fullscreenenter"",""1"",""2082""
","
","
","""event"",""trial"",""time""
""fullscreenenter"",""1"",""2082""
","
","","","1026.4000000357628","","","18","4117","2803","w","elianto","#f73b6a7A"," "," ","1","0","[1890.5999999642372]","1","2","","","4117","22","3","3","lose","go","0"
"pit-trial","141","1184746","0.0-27.0","battery-v0.2","","""event"",""trial"",""time""
""fullscreenenter"",""1"",""2082""
","
","
","""event"",""trial"",""time""
""fullscreenenter"",""1"",""2082""
","
","","","1285.199999988079","","","18","4117","2803","d","elianto","#3366ff99"," "," ","1","+10","[2137.600000023842]","1","2","","","4117","23","1","1","win","go","0"
"pit-trial","142","1189628","0.0-28.0","battery-v0.2","","""event"",""trial"",""time""
""fullscreenenter"",""1"",""2082""
","
","
","""event"",""trial"",""time""
""fullscreenenter"",""1"",""2082""
","
","","","-1","","","18","4117","2803","e","elianto","#f73b6a7A","-1","-1","1","0","[]","0","2","","","4117","24","2","4","lose","no-go","0"
"pit-trial","143","1194501","0.0-29.0","battery-v0.2","","""event"",""trial"",""time""
""fullscreenenter"",""1"",""2082""
","
","
","""event"",""trial"",""time""
""fullscreenenter"",""1"",""2082""
","
","","","-1","","","18","4117","2803","w","elianto","#f73b6a7A"," ","-1","0","-10","[]","0","2","","","4117","25","3","3","lose","go","0"
"pit-trial","144","1199388","0.0-30.0","battery-v0.2","","""event"",""trial"",""time""
""fullscreenenter"",""1"",""2082""
","
","
","""event"",""trial"",""time""
""fullscreenenter"",""1"",""2082""
","
","","","-1","","","18","4117","2803","e","elianto","#f73b6a7A","-1","-1","1","0","[]","0","2","","","4117","26","2","4","lose","no-go","0"
"pit-trial","145","1203492","0.0-31.0","battery-v0.2","","""event"",""trial"",""time""
""fullscreenenter"",""1"",""2082""
","
","
","""event"",""trial"",""time""
""fullscreenenter"",""1"",""2082""
","
","","","1232.7000000476837","","","18","4117","2803","j","elianto","#f73b6a7A","-1"," ","0","0","[2099.900000035763]","1","2","","","4117","27","0","4","lose","no-go","1"
"pit-trial","146","1208365","0.0-32.0","battery-v0.2","","""event"",""trial"",""time""
""fullscreenenter"",""1"",""2082""
","
","
","""event"",""trial"",""time""
""fullscreenenter"",""1"",""2082""
","
","","","-1","","","18","4117","2803","d","elianto","#3366ff99"," ","-1","0","0","[3899.399999976158]","1","2","","","4117","28","1","1","win","go","0"
"pit-trial","147","1213227","0.0-33.0","battery-v0.2","","""event"",""trial"",""time""
""fullscreenenter"",""1"",""2082""
","
","
","""event"",""trial"",""time""
""fullscreenenter"",""1"",""2082""
","
","","","-1","","","18","4117","2803","e","elianto","#f73b6a7A","-1","-1","1","0","[]","0","2","","","4117","29","2","4","lose","no-go","0"
"pit-trial","148","1216796","0.0-34.0","battery-v0.2","","""event"",""trial"",""time""
""fullscreenenter"",""1"",""2082""
","
","
","""event"",""trial"",""time""
""fullscreenenter"",""1"",""2082""
","
","","","698.3000000119209","","","18","4117","2803","d","elianto","#3366ff99"," "," ","1","+10","[1559.0999999642372]","1","2","","","4117","30","1","1","win","go","0"
"pit-trial","149","1221668","0.0-35.0","battery-v0.2","","""event"",""trial"",""time""
""fullscreenenter"",""1"",""2082""
","
","
","""event"",""trial"",""time""
""fullscreenenter"",""1"",""2082""
","
","","","-1","","","18","4117","2803","w","elianto","#f73b6a7A"," ","-1","0","-10","[]","0","2","","","4117","31","3","3","lose","go","0"
"pit-trial","150","1226531","0.0-36.0","battery-v0.2","","""event"",""trial"",""time""
""fullscreenenter"",""1"",""2082""
","
","
","""event"",""trial"",""time""
""fullscreenenter"",""1"",""2082""
","
","","","-1","","","18","4117","2803","j","elianto","#f73b6a7A","-1","-1","1","0","[]","0","2","","","4117","32","0","4","lose","no-go","0"
"pit-trial","151","1231401","0.0-37.0","battery-v0.2","","""event"",""trial"",""time""
""fullscreenenter"",""1"",""2082""
","
","
","""event"",""trial"",""time""
""fullscreenenter"",""1"",""2082""
","
","","","-1","","","18","4117","2803","w","elianto","#f73b6a7A"," ","-1","0","-10","[]","0","2","","","4117","33","3","3","lose","go","0"
"pit-trial","152","1235603","0.0-38.0","battery-v0.2","","""event"",""trial"",""time""
""fullscreenenter"",""1"",""2082""
","
","
","""event"",""trial"",""time""
""fullscreenenter"",""1"",""2082""
","
","","","1345.3999999761581","","","18","4117","2803","j","elianto","#f73b6a7A","-1"," ","0","-10","[2197.300000011921]","1","2","","","4117","34","0","4","lose","no-go","0"
"pit-trial","153","1240468","0.0-39.0","battery-v0.2","","""event"",""trial"",""time""
""fullscreenenter"",""1"",""2082""
","
","
","""event"",""trial"",""time""
""fullscreenenter"",""1"",""2082""
","
","","","-1","","","18","4117","2803","e","elianto","#f73b6a7A","-1","-1","1","0","[]","0","2","","","4117","35","2","4","lose","no-go","0"
"pit-trial","154","1244003","0.0-40.0","battery-v0.2","","""event"",""trial"",""time""
""fullscreenenter"",""1"",""2082""
","
","
","""event"",""trial"",""time""
""fullscreenenter"",""1"",""2082""
","
","","","667.8999999761581","","","18","4117","2803","d","elianto","#3366ff99"," "," ","1","+10","[1530]","1","2","","","4117","36","1","1","win","go","0"
"pit-trial","155","1247545","0.0-41.0","battery-v0.2","","""event"",""trial"",""time""
""fullscreenenter"",""1"",""2082""
","
","
","""event"",""trial"",""time""
""fullscreenenter"",""1"",""2082""
","
","","","662.2000000476837","","","18","4117","2803","w","elianto","#f73b6a7A"," "," ","1","-10","[1513.300000011921]","1","2","","","4117","37","3","3","lose","go","1"
"pit-trial","156","1252411","0.0-42.0","battery-v0.2","","""event"",""trial"",""time""
""fullscreenenter"",""1"",""2082""
","
","
","""event"",""trial"",""time""
""fullscreenenter"",""1"",""2082""
","
","","","-1","","","18","4117","2803","e","elianto","#f73b6a7A","-1","-1","1","0","[]","0","2","","","4117","38","2","4","lose","no-go","0"
"pit-trial","157","1257277","0.0-43.0","battery-v0.2","","""event"",""trial"",""time""
""fullscreenenter"",""1"",""2082""
","
","
","""event"",""trial"",""time""
""fullscreenenter"",""1"",""2082""
","
","","","-1","","","18","4117","2803","j","elianto","#f73b6a7A","-1","-1","1","0","[]","0","2","","","4117","39","0","4","lose","no-go","0"
"pit-trial","158","1260692","0.0-44.0","battery-v0.2","","""event"",""trial"",""time""
""fullscreenenter"",""1"",""2082""
","
","
","""event"",""trial"",""time""
""fullscreenenter"",""1"",""2082""
","
","","","557.7000000476837","","","18","4117","2803","d","elianto","#3366ff99"," "," ","1","+10","[1407.8999999761581]","1","2","","","4117","40","1","1","win","go","0"
"pit-trial","159","1264131","0.0-45.0","battery-v0.2","","""event"",""trial"",""time""
""fullscreenenter"",""1"",""2082""
","
","
","""event"",""trial"",""time""
""fullscreenenter"",""1"",""2082""
","
","","","577.7999999523163","","","18","4117","2803","w","elianto","#f73b6a7A"," "," ","1","0","[1428.4000000357628]","1","2","","","4117","41","3","3","lose","go","0"
"pit-trial","160","1269003","0.0-46.0","battery-v0.2","","""event"",""trial"",""time""
""fullscreenenter"",""1"",""2082""
","
","
","""event"",""trial"",""time""
""fullscreenenter"",""1"",""2082""
","
","","","-1","","","18","4117","2803","j","elianto","#f73b6a7A","-1","-1","1","0","[]","0","2","","","4117","42","0","4","lose","no-go","0"
"pit-trial","161","1273868","0.0-47.0","battery-v0.2","","""event"",""trial"",""time""
""fullscreenenter"",""1"",""2082""
","
","
","""event"",""trial"",""time""
""fullscreenenter"",""1"",""2082""
","
","","","-1","","","18","4117","2803","e","elianto","#f73b6a7A","-1","-1","1","0","[]","0","2","","","4117","43","2","4","lose","no-go","0"
"pit-trial","162","1277374","0.0-48.0","battery-v0.2","","""event"",""trial"",""time""
""fullscreenenter"",""1"",""2082""
","
","
","""event"",""trial"",""time""
""fullscreenenter"",""1"",""2082""
","
","","","639.5","","","18","4117","2803","d","elianto","#3366ff99"," "," ","1","+10","[1491.0999999642372]","1","2","","","4117","44","1","1","win","go","0"
"pit-trial","163","1282243","0.0-49.0","battery-v0.2","","""event"",""trial"",""time""
""fullscreenenter"",""1"",""2082""
","
","
","""event"",""trial"",""time""
""fullscreenenter"",""1"",""2082""
","
","","","-1","","","18","4117","2803","j","elianto","#f73b6a7A","-1","-1","1","0","[]","0","2","","","4117","45","0","4","lose","no-go","0"
"pit-trial","164","1286228","0.0-50.0","battery-v0.2","","""event"",""trial"",""time""
""fullscreenenter"",""1"",""2082""
","
","
","""event"",""trial"",""time""
""fullscreenenter"",""1"",""2082""
","
","","","1116.7999999523163","","","18","4117","2803","w","elianto","#f73b6a7A"," "," ","1","0","[1977.4000000357628]","1","2","","","4117","46","3","3","lose","go","0"
"pit-trial","165","1290620","0.0-51.0","battery-v0.2","","""event"",""trial"",""time""
""fullscreenenter"",""1"",""2082""
","
","
","""event"",""trial"",""time""
""fullscreenenter"",""1"",""2082""
","
","","","1532.300000011921","","","18","4117","2803","s","elianto","#3366ff99","-1"," ","0","0","[2384.7999999523163]","1","2","","","4117","47","4","2","win","no-go","0"
"pit-trial","166","1295484","0.0-52.0","battery-v0.2","","""event"",""trial"",""time""
""fullscreenenter"",""1"",""2082""
","
","
","""event"",""trial"",""time""
""fullscreenenter"",""1"",""2082""
","
","","","-1","","","18","4117","2803","e","elianto","#f73b6a7A","-1","-1","1","0","[]","0","2","","","4117","48","2","4","lose","no-go","0"
"pit-trial","167","1300356","0.0-53.0","battery-v0.2","","""event"",""trial"",""time""
""fullscreenenter"",""1"",""2082""
","
","
","""event"",""trial"",""time""
""fullscreenenter"",""1"",""2082""
","
","","","-1","","","18","4117","2803","s","elianto","#3366ff99","-1","-1","1","+10","[]","0","2","","","4117","49","4","2","win","no-go","0"
"pit-trial","168","1304284","0.0-54.0","battery-v0.2","","""event"",""trial"",""time""
""fullscreenenter"",""1"",""2082""
","
","
","""event"",""trial"",""time""
""fullscreenenter"",""1"",""2082""
","
","","","1067","","","18","4117","2803","w","elianto","#f73b6a7A"," "," ","1","0","[1919.3999999761581]","1","2","","","4117","50","3","3","lose","go","0"
"pit-trial","169","1308046","0.0-55.0","battery-v0.2","","""event"",""trial"",""time""
""fullscreenenter"",""1"",""2082""
","
","
","""event"",""trial"",""time""
""fullscreenenter"",""1"",""2082""
","
","","","895","","","18","4117","2803","d","elianto","#3366ff99"," "," ","1","+10","[1748.699999988079]","1","2","","","4117","51","1","1","win","go","0"
"pit-trial","170","1312917","0.0-56.0","battery-v0.2","","""event"",""trial"",""time""
""fullscreenenter"",""1"",""2082""
","
","
","""event"",""trial"",""time""
""fullscreenenter"",""1"",""2082""
","
","","","-1","","","18","4117","2803","j","elianto","#f73b6a7A","-1","-1","1","0","[]","0","2","","","4117","52","0","4","lose","no-go","0"
"pit-trial","171","1317788","0.0-57.0","battery-v0.2","","""event"",""trial"",""time""
""fullscreenenter"",""1"",""2082""
","
","
","""event"",""trial"",""time""
""fullscreenenter"",""1"",""2082""
","
","","","-1","","","18","4117","2803","s","elianto","#3366ff99","-1","-1","1","+10","[]","0","2","","","4117","53","4","2","win","no-go","0"
"pit-trial","172","1322653","0.0-58.0","battery-v0.2","","""event"",""trial"",""time""
""fullscreenenter"",""1"",""2082""
","
","
","""event"",""trial"",""time""
""fullscreenenter"",""1"",""2082""
","
","","","-1","","","18","4117","2803","e","elianto","#f73b6a7A","-1","-1","1","0","[]","0","2","","","4117","54","2","4","lose","no-go","0"
"pit-trial","173","1326364","0.0-59.0","battery-v0.2","","""event"",""trial"",""time""
""fullscreenenter"",""1"",""2082""
","
","
","""event"",""trial"",""time""
""fullscreenenter"",""1"",""2082""
","
","","","838.0999999642372","","","18","4117","2803","d","elianto","#3366ff99"," "," ","1","+10","[1697.5]","1","2","","","4117","55","1","1","win","go","0"
"pit-trial","174","1331227","0.0-60.0","battery-v0.2","","""event"",""trial"",""time""
""fullscreenenter"",""1"",""2082""
","
","
","""event"",""trial"",""time""
""fullscreenenter"",""1"",""2082""
","
","","","-1","","","18","4117","2803","j","elianto","#f73b6a7A","-1","-1","1","0","[]","0","2","","","4117","56","0","4","lose","no-go","0"
"pit-trial","175","1335069","0.0-61.0","battery-v0.2","","""event"",""trial"",""time""
""fullscreenenter"",""1"",""2082""
","
","
","""event"",""trial"",""time""
""fullscreenenter"",""1"",""2082""
","
","","","975.6000000238419","","","18","4117","2803","d","elianto","#3366ff99"," "," ","1","+10","[1828.2000000476837]","1","2","","","4117","57","1","1","win","go","0"
"pit-trial","176","1339932","0.0-62.0","battery-v0.2","","""event"",""trial"",""time""
""fullscreenenter"",""1"",""2082""
","
","
","""event"",""trial"",""time""
""fullscreenenter"",""1"",""2082""
","
","","","-1","","","18","4117","2803","j","elianto","#f73b6a7A","-1","-1","1","0","[]","0","2","","","4117","58","0","4","lose","no-go","0"
"pit-trial","177","1344797","0.0-63.0","battery-v0.2","","""event"",""trial"",""time""
""fullscreenenter"",""1"",""2082""
","
","
","""event"",""trial"",""time""
""fullscreenenter"",""1"",""2082""
","
","","","-1","","","18","4117","2803","s","elianto","#3366ff99","-1","-1","1","0","[]","0","2","","","4117","59","4","2","win","no-go","1"
"pit-trial","178","1349038","0.0-64.0","battery-v0.2","","""event"",""trial"",""time""
""fullscreenenter"",""1"",""2082""
","
","
","""event"",""trial"",""time""
""fullscreenenter"",""1"",""2082""
","
","","","1374.300000011921","","","18","4117","2803","w","elianto","#f73b6a7A"," "," ","1","0","[2226.900000035763]","1","2","","","4117","60","3","3","lose","go","0"
"pit-trial","179","1352772","0.0-65.0","battery-v0.2","","""event"",""trial"",""time""
""fullscreenenter"",""1"",""2082""
","
","
","""event"",""trial"",""time""
""fullscreenenter"",""1"",""2082""
","
","","","874.1999999880791","","","18","4117","2803","d","elianto","#3366ff99"," "," ","1","+10","[1724.2999999523163]","1","2","","","4117","61","1","1","win","go","0"
"pit-trial","180","1357636","0.0-66.0","battery-v0.2","","""event"",""trial"",""time""
""fullscreenenter"",""1"",""2082""
","
","
","""event"",""trial"",""time""
""fullscreenenter"",""1"",""2082""
","
","","","-1","","","18","4117","2803","s","elianto","#3366ff99","-1","-1","1","0","[]","0","2","","","4117","62","4","2","win","no-go","1"
"pit-trial","181","1362500","0.0-67.0","battery-v0.2","","""event"",""trial"",""time""
""fullscreenenter"",""1"",""2082""
","
","
","""event"",""trial"",""time""
""fullscreenenter"",""1"",""2082""
","
","","","-1","","","18","4117","2803","e","elianto","#f73b6a7A","-1","-1","1","0","[]","0","2","","","4117","63","2","4","lose","no-go","0"
"pit-trial","182","1366372","0.0-68.0","battery-v0.2","","""event"",""trial"",""time""
""fullscreenenter"",""1"",""2082""
","
","
","""event"",""trial"",""time""
""fullscreenenter"",""1"",""2082""
","
","","","1005.6000000238419","","","18","4117","2803","w","elianto","#f73b6a7A"," "," ","1","0","[1864.9000000357628]","1","2","","","4117","64","3","3","lose","go","0"
"pit-trial","183","1370520","0.0-69.0","battery-v0.2","","""event"",""trial"",""time""
""fullscreenenter"",""1"",""2082""
","
","
","""event"",""trial"",""time""
""fullscreenenter"",""1"",""2082""
","
","","","1283","","","18","4117","2803","d","elianto","#3366ff99"," "," ","1","0","[2135.199999988079]","1","2","","","4117","65","1","1","win","go","1"
"pit-trial","184","1375387","0.0-70.0","battery-v0.2","","""event"",""trial"",""time""
""fullscreenenter"",""1"",""2082""
","
","
","""event"",""trial"",""time""
""fullscreenenter"",""1"",""2082""
","
","","","-1","","","18","4117","2803","s","elianto","#3366ff99","-1","-1","1","+10","[]","0","2","","","4117","66","4","2","win","no-go","0"
"pit-trial","185","1380252","0.0-71.0","battery-v0.2","","""event"",""trial"",""time""
""fullscreenenter"",""1"",""2082""
","
","
","""event"",""trial"",""time""
""fullscreenenter"",""1"",""2082""
","
","","","-1","","","18","4117","2803","e","elianto","#f73b6a7A","-1","-1","1","0","[]","0","2","","","4117","67","2","4","lose","no-go","0"
"pit-trial","186","1384348","0.0-72.0","battery-v0.2","","""event"",""trial"",""time""
""fullscreenenter"",""1"",""2082""
","
","
","""event"",""trial"",""time""
""fullscreenenter"",""1"",""2082""
","
","","","1236.199999988079","","","18","4117","2803","w","elianto","#f73b6a7A"," "," ","1","0","[2088.099999964237]","1","2","","","4117","68","3","3","lose","go","0"
"pit-trial","187","1388781","0.0-73.0","battery-v0.2","","""event"",""trial"",""time""
""fullscreenenter"",""1"",""2082""
","
","
","""event"",""trial"",""time""
""fullscreenenter"",""1"",""2082""
","
","","","1572.5","","","18","4117","2803","p","elianto","#3366ff99"," "," ","1","+10","[2426.199999988079]","1","2","","","4117","69","5","1","win","go","0"
"pit-trial","188","1392436","0.0-74.0","battery-v0.2","","""event"",""trial"",""time""
""fullscreenenter"",""1"",""2082""
","
","
","""event"",""trial"",""time""
""fullscreenenter"",""1"",""2082""
","
","","","792.8999999761581","","","18","4117","2803","d","elianto","#3366ff99"," "," ","1","+10","[1643.5999999642372]","1","2","","","4117","70","1","1","win","go","0"
"pit-trial","189","1396109","0.0-75.0","battery-v0.2","","""event"",""trial"",""time""
""fullscreenenter"",""1"",""2082""
","
","
","""event"",""trial"",""time""
""fullscreenenter"",""1"",""2082""
","
","","","802.1000000238419","","","18","4117","2803","w","elianto","#f73b6a7A"," "," ","1","-10","[1661.6000000238419]","1","2","","","4117","71","3","3","lose","go","1"
"pit-trial","190","1400981","0.0-76.0","battery-v0.2","","""event"",""trial"",""time""
""fullscreenenter"",""1"",""2082""
","
","
","""event"",""trial"",""time""
""fullscreenenter"",""1"",""2082""
","
","","","-1","","","18","4117","2803","s","elianto","#3366ff99","-1","-1","1","+10","[]","0","2","","","4117","72","4","2","win","no-go","0"
"pit-trial","191","1404668","0.0-77.0","battery-v0.2","","""event"",""trial"",""time""
""fullscreenenter"",""1"",""2082""
","
","
","""event"",""trial"",""time""
""fullscreenenter"",""1"",""2082""
","
","","","821.1000000238419","","","18","4117","2803","w","elianto","#f73b6a7A"," "," ","1","0","[1675.800000011921]","1","2","","","4117","73","3","3","lose","go","0"
"pit-trial","192","1409511","0.0-78.0","battery-v0.2","","""event"",""trial"",""time""
""fullscreenenter"",""1"",""2082""
","
","
","""event"",""trial"",""time""
""fullscreenenter"",""1"",""2082""
","
","","","1974.800000011921","","","18","4117","2803","p","elianto","#3366ff99"," "," ","1","+10","[2829.399999976158]","1","2","","","4117","74","5","1","win","go","0"
"pit-trial","193","1414381","0.0-79.0","battery-v0.2","","""event"",""trial"",""time""
""fullscreenenter"",""1"",""2082""
","
","
","""event"",""trial"",""time""
""fullscreenenter"",""1"",""2082""
","
","","","-1","","","18","4117","2803","s","elianto","#3366ff99","-1","-1","1","+10","[]","0","2","","","4117","75","4","2","win","no-go","0"
"pit-trial","194","1417980","0.0-80.0","battery-v0.2","","""event"",""trial"",""time""
""fullscreenenter"",""1"",""2082""
","
","
","""event"",""trial"",""time""
""fullscreenenter"",""1"",""2082""
","
","","","737.5999999642372","","","18","4117","2803","d","elianto","#3366ff99"," "," ","1","+10","[1589.5]","1","2","","","4117","76","1","1","win","go","0"
"pit-trial","195","1421860","0.0-81.0","battery-v0.2","","""event"",""trial"",""time""
""fullscreenenter"",""1"",""2082""
","
","
","""event"",""trial"",""time""
""fullscreenenter"",""1"",""2082""
","
","","","1013.1999999880791","","","18","4117","2803","p","elianto","#3366ff99"," "," ","1","+10","[1872.3999999761581]","1","2","","","4117","77","5","1","win","go","0"
"pit-trial","196","1426732","0.0-82.0","battery-v0.2","","""event"",""trial"",""time""
""fullscreenenter"",""1"",""2082""
","
","
","""event"",""trial"",""time""
""fullscreenenter"",""1"",""2082""
","
","","","-1","","","18","4117","2803","g","elianto","#f73b6a7A","-1","-1","1","0","[]","0","2","","","4117","78","6","4","lose","no-go","0"
"pit-trial","197","1431596","0.0-83.0","battery-v0.2","","""event"",""trial"",""time""
""fullscreenenter"",""1"",""2082""
","
","
","""event"",""trial"",""time""
""fullscreenenter"",""1"",""2082""
","
","","","-1","","","18","4117","2803","s","elianto","#3366ff99","-1","-1","1","0","[]","0","2","","","4117","79","4","2","win","no-go","1"
"pit-trial","198","1435437","0.0-84.0","battery-v0.2","","""event"",""trial"",""time""
""fullscreenenter"",""1"",""2082""
","
","
","""event"",""trial"",""time""
""fullscreenenter"",""1"",""2082""
","
","","","976.5","","","18","4117","2803","w","elianto","#f73b6a7A"," "," ","1","0","[1830.5]","1","2","","","4117","80","3","3","lose","go","0"
"pit-trial","199","1439973","0.0-85.0","battery-v0.2","","""event"",""trial"",""time""
""fullscreenenter"",""1"",""2082""
","
","
","""event"",""trial"",""time""
""fullscreenenter"",""1"",""2082""
","
","","","1679.0999999642372","","","18","4117","2803","a","elianto","#f73b6a7A"," "," ","1","0","[2530.699999988079]","1","2","","","4117","81","7","3","lose","go","0"
"pit-trial","200","1443556","0.0-86.0","battery-v0.2","","""event"",""trial"",""time""
""fullscreenenter"",""1"",""2082""
","
","
","""event"",""trial"",""time""
""fullscreenenter"",""1"",""2082""
","
","","","721.1999999880791","","","18","4117","2803","p","elianto","#3366ff99"," "," ","1","+10","[1572.699999988079]","1","2","","","4117","82","5","1","win","go","0"
"pit-trial","201","1448429","0.0-87.0","battery-v0.2","","""event"",""trial"",""time""
""fullscreenenter"",""1"",""2082""
","
","
","""event"",""trial"",""time""
""fullscreenenter"",""1"",""2082""
","
","","","-1","","","18","4117","2803","g","elianto","#f73b6a7A","-1","-1","1","0","[]","0","2","","","4117","83","6","4","lose","no-go","0"
"pit-trial","202","1453292","0.0-88.0","battery-v0.2","","""event"",""trial"",""time""
""fullscreenenter"",""1"",""2082""
","
","
","""event"",""trial"",""time""
""fullscreenenter"",""1"",""2082""
","
","","","-1","","","18","4117","2803","s","elianto","#3366ff99","-1","-1","1","+10","[]","0","2","","","4117","84","4","2","win","no-go","0"
"pit-trial","203","1458156","0.0-89.0","battery-v0.2","","""event"",""trial"",""time""
""fullscreenenter"",""1"",""2082""
","
","
","""event"",""trial"",""time""
""fullscreenenter"",""1"",""2082""
","
","","","-1","","","18","4117","2803","g","elianto","#f73b6a7A","-1","-1","1","-10","[]","0","2","","","4117","85","6","4","lose","no-go","1"
"pit-trial","204","1463021","0.0-90.0","battery-v0.2","","""event"",""trial"",""time""
""fullscreenenter"",""1"",""2082""
","
","
","""event"",""trial"",""time""
""fullscreenenter"",""1"",""2082""
","
","","","-1","","","18","4117","2803","s","elianto","#3366ff99","-1","-1","1","+10","[]","0","2","","","4117","86","4","2","win","no-go","0"
"pit-trial","205","1466589","0.0-91.0","battery-v0.2","","""event"",""trial"",""time""
""fullscreenenter"",""1"",""2082""
","
","
","""event"",""trial"",""time""
""fullscreenenter"",""1"",""2082""
","
","","","700.6999999880791","","","18","4117","2803","p","elianto","#3366ff99"," "," ","1","+10","[1556.3999999761581]","1","2","","","4117","87","5","1","win","go","0"
"pit-trial","206","1470510","0.0-92.0","battery-v0.2","","""event"",""trial"",""time""
""fullscreenenter"",""1"",""2082""
","
","
","""event"",""trial"",""time""
""fullscreenenter"",""1"",""2082""
","
","","","1057.6000000238419","","","18","4117","2803","a","elianto","#f73b6a7A"," "," ","1","0","[1907.7999999523163,3246.199999988079]","2","2","","","4117","88","7","3","lose","go","0"
"pit-trial","207","1475381","0.0-93.0","battery-v0.2","","""event"",""trial"",""time""
""fullscreenenter"",""1"",""2082""
","
","
","""event"",""trial"",""time""
""fullscreenenter"",""1"",""2082""
","
","","","-1","","","18","4117","2803","g","elianto","#f73b6a7A","-1","-1","1","0","[]","0","2","","","4117","89","6","4","lose","no-go","0"
"pit-trial","208","1479062","0.0-94.0","battery-v0.2","","""event"",""trial"",""time""
""fullscreenenter"",""1"",""2082""
","
","
","""event"",""trial"",""time""
""fullscreenenter"",""1"",""2082""
","
","","","815.1000000238419","","","18","4117","2803","a","elianto","#f73b6a7A"," "," ","1","0","[1667.6000000238419]","1","2","","","4117","90","7","3","lose","go","0"
"pit-trial","209","1483924","0.0-95.0","battery-v0.2","","""event"",""trial"",""time""
""fullscreenenter"",""1"",""2082""
","
","
","""event"",""trial"",""time""
""fullscreenenter"",""1"",""2082""
","
","","","-1","","","18","4117","2803","s","elianto","#3366ff99","-1","-1","1","0","[]","0","2","","","4117","91","4","2","win","no-go","1"
"pit-trial","210","1487493","0.0-96.0","battery-v0.2","","""event"",""trial"",""time""
""fullscreenenter"",""1"",""2082""
","
","
","""event"",""trial"",""time""
""fullscreenenter"",""1"",""2082""
","
","","","703.8000000119209","","","18","4117","2803","p","elianto","#3366ff99"," "," ","1","+10","[1558.0999999642372]","1","2","","","4117","92","5","1","win","go","0"
"pit-trial","211","1492231","0.0-97.0","battery-v0.2","","""event"",""trial"",""time""
""fullscreenenter"",""1"",""2082""
","
","
","""event"",""trial"",""time""
""fullscreenenter"",""1"",""2082""
","
","","","1877","","","18","4117","2803","p","elianto","#3366ff99"," "," ","1","+10","[2728]","1","2","","","4117","93","5","1","win","go","0"
"pit-trial","212","1497117","0.0-98.0","battery-v0.2","","""event"",""trial"",""time""
""fullscreenenter"",""1"",""2082""
","
","
","""event"",""trial"",""time""
""fullscreenenter"",""1"",""2082""
","
","","","-1","","","18","4117","2803","g","elianto","#f73b6a7A","-1","-1","1","0","[]","0","2","","","4117","94","6","4","lose","no-go","0"
"pit-trial","213","1500829","0.0-99.0","battery-v0.2","","""event"",""trial"",""time""
""fullscreenenter"",""1"",""2082""
","
","
","""event"",""trial"",""time""
""fullscreenenter"",""1"",""2082""
","
","","","854.8000000119209","","","18","4117","2803","a","elianto","#f73b6a7A"," "," ","1","0","[1707.6000000238419]","1","2","","","4117","95","7","3","lose","go","0"
"pit-trial","214","1505150","0.0-100.0","battery-v0.2","","""event"",""trial"",""time""
""fullscreenenter"",""1"",""2082""
","
","
","""event"",""trial"",""time""
""fullscreenenter"",""1"",""2082""
","
","","","1460","","","18","4117","2803","l","elianto","#3366ff99","-1"," ","0","0","[2311.599999964237]","1","2","","","4117","96","8","2","win","no-go","0"
"pit-trial","215","1510030","0.0-101.0","battery-v0.2","","""event"",""trial"",""time""
""fullscreenenter"",""1"",""2082""
","
","
","""event"",""trial"",""time""
""fullscreenenter"",""1"",""2082""
","
","","","-1","","","18","4117","2803","g","elianto","#f73b6a7A","-1","-1","1","0","[]","0","2","","","4117","97","6","4","lose","no-go","0"
"pit-trial","216","1513727","0.0-102.0","battery-v0.2","","""event"",""trial"",""time""
""fullscreenenter"",""1"",""2082""
","
","
","""event"",""trial"",""time""
""fullscreenenter"",""1"",""2082""
","
","","","831.1999999880791","","","18","4117","2803","p","elianto","#3366ff99"," "," ","1","+10","[1681.5]","1","2","","","4117","98","5","1","win","go","0"
"pit-trial","217","1518596","0.0-103.0","battery-v0.2","","""event"",""trial"",""time""
""fullscreenenter"",""1"",""2082""
","
","
","""event"",""trial"",""time""
""fullscreenenter"",""1"",""2082""
","
","","","-1","","","18","4117","2803","l","elianto","#3366ff99","-1","-1","1","+10","[]","0","2","","","4117","99","8","2","win","no-go","0"
"pit-trial","218","1522549","0.0-104.0","battery-v0.2","","""event"",""trial"",""time""
""fullscreenenter"",""1"",""2082""
","
","
","""event"",""trial"",""time""
""fullscreenenter"",""1"",""2082""
","
","","","1085.5","","","18","4117","2803","a","elianto","#f73b6a7A"," "," ","1","0","[1946.199999988079]","1","2","","","4117","100","7","3","lose","go","0"
"pit-trial","219","1527414","0.0-105.0","battery-v0.2","","""event"",""trial"",""time""
""fullscreenenter"",""1"",""2082""
","
","
","""event"",""trial"",""time""
""fullscreenenter"",""1"",""2082""
","
","","","-1","","","18","4117","2803","g","elianto","#f73b6a7A","-1","-1","1","0","[]","0","2","","","4117","101","6","4","lose","no-go","0"
"pit-trial","220","1530980","0.0-106.0","battery-v0.2","","""event"",""trial"",""time""
""fullscreenenter"",""1"",""2082""
","
","
","""event"",""trial"",""time""
""fullscreenenter"",""1"",""2082""
","
","","","705.1999999880791","","","18","4117","2803","p","elianto","#3366ff99"," "," ","1","+10","[1555.800000011921]","1","2","","","4117","102","5","1","win","go","0"
"pit-trial","221","1535846","0.0-107.0","battery-v0.2","","""event"",""trial"",""time""
""fullscreenenter"",""1"",""2082""
","
","
","""event"",""trial"",""time""
""fullscreenenter"",""1"",""2082""
","
","","","-1","","","18","4117","2803","l","elianto","#3366ff99","-1","-1","1","0","[]","0","2","","","4117","103","8","2","win","no-go","1"
"pit-trial","222","1540429","0.0-108.0","battery-v0.2","","""event"",""trial"",""time""
""fullscreenenter"",""1"",""2082""
","
","
","""event"",""trial"",""time""
""fullscreenenter"",""1"",""2082""
","
","","","1725","","","18","4117","2803","u","elianto","#3366ff99","-1"," ","0","0","[2575.800000011921]","1","2","","","4117","104","9","2","win","no-go","0"
"pit-trial","223","1545294","0.0-109.0","battery-v0.2","","""event"",""trial"",""time""
""fullscreenenter"",""1"",""2082""
","
","
","""event"",""trial"",""time""
""fullscreenenter"",""1"",""2082""
","
","","","-1","","","18","4117","2803","u","elianto","#3366ff99","-1","-1","1","+10","[2932.699999988079]","1","2","","","4117","105","9","2","win","no-go","0"
"pit-trial","224","1548860","0.0-110.0","battery-v0.2","","""event"",""trial"",""time""
""fullscreenenter"",""1"",""2082""
","
","
","""event"",""trial"",""time""
""fullscreenenter"",""1"",""2082""
","
","","","706.5","","","18","4117","2803","p","elianto","#3366ff99"," "," ","1","+10","[1557.0999999642372]","1","2","","","4117","106","5","1","win","go","0"
"pit-trial","225","1552906","0.0-111.0","battery-v0.2","","""event"",""trial"",""time""
""fullscreenenter"",""1"",""2082""
","
","
","""event"",""trial"",""time""
""fullscreenenter"",""1"",""2082""
","
","","","1187.300000011921","","","18","4117","2803","l","elianto","#3366ff99","-1"," ","0","+10","[2040.3999999761581]","1","2","","","4117","107","8","2","win","no-go","1"
"pit-trial","226","1557772","0.0-112.0","battery-v0.2","","""event"",""trial"",""time""
""fullscreenenter"",""1"",""2082""
","
","
","""event"",""trial"",""time""
""fullscreenenter"",""1"",""2082""
","
","","","-1","","","18","4117","2803","g","elianto","#f73b6a7A","-1","-1","1","-10","[]","0","2","","","4117","108","6","4","lose","no-go","1"
"pit-trial","227","1561462","0.0-113.0","battery-v0.2","","""event"",""trial"",""time""
""fullscreenenter"",""1"",""2082""
","
","
","""event"",""trial"",""time""
""fullscreenenter"",""1"",""2082""
","
","","","827.0999999642372","","","18","4117","2803","l","elianto","#3366ff99","-1"," ","0","0","[1678.8999999761581]","1","2","","","4117","109","8","2","win","no-go","0"
"pit-trial","228","1565177","0.0-114.0","battery-v0.2","","""event"",""trial"",""time""
""fullscreenenter"",""1"",""2082""
","
","
","""event"",""trial"",""time""
""fullscreenenter"",""1"",""2082""
","
","","","848.7000000476837","","","18","4117","2803","u","elianto","#3366ff99","-1"," ","0","0","[1699.8999999761581]","1","2","","","4117","110","9","2","win","no-go","0"
"pit-trial","229","1570056","0.0-115.0","battery-v0.2","","""event"",""trial"",""time""
""fullscreenenter"",""1"",""2082""
","
","
","""event"",""trial"",""time""
""fullscreenenter"",""1"",""2082""
","
","","","-1","","","18","4117","2803","g","elianto","#f73b6a7A","-1","-1","1","0","[]","0","2","","","4117","111","6","4","lose","no-go","0"
"pit-trial","230","1573427","0.0-116.0","battery-v0.2","","""event"",""trial"",""time""
""fullscreenenter"",""1"",""2082""
","
","
","""event"",""trial"",""time""
""fullscreenenter"",""1"",""2082""
","
","","","498.39999997615814","","","18","4117","2803","p","elianto","#3366ff99"," "," ","1","+10","[1356]","1","2","","","4117","112","5","1","win","go","0"
"pit-trial","231","1577307","0.0-117.0","battery-v0.2","","""event"",""trial"",""time""
""fullscreenenter"",""1"",""2082""
","
","
","""event"",""trial"",""time""
""fullscreenenter"",""1"",""2082""
","
","","","1008.1999999880791","","","18","4117","2803","p","elianto","#3366ff99"," "," ","1","+10","[1865.5]","1","2","","","4117","113","5","1","win","go","0"
"pit-trial","232","1580749","0.0-118.0","battery-v0.2","","""event"",""trial"",""time""
""fullscreenenter"",""1"",""2082""
","
","
","""event"",""trial"",""time""
""fullscreenenter"",""1"",""2082""
","
","","","575.1999999880791","","","18","4117","2803","l","elianto","#3366ff99","-1"," ","0","0","[1432.699999988079]","1","2","","","4117","114","8","2","win","no-go","0"
"pit-trial","233","1584558","0.0-119.0","battery-v0.2","","""event"",""trial"",""time""
""fullscreenenter"",""1"",""2082""
","
","
","""event"",""trial"",""time""
""fullscreenenter"",""1"",""2082""
","
","","","946.6999999880791","","","18","4117","2803","u","elianto","#3366ff99","-1"," ","0","+10","[1798.199999988079]","1","2","","","4117","115","9","2","win","no-go","1"
"pit-trial","234","1588725","0.0-120.0","battery-v0.2","","""event"",""trial"",""time""
""fullscreenenter"",""1"",""2082""
","
","
","""event"",""trial"",""time""
""fullscreenenter"",""1"",""2082""
","
","","","1297.5","","","18","4117","2803","a","elianto","#f73b6a7A"," "," ","1","0","[2155.300000011921]","1","2","","","4117","116","7","3","lose","go","0"
"pit-trial","235","1592599","0.0-121.0","battery-v0.2","","""event"",""trial"",""time""
""fullscreenenter"",""1"",""2082""
","
","
","""event"",""trial"",""time""
""fullscreenenter"",""1"",""2082""
","
","","","1007.1999999880791","","","18","4117","2803","p","elianto","#3366ff99"," "," ","1","+10","[1857.9000000357628]","1","2","","","4117","117","5","1","win","go","0"
"pit-trial","236","1597468","0.0-122.0","battery-v0.2","","""event"",""trial"",""time""
""fullscreenenter"",""1"",""2082""
","
","
","""event"",""trial"",""time""
""fullscreenenter"",""1"",""2082""
","
","","","-1","","","18","4117","2803","g","elianto","#f73b6a7A","-1","-1","1","-10","[]","0","2","","","4117","118","6","4","lose","no-go","1"
"pit-trial","237","1601116","0.0-123.0","battery-v0.2","","""event"",""trial"",""time""
""fullscreenenter"",""1"",""2082""
","
","
","""event"",""trial"",""time""
""fullscreenenter"",""1"",""2082""
","
","","","783.7000000476837","","","18","4117","2803","l","elianto","#3366ff99","-1"," ","0","0","[1637.300000011921]","1","2","","","4117","119","8","2","win","no-go","0"
"pit-trial","238","1604638","0.0-124.0","battery-v0.2","","""event"",""trial"",""time""
""fullscreenenter"",""1"",""2082""
","
","
","""event"",""trial"",""time""
""fullscreenenter"",""1"",""2082""
","
","","","651.7999999523163","","","18","4117","2803","u","elianto","#3366ff99","-1"," ","0","0","[1510.5]","1","2","","","4117","120","9","2","win","no-go","0"
"pit-trial","239","1608382","0.0-125.0","battery-v0.2","","""event"",""trial"",""time""
""fullscreenenter"",""1"",""2082""
","
","
","""event"",""trial"",""time""
""fullscreenenter"",""1"",""2082""
","
","","","878.1000000238419","","","18","4117","2803","l","elianto","#3366ff99","-1"," ","0","0","[1731.199999988079]","1","2","","","4117","121","8","2","win","no-go","0"
"pit-trial","240","1612100","0.0-126.0","battery-v0.2","","""event"",""trial"",""time""
""fullscreenenter"",""1"",""2082""
","
","
","""event"",""trial"",""time""
""fullscreenenter"",""1"",""2082""
","
","","","854.8000000119209","","","18","4117","2803","u","elianto","#3366ff99","-1"," ","0","+10","[1705.800000011921]","1","2","","","4117","122","9","2","win","no-go","1"
"pit-trial","241","1615652","0.0-127.0","battery-v0.2","","""event"",""trial"",""time""
""fullscreenenter"",""1"",""2082""
","
","
","""event"",""trial"",""time""
""fullscreenenter"",""1"",""2082""
","
","","","692.4000000357628","","","18","4117","2803","p","elianto","#3366ff99"," "," ","1","+10","[1544.699999988079]","1","2","","","4117","123","5","1","win","go","0"
"pit-trial","242","1619548","0.0-128.0","battery-v0.2","","""event"",""trial"",""time""
""fullscreenenter"",""1"",""2082""
","
","
","""event"",""trial"",""time""
""fullscreenenter"",""1"",""2082""
","
","","","1025.1000000238419","","","18","4117","2803","a","elianto","#f73b6a7A"," "," ","1","0","[1882.8999999761581]","1","2","","","4117","124","7","3","lose","go","0"
"pit-trial","243","1624412","0.0-129.0","battery-v0.2","","""event"",""trial"",""time""
""fullscreenenter"",""1"",""2082""
","
","
","""event"",""trial"",""time""
""fullscreenenter"",""1"",""2082""
","
","","","-1","","","18","4117","2803","l","elianto","#3366ff99","-1","-1","1","+10","[]","0","2","","","4117","125","8","2","win","no-go","0"
"pit-trial","244","1628093","0.0-130.0","battery-v0.2","","""event"",""trial"",""time""
""fullscreenenter"",""1"",""2082""
","
","
","""event"",""trial"",""time""
""fullscreenenter"",""1"",""2082""
","
","","","813.8000000119209","","","18","4117","2803","u","elianto","#3366ff99","-1"," ","0","0","[1672]","1","2","","","4117","126","9","2","win","no-go","0"
"pit-trial","245","1632964","0.0-131.0","battery-v0.2","","""event"",""trial"",""time""
""fullscreenenter"",""1"",""2082""
","
","
","""event"",""trial"",""time""
""fullscreenenter"",""1"",""2082""
","
","","","-1","","","18","4117","2803","g","elianto","#f73b6a7A","-1","-1","1","0","[]","0","2","","","4117","127","6","4","lose","no-go","0"
"pit-trial","246","1636732","0.0-132.0","battery-v0.2","","""event"",""trial"",""time""
""fullscreenenter"",""1"",""2082""
","
","
","""event"",""trial"",""time""
""fullscreenenter"",""1"",""2082""
","
","","","907.5999999642372","","","18","4117","2803","a","elianto","#f73b6a7A"," "," ","1","0","[1761.3999999761581]","1","2","","","4117","128","7","3","lose","go","0"
"pit-trial","247","1640972","0.0-133.0","battery-v0.2","","""event"",""trial"",""time""
""fullscreenenter"",""1"",""2082""
","
","
","""event"",""trial"",""time""
""fullscreenenter"",""1"",""2082""
","
","","","1377","","","18","4117","2803","a","elianto","#f73b6a7A"," "," ","1","0","[2234.699999988079]","1","2","","","4117","129","7","3","lose","go","0"
"pit-trial","248","1645848","0.0-134.0","battery-v0.2","","""event"",""trial"",""time""
""fullscreenenter"",""1"",""2082""
","
","
","""event"",""trial"",""time""
""fullscreenenter"",""1"",""2082""
","
","","","-1","","","18","4117","2803","u","elianto","#3366ff99","-1","-1","1","+10","[]","0","2","","","4117","130","9","2","win","no-go","0"
"pit-trial","249","1650731","0.0-135.0","battery-v0.2","","""event"",""trial"",""time""
""fullscreenenter"",""1"",""2082""
","
","
","""event"",""trial"",""time""
""fullscreenenter"",""1"",""2082""
","
","","","-1","","","18","4117","2803","l","elianto","#3366ff99","-1","-1","1","+10","[]","0","2","","","4117","131","8","2","win","no-go","0"
"pit-trial","250","1655596","0.0-136.0","battery-v0.2","","""event"",""trial"",""time""
""fullscreenenter"",""1"",""2082""
","
","
","""event"",""trial"",""time""
""fullscreenenter"",""1"",""2082""
","
","","","-1","","","18","4117","2803","g","elianto","#f73b6a7A","-1","-1","1","0","[]","0","2","","","4117","132","6","4","lose","no-go","0"
"pit-trial","251","1659508","0.0-137.0","battery-v0.2","","""event"",""trial"",""time""
""fullscreenenter"",""1"",""2082""
","
","
","""event"",""trial"",""time""
""fullscreenenter"",""1"",""2082""
","
","","","1048","","","18","4117","2803","a","elianto","#f73b6a7A"," "," ","1","0","[1906.5]","1","2","","","4117","133","7","3","lose","go","0"
"pit-trial","252","1664372","0.0-138.0","battery-v0.2","","""event"",""trial"",""time""
""fullscreenenter"",""1"",""2082""
","
","
","""event"",""trial"",""time""
""fullscreenenter"",""1"",""2082""
","
","","","-1","","","18","4117","2803","g","elianto","#f73b6a7A","-1","-1","1","0","[]","0","2","","","4117","134","6","4","lose","no-go","0"
"pit-trial","253","1669236","0.0-139.0","battery-v0.2","","""event"",""trial"",""time""
""fullscreenenter"",""1"",""2082""
","
","
","""event"",""trial"",""time""
""fullscreenenter"",""1"",""2082""
","
","","","-1","","","18","4117","2803","u","elianto","#3366ff99","-1","-1","1","+10","[]","0","2","","","4117","135","9","2","win","no-go","0"
"pit-trial","254","1674101","0.0-140.0","battery-v0.2","","""event"",""trial"",""time""
""fullscreenenter"",""1"",""2082""
","
","
","""event"",""trial"",""time""
""fullscreenenter"",""1"",""2082""
","
","","","-1","","","18","4117","2803","l","elianto","#3366ff99","-1","-1","1","+10","[]","0","2","","","4117","136","8","2","win","no-go","0"
"pit-trial","255","1678966","0.0-141.0","battery-v0.2","","""event"",""trial"",""time""
""fullscreenenter"",""1"",""2082""
","
","
","""event"",""trial"",""time""
""fullscreenenter"",""1"",""2082""
","
","","","-1","","","18","4117","2803","l","elianto","#3366ff99","-1","-1","1","+10","[]","0","2","","","4117","137","8","2","win","no-go","0"
"pit-trial","256","1683846","0.0-142.0","battery-v0.2","","""event"",""trial"",""time""
""fullscreenenter"",""1"",""2082""
","
","
","""event"",""trial"",""time""
""fullscreenenter"",""1"",""2082""
","
","","","-1","","","18","4117","2803","u","elianto","#3366ff99","-1","-1","1","+10","[]","0","2","","","4117","138","9","2","win","no-go","0"
"pit-trial","257","1688716","0.0-143.0","battery-v0.2","","""event"",""trial"",""time""
""fullscreenenter"",""1"",""2082""
","
","
","""event"",""trial"",""time""
""fullscreenenter"",""1"",""2082""
","
","","","-1","","","18","4117","2803","g","elianto","#f73b6a7A","-1","-1","1","-10","[]","0","2","","","4117","139","6","4","lose","no-go","1"
"pit-trial","258","1692660","0.0-144.0","battery-v0.2","","""event"",""trial"",""time""
""fullscreenenter"",""1"",""2082""
","
","
","""event"",""trial"",""time""
""fullscreenenter"",""1"",""2082""
","
","","","1082.8999999761581","","","18","4117","2803","a","elianto","#f73b6a7A"," "," ","1","0","[1939.2000000476837]","1","2","","","4117","140","7","3","lose","go","0"
"pit-instructions","259","1772766","0.0-145.0","battery-v0.2","","""event"",""trial"",""time""
""fullscreenenter"",""1"",""2082""
","
","
","""event"",""trial"",""time""
""fullscreenenter"",""1"",""2082""
","
","","[{""page_index"":0,""viewing_time"":55580.5},{""page_index"":1,""viewing_time"":24522.599999964237}]","80104.5","","","","","","","","","","","","","","","","","","","","","","","",""
"pit-trial","260","1777130","0.0-146.0","battery-v0.2","","""event"",""trial"",""time""
""fullscreenenter"",""1"",""2082""
","
","
","""event"",""trial"",""time""
""fullscreenenter"",""1"",""2082""
","
","","","1472.8999999761581","","","18","4117","2803","b","elianto","#f73b6a7A","-1"," ","0","-10","[2337.5]","1","3","","","4117","141","3","4","lose","no-go","0"
"pit-trial","261","1781777","0.0-147.0","battery-v0.2","","""event"",""trial"",""time""
""fullscreenenter"",""1"",""2082""
","
","
","""event"",""trial"",""time""
""fullscreenenter"",""1"",""2082""
","
","","","1771.800000011921","","","18","4117","2803","n","elianto","#f73b6a7A"," "," ","1","0","[2624.599999964237]","1","3","","","4117","142","0","3","lose","go","0"
"pit-trial","262","1786353","0.0-148.0","battery-v0.2","","""event"",""trial"",""time""
""fullscreenenter"",""1"",""2082""
","
","
","""event"",""trial"",""time""
""fullscreenenter"",""1"",""2082""
","
","","","1704.3999999761581","","","18","4117","2803","t","elianto","#f73b6a7A"," "," ","1","0","[2557.599999964237]","1","3","","","4117","143","2","3","lose","go","0"
"pit-trial","263","1790167","0.0-149.0","battery-v0.2","","""event"",""trial"",""time""
""fullscreenenter"",""1"",""2082""
","
","
","""event"",""trial"",""time""
""fullscreenenter"",""1"",""2082""
","
","","","949.0999999642372","","","18","4117","2803","f","elianto","#3366ff99","-1"," ","0","0","[1806.5999999642372]","1","3","","","4117","144","1","2","win","no-go","0"
"pit-trial","264","1795036","0.0-150.0","battery-v0.2","","""event"",""trial"",""time""
""fullscreenenter"",""1"",""2082""
","
","
","""event"",""trial"",""time""
""fullscreenenter"",""1"",""2082""
","
","","","-1","","","18","4117","2803","b","elianto","#f73b6a7A","-1","-1","1","0","[]","0","3","","","4117","145","3","4","lose","no-go","0"
"pit-trial","265","1798524","0.0-151.0","battery-v0.2","","""event"",""trial"",""time""
""fullscreenenter"",""1"",""2082""
","
","
","""event"",""trial"",""time""
""fullscreenenter"",""1"",""2082""
","
","","","619.9000000357628","","","18","4117","2803","n","elianto","#f73b6a7A"," "," ","1","0","[1475.5999999642372]","1","3","","","4117","146","0","3","lose","go","0"
"pit-trial","266","1803179","0.0-152.0","battery-v0.2","","""event"",""trial"",""time""
""fullscreenenter"",""1"",""2082""
","
","
","""event"",""trial"",""time""
""fullscreenenter"",""1"",""2082""
","
","","","1789.699999988079","","","18","4117","2803","t","elianto","#f73b6a7A"," "," ","1","0","[2647.800000011921]","1","3","","","4117","147","2","3","lose","go","0"
"pit-trial","267","1808044","0.0-153.0","battery-v0.2","","""event"",""trial"",""time""
""fullscreenenter"",""1"",""2082""
","
","
","""event"",""trial"",""time""
""fullscreenenter"",""1"",""2082""
","
","","","-1","","","18","4117","2803","f","elianto","#3366ff99","-1","-1","1","+10","[]","0","3","","","4117","148","1","2","win","no-go","0"
"pit-trial","268","1812908","0.0-154.0","battery-v0.2","","""event"",""trial"",""time""
""fullscreenenter"",""1"",""2082""
","
","
","""event"",""trial"",""time""
""fullscreenenter"",""1"",""2082""
","
