"trial_type","trial_index","time_elapsed","internal_node_id","task_version","subject_id","interactions","blur_events","focus_events","fullscreenenter_events","fullscreenexit_events","success","view_history","rt","responses","num_errors","age","subject","participantId","rune","rune_set","hex","correct","choice","accuracy","outcome","keys","total_keys","block","practice","value","sub","trial","stimulus","robot","valence","action","sham"
"pavlovia","0","13","0.0-0.0","battery-v0.2","","""event"",""trial"",""time""
""fullscreenenter"",""1"",""4021""
","
","
","""event"",""trial"",""time""
""fullscreenenter"",""1"",""4021""
","
","","","","","","","","","","","","","","","","","","","","","","","","","","",""
"fullscreen","1","4978","0.0-1.0","battery-v0.2","","""event"",""trial"",""time""
""fullscreenenter"",""1"",""4021""
","
","
","""event"",""trial"",""time""
""fullscreenenter"",""1"",""4021""
","
","true","","","","","","","","","","","","","","","","","","","","","","","","","",""
"pit-instructions","2","89303","0.0-2.0-0.0","battery-v0.2","","""event"",""trial"",""time""
""fullscreenenter"",""1"",""4021""
","
","
","""event"",""trial"",""time""
""fullscreenenter"",""1"",""4021""
","
","","[{""page_index"":0,""viewing_time"":84318.29999995232}]","84319.29999995232","","","","","","","","","","","","","","","","","","","","","","","",""
"pit-comprehension","3","94904","0.0-2.0-1.0-0.0","battery-v0.2","","""event"",""trial"",""time""
""fullscreenenter"",""1"",""4021""
","
","
","""event"",""trial"",""time""
""fullscreenenter"",""1"",""4021""
","
","","","5597.600000023842","[""shark""]","0","14","18839","7102","","","","","","","","","","","","","","","","","","",""
"pit-instructions","4","97017","0.0-2.0-1.0-1.0","battery-v0.2","","""event"",""trial"",""time""
""fullscreenenter"",""1"",""4021""
","
","
","""event"",""trial"",""time""
""fullscreenenter"",""1"",""4021""
","
","","[{""page_index"":0,""viewing_time"":2103.3000000715256}]","2103.600000023842","","","","","","","","","","","","","","","","","","","","","","","",""
"pit-comprehension","5","103202","0.0-2.0-2.0-0.0","battery-v0.2","","""event"",""trial"",""time""
""fullscreenenter"",""1"",""4021""
","
","
","""event"",""trial"",""time""
""fullscreenenter"",""1"",""4021""
","
","","","6181.900000095367","[""tiger""]","0","14","18839","7102","","","","","","","","","","","","","","","","","","",""
"pit-instructions","6","104436","0.0-2.0-2.0-1.0","battery-v0.2","","""event"",""trial"",""time""
""fullscreenenter"",""1"",""4021""
","
","
","""event"",""trial"",""time""
""fullscreenenter"",""1"",""4021""
","
","","[{""page_index"":0,""viewing_time"":1230.1000000238419}]","1230.6000000238419","","","","","","","","","","","","","","","","","","","","","","","",""
"pit-instructions","7","220322","0.0-2.0-3.0","battery-v0.2","","""event"",""trial"",""time""
""fullscreenenter"",""1"",""4021""
","
","
","""event"",""trial"",""time""
""fullscreenenter"",""1"",""4021""
","
","","[{""page_index"":0,""viewing_time"":13482.400000095367},{""page_index"":1,""viewing_time"":10600.5},{""page_index"":2,""viewing_time"":11559.699999928474},{""page_index"":3,""viewing_time"":7133.5},{""page_index"":4,""viewing_time"":7579.100000023842},{""page_index"":5,""viewing_time"":6114.299999952316},{""page_index"":6,""viewing_time"":7263.100000023842},{""page_index"":7,""viewing_time"":6374},{""page_index"":8,""viewing_time"":6552.899999976158},{""page_index"":9,""viewing_time"":10020.5},{""page_index"":10,""viewing_time"":7956.5},{""page_index"":11,""viewing_time"":9519.200000047684},{""page_index"":12,""viewing_time"":7086.200000047684},{""page_index"":13,""viewing_time"":4642}]","115884.20000004768","","","","","","","","","","","","","","","","","","","","","","","",""
"pit-trial","8","224022","0.0-2.0-4.0-0.0","battery-v0.2","","""event"",""trial"",""time""
""fullscreenenter"",""1"",""4021""
","
","
","""event"",""trial"",""time""
""fullscreenenter"",""1"",""4021""
","
","","","834.1000000238419","","","14","18839","7102","&#9784;","elianto","#FFFFF080"," "," ","1","&#10004","[1684.0999999046326]","1","0","0","","","","","","","",""
"pit-trial","9","227691","0.0-2.0-4.1-0.1","battery-v0.2","","""event"",""trial"",""time""
""fullscreenenter"",""1"",""4021""
","
","
","""event"",""trial"",""time""
""fullscreenenter"",""1"",""4021""
","
","","","801","","","14","18839","7102","&#9784;","elianto","#FFFFF080"," "," ","1","&#10004","[1655.0999999046326]","1","0","0","","","","","","","",""
"pit-trial","10","231130","0.0-2.0-4.2-0.2","battery-v0.2","","""event"",""trial"",""time""
""fullscreenenter"",""1"",""4021""
","
","
","""event"",""trial"",""time""
""fullscreenenter"",""1"",""4021""
","
","","","585.5","","","14","18839","7102","&#9784;","elianto","#FFFFF080"," "," ","1","&#10004","[1435.7000000476837]","1","0","0","","","","","","","",""
"pit-trial","11","234440","0.0-2.0-4.3-0.3","battery-v0.2","","""event"",""trial"",""time""
""fullscreenenter"",""1"",""4021""
","
","
","""event"",""trial"",""time""
""fullscreenenter"",""1"",""4021""
","
","","","449.7999999523163","","","14","18839","7102","&#9784;","elianto","#FFFFF080"," "," ","1","&#10004","[1305.1000000238419]","1","0","0","","","","","","","",""
"pit-trial","12","237559","0.0-2.0-4.4-0.4","battery-v0.2","","""event"",""trial"",""time""
""fullscreenenter"",""1"",""4021""
","
","
","""event"",""trial"",""time""
""fullscreenenter"",""1"",""4021""
","
","","","251.69999992847443","","","14","18839","7102","&#9784;","elianto","#FFFFF080"," "," ","1","&#10004","[1110.2999999523163]","1","0","0","","","","","","","",""
"pit-instructions","13","258511","0.0-2.0-5.0","battery-v0.2","","""event"",""trial"",""time""
""fullscreenenter"",""1"",""4021""
","
","
","""event"",""trial"",""time""
""fullscreenenter"",""1"",""4021""
","
","","[{""page_index"":0,""viewing_time"":4813.299999952316},{""page_index"":1,""viewing_time"":5593.400000095367},{""page_index"":2,""viewing_time"":4401.5},{""page_index"":3,""viewing_time"":6141.5}]","20950","","","","","","","","","","","","","","","","","","","","","","","",""
"pit-trial","14","263375","0.0-2.0-6.0-0.0","battery-v0.2","","""event"",""trial"",""time""
""fullscreenenter"",""1"",""4021""
","
","
","""event"",""trial"",""time""
""fullscreenenter"",""1"",""4021""
","
","","","-1","","","14","18839","7102","&#9854;","elianto","#FFFFF080","-1","-1","1","&#10004","[]","0","0","1","","","","","","","",""
"pit-trial","15","268244","0.0-2.0-6.1-0.1","battery-v0.2","","""event"",""trial"",""time""
""fullscreenenter"",""1"",""4021""
","
","
","""event"",""trial"",""time""
""fullscreenenter"",""1"",""4021""
","
","","","-1","","","14","18839","7102","&#9854;","elianto","#FFFFF080","-1","-1","1","&#10004","[]","0","0","1","","","","","","","",""
"pit-trial","16","273107","0.0-2.0-6.2-0.2","battery-v0.2","","""event"",""trial"",""time""
""fullscreenenter"",""1"",""4021""
","
","
","""event"",""trial"",""time""
""fullscreenenter"",""1"",""4021""
","
","","","-1","","","14","18839","7102","&#9854;","elianto","#FFFFF080","-1","-1","1","&#10004","[]","0","0","1","","","","","","","",""
"pit-trial","17","277973","0.0-2.0-6.3-0.3","battery-v0.2","","""event"",""trial"",""time""
""fullscreenenter"",""1"",""4021""
","
","
","""event"",""trial"",""time""
""fullscreenenter"",""1"",""4021""
","
","","","-1","","","14","18839","7102","&#9854;","elianto","#FFFFF080","-1","-1","1","&#10004","[]","0","0","1","","","","","","","",""
"pit-trial","18","282829","0.0-2.0-6.4-0.4","battery-v0.2","","""event"",""trial"",""time""
""fullscreenenter"",""1"",""4021""
","
","
","""event"",""trial"",""time""
""fullscreenenter"",""1"",""4021""
","
","","","-1","","","14","18839","7102","&#9854;","elianto","#FFFFF080","-1","-1","1","&#10004","[]","0","0","1","","","","","","","",""
"pit-instructions","19","455017","0.0-2.0-7.0","battery-v0.2","","""event"",""trial"",""time""
""fullscreenenter"",""1"",""4021""
","
","
","""event"",""trial"",""time""
""fullscreenenter"",""1"",""4021""
","
","","[{""page_index"":0,""viewing_time"":12109},{""page_index"":1,""viewing_time"":12907.299999952316},{""page_index"":2,""viewing_time"":5543},{""page_index"":3,""viewing_time"":6493.600000023842},{""page_index"":4,""viewing_time"":6028.899999976158},{""page_index"":5,""viewing_time"":5380.700000047684},{""page_index"":6,""viewing_time"":5076.199999928474},{""page_index"":7,""viewing_time"":7250.800000071526},{""page_index"":8,""viewing_time"":7272.899999976158},{""page_index"":9,""viewing_time"":7041},{""page_index"":10,""viewing_time"":32802.60000002384},{""page_index"":11,""viewing_time"":9370.399999976158},{""page_index"":12,""viewing_time"":16841.600000023842},{""page_index"":13,""viewing_time"":9455.699999928474},{""page_index"":14,""viewing_time"":8147.900000095367},{""page_index"":15,""viewing_time"":7217.5},{""page_index"":16,""viewing_time"":6211},{""page_index"":17,""viewing_time"":7035.5}]","172186","","","","","","","","","","","","","","","","","","","","","","","",""
"pit-trial","20","458638","0.0-2.0-8.0-0.0","battery-v0.2","","""event"",""trial"",""time""
""fullscreenenter"",""1"",""4021""
","
","
","""event"",""trial"",""time""
""fullscreenenter"",""1"",""4021""
","
","","","755.8999999761581","","","14","18839","7102","&#9776;","elianto","#3366ff99"," "," ","1","+10","[1610.3999999761581]","1","0","1","","","","","","","",""
"pit-trial","21","462406","0.0-2.0-8.0-1.0","battery-v0.2","","""event"",""trial"",""time""
""fullscreenenter"",""1"",""4021""
","
","
","""event"",""trial"",""time""
""fullscreenenter"",""1"",""4021""
","
","","","911.2000000476837","","","14","18839","7102","&#9776;","elianto","#3366ff99"," "," ","1","+10","[1764.3999999761581]","1","0","1","","","","","","","",""
"pit-trial","22","465710","0.0-2.0-8.0-2.0","battery-v0.2","","""event"",""trial"",""time""
""fullscreenenter"",""1"",""4021""
","
","
","""event"",""trial"",""time""
""fullscreenenter"",""1"",""4021""
","
","","","441.89999997615814","","","14","18839","7102","&#9776;","elianto","#3366ff99"," "," ","1","+10","[1292.3000000715256]","1","0","1","","","","","","","",""
"pit-trial","23","468925","0.0-2.0-8.0-3.0","battery-v0.2","","""event"",""trial"",""time""
""fullscreenenter"",""1"",""4021""
","
","
","""event"",""trial"",""time""
""fullscreenenter"",""1"",""4021""
","
","","","350.2999999523163","","","14","18839","7102","&#9776;","elianto","#3366ff99"," "," ","1","0","[1206.5]","1","0","1","","","","","","","",""
"pit-trial","24","472165","0.0-2.0-8.0-4.0","battery-v0.2","","""event"",""trial"",""time""
""fullscreenenter"",""1"",""4021""
","
","
","""event"",""trial"",""time""
""fullscreenenter"",""1"",""4021""
","
","","","379.6999999284744","","","14","18839","7102","&#9776;","elianto","#3366ff99"," "," ","1","+10","[1234.7000000476837]","1","0","1","","","","","","","",""
"pit-trial","25","475448","0.0-2.0-8.1-0.1","battery-v0.2","","""event"",""trial"",""time""
""fullscreenenter"",""1"",""4021""
","
","
","""event"",""trial"",""time""
""fullscreenenter"",""1"",""4021""
","
","","","413.89999997615814","","","14","18839","7102","&#9776;","elianto","#3366ff99"," "," ","1","+10","[1267]","1","0","1","","","","","","","",""
"pit-trial","26","478747","0.0-2.0-8.1-1.1","battery-v0.2","","""event"",""trial"",""time""
""fullscreenenter"",""1"",""4021""
","
","
","""event"",""trial"",""time""
""fullscreenenter"",""1"",""4021""
","
","","","436.2999999523163","","","14","18839","7102","&#9776;","elianto","#3366ff99"," "," ","1","+10","[1287.2999999523163]","1","0","1","","","","","","","",""
"pit-trial","27","482072","0.0-2.0-8.1-2.1","battery-v0.2","","""event"",""trial"",""time""
""fullscreenenter"",""1"",""4021""
","
","
","""event"",""trial"",""time""
""fullscreenenter"",""1"",""4021""
","
","","","467.7000000476837","","","14","18839","7102","&#9776;","elianto","#3366ff99"," "," ","1","+10","[1322.1000000238419]","1","0","1","","","","","","","",""
"pit-trial","28","485394","0.0-2.0-8.1-3.1","battery-v0.2","","""event"",""trial"",""time""
""fullscreenenter"",""1"",""4021""
","
","
","""event"",""trial"",""time""
""fullscreenenter"",""1"",""4021""
","
","","","467.09999990463257","","","14","18839","7102","&#9776;","elianto","#3366ff99"," "," ","1","0","[1319.0999999046326]","1","0","1","","","","","","","",""
"pit-trial","29","488810","0.0-2.0-8.1-4.1","battery-v0.2","","""event"",""trial"",""time""
""fullscreenenter"",""1"",""4021""
","
","
","""event"",""trial"",""time""
""fullscreenenter"",""1"",""4021""
","
","","","562.6000000238419","","","14","18839","7102","&#9776;","elianto","#3366ff99"," "," ","1","+10","[1413.6999999284744]","1","0","1","","","","","","","",""
"pit-trial","30","492126","0.0-2.0-8.2-0.2","battery-v0.2","","""event"",""trial"",""time""
""fullscreenenter"",""1"",""4021""
","
","
","""event"",""trial"",""time""
""fullscreenenter"",""1"",""4021""
","
","","","462.2000000476837","","","14","18839","7102","&#9776;","elianto","#3366ff99"," "," ","1","+10","[1312.3000000715256]","1","0","1","","","","","","","",""
"pit-trial","31","495372","0.0-2.0-8.2-1.2","battery-v0.2","","""event"",""trial"",""time""
""fullscreenenter"",""1"",""4021""
","
","
","""event"",""trial"",""time""
""fullscreenenter"",""1"",""4021""
","
","","","392.90000009536743","","","14","18839","7102","&#9776;","elianto","#3366ff99"," "," ","1","+10","[1244.2000000476837]","1","0","1","","","","","","","",""
"pit-trial","32","498595","0.0-2.0-8.2-2.2","battery-v0.2","","""event"",""trial"",""time""
""fullscreenenter"",""1"",""4021""
","
","
","""event"",""trial"",""time""
""fullscreenenter"",""1"",""4021""
","
","","","371.7000000476837","","","14","18839","7102","&#9776;","elianto","#3366ff99"," "," ","1","+10","[1221.8000000715256]","1","0","1","","","","","","","",""
"pit-trial","33","501751","0.0-2.0-8.2-3.2","battery-v0.2","","""event"",""trial"",""time""
""fullscreenenter"",""1"",""4021""
","
","
","""event"",""trial"",""time""
""fullscreenenter"",""1"",""4021""
","
","","","300.1999999284744","","","14","18839","7102","&#9776;","elianto","#3366ff99"," "," ","1","0","[1152.8999999761581]","1","0","1","","","","","","","",""
"pit-trial","34","505024","0.0-2.0-8.2-4.2","battery-v0.2","","""event"",""trial"",""time""
""fullscreenenter"",""1"",""4021""
","
","
","""event"",""trial"",""time""
""fullscreenenter"",""1"",""4021""
","
","","","420.60000002384186","","","14","18839","7102","&#9776;","elianto","#3366ff99"," "," ","1","+10","[1270.6000000238419]","1","0","1","","","","","","","",""
"call-function","35","505025","0.0-2.0-9.0","battery-v0.2","","""event"",""trial"",""time""
""fullscreenenter"",""1"",""4021""
","
","
","""event"",""trial"",""time""
""fullscreenenter"",""1"",""4021""
","
","","","","","","","","","","","","","","","","","","","","","","","","","","",""
"pit-instructions","36","544647","0.0-2.0-10.0","battery-v0.2","","""event"",""trial"",""time""
""fullscreenenter"",""1"",""4021""
","
","
","""event"",""trial"",""time""
""fullscreenenter"",""1"",""4021""
","
","","[{""page_index"":0,""viewing_time"":6134.399999976158},{""page_index"":1,""viewing_time"":7147},{""page_index"":2,""viewing_time"":9339.800000071526},{""page_index"":3,""viewing_time"":9341.099999904633},{""page_index"":4,""viewing_time"":7658.400000095367}]","39621.299999952316","","","","","","","","","","","","","","","","","","","","","","","",""
"pit-trial","37","548043","0.0-2.0-11.0-0.0","battery-v0.2","","""event"",""trial"",""time""
""fullscreenenter"",""1"",""4021""
","
","
","""event"",""trial"",""time""
""fullscreenenter"",""1"",""4021""
","
","","","536.4000000953674","","","14","18839","7102","&#9761;","elianto","#3366ff99","-1"," ","0","0","[1386.8999999761581]","1","0","2","","","","","","","",""
"pit-trial","38","551155","0.0-2.0-11.0-1.0","battery-v0.2","","""event"",""trial"",""time""
""fullscreenenter"",""1"",""4021""
","
","
","""event"",""trial"",""time""
""fullscreenenter"",""1"",""4021""
","
","","","245.29999995231628","","","14","18839","7102","&#9761;","elianto","#3366ff99","-1"," ","0","0","[1097.7000000476837]","1","0","2","","","","","","","",""
"pit-trial","39","554119","0.0-2.0-11.0-2.0","battery-v0.2","","""event"",""trial"",""time""
""fullscreenenter"",""1"",""4021""
","
","
","""event"",""trial"",""time""
""fullscreenenter"",""1"",""4021""
","
","","","110.5","","","14","18839","7102","&#9761;","elianto","#3366ff99","-1"," ","0","0","[960.7000000476837]","1","0","2","","","","","","","",""
"pit-trial","40","558989","0.0-2.0-11.0-3.0","battery-v0.2","","""event"",""trial"",""time""
""fullscreenenter"",""1"",""4021""
","
","
","""event"",""trial"",""time""
""fullscreenenter"",""1"",""4021""
","
","","","-1","","","14","18839","7102","&#9761;","elianto","#3366ff99","-1","-1","1","0","[]","0","0","2","","","","","","","",""
"pit-trial","41","563856","0.0-2.0-11.0-4.0","battery-v0.2","","""event"",""trial"",""time""
""fullscreenenter"",""1"",""4021""
","
","
","""event"",""trial"",""time""
""fullscreenenter"",""1"",""4021""
","
","","","-1","","","14","18839","7102","&#9761;","elianto","#3366ff99","-1","-1","1","+10","[]","0","0","2","","","","","","","",""
"pit-trial","42","567194","0.0-2.0-11.1-0.1","battery-v0.2","","""event"",""trial"",""time""
""fullscreenenter"",""1"",""4021""
","
","
","""event"",""trial"",""time""
""fullscreenenter"",""1"",""4021""
","
","","","477.89999997615814","","","14","18839","7102","&#9761;","elianto","#3366ff99","-1"," ","0","0","[1328.1000000238419]","1","0","2","","","","","","","",""
"pit-trial","43","570187","0.0-2.0-11.1-1.1","battery-v0.2","","""event"",""trial"",""time""
""fullscreenenter"",""1"",""4021""
","
","
","""event"",""trial"",""time""
""fullscreenenter"",""1"",""4021""
","
","","","120.30000007152557","","","14","18839","7102","&#9761;","elianto","#3366ff99","-1"," ","0","0","[979.2000000476837]","1","0","2","","","","","","","",""
"pit-trial","44","573197","0.0-2.0-11.1-2.1","battery-v0.2","","""event"",""trial"",""time""
""fullscreenenter"",""1"",""4021""
","
","
","""event"",""trial"",""time""
""fullscreenenter"",""1"",""4021""
","
","","","145.20000004768372","","","14","18839","7102","&#9761;","elianto","#3366ff99","-1"," ","0","0","[997.2000000476837]","1","0","2","","","","","","","",""
"pit-trial","45","578049","0.0-2.0-11.1-3.1","battery-v0.2","","""event"",""trial"",""time""
""fullscreenenter"",""1"",""4021""
","
","
","""event"",""trial"",""time""
""fullscreenenter"",""1"",""4021""
","
","","","-1","","","14","18839","7102","&#9761;","elianto","#3366ff99","-1","-1","1","0","[]","0","0","2","","","","","","","",""
"pit-trial","46","581669","0.0-2.0-11.1-4.1","battery-v0.2","","""event"",""trial"",""time""
""fullscreenenter"",""1"",""4021""
","
","
","""event"",""trial"",""time""
""fullscreenenter"",""1"",""4021""
","
","","","765.7999999523163","","","14","18839","7102","&#9761;","elianto","#3366ff99","-1"," ","0","0","[1617]","1","0","2","","","","","","","",""
"pit-trial","47","584963","0.0-2.0-11.2-0.2","battery-v0.2","","""event"",""trial"",""time""
""fullscreenenter"",""1"",""4021""
","
","
","""event"",""trial"",""time""
""fullscreenenter"",""1"",""4021""
","
","","","440.6999999284744","","","14","18839","7102","&#9761;","elianto","#3366ff99","-1"," ","0","0","[1290.7999999523163]","1","0","2","","","","","","","",""
"pit-trial","48","589816","0.0-2.0-11.2-1.2","battery-v0.2","","""event"",""trial"",""time""
""fullscreenenter"",""1"",""4021""
","
","
","""event"",""trial"",""time""
""fullscreenenter"",""1"",""4021""
","
","","","-1","","","14","18839","7102","&#9761;","elianto","#3366ff99","-1","-1","1","+10","[]","0","0","2","","","","","","","",""
"pit-trial","49","593457","0.0-2.0-11.2-2.2","battery-v0.2","","""event"",""trial"",""time""
""fullscreenenter"",""1"",""4021""
","
","
","""event"",""trial"",""time""
""fullscreenenter"",""1"",""4021""
","
","","","787.6000000238419","","","14","18839","7102","&#9761;","elianto","#3366ff99","-1"," ","0","0","[1638.8999999761581]","1","0","2","","","","","","","",""
"pit-trial","50","597096","0.0-2.0-11.2-3.2","battery-v0.2","","""event"",""trial"",""time""
""fullscreenenter"",""1"",""4021""
","
","
","""event"",""trial"",""time""
""fullscreenenter"",""1"",""4021""
","
","","","787.7999999523163","","","14","18839","7102","&#9761;","elianto","#3366ff99","-1"," ","0","+10","[1637.7999999523163]","1","0","2","","","","","","","",""
"pit-trial","51","600431","0.0-2.0-11.2-4.2","battery-v0.2","","""event"",""trial"",""time""
""fullscreenenter"",""1"",""4021""
","
","
","""event"",""trial"",""time""
""fullscreenenter"",""1"",""4021""
","
","","","478","","","14","18839","7102","&#9761;","elianto","#3366ff99","-1"," ","0","0","[1331.3999999761581]","1","0","2","","","","","","","",""
"pit-trial","52","605293","0.0-2.0-11.3-0.3","battery-v0.2","","""event"",""trial"",""time""
""fullscreenenter"",""1"",""4021""
","
","
","""event"",""trial"",""time""
""fullscreenenter"",""1"",""4021""
","
","","","-1","","","14","18839","7102","&#9761;","elianto","#3366ff99","-1","-1","1","+10","[]","0","0","2","","","","","","","",""
"pit-trial","53","609225","0.0-2.0-11.3-1.3","battery-v0.2","","""event"",""trial"",""time""
""fullscreenenter"",""1"",""4021""
","
","
","""event"",""trial"",""time""
""fullscreenenter"",""1"",""4021""
","
","","","1078.2000000476837","","","14","18839","7102","&#9761;","elianto","#3366ff99","-1"," ","0","0","[1928.7999999523163]","1","0","2","","","","","","","",""
"pit-trial","54","614077","0.0-2.0-11.3-2.3","battery-v0.2","","""event"",""trial"",""time""
""fullscreenenter"",""1"",""4021""
","
","
","""event"",""trial"",""time""
""fullscreenenter"",""1"",""4021""
","
","","","-1","","","14","18839","7102","&#9761;","elianto","#3366ff99","-1","-1","1","+10","[2880.5]","1","0","2","","","","","","","",""
"pit-trial","55","618552","0.0-2.0-11.3-3.3","battery-v0.2","","""event"",""trial"",""time""
""fullscreenenter"",""1"",""4021""
","
","
","""event"",""trial"",""time""
""fullscreenenter"",""1"",""4021""
","
","","","1620.6000000238419","","","14","18839","7102","&#9761;","elianto","#3366ff99","-1"," ","0","+10","[2472.3000000715256]","1","0","2","","","","","","","",""
"pit-trial","56","621934","0.0-2.0-11.3-4.3","battery-v0.2","","""event"",""trial"",""time""
""fullscreenenter"",""1"",""4021""
","
","
","""event"",""trial"",""time""
""fullscreenenter"",""1"",""4021""
","
","","","529.1000000238419","","","14","18839","7102","&#9761;","elianto","#3366ff99","-1"," ","0","0","[1379.7000000476837]","1","0","2","","","","","","","",""
"call-function","57","621936","0.0-2.0-12.0","battery-v0.2","","""event"",""trial"",""time""
""fullscreenenter"",""1"",""4021""
","
","
","""event"",""trial"",""time""
""fullscreenenter"",""1"",""4021""
","
","","","","","","","","","","","","","","","","","","","","","","","","","","",""
"pit-instructions","58","682476","0.0-2.0-13.0","battery-v0.2","","""event"",""trial"",""time""
""fullscreenenter"",""1"",""4021""
","
","
","""event"",""trial"",""time""
""fullscreenenter"",""1"",""4021""
","
","","[{""page_index"":0,""viewing_time"":28787.299999952316},{""page_index"":1,""viewing_time"":11934.800000071526},{""page_index"":2,""viewing_time"":3491.5999999046326},{""page_index"":3,""viewing_time"":10591.5},{""page_index"":4,""viewing_time"":5734.5}]","60540","","","","","","","","","","","","","","","","","","","","","","","",""
"pit-trial","59","687338","0.0-2.0-14.0-0.0","battery-v0.2","","""event"",""trial"",""time""
""fullscreenenter"",""1"",""4021""
","
","
","""event"",""trial"",""time""
""fullscreenenter"",""1"",""4021""
","
","","","-1","","","14","18839","7102","&#9826;","elianto","#f73b6a7A","-1","-1","1","0","[]","0","0","3","","","","","","","",""
"pit-trial","60","692209","0.0-2.0-14.0-1.0","battery-v0.2","","""event"",""trial"",""time""
""fullscreenenter"",""1"",""4021""
","
","
","""event"",""trial"",""time""
""fullscreenenter"",""1"",""4021""
","
","","","-1","","","14","18839","7102","&#9826;","elianto","#f73b6a7A","-1","-1","1","0","[]","0","0","3","","","","","","","",""
"pit-trial","61","697074","0.0-2.0-14.0-2.0","battery-v0.2","","""event"",""trial"",""time""
""fullscreenenter"",""1"",""4021""
","
","
","""event"",""trial"",""time""
""fullscreenenter"",""1"",""4021""
","
","","","-1","","","14","18839","7102","&#9826;","elianto","#f73b6a7A","-1","-1","1","0","[]","0","0","3","","","","","","","",""
"pit-trial","62","701937","0.0-2.0-14.0-3.0","battery-v0.2","","""event"",""trial"",""time""
""fullscreenenter"",""1"",""4021""
","
","
","""event"",""trial"",""time""
""fullscreenenter"",""1"",""4021""
","
","","","-1","","","14","18839","7102","&#9826;","elianto","#f73b6a7A","-1","-1","1","-10","[]","0","0","3","","","","","","","",""
"pit-trial","63","706818","0.0-2.0-14.0-4.0","battery-v0.2","","""event"",""trial"",""time""
""fullscreenenter"",""1"",""4021""
","
","
","""event"",""trial"",""time""
""fullscreenenter"",""1"",""4021""
","
","","","-1","","","14","18839","7102","&#9826;","elianto","#f73b6a7A","-1","-1","1","0","[]","0","0","3","","","","","","","",""
"pit-trial","64","711682","0.0-2.0-14.1-0.1","battery-v0.2","","""event"",""trial"",""time""
""fullscreenenter"",""1"",""4021""
","
","
","""event"",""trial"",""time""
""fullscreenenter"",""1"",""4021""
","
","","","-1","","","14","18839","7102","&#9826;","elianto","#f73b6a7A","-1","-1","1","0","[]","0","0","3","","","","","","","",""
"pit-trial","65","716535","0.0-2.0-14.1-1.1","battery-v0.2","","""event"",""trial"",""time""
""fullscreenenter"",""1"",""4021""
","
","
","""event"",""trial"",""time""
""fullscreenenter"",""1"",""4021""
","
","","","-1","","","14","18839","7102","&#9826;","elianto","#f73b6a7A","-1","-1","1","0","[]","0","0","3","","","","","","","",""
"pit-trial","66","721387","0.0-2.0-14.1-2.1","battery-v0.2","","""event"",""trial"",""time""
""fullscreenenter"",""1"",""4021""
","
","
","""event"",""trial"",""time""
""fullscreenenter"",""1"",""4021""
","
","","","-1","","","14","18839","7102","&#9826;","elianto","#f73b6a7A","-1","-1","1","0","[]","0","0","3","","","","","","","",""
"pit-trial","67","726241","0.0-2.0-14.1-3.1","battery-v0.2","","""event"",""trial"",""time""
""fullscreenenter"",""1"",""4021""
","
","
","""event"",""trial"",""time""
""fullscreenenter"",""1"",""4021""
","
","","","-1","","","14","18839","7102","&#9826;","elianto","#f73b6a7A","-1","-1","1","-10","[]","0","0","3","","","","","","","",""
"pit-trial","68","731093","0.0-2.0-14.1-4.1","battery-v0.2","","""event"",""trial"",""time""
""fullscreenenter"",""1"",""4021""
","
","
","""event"",""trial"",""time""
""fullscreenenter"",""1"",""4021""
","
","","","-1","","","14","18839","7102","&#9826;","elianto","#f73b6a7A","-1","-1","1","0","[]","0","0","3","","","","","","","",""
"pit-trial","69","735949","0.0-2.0-14.2-0.2","battery-v0.2","","""event"",""trial"",""time""
""fullscreenenter"",""1"",""4021""
","
","
","""event"",""trial"",""time""
""fullscreenenter"",""1"",""4021""
","
","","","-1","","","14","18839","7102","&#9826;","elianto","#f73b6a7A","-1","-1","1","0","[]","0","0","3","","","","","","","",""
"pit-trial","70","740804","0.0-2.0-14.2-1.2","battery-v0.2","","""event"",""trial"",""time""
""fullscreenenter"",""1"",""4021""
","
","
","""event"",""trial"",""time""
""fullscreenenter"",""1"",""4021""
","
","","","-1","","","14","18839","7102","&#9826;","elianto","#f73b6a7A","-1","-1","1","0","[]","0","0","3","","","","","","","",""
"pit-trial","71","745657","0.0-2.0-14.2-2.2","battery-v0.2","","""event"",""trial"",""time""
""fullscreenenter"",""1"",""4021""
","
","
","""event"",""trial"",""time""
""fullscreenenter"",""1"",""4021""
","
","","","-1","","","14","18839","7102","&#9826;","elianto","#f73b6a7A","-1","-1","1","0","[]","0","0","3","","","","","","","",""
"pit-trial","72","750517","0.0-2.0-14.2-3.2","battery-v0.2","","""event"",""trial"",""time""
""fullscreenenter"",""1"",""4021""
","
","
","""event"",""trial"",""time""
""fullscreenenter"",""1"",""4021""
","
","","","-1","","","14","18839","7102","&#9826;","elianto","#f73b6a7A","-1","-1","1","-10","[]","0","0","3","","","","","","","",""
"pit-trial","73","755372","0.0-2.0-14.2-4.2","battery-v0.2","","""event"",""trial"",""time""
""fullscreenenter"",""1"",""4021""
","
","
","""event"",""trial"",""time""
""fullscreenenter"",""1"",""4021""
","
","","","-1","","","14","18839","7102","&#9826;","elianto","#f73b6a7A","-1","-1","1","0","[]","0","0","3","","","","","","","",""
"pit-trial","74","760233","0.0-2.0-14.3-0.3","battery-v0.2","","""event"",""trial"",""time""
""fullscreenenter"",""1"",""4021""
","
","
","""event"",""trial"",""time""
""fullscreenenter"",""1"",""4021""
","
","","","-1","","","14","18839","7102","&#9826;","elianto","#f73b6a7A","-1","-1","1","0","[]","0","0","3","","","","","","","",""
"pit-trial","75","765085","0.0-2.0-14.3-1.3","battery-v0.2","","""event"",""trial"",""time""
""fullscreenenter"",""1"",""4021""
","
","
","""event"",""trial"",""time""
""fullscreenenter"",""1"",""4021""
","
","","","-1","","","14","18839","7102","&#9826;","elianto","#f73b6a7A","-1","-1","1","0","[]","0","0","3","","","","","","","",""
"pit-trial","76","769940","0.0-2.0-14.3-2.3","battery-v0.2","","""event"",""trial"",""time""
""fullscreenenter"",""1"",""4021""
","
","
","""event"",""trial"",""time""
""fullscreenenter"",""1"",""4021""
","
","","","-1","","","14","18839","7102","&#9826;","elianto","#f73b6a7A","-1","-1","1","0","[]","0","0","3","","","","","","","",""
"pit-trial","77","774792","0.0-2.0-14.3-3.3","battery-v0.2","","""event"",""trial"",""time""
""fullscreenenter"",""1"",""4021""
","
","
","""event"",""trial"",""time""
""fullscreenenter"",""1"",""4021""
","
","","","-1","","","14","18839","7102","&#9826;","elianto","#f73b6a7A","-1","-1","1","-10","[]","0","0","3","","","","","","","",""
"pit-trial","78","779645","0.0-2.0-14.3-4.3","battery-v0.2","","""event"",""trial"",""time""
""fullscreenenter"",""1"",""4021""
","
","
","""event"",""trial"",""time""
""fullscreenenter"",""1"",""4021""
","
","","","-1","","","14","18839","7102","&#9826;","elianto","#f73b6a7A","-1","-1","1","0","[]","0","0","3","","","","","","","",""
"call-function","79","779646","0.0-2.0-15.0","battery-v0.2","","""event"",""trial"",""time""
""fullscreenenter"",""1"",""4021""
","
","
","""event"",""trial"",""time""
""fullscreenenter"",""1"",""4021""
","
","","","","","","","","","","","","","","","","","","","","","","","","","","",""
"pit-instructions","80","807640","0.0-2.0-16.0","battery-v0.2","","""event"",""trial"",""time""
""fullscreenenter"",""1"",""4021""
","
","
","""event"",""trial"",""time""
""fullscreenenter"",""1"",""4021""
","
","","[{""page_index"":0,""viewing_time"":8351.699999928474},{""page_index"":1,""viewing_time"":9651.400000095367},{""page_index"":2,""viewing_time"":4314.199999928474},{""page_index"":3,""viewing_time"":5676.200000047684}]","27993.699999928474","","","","","","","","","","","","","","","","","","","","","","","",""
"pit-trial","81","812516","0.0-2.0-17.0-0.0","battery-v0.2","","""event"",""trial"",""time""
""fullscreenenter"",""1"",""4021""
","
","
","""event"",""trial"",""time""
""fullscreenenter"",""1"",""4021""
","
","","","-1","","","14","18839","7102","&#9789;","elianto","#f73b6a7A"," ","-1","0","-10","[]","0","0","4","","","","","","","",""
"pit-trial","82","817378","0.0-2.0-17.0-1.0","battery-v0.2","","""event"",""trial"",""time""
""fullscreenenter"",""1"",""4021""
","
","
","""event"",""trial"",""time""
""fullscreenenter"",""1"",""4021""
","
","","","-1","","","14","18839","7102","&#9789;","elianto","#f73b6a7A"," ","-1","0","-10","[]","0","0","4","","","","","","","",""
"pit-trial","83","822254","0.0-2.0-17.0-2.0","battery-v0.2","","""event"",""trial"",""time""
""fullscreenenter"",""1"",""4021""
","
","
","""event"",""trial"",""time""
""fullscreenenter"",""1"",""4021""
","
","","","-1","","","14","18839","7102","&#9789;","elianto","#f73b6a7A"," ","-1","0","-10","[]","0","0","4","","","","","","","",""
"pit-trial","84","827115","0.0-2.0-17.0-3.0","battery-v0.2","","""event"",""trial"",""time""
""fullscreenenter"",""1"",""4021""
","
","
","""event"",""trial"",""time""
""fullscreenenter"",""1"",""4021""
","
","","","-1","","","14","18839","7102","&#9789;","elianto","#f73b6a7A"," ","-1","0","0","[]","0","0","4","","","","","","","",""
"pit-trial","85","831982","0.0-2.0-17.0-4.0","battery-v0.2","","""event"",""trial"",""time""
""fullscreenenter"",""1"",""4021""
","
","
","""event"",""trial"",""time""
""fullscreenenter"",""1"",""4021""
","
","","","-1","","","14","18839","7102","&#9789;","elianto","#f73b6a7A"," ","-1","0","-10","[]","0","0","4","","","","","","","",""
"pit-trial","86","836844","0.0-2.0-17.1-0.1","battery-v0.2","","""event"",""trial"",""time""
""fullscreenenter"",""1"",""4021""
","
","
","""event"",""trial"",""time""
""fullscreenenter"",""1"",""4021""
","
","","","-1","","","14","18839","7102","&#9789;","elianto","#f73b6a7A"," ","-1","0","-10","[]","0","0","4","","","","","","","",""
"pit-trial","87","840654","0.0-2.0-17.1-1.1","battery-v0.2","","""event"",""trial"",""time""
""fullscreenenter"",""1"",""4021""
","
","
","""event"",""trial"",""time""
""fullscreenenter"",""1"",""4021""
","
","","","957.8999999761581","","","14","18839","7102","&#9789;","elianto","#f73b6a7A"," "," ","1","0","[1808.1000000238419]","1","0","4","","","","","","","",""
"pit-trial","88","844699","0.0-2.0-17.1-2.1","battery-v0.2","","""event"",""trial"",""time""
""fullscreenenter"",""1"",""4021""
","
","
","""event"",""trial"",""time""
""fullscreenenter"",""1"",""4021""
","
","","","1192.6999999284744","","","14","18839","7102","&#9789;","elianto","#f73b6a7A"," "," ","1","0","[2042.7999999523163]","1","0","4","","","","","","","",""
"pit-trial","89","848134","0.0-2.0-17.1-3.1","battery-v0.2","","""event"",""trial"",""time""
""fullscreenenter"",""1"",""4021""
","
","
","""event"",""trial"",""time""
""fullscreenenter"",""1"",""4021""
","
","","","580.6000000238419","","","14","18839","7102","&#9789;","elianto","#f73b6a7A"," "," ","1","-10","[1432]","1","0","4","","","","","","","",""
"pit-trial","90","852987","0.0-2.0-17.1-4.1","battery-v0.2","","""event"",""trial"",""time""
""fullscreenenter"",""1"",""4021""
","
","
","""event"",""trial"",""time""
""fullscreenenter"",""1"",""4021""
","
","","","-1","","","14","18839","7102","&#9789;","elianto","#f73b6a7A"," ","-1","0","-10","[]","0","0","4","","","","","","","",""
"pit-trial","91","857843","0.0-2.0-17.2-0.2","battery-v0.2","","""event"",""trial"",""time""
""fullscreenenter"",""1"",""4021""
","
","
","""event"",""trial"",""time""
""fullscreenenter"",""1"",""4021""
","
","","","-1","","","14","18839","7102","&#9789;","elianto","#f73b6a7A"," ","-1","0","-10","[]","0","0","4","","","","","","","",""
"pit-trial","92","861586","0.0-2.0-17.2-1.2","battery-v0.2","","""event"",""trial"",""time""
""fullscreenenter"",""1"",""4021""
","
","
","""event"",""trial"",""time""
""fullscreenenter"",""1"",""4021""
","
","","","890","","","14","18839","7102","&#9789;","elianto","#f73b6a7A"," "," ","1","0","[1740.5]","1","0","4","","","","","","","",""
"pit-trial","93","865347","0.0-2.0-17.2-2.2","battery-v0.2","","""event"",""trial"",""time""
""fullscreenenter"",""1"",""4021""
","
","
","""event"",""trial"",""time""
""fullscreenenter"",""1"",""4021""
","
","","","893","","","14","18839","7102","&#9789;","elianto","#f73b6a7A"," "," ","1","0","[1743.3999999761581]","1","0","4","","","","","","","",""
"pit-trial","94","869337","0.0-2.0-17.2-3.2","battery-v0.2","","""event"",""trial"",""time""
""fullscreenenter"",""1"",""4021""
","
","
","""event"",""trial"",""time""
""fullscreenenter"",""1"",""4021""
","
","","","1125.8000000715256","","","14","18839","7102","&#9789;","elianto","#f73b6a7A"," "," ","1","-10","[1987.3999999761581]","1","0","4","","","","","","","",""
"pit-trial","95","874191","0.0-2.0-17.2-4.2","battery-v0.2","","""event"",""trial"",""time""
""fullscreenenter"",""1"",""4021""
","
","
","""event"",""trial"",""time""
""fullscreenenter"",""1"",""4021""
","
","","","-1","","","14","18839","7102","&#9789;","elianto","#f73b6a7A"," ","-1","0","-10","[]","0","0","4","","","","","","","",""
"pit-trial","96","877715","0.0-2.0-17.3-0.3","battery-v0.2","","""event"",""trial"",""time""
""fullscreenenter"",""1"",""4021""
","
","
","""event"",""trial"",""time""
""fullscreenenter"",""1"",""4021""
","
","","","663.3999999761581","","","14","18839","7102","&#9789;","elianto","#f73b6a7A"," "," ","1","0","[1513.8999999761581]","1","0","4","","","","","","","",""
"pit-trial","97","882567","0.0-2.0-17.3-1.3","battery-v0.2","","""event"",""trial"",""time""
""fullscreenenter"",""1"",""4021""
","
","
","""event"",""trial"",""time""
""fullscreenenter"",""1"",""4021""
","
","","","-1","","","14","18839","7102","&#9789;","elianto","#f73b6a7A"," ","-1","0","-10","[]","0","0","4","","","","","","","",""
"pit-trial","98","887421","0.0-2.0-17.3-2.3","battery-v0.2","","""event"",""trial"",""time""
""fullscreenenter"",""1"",""4021""
","
","
","""event"",""trial"",""time""
""fullscreenenter"",""1"",""4021""
","
","","","-1","","","14","18839","7102","&#9789;","elianto","#f73b6a7A"," ","-1","0","-10","[]","0","0","4","","","","","","","",""
"pit-trial","99","890708","0.0-2.0-17.3-3.3","battery-v0.2","","""event"",""trial"",""time""
""fullscreenenter"",""1"",""4021""
","
","
","""event"",""trial"",""time""
""fullscreenenter"",""1"",""4021""
","
","","","434.60000002384186","","","14","18839","7102","&#9789;","elianto","#f73b6a7A"," "," ","1","-10","[1284.8000000715256]","1","0","4","","","","","","","",""
"pit-trial","100","895562","0.0-2.0-17.3-4.3","battery-v0.2","","""event"",""trial"",""time""
""fullscreenenter"",""1"",""4021""
","
","
","""event"",""trial"",""time""
""fullscreenenter"",""1"",""4021""
","
","","","-1","","","14","18839","7102","&#9789;","elianto","#f73b6a7A"," ","-1","0","-10","[]","0","0","4","","","","","","","",""
"call-function","101","895564","0.0-2.0-18.0","battery-v0.2","","""event"",""trial"",""time""
""fullscreenenter"",""1"",""4021""
","
","
","""event"",""trial"",""time""
""fullscreenenter"",""1"",""4021""
","
","","","","","","","","","","","","","","","","","","","","","","","","","","",""
"pit-instructions","102","991456","0.0-2.0-19.0","battery-v0.2","","""event"",""trial"",""time""
""fullscreenenter"",""1"",""4021""
","
","
","""event"",""trial"",""time""
""fullscreenenter"",""1"",""4021""
","
","","[{""page_index"":0,""viewing_time"":9933.200000047684},{""page_index"":1,""viewing_time"":14164.699999928474},{""page_index"":2,""viewing_time"":21463.600000023842},{""page_index"":3,""viewing_time"":12028.700000047684},{""page_index"":4,""viewing_time"":5717.599999904633},{""page_index"":3,""viewing_time"":1666.6000000238419},{""page_index"":4,""viewing_time"":8021.700000047684},{""page_index"":5,""viewing_time"":8692.5},{""page_index"":6,""viewing_time"":6236.699999928474},{""page_index"":7,""viewing_time"":4542.700000047684},{""page_index"":8,""viewing_time"":3423.399999976158}]","95891.79999995232","","","","","","","","","","","","","","","","","","","","","","","",""
"pit-comprehension","103","995663","0.0-2.0-20.0-0.0","battery-v0.2","","""event"",""trial"",""time""
""fullscreenenter"",""1"",""4021""
","
","
","""event"",""trial"",""time""
""fullscreenenter"",""1"",""4021""
","
","","","4203.899999976158","[""SPACE""]","0","14","18839","7102","","","","","","","","","","","","","","","","","","",""
"pit-instructions","104","999726","0.0-2.0-20.0-1.0","battery-v0.2","","""event"",""trial"",""time""
""fullscreenenter"",""1"",""4021""
","
","
","""event"",""trial"",""time""
""fullscreenenter"",""1"",""4021""
","
","","[{""page_index"":0,""viewing_time"":4019.399999976158}]","4019.7999999523163","","","","","","","","","","","","","","","","","","","","","","","",""
"pit-comprehension","105","1007173","0.0-2.0-21.0-0.0","battery-v0.2","","""event"",""trial"",""time""
""fullscreenenter"",""1"",""4021""
","
","
","""event"",""trial"",""time""
""fullscreenenter"",""1"",""4021""
","
","","","7443.100000023842","[""10""]","0","14","18839","7102","","","","","","","","","","","","","","","","","","",""
"pit-instructions","106","1011777","0.0-2.0-21.0-1.0","battery-v0.2","","""event"",""trial"",""time""
""fullscreenenter"",""1"",""4021""
","
","
","""event"",""trial"",""time""
""fullscreenenter"",""1"",""4021""
","
","","[{""page_index"":0,""viewing_time"":4573.099999904633}]","4573.5","","","","","","","","","","","","","","","","","","","","","","","",""
"pit-comprehension","107","1018926","0.0-2.0-22.0-0.0","battery-v0.2","","""event"",""trial"",""time""
""fullscreenenter"",""1"",""4021""
","
","
","""event"",""trial"",""time""
""fullscreenenter"",""1"",""4021""
","
","","","7145.800000071526","[""0""]","0","14","18839","7102","","","","","","","","","","","","","","","","","","",""
"pit-instructions","108","1021055","0.0-2.0-22.0-1.0","battery-v0.2","","""event"",""trial"",""time""
""fullscreenenter"",""1"",""4021""
","
","
","""event"",""trial"",""time""
""fullscreenenter"",""1"",""4021""
","
","","[{""page_index"":0,""viewing_time"":2089.600000023842}]","2089.899999976158","","","","","","","","","","","","","","","","","","","","","","","",""
"pit-comprehension","109","1035353","0.0-2.0-23.0-0.0","battery-v0.2","","""event"",""trial"",""time""
""fullscreenenter"",""1"",""4021""
","
","
","""event"",""trial"",""time""
""fullscreenenter"",""1"",""4021""
","
","","","14295.899999976158","[""True""]","0","14","18839","7102","","","","","","","","","","","","","","","","","","",""
"pit-instructions","110","1047007","0.0-2.0-23.0-1.0","battery-v0.2","","""event"",""trial"",""time""
""fullscreenenter"",""1"",""4021""
","
","
","""event"",""trial"",""time""
""fullscreenenter"",""1"",""4021""
","
","","[{""page_index"":0,""viewing_time"":11624.700000047684}]","11625","","","","","","","","","","","","","","","","","","","","","","","",""
"pit-comprehension","111","1054350","0.0-2.0-24.0-0.0","battery-v0.2","","""event"",""trial"",""time""
""fullscreenenter"",""1"",""4021""
","
","
","""event"",""trial"",""time""
""fullscreenenter"",""1"",""4021""
","
","","","7340.5","[""True""]","0","14","18839","7102","","","","","","","","","","","","","","","","","","",""
"pit-instructions","112","1058833","0.0-2.0-24.0-1.0","battery-v0.2","","""event"",""trial"",""time""
""fullscreenenter"",""1"",""4021""
","
","
","""event"",""trial"",""time""
""fullscreenenter"",""1"",""4021""
","
","","[{""page_index"":0,""viewing_time"":4453.400000095367}]","4453.800000071526","","","","","","","","","","","","","","","","","","","","","","","",""
"pit-comprehension","113","1066994","0.0-2.0-25.0-0.0","battery-v0.2","","""event"",""trial"",""time""
""fullscreenenter"",""1"",""4021""
","
","
","""event"",""trial"",""time""
""fullscreenenter"",""1"",""4021""
","
","","","8158.700000047684","[""True""]","0","14","18839","7102","","","","","","","","","","","","","","","","","","",""
"pit-instructions","114","1068486","0.0-2.0-25.0-1.0","battery-v0.2","","""event"",""trial"",""time""
""fullscreenenter"",""1"",""4021""
","
","
","""event"",""trial"",""time""
""fullscreenenter"",""1"",""4021""
","
","","[{""page_index"":0,""viewing_time"":1460}]","1460.3999999761581","","","","","","","","","","","","","","","","","","","","","","","",""
"pit-comprehension","115","1075326","0.0-2.0-26.0-0.0","battery-v0.2","","""event"",""trial"",""time""
""fullscreenenter"",""1"",""4021""
","
","
","""event"",""trial"",""time""
""fullscreenenter"",""1"",""4021""
","
","","","6837.5","[""True""]","1","14","18839","7102","","","","","","","","","","","","","","","","","","",""
"pit-instructions","116","1082448","0.0-2.0-26.0-1.0","battery-v0.2","","""event"",""trial"",""time""
""fullscreenenter"",""1"",""4021""
","
","
","""event"",""trial"",""time""
""fullscreenenter"",""1"",""4021""
","
","","[{""page_index"":0,""viewing_time"":7082}]","7082.399999976158","","","","","","","","","","","","","","","","","","","","","","","",""
"pit-instructions","117","1083612","0.0-2.0-26.0-2.0-0.0","battery-v0.2","","""event"",""trial"",""time""
""fullscreenenter"",""1"",""4021""
","
","
","""event"",""trial"",""time""
""fullscreenenter"",""1"",""4021""
","
","","[{""page_index"":0,""viewing_time"":1161.8999999761581}]","1162.2999999523163","","","","","","","","","","","","","","","","","","","","","","","",""
"pit-comprehension","118","1125959","0.0-2.0-26.1-0.1","battery-v0.2","","""event"",""trial"",""time""
""fullscreenenter"",""1"",""4021""
","
","
","""event"",""trial"",""time""
""fullscreenenter"",""1"",""4021""
","
","","","42344.5","[""False""]","0","14","18839","7102","","","","","","","","","","","","","","","","","","",""
"pit-instructions","119","1127457","0.0-2.0-26.1-1.1","battery-v0.2","","""event"",""trial"",""time""
""fullscreenenter"",""1"",""4021""
","
","
","""event"",""trial"",""time""
""fullscreenenter"",""1"",""4021""
","
","","[{""page_index"":0,""viewing_time"":1459.5999999046326}]","1459.8999999761581","","","","","","","","","","","","","","","","","","","","","","","",""
"pit-instructions","120","1145659","0.0-3.0","battery-v0.2","","""event"",""trial"",""time""
""fullscreenenter"",""1"",""4021""
","
","
","""event"",""trial"",""time""
""fullscreenenter"",""1"",""4021""
","
","","[{""page_index"":0,""viewing_time"":3800.399999976158},{""page_index"":1,""viewing_time"":5763},{""page_index"":2,""viewing_time"":8637.600000023842}]","18201.399999976158","","","","","","","","","","","","","","","","","","","","","","","",""
"pit-trial","121","1149681","0.0-4.0","battery-v0.2","","""event"",""trial"",""time""
""fullscreenenter"",""1"",""4021""
","
","
","""event"",""trial"",""time""
""fullscreenenter"",""1"",""4021""
","
","","","1142.8999999761581","","","14","18839","7102","&#9730;","elianto","#3366ff99"," "," ","1","+10","[1993.5]","1","1","","","18839","1","1","1","win","go","0"
"pit-trial","122","1153443","0.0-5.0","battery-v0.2","","""event"",""trial"",""time""
""fullscreenenter"",""1"",""4021""
","
","
","""event"",""trial"",""time""
""fullscreenenter"",""1"",""4021""
","
","","","906","","","14","18839","7102","&#9733;","elianto","#3366ff99","-1"," ","0","0","[1757.5]","1","1","","","18839","2","2","2","win","no-go","0"
"pit-trial","123","1158306","0.0-6.0","battery-v0.2","","""event"",""trial"",""time""
""fullscreenenter"",""1"",""4021""
","
","
","""event"",""trial"",""time""
""fullscreenenter"",""1"",""4021""
","
","","","-1","","","14","18839","7102","&#9752;","elianto","#f73b6a7A"," ","-1","0","-10","[]","0","1","","","18839","3","3","3","lose","go","0"
"pit-trial","124","1162473","0.0-7.0","battery-v0.2","","""event"",""trial"",""time""
""fullscreenenter"",""1"",""4021""
","
","
","""event"",""trial"",""time""
""fullscreenenter"",""1"",""4021""
","
","","","1300.3999999761581","","","14","18839","7102","&#9728;","elianto","#f73b6a7A","-1"," ","0","-10","[2150.9000000953674]","1","1","","","18839","4","0","4","lose","no-go","0"
"pit-trial","125","1166653","0.0-8.0","battery-v0.2","","""event"",""trial"",""time""
""fullscreenenter"",""1"",""4021""
","
","
","""event"",""trial"",""time""
""fullscreenenter"",""1"",""4021""
","
","","","1309.2000000476837","","","14","18839","7102","&#9728;","elianto","#f73b6a7A","-1"," ","0","-10","[2163.899999976158]","1","1","","","18839","5","0","4","lose","no-go","0"
"pit-trial","126","1170539","0.0-9.0","battery-v0.2","","""event"",""trial"",""time""
""fullscreenenter"",""1"",""4021""
","
","
","""event"",""trial"",""time""
""fullscreenenter"",""1"",""4021""
","
","","","1017.3999999761581","","","14","18839","7102","&#9730;","elianto","#3366ff99"," "," ","1","0","[1872.6000000238419]","1","1","","","18839","6","1","1","win","go","1"
"pit-trial","127","1175407","0.0-10.0","battery-v0.2","","""event"",""trial"",""time""
""fullscreenenter"",""1"",""4021""
","
","
","""event"",""trial"",""time""
""fullscreenenter"",""1"",""4021""
","
","","","-1","","","14","18839","7102","&#9752;","elianto","#f73b6a7A"," ","-1","0","0","[]","0","1","","","18839","7","3","3","lose","go","1"
"pit-trial","128","1179263","0.0-11.0","battery-v0.2","","""event"",""trial"",""time""
""fullscreenenter"",""1"",""4021""
","
","
","""event"",""trial"",""time""
""fullscreenenter"",""1"",""4021""
","
","","","1004.1000000238419","","","14","18839","7102","&#9733;","elianto","#3366ff99","-1"," ","0","+10","[1854.6000000238419]","1","1","","","18839","8","2","2","win","no-go","1"
"pit-trial","129","1183273","0.0-12.0","battery-v0.2","","""event"",""trial"",""time""
""fullscreenenter"",""1"",""4021""
","
","
","""event"",""trial"",""time""
""fullscreenenter"",""1"",""4021""
","
","","","1156.1999999284744","","","14","18839","7102","&#9728;","elianto","#f73b6a7A","-1"," ","0","-10","[2007.0999999046326]","1","1","","","18839","9","0","4","lose","no-go","0"
"pit-trial","130","1188125","0.0-13.0","battery-v0.2","","""event"",""trial"",""time""
""fullscreenenter"",""1"",""4021""
","
","
","""event"",""trial"",""time""
""fullscreenenter"",""1"",""4021""
","
","","","-1","","","14","18839","7102","&#9752;","elianto","#f73b6a7A"," ","-1","0","-10","[]","0","1","","","18839","10","3","3","lose","go","0"
"pit-trial","131","1192291","0.0-14.0","battery-v0.2","","""event"",""trial"",""time""
""fullscreenenter"",""1"",""4021""
","
","
","""event"",""trial"",""time""
""fullscreenenter"",""1"",""4021""
","
","","","1313.3999999761581","","","14","18839","7102","&#9733;","elianto","#3366ff99","-1"," ","0","0","[2163.5]","1","1","","","18839","11","2","2","win","no-go","0"
"pit-trial","132","1196263","0.0-15.0","battery-v0.2","","""event"",""trial"",""time""
""fullscreenenter"",""1"",""4021""
","
","
","""event"",""trial"",""time""
""fullscreenenter"",""1"",""4021""
","
","","","1119.6000000238419","","","14","18839","7102","&#9730;","elianto","#3366ff99"," "," ","1","+10","[1970.3999999761581]","1","1","","","18839","12","1","1","win","go","0"
"pit-trial","133","1201116","0.0-16.0","battery-v0.2","","""event"",""trial"",""time""
""fullscreenenter"",""1"",""4021""
","
","
","""event"",""trial"",""time""
""fullscreenenter"",""1"",""4021""
","
","","","-1","","","14","18839","7102","&#9752;","elianto","#f73b6a7A"," ","-1","0","0","[]","0","1","","","18839","13","3","3","lose","go","1"
"pit-trial","134","1205968","0.0-17.0","battery-v0.2","","""event"",""trial"",""time""
""fullscreenenter"",""1"",""4021""
","
","
","""event"",""trial"",""time""
""fullscreenenter"",""1"",""4021""
","
","","","-1","","","14","18839","7102","&#9728;","elianto","#f73b6a7A","-1","-1","1","-10","[]","0","1","","","18839","14","0","4","lose","no-go","1"
"pit-trial","135","1209524","0.0-18.0","battery-v0.2","","""event"",""trial"",""time""
""fullscreenenter"",""1"",""4021""
","
","
","""event"",""trial"",""time""
""fullscreenenter"",""1"",""4021""
","
","","","700.5","","","14","18839","7102","&#9733;","elianto","#3366ff99","-1"," ","0","0","[1553.7000000476837]","1","1","","","18839","15","2","2","win","no-go","0"
"pit-trial","136","1213207","0.0-19.0","battery-v0.2","","""event"",""trial"",""time""
""fullscreenenter"",""1"",""4021""
","
","
","""event"",""trial"",""time""
""fullscreenenter"",""1"",""4021""
","
","","","824","","","14","18839","7102","&#9730;","elianto","#3366ff99"," "," ","1","+10","[1680.4000000953674]","1","1","","","18839","16","1","1","win","go","0"
"pit-trial","137","1218061","0.0-20.0","battery-v0.2","","""event"",""trial"",""time""
""fullscreenenter"",""1"",""4021""
","
","
","""event"",""trial"",""time""
""fullscreenenter"",""1"",""4021""
","
","","","-1","","","14","18839","7102","&#9752;","elianto","#f73b6a7A"," ","-1","0","-10","[]","0","1","","","18839","17","3","3","lose","go","0"
"pit-trial","138","1221958","0.0-21.0","battery-v0.2","","""event"",""trial"",""time""
""fullscreenenter"",""1"",""4021""
","
","
","""event"",""trial"",""time""
""fullscreenenter"",""1"",""4021""
","
","","","1044.2000000476837","","","14","18839","7102","&#9730;","elianto","#3366ff99"," "," ","1","+10","[1894.7999999523163]","1","1","","","18839","18","1","1","win","go","0"
"pit-trial","139","1226606","0.0-22.0","battery-v0.2","","""event"",""trial"",""time""
""fullscreenenter"",""1"",""4021""
","
","
","""event"",""trial"",""time""
""fullscreenenter"",""1"",""4021""
","
","","","1794.7999999523163","","","14","18839","7102","&#9728;","elianto","#f73b6a7A","-1"," ","0","0","[2645.2999999523163]","1","1","","","18839","19","0","4","lose","no-go","1"
"pit-trial","140","1230006","0.0-23.0","battery-v0.2","","""event"",""trial"",""time""
""fullscreenenter"",""1"",""4021""
","
","
","""event"",""trial"",""time""
""fullscreenenter"",""1"",""4021""
","
","","","536.6000000238419","","","14","18839","7102","&#9733;","elianto","#3366ff99","-1"," ","0","0","[1388.6000000238419]","1","1","","","18839","20","2","2","win","no-go","0"
"pit-instructions","141","1264308","0.0-24.0","battery-v0.2","","""event"",""trial"",""time""
""fullscreenenter"",""1"",""4021""
","
","
","""event"",""trial"",""time""
""fullscreenenter"",""1"",""4021""
","
","","[{""page_index"":0,""viewing_time"":6988},{""page_index"":1,""viewing_time"":27312.899999976158}]","34301.199999928474","","","","","","","","","","","","","","","","","","","","","","","",""
"pit-trial","142","1269167","0.0-25.0","battery-v0.2","","""event"",""trial"",""time""
""fullscreenenter"",""1"",""4021""
","
","
","""event"",""trial"",""time""
""fullscreenenter"",""1"",""4021""
","
","","","-1","","","14","18839","7102","g","elianto","#f73b6a7A","-1","-1","1","0","[]","0","2","","","18839","21","3","4","lose","no-go","0"
"pit-trial","143","1274026","0.0-26.0","battery-v0.2","","""event"",""trial"",""time""
""fullscreenenter"",""1"",""4021""
","
","
","""event"",""trial"",""time""
""fullscreenenter"",""1"",""4021""
","
","","","-1","","","14","18839","7102","a","elianto","#f73b6a7A"," ","-1","0","-10","[]","0","2","","","18839","22","2","3","lose","go","0"
"pit-trial","144","1277826","0.0-27.0","battery-v0.2","","""event"",""trial"",""time""
""fullscreenenter"",""1"",""4021""
","
","
","""event"",""trial"",""time""
""fullscreenenter"",""1"",""4021""
","
","","","946.6000000238419","","","14","18839","7102","l","elianto","#3366ff99","-1"," ","0","+10","[1796.7999999523163]","1","2","","","18839","23","1","2","win","no-go","1"
"pit-trial","145","1282706","0.0-28.0","battery-v0.2","","""event"",""trial"",""time""
""fullscreenenter"",""1"",""4021""
","
","
","""event"",""trial"",""time""
""fullscreenenter"",""1"",""4021""
","
","","","-1","","","14","18839","7102","u","elianto","#f73b6a7A"," ","-1","0","-10","[]","0","2","","","18839","24","0","3","lose","go","0"
"pit-trial","146","1286229","0.0-29.0","battery-v0.2","","""event"",""trial"",""time""
""fullscreenenter"",""1"",""4021""
","
","
","""event"",""trial"",""time""
""fullscreenenter"",""1"",""4021""
","
","","","670","","","14","18839","7102","u","elianto","#f73b6a7A"," "," ","1","0","[1520.6000000238419]","1","2","","","18839","25","0","3","lose","go","0"
"pit-trial","147","1291083","0.0-30.0","battery-v0.2","","""event"",""trial"",""time""
""fullscreenenter"",""1"",""4021""
","
","
","""event"",""trial"",""time""
""fullscreenenter"",""1"",""4021""
","
","","","-1","","","14","18839","7102","g","elianto","#f73b6a7A","-1","-1","1","0","[2912.7000000476837]","1","2","","","18839","26","3","4","lose","no-go","0"
"pit-trial","148","1295935","0.0-31.0","battery-v0.2","","""event"",""trial"",""time""
""fullscreenenter"",""1"",""4021""
","
","
","""event"",""trial"",""time""
""fullscreenenter"",""1"",""4021""
","
","","","-1","","","14","18839","7102","a","elianto","#f73b6a7A"," ","-1","0","0","[]","0","2","","","18839","27","2","3","lose","go","1"
"pit-trial","149","1299571","0.0-32.0","battery-v0.2","","""event"",""trial"",""time""
""fullscreenenter"",""1"",""4021""
","
","
","""event"",""trial"",""time""
""fullscreenenter"",""1"",""4021""
","
","","","781.3000000715256","","","14","18839","7102","l","elianto","#3366ff99","-1"," ","0","+10","[1632.7000000476837]","1","2","","","18839","28","1","2","win","no-go","1"
"pit-trial","150","1303278","0.0-33.0","battery-v0.2","","""event"",""trial"",""time""
""fullscreenenter"",""1"",""4021""
","
","
","""event"",""trial"",""time""
""fullscreenenter"",""1"",""4021""
","
","","","855.6000000238419","","","14","18839","7102","l","elianto","#3366ff99","-1"," ","0","0","[1706]","1","2","","","18839","29","1","2","win","no-go","0"
"pit-trial","151","1308132","0.0-34.0","battery-v0.2","","""event"",""trial"",""time""
""fullscreenenter"",""1"",""4021""
","
","
","""event"",""trial"",""time""
""fullscreenenter"",""1"",""4021""
","
","","","-1","","","14","18839","7102","a","elianto","#f73b6a7A"," ","-1","0","0","[]","0","2","","","18839","30","2","3","lose","go","1"
"pit-trial","152","1312063","0.0-35.0","battery-v0.2","","""event"",""trial"",""time""
""fullscreenenter"",""1"",""4021""
","
","
","""event"",""trial"",""time""
""fullscreenenter"",""1"",""4021""
","
","","","1076","","","14","18839","7102","g","elianto","#f73b6a7A","-1"," ","0","-10","[1929.2000000476837]","1","2","","","18839","31","3","4","lose","no-go","0"
"pit-trial","153","1316057","0.0-36.0","battery-v0.2","","""event"",""trial"",""time""
""fullscreenenter"",""1"",""4021""
","
","
","""event"",""trial"",""time""
""fullscreenenter"",""1"",""4021""
","
","","","1139.7000000476837","","","14","18839","7102","u","elianto","#f73b6a7A"," "," ","1","-10","[1991.8000000715256]","1","2","","","18839","32","0","3","lose","go","1"
"pit-trial","154","1319567","0.0-37.0","battery-v0.2","","""event"",""trial"",""time""
""fullscreenenter"",""1"",""4021""
","
","
","""event"",""trial"",""time""
""fullscreenenter"",""1"",""4021""
","
","","","656.1000000238419","","","14","18839","7102","l","elianto","#3366ff99","-1"," ","0","+10","[1506.7999999523163]","1","2","","","18839","33","1","2","win","no-go","1"
"pit-trial","155","1324422","0.0-38.0","battery-v0.2","","""event"",""trial"",""time""
""fullscreenenter"",""1"",""4021""
","
","
","""event"",""trial"",""time""
""fullscreenenter"",""1"",""4021""
","
","","","-1","","","14","18839","7102","u","elianto","#f73b6a7A"," ","-1","0","-10","[]","0","2","","","18839","34","0","3","lose","go","0"
"pit-trial","156","1328560","0.0-39.0","battery-v0.2","","""event"",""trial"",""time""
""fullscreenenter"",""1"",""4021""
","
","
","""event"",""trial"",""time""
""fullscreenenter"",""1"",""4021""
","
","","","1285.2000000476837","","","14","18839","7102","a","elianto","#f73b6a7A"," "," ","1","0","[2136.899999976158]","1","2","","","18839","35","2","3","lose","go","0"
"pit-trial","157","1332734","0.0-40.0","battery-v0.2","","""event"",""trial"",""time""
""fullscreenenter"",""1"",""4021""
","
","
","""event"",""trial"",""time""
""fullscreenenter"",""1"",""4021""
","
","","","1318.9000000953674","","","14","18839","7102","g","elianto","#f73b6a7A","-1"," ","0","-10","[2171.100000023842]","1","2","","","18839","36","3","4","lose","no-go","0"
"pit-trial","158","1337587","0.0-41.0","battery-v0.2","","""event"",""trial"",""time""
""fullscreenenter"",""1"",""4021""
","
","
","""event"",""trial"",""time""
""fullscreenenter"",""1"",""4021""
","
","","","-1","","","14","18839","7102","a","elianto","#f73b6a7A"," ","-1","0","-10","[]","0","2","","","18839","37","2","3","lose","go","0"
"pit-trial","159","1341024","0.0-42.0","battery-v0.2","","""event"",""trial"",""time""
""fullscreenenter"",""1"",""4021""
","
","
","""event"",""trial"",""time""
""fullscreenenter"",""1"",""4021""
","
","","","583.2999999523163","","","14","18839","7102","l","elianto","#3366ff99","-1"," ","0","0","[1434.3999999761581]","1","2","","","18839","38","1","2","win","no-go","0"
"pit-trial","160","1344770","0.0-43.0","battery-v0.2","","""event"",""trial"",""time""
""fullscreenenter"",""1"",""4021""
","
","
","""event"",""trial"",""time""
""fullscreenenter"",""1"",""4021""
","
","","","889.0999999046326","","","14","18839","7102","g","elianto","#f73b6a7A","-1"," ","0","-10","[1739.8999999761581]","1","2","","","18839","39","3","4","lose","no-go","0"
"pit-trial","161","1349623","0.0-44.0","battery-v0.2","","""event"",""trial"",""time""
""fullscreenenter"",""1"",""4021""
","
","
","""event"",""trial"",""time""
""fullscreenenter"",""1"",""4021""
","
","","","-1","","","14","18839","7102","u","elianto","#f73b6a7A"," ","-1","0","-10","[]","0","2","","","18839","40","0","3","lose","go","0"
"pit-trial","162","1353016","0.0-45.0","battery-v0.2","","""event"",""trial"",""time""
""fullscreenenter"",""1"",""4021""
","
","
","""event"",""trial"",""time""
""fullscreenenter"",""1"",""4021""
","
","","","541.6000000238419","","","14","18839","7102","l","elianto","#3366ff99","-1"," ","0","0","[1391.8000000715256]","1","2","","","18839","41","1","2","win","no-go","0"
"pit-trial","163","1356918","0.0-46.0","battery-v0.2","","""event"",""trial"",""time""
""fullscreenenter"",""1"",""4021""
","
","
","""event"",""trial"",""time""
""fullscreenenter"",""1"",""4021""
","
","","","1049.5","","","14","18839","7102","g","elianto","#f73b6a7A","-1"," ","0","-10","[1899.9000000953674]","1","2","","","18839","42","3","4","lose","no-go","0"
"pit-trial","164","1361772","0.0-47.0","battery-v0.2","","""event"",""trial"",""time""
""fullscreenenter"",""1"",""4021""
","
","
","""event"",""trial"",""time""
""fullscreenenter"",""1"",""4021""
","
","","","-1","","","14","18839","7102","u","elianto","#f73b6a7A"," ","-1","0","-10","[]","0","2","","","18839","43","0","3","lose","go","0"
"pit-trial","165","1366637","0.0-48.0","battery-v0.2","","""event"",""trial"",""time""
""fullscreenenter"",""1"",""4021""
","
","
","""event"",""trial"",""time""
""fullscreenenter"",""1"",""4021""
","
","","","-1","","","14","18839","7102","a","elianto","#f73b6a7A"," ","-1","0","-10","[]","0","2","","","18839","44","2","3","lose","go","0"
"pit-trial","166","1371489","0.0-49.0","battery-v0.2","","""event"",""trial"",""time""
""fullscreenenter"",""1"",""4021""
","
","
","""event"",""trial"",""time""
""fullscreenenter"",""1"",""4021""
","
","","","-1","","","14","18839","7102","u","elianto","#f73b6a7A"," ","-1","0","-10","[]","0","2","","","18839","45","0","3","lose","go","0"
"pit-trial","167","1376343","0.0-50.0","battery-v0.2","","""event"",""trial"",""time""
""fullscreenenter"",""1"",""4021""
","
","
","""event"",""trial"",""time""
""fullscreenenter"",""1"",""4021""
","
","","","-1","","","14","18839","7102","g","elianto","#f73b6a7A","-1","-1","1","0","[]","0","2","","","18839","46","3","4","lose","no-go","0"
"pit-trial","168","1380222","0.0-51.0","battery-v0.2","","""event"",""trial"",""time""
""fullscreenenter"",""1"",""4021""
","
","
","""event"",""trial"",""time""
""fullscreenenter"",""1"",""4021""
","
","","","1014.8999999761581","","","14","18839","7102","a","elianto","#f73b6a7A"," "," ","1","0","[1876.1000000238419]","1","2","","","18839","47","2","3","lose","go","0"
"pit-trial","169","1383749","0.0-52.0","battery-v0.2","","""event"",""trial"",""time""
""fullscreenenter"",""1"",""4021""
","
","
","""event"",""trial"",""time""
""fullscreenenter"",""1"",""4021""
","
","","","673.2000000476837","","","14","18839","7102","l","elianto","#3366ff99","-1"," ","0","0","[1524.1000000238419]","1","2","","","18839","48","1","2","win","no-go","0"
"pit-trial","170","1388602","0.0-53.0","battery-v0.2","","""event"",""trial"",""time""
""fullscreenenter"",""1"",""4021""
","
","
","""event"",""trial"",""time""
""fullscreenenter"",""1"",""4021""
","
","","","-1","","","14","18839","7102","g","elianto","#f73b6a7A","-1","-1","1","0","[]","0","2","","","18839","49","3","4","lose","no-go","0"
"pit-trial","171","1392554","0.0-54.0","battery-v0.2","","""event"",""trial"",""time""
""fullscreenenter"",""1"",""4021""
","
","
","""event"",""trial"",""time""
""fullscreenenter"",""1"",""4021""
","
","","","1099.1000000238419","","","14","18839","7102","a","elianto","#f73b6a7A"," "," ","1","0","[1950.1000000238419]","1","2","","","18839","50","2","3","lose","go","0"
"pit-trial","172","1395958","0.0-55.0","battery-v0.2","","""event"",""trial"",""time""
""fullscreenenter"",""1"",""4021""
","
","
","""event"",""trial"",""time""
""fullscreenenter"",""1"",""4021""
","
","","","549.7000000476837","","","14","18839","7102","u","elianto","#f73b6a7A"," "," ","1","0","[1402]","1","2","","","18839","51","0","3","lose","go","0"
"pit-trial","173","1399428","0.0-56.0","battery-v0.2","","""event"",""trial"",""time""
""fullscreenenter"",""1"",""4021""
","
","
","""event"",""trial"",""time""
""fullscreenenter"",""1"",""4021""
","
","","","615.8999999761581","","","14","18839","7102","l","elianto","#3366ff99","-1"," ","0","+10","[1466.7999999523163]","1","2","","","18839","52","1","2","win","no-go","1"
"pit-trial","174","1403179","0.0-57.0","battery-v0.2","","""event"",""trial"",""time""
""fullscreenenter"",""1"",""4021""
","
","
","""event"",""trial"",""time""
""fullscreenenter"",""1"",""4021""
","
","","","898","","","14","18839","7102","a","elianto","#f73b6a7A"," "," ","1","0","[1748.6000000238419]","1","2","","","18839","53","2","3","lose","go","0"
"pit-trial","175","1406777","0.0-58.0","battery-v0.2","","""event"",""trial"",""time""
""fullscreenenter"",""1"",""4021""
","
","
","""event"",""trial"",""time""
""fullscreenenter"",""1"",""4021""
","
","","","746.3000000715256","","","14","18839","7102","l","elianto","#3366ff99","-1"," ","0","0","[1596.8999999761581]","1","2","","","18839","54","1","2","win","no-go","0"
"pit-trial","176","1411630","0.0-59.0","battery-v0.2","","""event"",""trial"",""time""
""fullscreenenter"",""1"",""4021""
","
","
","""event"",""trial"",""time""
""fullscreenenter"",""1"",""4021""
","
","","","-1","","","14","18839","7102","g","elianto","#f73b6a7A","-1","-1","1","0","[]","0","2","","","18839","55","3","4","lose","no-go","0"
"pit-trial","177","1415148","0.0-60.0","battery-v0.2","","""event"",""trial"",""time""
""fullscreenenter"",""1"",""4021""
","
","
","""event"",""trial"",""time""
""fullscreenenter"",""1"",""4021""
","
","","","664.2000000476837","","","14","18839","7102","u","elianto","#f73b6a7A"," "," ","1","-10","[1515.3999999761581]","1","2","","","18839","56","0","3","lose","go","1"
"pit-trial","178","1420000","0.0-61.0","battery-v0.2","","""event"",""trial"",""time""
""fullscreenenter"",""1"",""4021""
","
","
","""event"",""trial"",""time""
""fullscreenenter"",""1"",""4021""
","
","","","-1","","","14","18839","7102","g","elianto","#f73b6a7A","-1","-1","1","0","[]","0","2","","","18839","57","3","4","lose","no-go","0"
"pit-trial","179","1423803","0.0-62.0","battery-v0.2","","""event"",""trial"",""time""
""fullscreenenter"",""1"",""4021""
","
","
","""event"",""trial"",""time""
""fullscreenenter"",""1"",""4021""
","
","","","948.8999999761581","","","14","18839","7102","u","elianto","#f73b6a7A"," "," ","1","0","[1800.1000000238419]","1","2","","","18839","58","0","3","lose","go","0"
"pit-trial","180","1427777","0.0-63.0","battery-v0.2","","""event"",""trial"",""time""
""fullscreenenter"",""1"",""4021""
","
","
","""event"",""trial"",""time""
""fullscreenenter"",""1"",""4021""
","
","","","1119.8999999761581","","","14","18839","7102","p","elianto","#3366ff99"," "," ","1","0","[1970.5]","1","2","","","18839","59","4","1","win","go","1"
"pit-trial","181","1432118","0.0-64.0","battery-v0.2","","""event"",""trial"",""time""
""fullscreenenter"",""1"",""4021""
","
","
","""event"",""trial"",""time""
""fullscreenenter"",""1"",""4021""
","
","","","1489.3999999761581","","","14","18839","7102","a","elianto","#f73b6a7A"," "," ","1","0","[2339.5999999046326]","1","2","","","18839","60","2","3","lose","go","0"
"pit-trial","182","1436539","0.0-65.0","battery-v0.2","","""event"",""trial"",""time""
""fullscreenenter"",""1"",""4021""
","
","
","""event"",""trial"",""time""
""fullscreenenter"",""1"",""4021""
","
","","","1555.6999999284744","","","14","18839","7102","a","elianto","#f73b6a7A"," "," ","1","0","[2406.100000023842]","1","2","","","18839","61","2","3","lose","go","0"
"pit-trial","183","1440393","0.0-66.0","battery-v0.2","","""event"",""trial"",""time""
""fullscreenenter"",""1"",""4021""
","
","
","""event"",""trial"",""time""
""fullscreenenter"",""1"",""4021""
","
","","","1001.1000000238419","","","14","18839","7102","l","elianto","#3366ff99","-1"," ","0","0","[1851.8999999761581]","1","2","","","18839","62","1","2","win","no-go","0"
"pit-trial","184","1445246","0.0-67.0","battery-v0.2","","""event"",""trial"",""time""
""fullscreenenter"",""1"",""4021""
","
","
","""event"",""trial"",""time""
""fullscreenenter"",""1"",""4021""
","
","","","-1","","","14","18839","7102","g","elianto","#f73b6a7A","-1","-1","1","-10","[]","0","2","","","18839","63","3","4","lose","no-go","1"
"pit-trial","185","1449154","0.0-68.0","battery-v0.2","","""event"",""trial"",""time""
""fullscreenenter"",""1"",""4021""
","
","
","""event"",""trial"",""time""
""fullscreenenter"",""1"",""4021""
","
","","","1055.1000000238419","","","14","18839","7102","p","elianto","#3366ff99"," "," ","1","0","[1906.6000000238419]","1","2","","","18839","64","4","1","win","go","1"
"pit-trial","186","1454007","0.0-69.0","battery-v0.2","","""event"",""trial"",""time""
""fullscreenenter"",""1"",""4021""
","
","
","""event"",""trial"",""time""
""fullscreenenter"",""1"",""4021""
","
","","","-1","","","14","18839","7102","l","elianto","#3366ff99","-1","-1","1","+10","[]","0","2","","","18839","65","1","2","win","no-go","0"
"pit-trial","187","1457981","0.0-70.0","battery-v0.2","","""event"",""trial"",""time""
""fullscreenenter"",""1"",""4021""
","
","
","""event"",""trial"",""time""
""fullscreenenter"",""1"",""4021""
","
","","","1110.7000000476837","","","14","18839","7102","p","elianto","#3366ff99"," "," ","1","+10","[1970.2999999523163]","1","2","","","18839","66","4","1","win","go","0"
"pit-trial","188","1462063","0.0-71.0","battery-v0.2","","""event"",""trial"",""time""
""fullscreenenter"",""1"",""4021""
","
","
","""event"",""trial"",""time""
""fullscreenenter"",""1"",""4021""
","
","","","1229.6999999284744","","","14","18839","7102","s","elianto","#3366ff99","-1"," ","0","+10","[2079.7999999523163]","1","2","","","18839","67","5","2","win","no-go","1"
"pit-trial","189","1466916","0.0-72.0","battery-v0.2","","""event"",""trial"",""time""
""fullscreenenter"",""1"",""4021""
","
","
","""event"",""trial"",""time""
""fullscreenenter"",""1"",""4021""
","
","","","-1","","","14","18839","7102","g","elianto","#f73b6a7A","-1","-1","1","0","[]","0","2","","","18839","68","3","4","lose","no-go","0"
"pit-trial","190","1471769","0.0-73.0","battery-v0.2","","""event"",""trial"",""time""
""fullscreenenter"",""1"",""4021""
","
","
","""event"",""trial"",""time""
""fullscreenenter"",""1"",""4021""
","
","","","-1","","","14","18839","7102","a","elianto","#f73b6a7A"," ","-1","0","-10","[3010.2000000476837]","1","2","","","18839","69","2","3","lose","go","0"
"pit-trial","191","1476623","0.0-74.0","battery-v0.2","","""event"",""trial"",""time""
""fullscreenenter"",""1"",""4021""
","
","
","""event"",""trial"",""time""
""fullscreenenter"",""1"",""4021""
","
","","","-1","","","14","18839","7102","l","elianto","#3366ff99","-1","-1","1","+10","[]","0","2","","","18839","70","1","2","win","no-go","0"
"pit-trial","192","1480573","0.0-75.0","battery-v0.2","","""event"",""trial"",""time""
""fullscreenenter"",""1"",""4021""
","
","
","""event"",""trial"",""time""
""fullscreenenter"",""1"",""4021""
","
","","","1096.9000000953674","","","14","18839","7102","p","elianto","#3366ff99"," "," ","1","0","[1947.7000000476837]","1","2","","","18839","71","4","1","win","go","1"
"pit-trial","193","1485026","0.0-76.0","battery-v0.2","","""event"",""trial"",""time""
""fullscreenenter"",""1"",""4021""
","
","
","""event"",""trial"",""time""
""fullscreenenter"",""1"",""4021""
","
","","","1599.8999999761581","","","14","18839","7102","s","elianto","#3366ff99","-1"," ","0","+10","[2450.2999999523163]","1","2","","","18839","72","5","2","win","no-go","1"
"pit-trial","194","1489704","0.0-77.0","battery-v0.2","","""event"",""trial"",""time""
""fullscreenenter"",""1"",""4021""
","
","
","""event"",""trial"",""time""
""fullscreenenter"",""1"",""4021""
","
","","","1825.4000000953674","","","14","18839","7102","p","elianto","#3366ff99"," "," ","1","0","[2675.9000000953674]","1","2","","","18839","73","4","1","win","go","1"
"pit-trial","195","1494557","0.0-78.0","battery-v0.2","","""event"",""trial"",""time""
""fullscreenenter"",""1"",""4021""
","
","
","""event"",""trial"",""time""
""fullscreenenter"",""1"",""4021""
","
","","","-1","","","14","18839","7102","l","elianto","#3366ff99","-1","-1","1","+10","[]","0","2","","","18839","74","1","2","win","no-go","0"
"pit-trial","196","1499421","0.0-79.0","battery-v0.2","","""event"",""trial"",""time""
""fullscreenenter"",""1"",""4021""
","
","
","""event"",""trial"",""time""
""fullscreenenter"",""1"",""4021""
","
","","","-1","","","14","18839","7102","g","elianto","#f73b6a7A","-1","-1","1","0","[]","0","2","","","18839","75","3","4","lose","no-go","0"
"pit-trial","197","1503660","0.0-80.0","battery-v0.2","","""event"",""trial"",""time""
""fullscreenenter"",""1"",""4021""
","
","
","""event"",""trial"",""time""
""fullscreenenter"",""1"",""4021""
","
","","","1386.2999999523163","","","14","18839","7102","s","elianto","#3366ff99","-1"," ","0","0","[2237.2999999523163]","1","2","","","18839","76","5","2","win","no-go","0"
"pit-trial","198","1508514","0.0-81.0","battery-v0.2","","""event"",""trial"",""time""
""fullscreenenter"",""1"",""4021""
","
","
","""event"",""trial"",""time""
""fullscreenenter"",""1"",""4021""
","
","","","-1","","","14","18839","7102","g","elianto","#f73b6a7A","-1","-1","1","0","[]","0","2","","","18839","77","3","4","lose","no-go","0"
"pit-trial","199","1512756","0.0-82.0","battery-v0.2","","""event"",""trial"",""time""
""fullscreenenter"",""1"",""4021""
","
","
","""event"",""trial"",""time""
""fullscreenenter"",""1"",""4021""
","
","","","1388.3000000715256","","","14","18839","7102","s","elianto","#3366ff99","-1"," ","0","0","[2239.600000023842]","1","2","","","18839","78","5","2","win","no-go","0"
"pit-trial","200","1516950","0.0-83.0","battery-v0.2","","""event"",""trial"",""time""
""fullscreenenter"",""1"",""4021""
","
","
","""event"",""trial"",""time""
""fullscreenenter"",""1"",""4021""
","
","","","1341.1999999284744","","","14","18839","7102","p","elianto","#3366ff99"," "," ","1","+10","[2192.1999999284744]","1","2","","","18839","79","4","1","win","go","0"
"pit-trial","201","1521001","0.0-84.0","battery-v0.2","","""event"",""trial"",""time""
""fullscreenenter"",""1"",""4021""
","
","
","""event"",""trial"",""time""
""fullscreenenter"",""1"",""4021""
","
","","","1197.2999999523163","","","14","18839","7102","p","elianto","#3366ff99"," "," ","1","+10","[2048.100000023842]","1","2","","","18839","80","4","1","win","go","0"
"pit-trial","202","1525855","0.0-85.0","battery-v0.2","","""event"",""trial"",""time""
""fullscreenenter"",""1"",""4021""
","
","
","""event"",""trial"",""time""
""fullscreenenter"",""1"",""4021""
","
","","","-1","","","14","18839","7102","p","elianto","#3366ff99"," ","-1","0","0","[2955.100000023842]","1","2","","","18839","81","4","1","win","go","0"
"pit-trial","203","1530707","0.0-86.0","battery-v0.2","","""event"",""trial"",""time""
""fullscreenenter"",""1"",""4021""
","
","
","""event"",""trial"",""time""
""fullscreenenter"",""1"",""4021""
","
","","","-1","","","14","18839","7102","e","elianto","#f73b6a7A","-1","-1","1","-10","[]","0","2","","","18839","82","7","4","lose","no-go","1"
"pit-trial","204","1534473","0.0-87.0","battery-v0.2","","""event"",""trial"",""time""
""fullscreenenter"",""1"",""4021""
","
","
","""event"",""trial"",""time""
""fullscreenenter"",""1"",""4021""
","
","","","912.1999999284744","","","14","18839","7102","s","elianto","#3366ff99","-1"," ","0","0","[1762.6999999284744]","1","2","","","18839","83","5","2","win","no-go","0"
"pit-trial","205","1539326","0.0-88.0","battery-v0.2","","""event"",""trial"",""time""
""fullscreenenter"",""1"",""4021""
","
","
","""event"",""trial"",""time""
""fullscreenenter"",""1"",""4021""
","
","","","-1","","","14","18839","7102","g","elianto","#f73b6a7A","-1","-1","1","0","[]","0","2","","","18839","84","3","4","lose","no-go","0"
"pit-trial","206","1544180","0.0-89.0","battery-v0.2","","""event"",""trial"",""time""
""fullscreenenter"",""1"",""4021""
","
","
","""event"",""trial"",""time""
""fullscreenenter"",""1"",""4021""
","
","","","-1","","","14","18839","7102","w","elianto","#f73b6a7A"," ","-1","0","-10","[]","0","2","","","18839","85","6","3","lose","go","0"
"pit-trial","207","1547868","0.0-90.0","battery-v0.2","","""event"",""trial"",""time""
""fullscreenenter"",""1"",""4021""
","
","
","""event"",""trial"",""time""
""fullscreenenter"",""1"",""4021""
","
","","","832.6999999284744","","","14","18839","7102","s","elianto","#3366ff99","-1"," ","0","0","[1685.6999999284744]","1","2","","","18839","86","5","2","win","no-go","0"
"pit-trial","208","1552721","0.0-91.0","battery-v0.2","","""event"",""trial"",""time""
""fullscreenenter"",""1"",""4021""
","
","
","""event"",""trial"",""time""
""fullscreenenter"",""1"",""4021""
","
","","","-1","","","14","18839","7102","p","elianto","#3366ff99"," ","-1","0","+10","[4000.6999999284744]","1","2","","","18839","87","4","1","win","go","1"
"pit-trial","209","1557575","0.0-92.0","battery-v0.2","","""event"",""trial"",""time""
""fullscreenenter"",""1"",""4021""
","
","
","""event"",""trial"",""time""
""fullscreenenter"",""1"",""4021""
","
","","","-1","","","14","18839","7102","e","elianto","#f73b6a7A","-1","-1","1","0","[2995.600000023842]","1","2","","","18839","88","7","4","lose","no-go","0"
"pit-trial","210","1562314","0.0-93.0","battery-v0.2","","""event"",""trial"",""time""
""fullscreenenter"",""1"",""4021""
","
","
","""event"",""trial"",""time""
""fullscreenenter"",""1"",""4021""
","
","","","1885.7000000476837","","","14","18839","7102","p","elianto","#3366ff99"," "," ","1","+10","[2736.399999976158]","1","2","","","18839","89","4","1","win","go","0"
"pit-trial","211","1567168","0.0-94.0","battery-v0.2","","""event"",""trial"",""time""
""fullscreenenter"",""1"",""4021""
","
","
","""event"",""trial"",""time""
""fullscreenenter"",""1"",""4021""
","
","","","-1","","","14","18839","7102","e","elianto","#f73b6a7A","-1","-1","1","0","[2954.5]","1","2","","","18839","90","7","4","lose","no-go","0"
"pit-trial","212","1572022","0.0-95.0","battery-v0.2","","""event"",""trial"",""time""
""fullscreenenter"",""1"",""4021""
","
","
","""event"",""trial"",""time""
""fullscreenenter"",""1"",""4021""
","
","","","-1","","","14","18839","7102","w","elianto","#f73b6a7A"," ","-1","0","0","[]","0","2","","","18839","91","6","3","lose","go","1"
"pit-trial","213","1576876","0.0-96.0","battery-v0.2","","""event"",""trial"",""time""
""fullscreenenter"",""1"",""4021""
","
","
","""event"",""trial"",""time""
""fullscreenenter"",""1"",""4021""
","
","","","-1","","","14","18839","7102","s","elianto","#3366ff99","-1","-1","1","0","[]","0","2","","","18839","92","5","2","win","no-go","1"
"pit-trial","214","1581729","0.0-97.0","battery-v0.2","","""event"",""trial"",""time""
""fullscreenenter"",""1"",""4021""
","
","
","""event"",""trial"",""time""
""fullscreenenter"",""1"",""4021""
","
","","","-1","","","14","18839","7102","s","elianto","#3366ff99","-1","-1","1","0","[]","0","2","","","18839","93","5","2","win","no-go","1"
"pit-trial","215","1586581","0.0-98.0","battery-v0.2","","""event"",""trial"",""time""
""fullscreenenter"",""1"",""4021""
","
","
","""event"",""trial"",""time""
""fullscreenenter"",""1"",""4021""
","
","","","-1","","","14","18839","7102","d","elianto","#3366ff99"," ","-1","0","+10","[]","0","2","","","18839","94","8","1","win","go","1"
"pit-trial","216","1591435","0.0-99.0","battery-v0.2","","""event"",""trial"",""time""
""fullscreenenter"",""1"",""4021""
","
","
","""event"",""trial"",""time""
""fullscreenenter"",""1"",""4021""
","
","","","-1","","","14","18839","7102","e","elianto","#f73b6a7A","-1","-1","1","0","[]","0","2","","","18839","95","7","4","lose","no-go","0"
"pit-trial","217","1596287","0.0-100.0","battery-v0.2","","""event"",""trial"",""time""
""fullscreenenter"",""1"",""4021""
","
","
","""event"",""trial"",""time""
""fullscreenenter"",""1"",""4021""
","
","","","-1","","","14","18839","7102","w","elianto","#f73b6a7A"," ","-1","0","-10","[]","0","2","","","18839","96","6","3","lose","go","0"
"pit-trial","218","1601154","0.0-101.0","battery-v0.2","","""event"",""trial"",""time""
""fullscreenenter"",""1"",""4021""
","
","
","""event"",""trial"",""time""
""fullscreenenter"",""1"",""4021""
","
","","","-1","","","14","18839","7102","e","elianto","#f73b6a7A","-1","-1","1","0","[]","0","2","","","18839","97","7","4","lose","no-go","0"
"pit-trial","219","1606008","0.0-102.0","battery-v0.2","","""event"",""trial"",""time""
""fullscreenenter"",""1"",""4021""
","
","
","""event"",""trial"",""time""
""fullscreenenter"",""1"",""4021""
","
","","","-1","","","14","18839","7102","d","elianto","#3366ff99"," ","-1","0","0","[]","0","2","","","18839","98","8","1","win","go","0"
"pit-trial","220","1610861","0.0-103.0","battery-v0.2","","""event"",""trial"",""time""
""fullscreenenter"",""1"",""4021""
","
","
","""event"",""trial"",""time""
""fullscreenenter"",""1"",""4021""
","
","","","-1","","","14","18839","7102","w","elianto","#f73b6a7A"," ","-1","0","0","[]","0","2","","","18839","99","6","3","lose","go","1"
"pit-trial","221","1615714","0.0-104.0","battery-v0.2","","""event"",""trial"",""time""
""fullscreenenter"",""1"",""4021""
","
","
","""event"",""trial"",""time""
""fullscreenenter"",""1"",""4021""
","
","","","-1","","","14","18839","7102","s","elianto","#3366ff99","-1","-1","1","0","[]","0","2","","","18839","100","5","2","win","no-go","1"
"pit-trial","222","1619626","0.0-105.0","battery-v0.2","","""event"",""trial"",""time""
""fullscreenenter"",""1"",""4021""
","
","
","""event"",""trial"",""time""
""fullscreenenter"",""1"",""4021""
","
","","","1059.1999999284744","","","14","18839","7102","d","elianto","#3366ff99"," "," ","1","0","[1909.5999999046326]","1","2","","","18839","101","8","1","win","go","1"
"pit-trial","223","1623654","0.0-106.0","battery-v0.2","","""event"",""trial"",""time""
""fullscreenenter"",""1"",""4021""
","
","
","""event"",""trial"",""time""
""fullscreenenter"",""1"",""4021""
","
","","","1170.8999999761581","","","14","18839","7102","s","elianto","#3366ff99","-1"," ","0","+10","[2024.3999999761581]","1","2","","","18839","102","5","2","win","no-go","1"
"pit-trial","224","1628533","0.0-107.0","battery-v0.2","","""event"",""trial"",""time""
""fullscreenenter"",""1"",""4021""
","
","
","""event"",""trial"",""time""
""fullscreenenter"",""1"",""4021""
","
","","","-1","","","14","18839","7102","j","elianto","#3366ff99"," ","-1","0","0","[]","0","2","","","18839","103","9","1","win","go","0"
"pit-trial","225","1633385","0.0-108.0","battery-v0.2","","""event"",""trial"",""time""
""fullscreenenter"",""1"",""4021""
","
","
","""event"",""trial"",""time""
""fullscreenenter"",""1"",""4021""
","
","","","-1","","","14","18839","7102","e","elianto","#f73b6a7A","-1","-1","1","0","[]","0","2","","","18839","104","7","4","lose","no-go","0"
"pit-trial","226","1638240","0.0-109.0","battery-v0.2","","""event"",""trial"",""time""
""fullscreenenter"",""1"",""4021""
","
","
","""event"",""trial"",""time""
""fullscreenenter"",""1"",""4021""
","
","","","-1","","","14","18839","7102","w","elianto","#f73b6a7A"," ","-1","0","-10","[]","0","2","","","18839","105","6","3","lose","go","0"
"pit-trial","227","1643094","0.0-110.0","battery-v0.2","","""event"",""trial"",""time""
""fullscreenenter"",""1"",""4021""
","
","
","""event"",""trial"",""time""
""fullscreenenter"",""1"",""4021""
","
","","","-1","","","14","18839","7102","p","elianto","#3366ff99"," ","-1","0","0","[]","0","2","","","18839","106","4","1","win","go","0"
"pit-trial","228","1647948","0.0-111.0","battery-v0.2","","""event"",""trial"",""time""
""fullscreenenter"",""1"",""4021""
","
","
","""event"",""trial"",""time""
""fullscreenenter"",""1"",""4021""
","
","","","-1","","","14","18839","7102","d","elianto","#3366ff99"," ","-1","0","+10","[3010.5]","1","2","","","18839","107","8","1","win","go","1"
"pit-trial","229","1651878","0.0-112.0","battery-v0.2","","""event"",""trial"",""time""
""fullscreenenter"",""1"",""4021""
","
","
","""event"",""trial"",""time""
""fullscreenenter"",""1"",""4021""
","
","","","1076.8999999761581","","","14","18839","7102","j","elianto","#3366ff99"," "," ","1","+10","[1928.3999999761581]","1","2","","","18839","108","9","1","win","go","0"
"pit-trial","230","1655703","0.0-113.0","battery-v0.2","","""event"",""trial"",""time""
""fullscreenenter"",""1"",""4021""
","
","
","""event"",""trial"",""time""
""fullscreenenter"",""1"",""4021""
","
","","","970.8999999761581","","","14","18839","7102","j","elianto","#3366ff99"," "," ","1","+10","[1822.1000000238419]","1","2","","","18839","109","9","1","win","go","0"
"pit-trial","231","1660558","0.0-114.0","battery-v0.2","","""event"",""trial"",""time""
""fullscreenenter"",""1"",""4021""
","
","
","""event"",""trial"",""time""
""fullscreenenter"",""1"",""4021""
","
","","","-1","","","14","18839","7102","w","elianto","#f73b6a7A"," ","-1","0","0","[]","0","2","","","18839","110","6","3","lose","go","1"
"pit-trial","232","1665411","0.0-115.0","battery-v0.2","","""event"",""trial"",""time""
""fullscreenenter"",""1"",""4021""
","
","
","""event"",""trial"",""time""
""fullscreenenter"",""1"",""4021""
","
","","","-1","","","14","18839","7102","d","elianto","#3366ff99"," ","-1","0","0","[]","0","2","","","18839","111","8","1","win","go","0"
"pit-trial","233","1670264","0.0-116.0","battery-v0.2","","""event"",""trial"",""time""
""fullscreenenter"",""1"",""4021""
","
","
","""event"",""trial"",""time""
""fullscreenenter"",""1"",""4021""
","
","","","-1","","","14","18839","7102","s","elianto","#3366ff99","-1","-1","1","0","[]","0","2","","","18839","112","5","2","win","no-go","1"
"pit-trial","234","1674155","0.0-117.0","battery-v0.2","","""event"",""trial"",""time""
""fullscreenenter"",""1"",""4021""
","
","
","""event"",""trial"",""time""
""fullscreenenter"",""1"",""4021""
","
","","","1038.2000000476837","","","14","18839","7102","j","elianto","#3366ff99"," "," ","1","+10","[1888.2000000476837]","1","2","","","18839","113","9","1","win","go","0"
"pit-trial","235","1679008","0.0-118.0","battery-v0.2","","""event"",""trial"",""time""
""fullscreenenter"",""1"",""4021""
","
","
","""event"",""trial"",""time""
""fullscreenenter"",""1"",""4021""
","
","","","-1","","","14","18839","7102","d","elianto","#3366ff99"," ","-1","0","+10","[]","0","2","","","18839","114","8","1","win","go","1"
"pit-trial","236","1683862","0.0-119.0","battery-v0.2","","""event"",""trial"",""time""
""fullscreenenter"",""1"",""4021""
","
","
","""event"",""trial"",""time""
""fullscreenenter"",""1"",""4021""
","
","","","-1","","","14","18839","7102","s","elianto","#3366ff99","-1","-1","1","0","[]","0","2","","","18839","115","5","2","win","no-go","1"
"pit-trial","237","1688715","0.0-120.0","battery-v0.2","","""event"",""trial"",""time""
""fullscreenenter"",""1"",""4021""
","
","
","""event"",""trial"",""time""
""fullscreenenter"",""1"",""4021""
","
","","","-1","","","14","18839","7102","w","elianto","#f73b6a7A"," ","-1","0","-10","[]","0","2","","","18839","116","6","3","lose","go","0"
"pit-trial","238","1693570","0.0-121.0","battery-v0.2","","""event"",""trial"",""time""
""fullscreenenter"",""1"",""4021""
","
","
","""event"",""trial"",""time""
""fullscreenenter"",""1"",""4021""
","
","","","-1","","","14","18839","7102","w","elianto","#f73b6a7A"," ","-1","0","0","[]","0","2","","","18839","117","6","3","lose","go","1"
"pit-trial","239","1698423","0.0-122.0","battery-v0.2","","""event"",""trial"",""time""
""fullscreenenter"",""1"",""4021""
","
","
","""event"",""trial"",""time""
""fullscreenenter"",""1"",""4021""
","
","","","-1","","","14","18839","7102","d","elianto","#3366ff99"," ","-1","0","0","[]","0","2","","","18839","118","8","1","win","go","0"
"pit-trial","240","1702902","0.0-123.0","battery-v0.2","","""event"",""trial"",""time""
""fullscreenenter"",""1"",""4021""
","
","
","""event"",""trial"",""time""
""fullscreenenter"",""1"",""4021""
","
","","","1626.6000000238419","","","14","18839","7102","s","elianto","#3366ff99","-1"," ","0","0","[2476.600000023842]","1","2","","","18839","119","5","2","win","no-go","0"
"pit-trial","241","1706712","0.0-124.0","battery-v0.2","","""event"",""trial"",""time""
""fullscreenenter"",""1"",""4021""
","
","
","""event"",""trial"",""time""
""fullscreenenter"",""1"",""4021""
","
","","","956.3999999761581","","","14","18839","7102","j","elianto","#3366ff99"," "," ","1","0","[1807.3999999761581]","1","2","","","18839","120","9","1","win","go","1"
"pit-trial","242","1711565","0.0-125.0","battery-v0.2","","""event"",""trial"",""time""
""fullscreenenter"",""1"",""4021""
","
","
","""event"",""trial"",""time""
""fullscreenenter"",""1"",""4021""
","
","","","-1","","","14","18839","7102","d","elianto","#3366ff99"," ","-1","0","+10","[2894]","1","2","","","18839","121","8","1","win","go","1"
"pit-trial","243","1715442","0.0-126.0","battery-v0.2","","""event"",""trial"",""time""
""fullscreenenter"",""1"",""4021""
","
","
","""event"",""trial"",""time""
""fullscreenenter"",""1"",""4021""
","
","","","1023.9000000953674","","","14","18839","7102","j","elianto","#3366ff99"," "," ","1","+10","[1874.8000000715256]","1","2","","","18839","122","9","1","win","go","0"
"pit-trial","244","1720296","0.0-127.0","battery-v0.2","","""event"",""trial"",""time""
""fullscreenenter"",""1"",""4021""
","
","
","""event"",""trial"",""time""
""fullscreenenter"",""1"",""4021""
","
","","","-1","","","14","18839","7102","w","elianto","#f73b6a7A"," ","-1","0","0","[]","0","2","","","18839","123","6","3","lose","go","1"
"pit-trial","245","1725149","0.0-128.0","battery-v0.2","","""event"",""trial"",""time""
""fullscreenenter"",""1"",""4021""
","
","
","""event"",""trial"",""time""
""fullscreenenter"",""1"",""4021""
","
","","","-1","","","14","18839","7102","e","elianto","#f73b6a7A","-1","-1","1","0","[]","0","2","","","18839","124","7","4","lose","no-go","0"
"pit-trial","246","1730003","0.0-129.0","battery-v0.2","","""event"",""trial"",""time""
""fullscreenenter"",""1"",""4021""
","
","
","""event"",""trial"",""time""
""fullscreenenter"",""1"",""4021""
","
","","","-1","","","14","18839","7102","e","elianto","#f73b6a7A","-1","-1","1","0","[]","0","2","","","18839","125","7","4","lose","no-go","0"
"pit-trial","247","1734857","0.0-130.0","battery-v0.2","","""event"",""trial"",""time""
""fullscreenenter"",""1"",""4021""
","
","
","""event"",""trial"",""time""
""fullscreenenter"",""1"",""4021""
","
","","","-1","","","14","18839","7102","d","elianto","#3366ff99"," ","-1","0","0","[]","0","2","","","18839","126","8","1","win","go","0"
"pit-trial","248","1738751","0.0-131.0","battery-v0.2","","""event"",""trial"",""time""
""fullscreenenter"",""1"",""4021""
","
","
","""event"",""trial"",""time""
""fullscreenenter"",""1"",""4021""
","
","","","1036.7999999523163","","","14","18839","7102","j","elianto","#3366ff99"," "," ","1","0","[1891.1000000238419]","1","2","","","18839","127","9","1","win","go","1"
"pit-trial","249","1743604","0.0-132.0","battery-v0.2","","""event"",""trial"",""time""
""fullscreenenter"",""1"",""4021""
","
","
","""event"",""trial"",""time""
""fullscreenenter"",""1"",""4021""
","
","","","-1","","","14","18839","7102","w","elianto","#f73b6a7A"," ","-1","0","-10","[]","0","2","","","18839","128","6","3","lose","go","0"
"pit-trial","250","1748457","0.0-133.0","battery-v0.2","","""event"",""trial"",""time""
""fullscreenenter"",""1"",""4021""
","
","
","""event"",""trial"",""time""
""fullscreenenter"",""1"",""4021""
","
","","","-1","","","14","18839","7102","w","elianto","#f73b6a7A"," ","-1","0","-10","[]","0","2","","","18839","129","6","3","lose","go","0"
"pit-trial","251","1752324","0.0-134.0","battery-v0.2","","""event"",""trial"",""time""
""fullscreenenter"",""1"",""4021""
","
","
","""event"",""trial"",""time""
""fullscreenenter"",""1"",""4021""
","
","","","1013.6999999284744","","","14","18839","7102","d","elianto","#3366ff99"," "," ","1","+10","[1863.7999999523163]","1","2","","","18839","130","8","1","win","go","0"
"pit-trial","252","1757178","0.0-135.0","battery-v0.2","","""event"",""trial"",""time""
""fullscreenenter"",""1"",""4021""
","
","
","""event"",""trial"",""time""
""fullscreenenter"",""1"",""4021""
","
","","","-1","","","14","18839","7102","e","elianto","#f73b6a7A","-1","-1","1","0","[]","0","2","","","18839","131","7","4","lose","no-go","0"
"pit-trial","253","1762032","0.0-136.0","battery-v0.2","","""event"",""trial"",""time""
""fullscreenenter"",""1"",""4021""
","
","
","""event"",""trial"",""time""
""fullscreenenter"",""1"",""4021""
","
","","","-1","","","14","18839","7102","j","elianto","#3366ff99"," ","-1","0","0","[2889.4000000953674]","1","2","","","18839","132","9","1","win","go","0"
"pit-trial","254","1766832","0.0-137.0","battery-v0.2","","""event"",""trial"",""time""
""fullscreenenter"",""1"",""4021""
","
","
","""event"",""trial"",""time""
""fullscreenenter"",""1"",""4021""
","
","","","1947","","","14","18839","7102","d","elianto","#3366ff99"," "," ","1","+10","[2797]","1","2","","","18839","133","8","1","win","go","0"
"pit-trial","255","1771685","0.0-138.0","battery-v0.2","","""event"",""trial"",""time""
""fullscreenenter"",""1"",""4021""
","
","
","""event"",""trial"",""time""
""fullscreenenter"",""1"",""4021""
","
","","","-1","","","14","18839","7102","e","elianto","#f73b6a7A","-1","-1","1","0","[]","0","2","","","18839","134","7","4","lose","no-go","0"
"pit-trial","256","1776538","0.0-139.0","battery-v0.2","","""event"",""trial"",""time""
""fullscreenenter"",""1"",""4021""
","
","
","""event"",""trial"",""time""
""fullscreenenter"",""1"",""4021""
","
","","","-1","","","14","18839","7102","j","elianto","#3366ff99"," ","-1","0","0","[]","0","2","","","18839","135","9","1","win","go","0"
"pit-trial","257","1781390","0.0-140.0","battery-v0.2","","""event"",""trial"",""time""
""fullscreenenter"",""1"",""4021""
","
","
","""event"",""trial"",""time""
""fullscreenenter"",""1"",""4021""
","
","","","-1","","","14","18839","7102","w","elianto","#f73b6a7A"," ","-1","0","-10","[]","0","2","","","18839","136","6","3","lose","go","0"
"pit-trial","258","1785026","0.0-141.0","battery-v0.2","","""event"",""trial"",""time""
""fullscreenenter"",""1"",""4021""
","
","
","""event"",""trial"",""time""
""fullscreenenter"",""1"",""4021""
","
","","","783.9000000953674","","","14","18839","7102","j","elianto","#3366ff99"," "," ","1","+10","[1634.8000000715256]","1","2","","","18839","137","9","1","win","go","0"
"pit-trial","259","1789880","0.0-142.0","battery-v0.2","","""event"",""trial"",""time""
""fullscreenenter"",""1"",""4021""
","
","
","""event"",""trial"",""time""
""fullscreenenter"",""1"",""4021""
","
","","","-1","","","14","18839","7102","d","elianto","#3366ff99"," ","-1","0","0","[]","0","2","","","18839","138","8","1","win","go","0"
"pit-trial","260","1794733","0.0-143.0","battery-v0.2","","""event"",""trial"",""time""
""fullscreenenter"",""1"",""4021""
","
","
","""event"",""trial"",""time""
""fullscreenenter"",""1"",""4021""
","
","","","-1","","","14","18839","7102","e","elianto","#f73b6a7A","-1","-1","1","0","[]","0","2","","","18839","139","7","4","lose","no-go","0"
"pit-trial","261","1799586","0.0-144.0","battery-v0.2","","""event"",""trial"",""time""
""fullscreenenter"",""1"",""4021""
","
","
","""event"",""trial"",""time""
""fullscreenenter"",""1"",""4021""
","
","","","-1","","","14","18839","7102","w","elianto","#f73b6a7A"," ","-1","0","-10","[]","0","2","","","18839","140","6","3","lose","go","0"
"pit-instructions","262","1892614","0.0-145.0","battery-v0.2","","""event"",""trial"",""time""
""fullscreenenter"",""1"",""4021""
","
","
","""event"",""trial"",""time""
""fullscreenenter"",""1"",""4021""
","
","","[{""page_index"":0,""viewing_time"":84799.79999995232},{""page_index"":1,""viewing_time"":8226.200000047684}]","93026.5","","","","","","","","","","","","","","","","","","","","","","","",""
"pit-trial","263","1897406","0.0-146.0","battery-v0.2","","""event"",""trial"",""time""
""fullscreenenter"",""1"",""4021""
","
","
","""event"",""trial"",""time""
""fullscreenenter"",""1"",""4021""
","
","","","1921.5","","","14","18839","7102","n","elianto","#f73b6a7A","-1"," ","0","-10","[2773.899999976158]","1","3","","","18839","141","0","4","lose","no-go","0"
"pit-trial","264","1902188","0.0-147.0","battery-v0.2","","""event"",""trial"",""time""
""fullscreenenter"",""1"",""4021""
","
","
","""event"",""trial"",""time""
""fullscreenenter"",""1"",""4021""
","
","","","1919.3999999761581","","","14","18839","7102","f","elianto","#3366ff99"," "," ","1","+10","[2776.7000000476837]","1","3","","","18839","142","1","1","win","go","0"
"pit-trial","265","1907048","0.0-148.0","battery-v0.2","","""event"",""trial"",""time""
""fullscreenenter"",""1"",""4021""
","
","
","""event"",""trial"",""time""
""fullscreenenter"",""1"",""4021""
","
","","","-1","","","14","18839","7102","t","elianto","#f73b6a7A","-1","-1","1","0","[]","0","3","","","18839","143","2","4","lose","no-go","0"
"pit-trial","266","1911912","0.0-149.0","battery-v0.2","","""event"",""trial"",""time""
""fullscreenenter"",""1"",""4021""
","
","
","""event"",""trial"",""time""
""fullscreenenter"",""1"",""4021""
","
","","","-1","","","14","18839","7102","b","elianto","#f73b6a7A"," ","-1","0","-10","[]","0","3","","","18839","144","3","3","lose","go","0"
