"trial_type","trial_index","time_elapsed","internal_node_id","task_version","subject_id","interactions","blur_events","focus_events","fullscreenenter_events","fullscreenexit_events","success","view_history","rt","responses","num_errors","age","subject","participantId","rune","rune_set","hex","correct","choice","accuracy","outcome","keys","total_keys","block","practice","value","sub","trial","stimulus","robot","valence","action","sham"
"pavlovia","0","17","0.0-0.0","battery-v0.2","","""event"",""trial"",""time""
""blur"",""1"",""9231""
""focus"",""1"",""10850""
""fullscreenenter"",""1"",""10936""
","""event"",""trial"",""time""
""blur"",""1"",""9231""
","""event"",""trial"",""time""
""focus"",""1"",""10850""
","""event"",""trial"",""time""
""fullscreenenter"",""1"",""10936""
","
","","","","","","","","","","","","","","","","","","","","","","","","","","",""
"fullscreen","1","11929","0.0-1.0","battery-v0.2","","""event"",""trial"",""time""
""blur"",""1"",""9231""
""focus"",""1"",""10850""
""fullscreenenter"",""1"",""10936""
","""event"",""trial"",""time""
""blur"",""1"",""9231""
","""event"",""trial"",""time""
""focus"",""1"",""10850""
","""event"",""trial"",""time""
""fullscreenenter"",""1"",""10936""
","
","true","","","","","","","","","","","","","","","","","","","","","","","","","",""
"pit-instructions","2","20890","0.0-2.0-0.0","battery-v0.2","","""event"",""trial"",""time""
""blur"",""1"",""9231""
""focus"",""1"",""10850""
""fullscreenenter"",""1"",""10936""
","""event"",""trial"",""time""
""blur"",""1"",""9231""
","""event"",""trial"",""time""
""focus"",""1"",""10850""
","""event"",""trial"",""time""
""fullscreenenter"",""1"",""10936""
","
","","[{""page_index"":0,""viewing_time"":8950.09999999404}]","8951","","","","","","","","","","","","","","","","","","","","","","","",""
"pit-comprehension","3","25017","0.0-2.0-1.0-0.0","battery-v0.2","","""event"",""trial"",""time""
""blur"",""1"",""9231""
""focus"",""1"",""10850""
""fullscreenenter"",""1"",""10936""
","""event"",""trial"",""time""
""blur"",""1"",""9231""
","""event"",""trial"",""time""
""focus"",""1"",""10850""
","""event"",""trial"",""time""
""fullscreenenter"",""1"",""10936""
","
","","","4112.9000000059605","[""shark""]","0","17","9414","4464","","","","","","","","","","","","","","","","","","",""
"pit-instructions","4","26841","0.0-2.0-1.0-1.0","battery-v0.2","","""event"",""trial"",""time""
""blur"",""1"",""9231""
""focus"",""1"",""10850""
""fullscreenenter"",""1"",""10936""
","""event"",""trial"",""time""
""blur"",""1"",""9231""
","""event"",""trial"",""time""
""focus"",""1"",""10850""
","""event"",""trial"",""time""
""fullscreenenter"",""1"",""10936""
","
","","[{""page_index"":0,""viewing_time"":1781.7999999970198}]","1782.5999999940395","","","","","","","","","","","","","","","","","","","","","","","",""
"pit-comprehension","5","31492","0.0-2.0-2.0-0.0","battery-v0.2","","""event"",""trial"",""time""
""blur"",""1"",""9231""
""focus"",""1"",""10850""
""fullscreenenter"",""1"",""10936""
","""event"",""trial"",""time""
""blur"",""1"",""9231""
","""event"",""trial"",""time""
""focus"",""1"",""10850""
","""event"",""trial"",""time""
""fullscreenenter"",""1"",""10936""
","
","","","4640.399999991059","[""tiger""]","0","17","9414","4464","","","","","","","","","","","","","","","","","","",""
"pit-instructions","6","33889","0.0-2.0-2.0-1.0","battery-v0.2","","""event"",""trial"",""time""
""blur"",""1"",""9231""
""focus"",""1"",""10850""
""fullscreenenter"",""1"",""10936""
","""event"",""trial"",""time""
""blur"",""1"",""9231""
","""event"",""trial"",""time""
""focus"",""1"",""10850""
","""event"",""trial"",""time""
""fullscreenenter"",""1"",""10936""
","
","","[{""page_index"":0,""viewing_time"":2385.199999988079}]","2386","","","","","","","","","","","","","","","","","","","","","","","",""
"pit-instructions","7","137941","0.0-2.0-3.0","battery-v0.2","","""event"",""trial"",""time""
""blur"",""1"",""9231""
""focus"",""1"",""10850""
""fullscreenenter"",""1"",""10936""
","""event"",""trial"",""time""
""blur"",""1"",""9231""
","""event"",""trial"",""time""
""focus"",""1"",""10850""
","""event"",""trial"",""time""
""fullscreenenter"",""1"",""10936""
","
","","[{""page_index"":0,""viewing_time"":10576.10000000894},{""page_index"":1,""viewing_time"":8066.5},{""page_index"":2,""viewing_time"":6893.79999999702},{""page_index"":3,""viewing_time"":6447.5},{""page_index"":4,""viewing_time"":6913},{""page_index"":5,""viewing_time"":5799.5999999940395},{""page_index"":6,""viewing_time"":6993.100000008941},{""page_index"":7,""viewing_time"":6887},{""page_index"":8,""viewing_time"":6912.0999999940395},{""page_index"":9,""viewing_time"":9239.90000000596},{""page_index"":10,""viewing_time"":7863.5},{""page_index"":11,""viewing_time"":7583.399999991059},{""page_index"":12,""viewing_time"":7455.600000008941},{""page_index"":13,""viewing_time"":6408.20000000298}]","104039.90000000596","","","","","","","","","","","","","","","","","","","","","","","",""
"pit-trial","8","141431","0.0-2.0-4.0-0.0","battery-v0.2","","""event"",""trial"",""time""
""blur"",""1"",""9231""
""focus"",""1"",""10850""
""fullscreenenter"",""1"",""10936""
","""event"",""trial"",""time""
""blur"",""1"",""9231""
","""event"",""trial"",""time""
""focus"",""1"",""10850""
","""event"",""trial"",""time""
""fullscreenenter"",""1"",""10936""
","
","","","623.1999999880791","","","17","9414","4464","&#9784;","elianto","#FFFFF080"," "," ","1","&#10004","[1476.7000000029802]","1","0","0","","","","","","","",""
"pit-trial","9","144936","0.0-2.0-4.1-0.1","battery-v0.2","","""event"",""trial"",""time""
""blur"",""1"",""9231""
""focus"",""1"",""10850""
""fullscreenenter"",""1"",""10936""
","""event"",""trial"",""time""
""blur"",""1"",""9231""
","""event"",""trial"",""time""
""focus"",""1"",""10850""
","""event"",""trial"",""time""
""fullscreenenter"",""1"",""10936""
","
","","","649.5","","","17","9414","4464","&#9784;","elianto","#FFFFF080"," "," ","1","&#10004","[1500.2000000029802]","1","0","0","","","","","","","",""
"pit-trial","10","148180","0.0-2.0-4.2-0.2","battery-v0.2","","""event"",""trial"",""time""
""blur"",""1"",""9231""
""focus"",""1"",""10850""
""fullscreenenter"",""1"",""10936""
","""event"",""trial"",""time""
""blur"",""1"",""9231""
","""event"",""trial"",""time""
""focus"",""1"",""10850""
","""event"",""trial"",""time""
""fullscreenenter"",""1"",""10936""
","
","","","388.79999999701977","","","17","9414","4464","&#9784;","elianto","#FFFFF080"," "," ","1","&#10004","[1239.699999988079,1521.2999999970198]","2","0","0","","","","","","","",""
"pit-trial","11","151404","0.0-2.0-4.3-0.3","battery-v0.2","","""event"",""trial"",""time""
""blur"",""1"",""9231""
""focus"",""1"",""10850""
""fullscreenenter"",""1"",""10936""
","""event"",""trial"",""time""
""blur"",""1"",""9231""
","""event"",""trial"",""time""
""focus"",""1"",""10850""
","""event"",""trial"",""time""
""fullscreenenter"",""1"",""10936""
","
","","","357.70000000298023","","","17","9414","4464","&#9784;","elianto","#FFFFF080"," "," ","1","&#10004","[1210.4000000059605]","1","0","0","","","","","","","",""
"pit-trial","12","154850","0.0-2.0-4.4-0.4","battery-v0.2","","""event"",""trial"",""time""
""blur"",""1"",""9231""
""focus"",""1"",""10850""
""fullscreenenter"",""1"",""10936""
","""event"",""trial"",""time""
""blur"",""1"",""9231""
","""event"",""trial"",""time""
""focus"",""1"",""10850""
","""event"",""trial"",""time""
""fullscreenenter"",""1"",""10936""
","
","","","579.3999999910593","","","17","9414","4464","&#9784;","elianto","#FFFFF080"," "," ","1","&#10004","[767.5999999940395,1439.2999999970198]","2","0","0","","","","","","","",""
"pit-instructions","13","176293","0.0-2.0-5.0","battery-v0.2","","""event"",""trial"",""time""
""blur"",""1"",""9231""
""focus"",""1"",""10850""
""fullscreenenter"",""1"",""10936""
","""event"",""trial"",""time""
""blur"",""1"",""9231""
","""event"",""trial"",""time""
""focus"",""1"",""10850""
","""event"",""trial"",""time""
""fullscreenenter"",""1"",""10936""
","
","","[{""page_index"":0,""viewing_time"":4622.899999991059},{""page_index"":1,""viewing_time"":5847.29999999702},{""page_index"":2,""viewing_time"":4808.300000011921},{""page_index"":3,""viewing_time"":6160.5}]","21439.29999999702","","","","","","","","","","","","","","","","","","","","","","","",""
"pit-trial","14","181152","0.0-2.0-6.0-0.0","battery-v0.2","","""event"",""trial"",""time""
""blur"",""1"",""9231""
""focus"",""1"",""10850""
""fullscreenenter"",""1"",""10936""
","""event"",""trial"",""time""
""blur"",""1"",""9231""
","""event"",""trial"",""time""
""focus"",""1"",""10850""
","""event"",""trial"",""time""
""fullscreenenter"",""1"",""10936""
","
","","","-1","","","17","9414","4464","&#9854;","elianto","#FFFFF080","-1","-1","1","&#10004","[]","0","0","1","","","","","","","",""
"pit-trial","15","186018","0.0-2.0-6.1-0.1","battery-v0.2","","""event"",""trial"",""time""
""blur"",""1"",""9231""
""focus"",""1"",""10850""
""fullscreenenter"",""1"",""10936""
","""event"",""trial"",""time""
""blur"",""1"",""9231""
","""event"",""trial"",""time""
""focus"",""1"",""10850""
","""event"",""trial"",""time""
""fullscreenenter"",""1"",""10936""
","
","","","-1","","","17","9414","4464","&#9854;","elianto","#FFFFF080","-1","-1","1","&#10004","[]","0","0","1","","","","","","","",""
"pit-trial","16","190882","0.0-2.0-6.2-0.2","battery-v0.2","","""event"",""trial"",""time""
""blur"",""1"",""9231""
""focus"",""1"",""10850""
""fullscreenenter"",""1"",""10936""
","""event"",""trial"",""time""
""blur"",""1"",""9231""
","""event"",""trial"",""time""
""focus"",""1"",""10850""
","""event"",""trial"",""time""
""fullscreenenter"",""1"",""10936""
","
","","","-1","","","17","9414","4464","&#9854;","elianto","#FFFFF080","-1","-1","1","&#10004","[]","0","0","1","","","","","","","",""
"pit-trial","17","195759","0.0-2.0-6.3-0.3","battery-v0.2","","""event"",""trial"",""time""
""blur"",""1"",""9231""
""focus"",""1"",""10850""
""fullscreenenter"",""1"",""10936""
","""event"",""trial"",""time""
""blur"",""1"",""9231""
","""event"",""trial"",""time""
""focus"",""1"",""10850""
","""event"",""trial"",""time""
""fullscreenenter"",""1"",""10936""
","
","","","-1","","","17","9414","4464","&#9854;","elianto","#FFFFF080","-1","-1","1","&#10004","[]","0","0","1","","","","","","","",""
"pit-trial","18","200637","0.0-2.0-6.4-0.4","battery-v0.2","","""event"",""trial"",""time""
""blur"",""1"",""9231""
""focus"",""1"",""10850""
""fullscreenenter"",""1"",""10936""
","""event"",""trial"",""time""
""blur"",""1"",""9231""
","""event"",""trial"",""time""
""focus"",""1"",""10850""
","""event"",""trial"",""time""
""fullscreenenter"",""1"",""10936""
","
","","","-1","","","17","9414","4464","&#9854;","elianto","#FFFFF080","-1","-1","1","&#10004","[]","0","0","1","","","","","","","",""
"pit-instructions","19","323366","0.0-2.0-7.0","battery-v0.2","","""event"",""trial"",""time""
""blur"",""1"",""9231""
""focus"",""1"",""10850""
""fullscreenenter"",""1"",""10936""
","""event"",""trial"",""time""
""blur"",""1"",""9231""
","""event"",""trial"",""time""
""focus"",""1"",""10850""
","""event"",""trial"",""time""
""fullscreenenter"",""1"",""10936""
","
","","[{""page_index"":0,""viewing_time"":6859.79999999702},{""page_index"":1,""viewing_time"":7663},{""page_index"":2,""viewing_time"":6728},{""page_index"":3,""viewing_time"":5976.4000000059605},{""page_index"":4,""viewing_time"":6319.79999999702},{""page_index"":5,""viewing_time"":5551.70000000298},{""page_index"":6,""viewing_time"":5192.29999999702},{""page_index"":7,""viewing_time"":7927.79999999702},{""page_index"":8,""viewing_time"":6712.4000000059605},{""page_index"":9,""viewing_time"":6040.70000000298},{""page_index"":10,""viewing_time"":7687.0999999940395},{""page_index"":11,""viewing_time"":6064.4000000059605},{""page_index"":12,""viewing_time"":6807.199999988079},{""page_index"":13,""viewing_time"":7840.9000000059605},{""page_index"":14,""viewing_time"":7728.79999999702},{""page_index"":15,""viewing_time"":6711.4000000059605},{""page_index"":16,""viewing_time"":6384.0999999940395},{""page_index"":17,""viewing_time"":8527.70000000298}]","122724.29999999702","","","","","","","","","","","","","","","","","","","","","","","",""
"pit-trial","20","327754","0.0-2.0-8.0-0.0","battery-v0.2","","""event"",""trial"",""time""
""blur"",""1"",""9231""
""focus"",""1"",""10850""
""fullscreenenter"",""1"",""10936""
","""event"",""trial"",""time""
""blur"",""1"",""9231""
","""event"",""trial"",""time""
""focus"",""1"",""10850""
","""event"",""trial"",""time""
""fullscreenenter"",""1"",""10936""
","
","","","1513.8999999910593","","","17","9414","4464","&#9776;","elianto","#3366ff99"," "," ","1","+10","[2371.300000011921]","1","0","1","","","","","","","",""
"pit-trial","21","331163","0.0-2.0-8.0-1.0","battery-v0.2","","""event"",""trial"",""time""
""blur"",""1"",""9231""
""focus"",""1"",""10850""
""fullscreenenter"",""1"",""10936""
","""event"",""trial"",""time""
""blur"",""1"",""9231""
","""event"",""trial"",""time""
""focus"",""1"",""10850""
","""event"",""trial"",""time""
""fullscreenenter"",""1"",""10936""
","
","","","546.5999999940395","","","17","9414","4464","&#9776;","elianto","#3366ff99"," "," ","1","+10","[1398.7000000029802]","1","0","1","","","","","","","",""
"pit-trial","22","334637","0.0-2.0-8.0-2.0","battery-v0.2","","""event"",""trial"",""time""
""blur"",""1"",""9231""
""focus"",""1"",""10850""
""fullscreenenter"",""1"",""10936""
","""event"",""trial"",""time""
""blur"",""1"",""9231""
","""event"",""trial"",""time""
""focus"",""1"",""10850""
","""event"",""trial"",""time""
""fullscreenenter"",""1"",""10936""
","
","","","600.5","","","17","9414","4464","&#9776;","elianto","#3366ff99"," "," ","1","+10","[1455.9000000059605]","1","0","1","","","","","","","",""
"pit-trial","23","337897","0.0-2.0-8.0-3.0","battery-v0.2","","""event"",""trial"",""time""
""blur"",""1"",""9231""
""focus"",""1"",""10850""
""fullscreenenter"",""1"",""10936""
","""event"",""trial"",""time""
""blur"",""1"",""9231""
","""event"",""trial"",""time""
""focus"",""1"",""10850""
","""event"",""trial"",""time""
""fullscreenenter"",""1"",""10936""
","
","","","394.5","","","17","9414","4464","&#9776;","elianto","#3366ff99"," "," ","1","0","[1246.7000000029802]","1","0","1","","","","","","","",""
"pit-trial","24","341275","0.0-2.0-8.0-4.0","battery-v0.2","","""event"",""trial"",""time""
""blur"",""1"",""9231""
""focus"",""1"",""10850""
""fullscreenenter"",""1"",""10936""
","""event"",""trial"",""time""
""blur"",""1"",""9231""
","""event"",""trial"",""time""
""focus"",""1"",""10850""
","""event"",""trial"",""time""
""fullscreenenter"",""1"",""10936""
","
","","","510.69999998807907","","","17","9414","4464","&#9776;","elianto","#3366ff99"," "," ","1","+10","[1370]","1","0","1","","","","","","","",""
"pit-trial","25","344559","0.0-2.0-8.1-0.1","battery-v0.2","","""event"",""trial"",""time""
""blur"",""1"",""9231""
""focus"",""1"",""10850""
""fullscreenenter"",""1"",""10936""
","""event"",""trial"",""time""
""blur"",""1"",""9231""
","""event"",""trial"",""time""
""focus"",""1"",""10850""
","""event"",""trial"",""time""
""fullscreenenter"",""1"",""10936""
","
","","","403.40000000596046","","","17","9414","4464","&#9776;","elianto","#3366ff99"," "," ","1","+10","[1264.8999999910593]","1","0","1","","","","","","","",""
"pit-trial","26","347822","0.0-2.0-8.1-1.1","battery-v0.2","","""event"",""trial"",""time""
""blur"",""1"",""9231""
""focus"",""1"",""10850""
""fullscreenenter"",""1"",""10936""
","""event"",""trial"",""time""
""blur"",""1"",""9231""
","""event"",""trial"",""time""
""focus"",""1"",""10850""
","""event"",""trial"",""time""
""fullscreenenter"",""1"",""10936""
","
","","","395.5","","","17","9414","4464","&#9776;","elianto","#3366ff99"," "," ","1","+10","[1246.5]","1","0","1","","","","","","","",""
"pit-trial","27","351094","0.0-2.0-8.1-2.1","battery-v0.2","","""event"",""trial"",""time""
""blur"",""1"",""9231""
""focus"",""1"",""10850""
""fullscreenenter"",""1"",""10936""
","""event"",""trial"",""time""
""blur"",""1"",""9231""
","""event"",""trial"",""time""
""focus"",""1"",""10850""
","""event"",""trial"",""time""
""fullscreenenter"",""1"",""10936""
","
","","","406.5","","","17","9414","4464","&#9776;","elianto","#3366ff99"," "," ","1","+10","[1256.9000000059605]","1","0","1","","","","","","","",""
"pit-trial","28","354558","0.0-2.0-8.1-3.1","battery-v0.2","","""event"",""trial"",""time""
""blur"",""1"",""9231""
""focus"",""1"",""10850""
""fullscreenenter"",""1"",""10936""
","""event"",""trial"",""time""
""blur"",""1"",""9231""
","""event"",""trial"",""time""
""focus"",""1"",""10850""
","""event"",""trial"",""time""
""fullscreenenter"",""1"",""10936""
","
","","","608.5","","","17","9414","4464","&#9776;","elianto","#3366ff99"," "," ","1","0","[1459.5999999940395]","1","0","1","","","","","","","",""
"pit-trial","29","357815","0.0-2.0-8.1-4.1","battery-v0.2","","""event"",""trial"",""time""
""blur"",""1"",""9231""
""focus"",""1"",""10850""
""fullscreenenter"",""1"",""10936""
","""event"",""trial"",""time""
""blur"",""1"",""9231""
","""event"",""trial"",""time""
""focus"",""1"",""10850""
","""event"",""trial"",""time""
""fullscreenenter"",""1"",""10936""
","
","","","393.29999999701977","","","17","9414","4464","&#9776;","elianto","#3366ff99"," "," ","1","+10","[1244.6000000089407]","1","0","1","","","","","","","",""
"pit-trial","30","361097","0.0-2.0-8.2-0.2","battery-v0.2","","""event"",""trial"",""time""
""blur"",""1"",""9231""
""focus"",""1"",""10850""
""fullscreenenter"",""1"",""10936""
","""event"",""trial"",""time""
""blur"",""1"",""9231""
","""event"",""trial"",""time""
""focus"",""1"",""10850""
","""event"",""trial"",""time""
""fullscreenenter"",""1"",""10936""
","
","","","412.79999999701977","","","17","9414","4464","&#9776;","elianto","#3366ff99"," "," ","1","+10","[1267.199999988079]","1","0","1","","","","","","","",""
"pit-trial","31","364390","0.0-2.0-8.2-1.2","battery-v0.2","","""event"",""trial"",""time""
""blur"",""1"",""9231""
""focus"",""1"",""10850""
""fullscreenenter"",""1"",""10936""
","""event"",""trial"",""time""
""blur"",""1"",""9231""
","""event"",""trial"",""time""
""focus"",""1"",""10850""
","""event"",""trial"",""time""
""fullscreenenter"",""1"",""10936""
","
","","","431.40000000596046","","","17","9414","4464","&#9776;","elianto","#3366ff99"," "," ","1","+10","[1288.1000000089407]","1","0","1","","","","","","","",""
"pit-trial","32","367625","0.0-2.0-8.2-2.2","battery-v0.2","","""event"",""trial"",""time""
""blur"",""1"",""9231""
""focus"",""1"",""10850""
""fullscreenenter"",""1"",""10936""
","""event"",""trial"",""time""
""blur"",""1"",""9231""
","""event"",""trial"",""time""
""focus"",""1"",""10850""
","""event"",""trial"",""time""
""fullscreenenter"",""1"",""10936""
","
","","","371.19999998807907","","","17","9414","4464","&#9776;","elianto","#3366ff99"," "," ","1","+10","[1222.8999999910593]","1","0","1","","","","","","","",""
"pit-trial","33","370927","0.0-2.0-8.2-3.2","battery-v0.2","","""event"",""trial"",""time""
""blur"",""1"",""9231""
""focus"",""1"",""10850""
""fullscreenenter"",""1"",""10936""
","""event"",""trial"",""time""
""blur"",""1"",""9231""
","""event"",""trial"",""time""
""focus"",""1"",""10850""
","""event"",""trial"",""time""
""fullscreenenter"",""1"",""10936""
","
","","","441.80000001192093","","","17","9414","4464","&#9776;","elianto","#3366ff99"," "," ","1","0","[1293.5]","1","0","1","","","","","","","",""
"pit-trial","34","374132","0.0-2.0-8.2-4.2","battery-v0.2","","""event"",""trial"",""time""
""blur"",""1"",""9231""
""focus"",""1"",""10850""
""fullscreenenter"",""1"",""10936""
","""event"",""trial"",""time""
""blur"",""1"",""9231""
","""event"",""trial"",""time""
""focus"",""1"",""10850""
","""event"",""trial"",""time""
""fullscreenenter"",""1"",""10936""
","
","","","341.20000000298023","","","17","9414","4464","&#9776;","elianto","#3366ff99"," "," ","1","+10","[1193.4000000059605,1420.5999999940395]","2","0","1","","","","","","","",""
"call-function","35","374138","0.0-2.0-9.0","battery-v0.2","","""event"",""trial"",""time""
""blur"",""1"",""9231""
""focus"",""1"",""10850""
""fullscreenenter"",""1"",""10936""
","""event"",""trial"",""time""
""blur"",""1"",""9231""
","""event"",""trial"",""time""
""focus"",""1"",""10850""
","""event"",""trial"",""time""
""fullscreenenter"",""1"",""10936""
","
","","","","","","","","","","","","","","","","","","","","","","","","","","",""
"pit-instructions","36","417522","0.0-2.0-10.0","battery-v0.2","","""event"",""trial"",""time""
""blur"",""1"",""9231""
""focus"",""1"",""10850""
""fullscreenenter"",""1"",""10936""
","""event"",""trial"",""time""
""blur"",""1"",""9231""
","""event"",""trial"",""time""
""focus"",""1"",""10850""
","""event"",""trial"",""time""
""fullscreenenter"",""1"",""10936""
","
","","[{""page_index"":0,""viewing_time"":9333},{""page_index"":1,""viewing_time"":6463.29999999702},{""page_index"":2,""viewing_time"":9968.40000000596},{""page_index"":3,""viewing_time"":9272.09999999404},{""page_index"":4,""viewing_time"":8344}]","43381.79999999702","","","","","","","","","","","","","","","","","","","","","","","",""
"pit-trial","37","421030","0.0-2.0-11.0-0.0","battery-v0.2","","""event"",""trial"",""time""
""blur"",""1"",""9231""
""focus"",""1"",""10850""
""fullscreenenter"",""1"",""10936""
","""event"",""trial"",""time""
""blur"",""1"",""9231""
","""event"",""trial"",""time""
""focus"",""1"",""10850""
","""event"",""trial"",""time""
""fullscreenenter"",""1"",""10936""
","
","","","646.5","","","17","9414","4464","&#9761;","elianto","#3366ff99","-1"," ","0","0","[1501.2000000029802]","1","0","2","","","","","","","",""
"pit-trial","38","425896","0.0-2.0-11.0-1.0","battery-v0.2","","""event"",""trial"",""time""
""blur"",""1"",""9231""
""focus"",""1"",""10850""
""fullscreenenter"",""1"",""10936""
","""event"",""trial"",""time""
""blur"",""1"",""9231""
","""event"",""trial"",""time""
""focus"",""1"",""10850""
","""event"",""trial"",""time""
""fullscreenenter"",""1"",""10936""
","
","","","-1","","","17","9414","4464","&#9761;","elianto","#3366ff99","-1","-1","1","+10","[]","0","0","2","","","","","","","",""
"pit-trial","39","430766","0.0-2.0-11.0-2.0","battery-v0.2","","""event"",""trial"",""time""
""blur"",""1"",""9231""
""focus"",""1"",""10850""
""fullscreenenter"",""1"",""10936""
","""event"",""trial"",""time""
""blur"",""1"",""9231""
","""event"",""trial"",""time""
""focus"",""1"",""10850""
","""event"",""trial"",""time""
""fullscreenenter"",""1"",""10936""
","
","","","-1","","","17","9414","4464","&#9761;","elianto","#3366ff99","-1","-1","1","+10","[]","0","0","2","","","","","","","",""
"pit-trial","40","435642","0.0-2.0-11.0-3.0","battery-v0.2","","""event"",""trial"",""time""
""blur"",""1"",""9231""
""focus"",""1"",""10850""
""fullscreenenter"",""1"",""10936""
","""event"",""trial"",""time""
""blur"",""1"",""9231""
","""event"",""trial"",""time""
""focus"",""1"",""10850""
","""event"",""trial"",""time""
""fullscreenenter"",""1"",""10936""
","
","","","-1","","","17","9414","4464","&#9761;","elianto","#3366ff99","-1","-1","1","0","[]","0","0","2","","","","","","","",""
"pit-trial","41","440507","0.0-2.0-11.0-4.0","battery-v0.2","","""event"",""trial"",""time""
""blur"",""1"",""9231""
""focus"",""1"",""10850""
""fullscreenenter"",""1"",""10936""
","""event"",""trial"",""time""
""blur"",""1"",""9231""
","""event"",""trial"",""time""
""focus"",""1"",""10850""
","""event"",""trial"",""time""
""fullscreenenter"",""1"",""10936""
","
","","","-1","","","17","9414","4464","&#9761;","elianto","#3366ff99","-1","-1","1","+10","[]","0","0","2","","","","","","","",""
"pit-trial","42","445371","0.0-2.0-11.1-0.1","battery-v0.2","","""event"",""trial"",""time""
""blur"",""1"",""9231""
""focus"",""1"",""10850""
""fullscreenenter"",""1"",""10936""
","""event"",""trial"",""time""
""blur"",""1"",""9231""
","""event"",""trial"",""time""
""focus"",""1"",""10850""
","""event"",""trial"",""time""
""fullscreenenter"",""1"",""10936""
","
","","","-1","","","17","9414","4464","&#9761;","elianto","#3366ff99","-1","-1","1","+10","[]","0","0","2","","","","","","","",""
"pit-trial","43","450232","0.0-2.0-11.1-1.1","battery-v0.2","","""event"",""trial"",""time""
""blur"",""1"",""9231""
""focus"",""1"",""10850""
""fullscreenenter"",""1"",""10936""
","""event"",""trial"",""time""
""blur"",""1"",""9231""
","""event"",""trial"",""time""
""focus"",""1"",""10850""
","""event"",""trial"",""time""
""fullscreenenter"",""1"",""10936""
","
","","","-1","","","17","9414","4464","&#9761;","elianto","#3366ff99","-1","-1","1","+10","[]","0","0","2","","","","","","","",""
"pit-trial","44","455094","0.0-2.0-11.1-2.1","battery-v0.2","","""event"",""trial"",""time""
""blur"",""1"",""9231""
""focus"",""1"",""10850""
""fullscreenenter"",""1"",""10936""
","""event"",""trial"",""time""
""blur"",""1"",""9231""
","""event"",""trial"",""time""
""focus"",""1"",""10850""
","""event"",""trial"",""time""
""fullscreenenter"",""1"",""10936""
","
","","","-1","","","17","9414","4464","&#9761;","elianto","#3366ff99","-1","-1","1","+10","[]","0","0","2","","","","","","","",""
"pit-trial","45","459959","0.0-2.0-11.1-3.1","battery-v0.2","","""event"",""trial"",""time""
""blur"",""1"",""9231""
""focus"",""1"",""10850""
""fullscreenenter"",""1"",""10936""
","""event"",""trial"",""time""
""blur"",""1"",""9231""
","""event"",""trial"",""time""
""focus"",""1"",""10850""
","""event"",""trial"",""time""
""fullscreenenter"",""1"",""10936""
","
","","","-1","","","17","9414","4464","&#9761;","elianto","#3366ff99","-1","-1","1","0","[]","0","0","2","","","","","","","",""
"pit-trial","46","464822","0.0-2.0-11.1-4.1","battery-v0.2","","""event"",""trial"",""time""
""blur"",""1"",""9231""
""focus"",""1"",""10850""
""fullscreenenter"",""1"",""10936""
","""event"",""trial"",""time""
""blur"",""1"",""9231""
","""event"",""trial"",""time""
""focus"",""1"",""10850""
","""event"",""trial"",""time""
""fullscreenenter"",""1"",""10936""
","
","","","-1","","","17","9414","4464","&#9761;","elianto","#3366ff99","-1","-1","1","+10","[]","0","0","2","","","","","","","",""
"pit-trial","47","469684","0.0-2.0-11.2-0.2","battery-v0.2","","""event"",""trial"",""time""
""blur"",""1"",""9231""
""focus"",""1"",""10850""
""fullscreenenter"",""1"",""10936""
","""event"",""trial"",""time""
""blur"",""1"",""9231""
","""event"",""trial"",""time""
""focus"",""1"",""10850""
","""event"",""trial"",""time""
""fullscreenenter"",""1"",""10936""
","
","","","-1","","","17","9414","4464","&#9761;","elianto","#3366ff99","-1","-1","1","+10","[]","0","0","2","","","","","","","",""
"pit-trial","48","474543","0.0-2.0-11.2-1.2","battery-v0.2","","""event"",""trial"",""time""
""blur"",""1"",""9231""
""focus"",""1"",""10850""
""fullscreenenter"",""1"",""10936""
","""event"",""trial"",""time""
""blur"",""1"",""9231""
","""event"",""trial"",""time""
""focus"",""1"",""10850""
","""event"",""trial"",""time""
""fullscreenenter"",""1"",""10936""
","
","","","-1","","","17","9414","4464","&#9761;","elianto","#3366ff99","-1","-1","1","+10","[]","0","0","2","","","","","","","",""
"pit-trial","49","479400","0.0-2.0-11.2-2.2","battery-v0.2","","""event"",""trial"",""time""
""blur"",""1"",""9231""
""focus"",""1"",""10850""
""fullscreenenter"",""1"",""10936""
","""event"",""trial"",""time""
""blur"",""1"",""9231""
","""event"",""trial"",""time""
""focus"",""1"",""10850""
","""event"",""trial"",""time""
""fullscreenenter"",""1"",""10936""
","
","","","-1","","","17","9414","4464","&#9761;","elianto","#3366ff99","-1","-1","1","+10","[]","0","0","2","","","","","","","",""
"pit-trial","50","484258","0.0-2.0-11.2-3.2","battery-v0.2","","""event"",""trial"",""time""
""blur"",""1"",""9231""
""focus"",""1"",""10850""
""fullscreenenter"",""1"",""10936""
","""event"",""trial"",""time""
""blur"",""1"",""9231""
","""event"",""trial"",""time""
""focus"",""1"",""10850""
","""event"",""trial"",""time""
""fullscreenenter"",""1"",""10936""
","
","","","-1","","","17","9414","4464","&#9761;","elianto","#3366ff99","-1","-1","1","0","[]","0","0","2","","","","","","","",""
"pit-trial","51","489121","0.0-2.0-11.2-4.2","battery-v0.2","","""event"",""trial"",""time""
""blur"",""1"",""9231""
""focus"",""1"",""10850""
""fullscreenenter"",""1"",""10936""
","""event"",""trial"",""time""
""blur"",""1"",""9231""
","""event"",""trial"",""time""
""focus"",""1"",""10850""
","""event"",""trial"",""time""
""fullscreenenter"",""1"",""10936""
","
","","","-1","","","17","9414","4464","&#9761;","elianto","#3366ff99","-1","-1","1","+10","[]","0","0","2","","","","","","","",""
"pit-trial","52","493993","0.0-2.0-11.3-0.3","battery-v0.2","","""event"",""trial"",""time""
""blur"",""1"",""9231""
""focus"",""1"",""10850""
""fullscreenenter"",""1"",""10936""
","""event"",""trial"",""time""
""blur"",""1"",""9231""
","""event"",""trial"",""time""
""focus"",""1"",""10850""
","""event"",""trial"",""time""
""fullscreenenter"",""1"",""10936""
","
","","","-1","","","17","9414","4464","&#9761;","elianto","#3366ff99","-1","-1","1","+10","[]","0","0","2","","","","","","","",""
"pit-trial","53","498859","0.0-2.0-11.3-1.3","battery-v0.2","","""event"",""trial"",""time""
""blur"",""1"",""9231""
""focus"",""1"",""10850""
""fullscreenenter"",""1"",""10936""
","""event"",""trial"",""time""
""blur"",""1"",""9231""
","""event"",""trial"",""time""
""focus"",""1"",""10850""
","""event"",""trial"",""time""
""fullscreenenter"",""1"",""10936""
","
","","","-1","","","17","9414","4464","&#9761;","elianto","#3366ff99","-1","-1","1","+10","[]","0","0","2","","","","","","","",""
"pit-trial","54","503723","0.0-2.0-11.3-2.3","battery-v0.2","","""event"",""trial"",""time""
""blur"",""1"",""9231""
""focus"",""1"",""10850""
""fullscreenenter"",""1"",""10936""
","""event"",""trial"",""time""
""blur"",""1"",""9231""
","""event"",""trial"",""time""
""focus"",""1"",""10850""
","""event"",""trial"",""time""
""fullscreenenter"",""1"",""10936""
","
","","","-1","","","17","9414","4464","&#9761;","elianto","#3366ff99","-1","-1","1","+10","[]","0","0","2","","","","","","","",""
"pit-trial","55","508593","0.0-2.0-11.3-3.3","battery-v0.2","","""event"",""trial"",""time""
""blur"",""1"",""9231""
""focus"",""1"",""10850""
""fullscreenenter"",""1"",""10936""
","""event"",""trial"",""time""
""blur"",""1"",""9231""
","""event"",""trial"",""time""
""focus"",""1"",""10850""
","""event"",""trial"",""time""
""fullscreenenter"",""1"",""10936""
","
","","","-1","","","17","9414","4464","&#9761;","elianto","#3366ff99","-1","-1","1","0","[]","0","0","2","","","","","","","",""
"pit-trial","56","513451","0.0-2.0-11.3-4.3","battery-v0.2","","""event"",""trial"",""time""
""blur"",""1"",""9231""
""focus"",""1"",""10850""
""fullscreenenter"",""1"",""10936""
","""event"",""trial"",""time""
""blur"",""1"",""9231""
","""event"",""trial"",""time""
""focus"",""1"",""10850""
","""event"",""trial"",""time""
""fullscreenenter"",""1"",""10936""
","
","","","-1","","","17","9414","4464","&#9761;","elianto","#3366ff99","-1","-1","1","+10","[]","0","0","2","","","","","","","",""
"call-function","57","513456","0.0-2.0-12.0","battery-v0.2","","""event"",""trial"",""time""
""blur"",""1"",""9231""
""focus"",""1"",""10850""
""fullscreenenter"",""1"",""10936""
","""event"",""trial"",""time""
""blur"",""1"",""9231""
","""event"",""trial"",""time""
""focus"",""1"",""10850""
","""event"",""trial"",""time""
""fullscreenenter"",""1"",""10936""
","
","","","","","","","","","","","","","","","","","","","","","","","","","","",""
"pit-instructions","58","545509","0.0-2.0-13.0","battery-v0.2","","""event"",""trial"",""time""
""blur"",""1"",""9231""
""focus"",""1"",""10850""
""fullscreenenter"",""1"",""10936""
","""event"",""trial"",""time""
""blur"",""1"",""9231""
","""event"",""trial"",""time""
""focus"",""1"",""10850""
","""event"",""trial"",""time""
""fullscreenenter"",""1"",""10936""
","
","","[{""page_index"":0,""viewing_time"":6298.79999999702},{""page_index"":1,""viewing_time"":6640},{""page_index"":2,""viewing_time"":3095.9000000059605},{""page_index"":3,""viewing_time"":10687.79999999702},{""page_index"":4,""viewing_time"":5328.20000000298}]","32051.5","","","","","","","","","","","","","","","","","","","","","","","",""
"pit-trial","59","549006","0.0-2.0-14.0-0.0","battery-v0.2","","""event"",""trial"",""time""
""blur"",""1"",""9231""
""focus"",""1"",""10850""
""fullscreenenter"",""1"",""10936""
","""event"",""trial"",""time""
""blur"",""1"",""9231""
","""event"",""trial"",""time""
""focus"",""1"",""10850""
","""event"",""trial"",""time""
""fullscreenenter"",""1"",""10936""
","
","","","632.2999999970198","","","17","9414","4464","&#9826;","elianto","#f73b6a7A","-1"," ","0","-10","[1486.2999999970198]","1","0","3","","","","","","","",""
"pit-trial","60","553876","0.0-2.0-14.0-1.0","battery-v0.2","","""event"",""trial"",""time""
""blur"",""1"",""9231""
""focus"",""1"",""10850""
""fullscreenenter"",""1"",""10936""
","""event"",""trial"",""time""
""blur"",""1"",""9231""
","""event"",""trial"",""time""
""focus"",""1"",""10850""
","""event"",""trial"",""time""
""fullscreenenter"",""1"",""10936""
","
","","","-1","","","17","9414","4464","&#9826;","elianto","#f73b6a7A","-1","-1","1","0","[]","0","0","3","","","","","","","",""
"pit-trial","61","558741","0.0-2.0-14.0-2.0","battery-v0.2","","""event"",""trial"",""time""
""blur"",""1"",""9231""
""focus"",""1"",""10850""
""fullscreenenter"",""1"",""10936""
","""event"",""trial"",""time""
""blur"",""1"",""9231""
","""event"",""trial"",""time""
""focus"",""1"",""10850""
","""event"",""trial"",""time""
""fullscreenenter"",""1"",""10936""
","
","","","-1","","","17","9414","4464","&#9826;","elianto","#f73b6a7A","-1","-1","1","0","[]","0","0","3","","","","","","","",""
"pit-trial","62","562078","0.0-2.0-14.0-3.0","battery-v0.2","","""event"",""trial"",""time""
""blur"",""1"",""9231""
""focus"",""1"",""10850""
""fullscreenenter"",""1"",""10936""
","""event"",""trial"",""time""
""blur"",""1"",""9231""
","""event"",""trial"",""time""
""focus"",""1"",""10850""
","""event"",""trial"",""time""
""fullscreenenter"",""1"",""10936""
","
","","","471.1000000089407","","","17","9414","4464","&#9826;","elianto","#f73b6a7A","-1"," ","0","0","[1322.5]","1","0","3","","","","","","","",""
"pit-trial","63","566946","0.0-2.0-14.0-4.0","battery-v0.2","","""event"",""trial"",""time""
""blur"",""1"",""9231""
""focus"",""1"",""10850""
""fullscreenenter"",""1"",""10936""
","""event"",""trial"",""time""
""blur"",""1"",""9231""
","""event"",""trial"",""time""
""focus"",""1"",""10850""
","""event"",""trial"",""time""
""fullscreenenter"",""1"",""10936""
","
","","","-1","","","17","9414","4464","&#9826;","elianto","#f73b6a7A","-1","-1","1","0","[]","0","0","3","","","","","","","",""
"pit-trial","64","571817","0.0-2.0-14.1-0.1","battery-v0.2","","""event"",""trial"",""time""
""blur"",""1"",""9231""
""focus"",""1"",""10850""
""fullscreenenter"",""1"",""10936""
","""event"",""trial"",""time""
""blur"",""1"",""9231""
","""event"",""trial"",""time""
""focus"",""1"",""10850""
","""event"",""trial"",""time""
""fullscreenenter"",""1"",""10936""
","
","","","-1","","","17","9414","4464","&#9826;","elianto","#f73b6a7A","-1","-1","1","0","[]","0","0","3","","","","","","","",""
"pit-trial","65","576680","0.0-2.0-14.1-1.1","battery-v0.2","","""event"",""trial"",""time""
""blur"",""1"",""9231""
""focus"",""1"",""10850""
""fullscreenenter"",""1"",""10936""
","""event"",""trial"",""time""
""blur"",""1"",""9231""
","""event"",""trial"",""time""
""focus"",""1"",""10850""
","""event"",""trial"",""time""
""fullscreenenter"",""1"",""10936""
","
","","","-1","","","17","9414","4464","&#9826;","elianto","#f73b6a7A","-1","-1","1","0","[]","0","0","3","","","","","","","",""
"pit-trial","66","581537","0.0-2.0-14.1-2.1","battery-v0.2","","""event"",""trial"",""time""
""blur"",""1"",""9231""
""focus"",""1"",""10850""
""fullscreenenter"",""1"",""10936""
","""event"",""trial"",""time""
""blur"",""1"",""9231""
","""event"",""trial"",""time""
""focus"",""1"",""10850""
","""event"",""trial"",""time""
""fullscreenenter"",""1"",""10936""
","
","","","-1","","","17","9414","4464","&#9826;","elianto","#f73b6a7A","-1","-1","1","0","[]","0","0","3","","","","","","","",""
"pit-trial","67","586413","0.0-2.0-14.1-3.1","battery-v0.2","","""event"",""trial"",""time""
""blur"",""1"",""9231""
""focus"",""1"",""10850""
""fullscreenenter"",""1"",""10936""
","""event"",""trial"",""time""
""blur"",""1"",""9231""
","""event"",""trial"",""time""
""focus"",""1"",""10850""
","""event"",""trial"",""time""
""fullscreenenter"",""1"",""10936""
","
","","","-1","","","17","9414","4464","&#9826;","elianto","#f73b6a7A","-1","-1","1","-10","[]","0","0","3","","","","","","","",""
"pit-trial","68","591279","0.0-2.0-14.1-4.1","battery-v0.2","","""event"",""trial"",""time""
""blur"",""1"",""9231""
""focus"",""1"",""10850""
""fullscreenenter"",""1"",""10936""
","""event"",""trial"",""time""
""blur"",""1"",""9231""
","""event"",""trial"",""time""
""focus"",""1"",""10850""
","""event"",""trial"",""time""
""fullscreenenter"",""1"",""10936""
","
","","","-1","","","17","9414","4464","&#9826;","elianto","#f73b6a7A","-1","-1","1","0","[]","0","0","3","","","","","","","",""
"pit-trial","69","596142","0.0-2.0-14.2-0.2","battery-v0.2","","""event"",""trial"",""time""
""blur"",""1"",""9231""
""focus"",""1"",""10850""
""fullscreenenter"",""1"",""10936""
","""event"",""trial"",""time""
""blur"",""1"",""9231""
","""event"",""trial"",""time""
""focus"",""1"",""10850""
","""event"",""trial"",""time""
""fullscreenenter"",""1"",""10936""
","
","","","-1","","","17","9414","4464","&#9826;","elianto","#f73b6a7A","-1","-1","1","0","[]","0","0","3","","","","","","","",""
"pit-trial","70","601001","0.0-2.0-14.2-1.2","battery-v0.2","","""event"",""trial"",""time""
""blur"",""1"",""9231""
""focus"",""1"",""10850""
""fullscreenenter"",""1"",""10936""
","""event"",""trial"",""time""
""blur"",""1"",""9231""
","""event"",""trial"",""time""
""focus"",""1"",""10850""
","""event"",""trial"",""time""
""fullscreenenter"",""1"",""10936""
","
","","","-1","","","17","9414","4464","&#9826;","elianto","#f73b6a7A","-1","-1","1","0","[]","0","0","3","","","","","","","",""
"pit-trial","71","605865","0.0-2.0-14.2-2.2","battery-v0.2","","""event"",""trial"",""time""
""blur"",""1"",""9231""
""focus"",""1"",""10850""
""fullscreenenter"",""1"",""10936""
","""event"",""trial"",""time""
""blur"",""1"",""9231""
","""event"",""trial"",""time""
""focus"",""1"",""10850""
","""event"",""trial"",""time""
""fullscreenenter"",""1"",""10936""
","
","","","-1","","","17","9414","4464","&#9826;","elianto","#f73b6a7A","-1","-1","1","0","[]","0","0","3","","","","","","","",""
"pit-trial","72","610725","0.0-2.0-14.2-3.2","battery-v0.2","","""event"",""trial"",""time""
""blur"",""1"",""9231""
""focus"",""1"",""10850""
""fullscreenenter"",""1"",""10936""
","""event"",""trial"",""time""
""blur"",""1"",""9231""
","""event"",""trial"",""time""
""focus"",""1"",""10850""
","""event"",""trial"",""time""
""fullscreenenter"",""1"",""10936""
","
","","","-1","","","17","9414","4464","&#9826;","elianto","#f73b6a7A","-1","-1","1","-10","[]","0","0","3","","","","","","","",""
"pit-trial","73","615596","0.0-2.0-14.2-4.2","battery-v0.2","","""event"",""trial"",""time""
""blur"",""1"",""9231""
""focus"",""1"",""10850""
""fullscreenenter"",""1"",""10936""
","""event"",""trial"",""time""
""blur"",""1"",""9231""
","""event"",""trial"",""time""
""focus"",""1"",""10850""
","""event"",""trial"",""time""
""fullscreenenter"",""1"",""10936""
","
","","","-1","","","17","9414","4464","&#9826;","elianto","#f73b6a7A","-1","-1","1","0","[]","0","0","3","","","","","","","",""
"pit-trial","74","620458","0.0-2.0-14.3-0.3","battery-v0.2","","""event"",""trial"",""time""
""blur"",""1"",""9231""
""focus"",""1"",""10850""
""fullscreenenter"",""1"",""10936""
","""event"",""trial"",""time""
""blur"",""1"",""9231""
","""event"",""trial"",""time""
""focus"",""1"",""10850""
","""event"",""trial"",""time""
""fullscreenenter"",""1"",""10936""
","
","","","-1","","","17","9414","4464","&#9826;","elianto","#f73b6a7A","-1","-1","1","0","[]","0","0","3","","","","","","","",""
"pit-trial","75","625320","0.0-2.0-14.3-1.3","battery-v0.2","","""event"",""trial"",""time""
""blur"",""1"",""9231""
""focus"",""1"",""10850""
""fullscreenenter"",""1"",""10936""
","""event"",""trial"",""time""
""blur"",""1"",""9231""
","""event"",""trial"",""time""
""focus"",""1"",""10850""
","""event"",""trial"",""time""
""fullscreenenter"",""1"",""10936""
","
","","","-1","","","17","9414","4464","&#9826;","elianto","#f73b6a7A","-1","-1","1","0","[]","0","0","3","","","","","","","",""
"pit-trial","76","630183","0.0-2.0-14.3-2.3","battery-v0.2","","""event"",""trial"",""time""
""blur"",""1"",""9231""
""focus"",""1"",""10850""
""fullscreenenter"",""1"",""10936""
","""event"",""trial"",""time""
""blur"",""1"",""9231""
","""event"",""trial"",""time""
""focus"",""1"",""10850""
","""event"",""trial"",""time""
""fullscreenenter"",""1"",""10936""
","
","","","-1","","","17","9414","4464","&#9826;","elianto","#f73b6a7A","-1","-1","1","0","[]","0","0","3","","","","","","","",""
"pit-trial","77","635042","0.0-2.0-14.3-3.3","battery-v0.2","","""event"",""trial"",""time""
""blur"",""1"",""9231""
""focus"",""1"",""10850""
""fullscreenenter"",""1"",""10936""
","""event"",""trial"",""time""
""blur"",""1"",""9231""
","""event"",""trial"",""time""
""focus"",""1"",""10850""
","""event"",""trial"",""time""
""fullscreenenter"",""1"",""10936""
","
","","","-1","","","17","9414","4464","&#9826;","elianto","#f73b6a7A","-1","-1","1","-10","[]","0","0","3","","","","","","","",""
"pit-trial","78","639907","0.0-2.0-14.3-4.3","battery-v0.2","","""event"",""trial"",""time""
""blur"",""1"",""9231""
""focus"",""1"",""10850""
""fullscreenenter"",""1"",""10936""
","""event"",""trial"",""time""
""blur"",""1"",""9231""
","""event"",""trial"",""time""
""focus"",""1"",""10850""
","""event"",""trial"",""time""
""fullscreenenter"",""1"",""10936""
","
","","","-1","","","17","9414","4464","&#9826;","elianto","#f73b6a7A","-1","-1","1","0","[]","0","0","3","","","","","","","",""
"call-function","79","639908","0.0-2.0-15.0","battery-v0.2","","""event"",""trial"",""time""
""blur"",""1"",""9231""
""focus"",""1"",""10850""
""fullscreenenter"",""1"",""10936""
","""event"",""trial"",""time""
""blur"",""1"",""9231""
","""event"",""trial"",""time""
""focus"",""1"",""10850""
","""event"",""trial"",""time""
""fullscreenenter"",""1"",""10936""
","
","","","","","","","","","","","","","","","","","","","","","","","","","","",""
"pit-instructions","80","666158","0.0-2.0-16.0","battery-v0.2","","""event"",""trial"",""time""
""blur"",""1"",""9231""
""focus"",""1"",""10850""
""fullscreenenter"",""1"",""10936""
","""event"",""trial"",""time""
""blur"",""1"",""9231""
","""event"",""trial"",""time""
""focus"",""1"",""10850""
","""event"",""trial"",""time""
""fullscreenenter"",""1"",""10936""
","
","","[{""page_index"":0,""viewing_time"":8101.5999999940395},{""page_index"":1,""viewing_time"":8224.800000011921},{""page_index"":2,""viewing_time"":5072.199999988079},{""page_index"":3,""viewing_time"":4849.20000000298}]","26248.5","","","","","","","","","","","","","","","","","","","","","","","",""
"pit-trial","81","669710","0.0-2.0-17.0-0.0","battery-v0.2","","""event"",""trial"",""time""
""blur"",""1"",""9231""
""focus"",""1"",""10850""
""fullscreenenter"",""1"",""10936""
","""event"",""trial"",""time""
""blur"",""1"",""9231""
","""event"",""trial"",""time""
""focus"",""1"",""10850""
","""event"",""trial"",""time""
""fullscreenenter"",""1"",""10936""
","
","","","685.1999999880791","","","17","9414","4464","&#9789;","elianto","#f73b6a7A"," "," ","1","0","[1537.5]","1","0","4","","","","","","","",""
"pit-trial","82","672911","0.0-2.0-17.0-1.0","battery-v0.2","","""event"",""trial"",""time""
""blur"",""1"",""9231""
""focus"",""1"",""10850""
""fullscreenenter"",""1"",""10936""
","""event"",""trial"",""time""
""blur"",""1"",""9231""
","""event"",""trial"",""time""
""focus"",""1"",""10850""
","""event"",""trial"",""time""
""fullscreenenter"",""1"",""10936""
","
","","","338.70000000298023","","","17","9414","4464","&#9789;","elianto","#f73b6a7A"," "," ","1","0","[1190.2000000029802]","1","0","4","","","","","","","",""
"pit-trial","83","675825","0.0-2.0-17.0-2.0","battery-v0.2","","""event"",""trial"",""time""
""blur"",""1"",""9231""
""focus"",""1"",""10850""
""fullscreenenter"",""1"",""10936""
","""event"",""trial"",""time""
""blur"",""1"",""9231""
","""event"",""trial"",""time""
""focus"",""1"",""10850""
","""event"",""trial"",""time""
""fullscreenenter"",""1"",""10936""
","
","","","47.8999999910593","","","17","9414","4464","&#9789;","elianto","#f73b6a7A"," "," ","1","0","[898]","1","0","4","","","","","","","",""
"pit-trial","84","678698","0.0-2.0-17.0-3.0","battery-v0.2","","""event"",""trial"",""time""
""blur"",""1"",""9231""
""focus"",""1"",""10850""
""fullscreenenter"",""1"",""10936""
","""event"",""trial"",""time""
""blur"",""1"",""9231""
","""event"",""trial"",""time""
""focus"",""1"",""10850""
","""event"",""trial"",""time""
""fullscreenenter"",""1"",""10936""
","
","","","6.100000008940697","","","17","9414","4464","&#9789;","elianto","#f73b6a7A"," "," ","1","-10","[859.3999999910593]","1","0","4","","","","","","","",""
"pit-trial","85","681916","0.0-2.0-17.0-4.0","battery-v0.2","","""event"",""trial"",""time""
""blur"",""1"",""9231""
""focus"",""1"",""10850""
""fullscreenenter"",""1"",""10936""
","""event"",""trial"",""time""
""blur"",""1"",""9231""
","""event"",""trial"",""time""
""focus"",""1"",""10850""
","""event"",""trial"",""time""
""fullscreenenter"",""1"",""10936""
","
","","","357.79999999701977","","","17","9414","4464","&#9789;","elianto","#f73b6a7A"," "," ","1","0","[735,1215.7999999970198]","2","0","4","","","","","","","",""
"pit-trial","86","686792","0.0-2.0-17.1-0.1","battery-v0.2","","""event"",""trial"",""time""
""blur"",""1"",""9231""
""focus"",""1"",""10850""
""fullscreenenter"",""1"",""10936""
","""event"",""trial"",""time""
""blur"",""1"",""9231""
","""event"",""trial"",""time""
""focus"",""1"",""10850""
","""event"",""trial"",""time""
""fullscreenenter"",""1"",""10936""
","
","","","-1","","","17","9414","4464","&#9789;","elianto","#f73b6a7A"," ","-1","0","-10","[830.4000000059605,4424.600000008941]","2","0","4","","","","","","","",""
"pit-trial","87","689749","0.0-2.0-17.1-1.1","battery-v0.2","","""event"",""trial"",""time""
""blur"",""1"",""9231""
""focus"",""1"",""10850""
""fullscreenenter"",""1"",""10936""
","""event"",""trial"",""time""
""blur"",""1"",""9231""
","""event"",""trial"",""time""
""focus"",""1"",""10850""
","""event"",""trial"",""time""
""fullscreenenter"",""1"",""10936""
","
","","","102.09999999403954","","","17","9414","4464","&#9789;","elianto","#f73b6a7A"," "," ","1","0","[953.2000000029802]","1","0","4","","","","","","","",""
"pit-trial","88","692800","0.0-2.0-17.1-2.1","battery-v0.2","","""event"",""trial"",""time""
""blur"",""1"",""9231""
""focus"",""1"",""10850""
""fullscreenenter"",""1"",""10936""
","""event"",""trial"",""time""
""blur"",""1"",""9231""
","""event"",""trial"",""time""
""focus"",""1"",""10850""
","""event"",""trial"",""time""
""fullscreenenter"",""1"",""10936""
","
","","","185.8999999910593","","","17","9414","4464","&#9789;","elianto","#f73b6a7A"," "," ","1","0","[1039.1000000089407]","1","0","4","","","","","","","",""
"pit-trial","89","695887","0.0-2.0-17.1-3.1","battery-v0.2","","""event"",""trial"",""time""
""blur"",""1"",""9231""
""focus"",""1"",""10850""
""fullscreenenter"",""1"",""10936""
","""event"",""trial"",""time""
""blur"",""1"",""9231""
","""event"",""trial"",""time""
""focus"",""1"",""10850""
","""event"",""trial"",""time""
""fullscreenenter"",""1"",""10936""
","
","","","217","","","17","9414","4464","&#9789;","elianto","#f73b6a7A"," "," ","1","-10","[1072.1000000089407]","1","0","4","","","","","","","",""
"pit-trial","90","698836","0.0-2.0-17.1-4.1","battery-v0.2","","""event"",""trial"",""time""
""blur"",""1"",""9231""
""focus"",""1"",""10850""
""fullscreenenter"",""1"",""10936""
","""event"",""trial"",""time""
""blur"",""1"",""9231""
","""event"",""trial"",""time""
""focus"",""1"",""10850""
","""event"",""trial"",""time""
""fullscreenenter"",""1"",""10936""
","
","","","91.70000000298023","","","17","9414","4464","&#9789;","elianto","#f73b6a7A"," "," ","1","0","[943]","1","0","4","","","","","","","",""
"pit-trial","91","703709","0.0-2.0-17.2-0.2","battery-v0.2","","""event"",""trial"",""time""
""blur"",""1"",""9231""
""focus"",""1"",""10850""
""fullscreenenter"",""1"",""10936""
","""event"",""trial"",""time""
""blur"",""1"",""9231""
","""event"",""trial"",""time""
""focus"",""1"",""10850""
","""event"",""trial"",""time""
""fullscreenenter"",""1"",""10936""
","
","","","-1","","","17","9414","4464","&#9789;","elianto","#f73b6a7A"," ","-1","0","-10","[825.7999999970198]","1","0","4","","","","","","","",""
"pit-trial","92","706800","0.0-2.0-17.2-1.2","battery-v0.2","","""event"",""trial"",""time""
""blur"",""1"",""9231""
""focus"",""1"",""10850""
""fullscreenenter"",""1"",""10936""
","""event"",""trial"",""time""
""blur"",""1"",""9231""
","""event"",""trial"",""time""
""focus"",""1"",""10850""
","""event"",""trial"",""time""
""fullscreenenter"",""1"",""10936""
","
","","","228.1000000089407","","","17","9414","4464","&#9789;","elianto","#f73b6a7A"," "," ","1","0","[1079.3999999910593]","1","0","4","","","","","","","",""
"pit-trial","93","709829","0.0-2.0-17.2-2.2","battery-v0.2","","""event"",""trial"",""time""
""blur"",""1"",""9231""
""focus"",""1"",""10850""
""fullscreenenter"",""1"",""10936""
","""event"",""trial"",""time""
""blur"",""1"",""9231""
","""event"",""trial"",""time""
""focus"",""1"",""10850""
","""event"",""trial"",""time""
""fullscreenenter"",""1"",""10936""
","
","","","171.5","","","17","9414","4464","&#9789;","elianto","#f73b6a7A"," "," ","1","0","[1024.7000000029802]","1","0","4","","","","","","","",""
"pit-trial","94","712770","0.0-2.0-17.2-3.2","battery-v0.2","","""event"",""trial"",""time""
""blur"",""1"",""9231""
""focus"",""1"",""10850""
""fullscreenenter"",""1"",""10936""
","""event"",""trial"",""time""
""blur"",""1"",""9231""
","""event"",""trial"",""time""
""focus"",""1"",""10850""
","""event"",""trial"",""time""
""fullscreenenter"",""1"",""10936""
","
","","","77.90000000596046","","","17","9414","4464","&#9789;","elianto","#f73b6a7A"," "," ","1","-10","[933.6000000089407]","1","0","4","","","","","","","",""
"pit-trial","95","715692","0.0-2.0-17.2-4.2","battery-v0.2","","""event"",""trial"",""time""
""blur"",""1"",""9231""
""focus"",""1"",""10850""
""fullscreenenter"",""1"",""10936""
","""event"",""trial"",""time""
""blur"",""1"",""9231""
","""event"",""trial"",""time""
""focus"",""1"",""10850""
","""event"",""trial"",""time""
""fullscreenenter"",""1"",""10936""
","
","","","63.900000005960464","","","17","9414","4464","&#9789;","elianto","#f73b6a7A"," "," ","1","0","[914.0999999940395]","1","0","4","","","","","","","",""
"pit-trial","96","718646","0.0-2.0-17.3-0.3","battery-v0.2","","""event"",""trial"",""time""
""blur"",""1"",""9231""
""focus"",""1"",""10850""
""fullscreenenter"",""1"",""10936""
","""event"",""trial"",""time""
""blur"",""1"",""9231""
","""event"",""trial"",""time""
""focus"",""1"",""10850""
","""event"",""trial"",""time""
""fullscreenenter"",""1"",""10936""
","
","","","96.29999999701977","","","17","9414","4464","&#9789;","elianto","#f73b6a7A"," "," ","1","0","[947.7000000029802]","1","0","4","","","","","","","",""
"pit-trial","97","721565","0.0-2.0-17.3-1.3","battery-v0.2","","""event"",""trial"",""time""
""blur"",""1"",""9231""
""focus"",""1"",""10850""
""fullscreenenter"",""1"",""10936""
","""event"",""trial"",""time""
""blur"",""1"",""9231""
","""event"",""trial"",""time""
""focus"",""1"",""10850""
","""event"",""trial"",""time""
""fullscreenenter"",""1"",""10936""
","
","","","54.20000000298023","","","17","9414","4464","&#9789;","elianto","#f73b6a7A"," "," ","1","0","[910.2999999970198]","1","0","4","","","","","","","",""
"pit-trial","98","724540","0.0-2.0-17.3-2.3","battery-v0.2","","""event"",""trial"",""time""
""blur"",""1"",""9231""
""focus"",""1"",""10850""
""fullscreenenter"",""1"",""10936""
","""event"",""trial"",""time""
""blur"",""1"",""9231""
","""event"",""trial"",""time""
""focus"",""1"",""10850""
","""event"",""trial"",""time""
""fullscreenenter"",""1"",""10936""
","
","","","116.80000001192093","","","17","9414","4464","&#9789;","elianto","#f73b6a7A"," "," ","1","0","[969.5]","1","0","4","","","","","","","",""
"pit-trial","99","727474","0.0-2.0-17.3-3.3","battery-v0.2","","""event"",""trial"",""time""
""blur"",""1"",""9231""
""focus"",""1"",""10850""
""fullscreenenter"",""1"",""10936""
","""event"",""trial"",""time""
""blur"",""1"",""9231""
","""event"",""trial"",""time""
""focus"",""1"",""10850""
","""event"",""trial"",""time""
""fullscreenenter"",""1"",""10936""
","
","","","74.40000000596046","","","17","9414","4464","&#9789;","elianto","#f73b6a7A"," "," ","1","-10","[925.7000000029802]","1","0","4","","","","","","","",""
"pit-trial","100","730389","0.0-2.0-17.3-4.3","battery-v0.2","","""event"",""trial"",""time""
""blur"",""1"",""9231""
""focus"",""1"",""10850""
""fullscreenenter"",""1"",""10936""
","""event"",""trial"",""time""
""blur"",""1"",""9231""
","""event"",""trial"",""time""
""focus"",""1"",""10850""
","""event"",""trial"",""time""
""fullscreenenter"",""1"",""10936""
","
","","","56.1000000089407","","","17","9414","4464","&#9789;","elianto","#f73b6a7A"," "," ","1","0","[906.9000000059605]","1","0","4","","","","","","","",""
"call-function","101","730394","0.0-2.0-18.0","battery-v0.2","","""event"",""trial"",""time""
""blur"",""1"",""9231""
""focus"",""1"",""10850""
""fullscreenenter"",""1"",""10936""
","""event"",""trial"",""time""
""blur"",""1"",""9231""
","""event"",""trial"",""time""
""focus"",""1"",""10850""
","""event"",""trial"",""time""
""fullscreenenter"",""1"",""10936""
","
","","","","","","","","","","","","","","","","","","","","","","","","","","",""
"pit-instructions","102","808445","0.0-2.0-19.0","battery-v0.2","","""event"",""trial"",""time""
""blur"",""1"",""9231""
""focus"",""1"",""10850""
""fullscreenenter"",""1"",""10936""
","""event"",""trial"",""time""
""blur"",""1"",""9231""
","""event"",""trial"",""time""
""focus"",""1"",""10850""
","""event"",""trial"",""time""
""fullscreenenter"",""1"",""10936""
","
","","[{""page_index"":0,""viewing_time"":7504.4000000059605},{""page_index"":1,""viewing_time"":6455.9000000059605},{""page_index"":2,""viewing_time"":16448},{""page_index"":3,""viewing_time"":8712.199999988079},{""page_index"":4,""viewing_time"":9287.60000000894},{""page_index"":5,""viewing_time"":9631.89999999106},{""page_index"":6,""viewing_time"":8960.300000011921},{""page_index"":7,""viewing_time"":6663.899999991059},{""page_index"":8,""viewing_time"":4384.20000000298}]","78049.30000001192","","","","","","","","","","","","","","","","","","","","","","","",""
"pit-comprehension","103","814542","0.0-2.0-20.0-0.0","battery-v0.2","","""event"",""trial"",""time""
""blur"",""1"",""9231""
""focus"",""1"",""10850""
""fullscreenenter"",""1"",""10936""
","""event"",""trial"",""time""
""blur"",""1"",""9231""
","""event"",""trial"",""time""
""focus"",""1"",""10850""
","""event"",""trial"",""time""
""fullscreenenter"",""1"",""10936""
","
","","","6088.100000008941","[""ENTER""]","1","17","9414","4464","","","","","","","","","","","","","","","","","","",""
"pit-instructions","104","821404","0.0-2.0-20.0-1.0","battery-v0.2","","""event"",""trial"",""time""
""blur"",""1"",""9231""
""focus"",""1"",""10850""
""fullscreenenter"",""1"",""10936""
","""event"",""trial"",""time""
""blur"",""1"",""9231""
","""event"",""trial"",""time""
""focus"",""1"",""10850""
","""event"",""trial"",""time""
""fullscreenenter"",""1"",""10936""
","
","","[{""page_index"":0,""viewing_time"":6654.899999991059}]","6655.899999991059","","","","","","","","","","","","","","","","","","","","","","","",""
"pit-instructions","105","829820","0.0-2.0-20.0-2.0-0.0","battery-v0.2","","""event"",""trial"",""time""
""blur"",""1"",""9231""
""focus"",""1"",""10850""
""fullscreenenter"",""1"",""10936""
","""event"",""trial"",""time""
""blur"",""1"",""9231""
","""event"",""trial"",""time""
""focus"",""1"",""10850""
","""event"",""trial"",""time""
""fullscreenenter"",""1"",""10936""
","
","","[{""page_index"":0,""viewing_time"":8410.40000000596}]","8411.300000011921","","","","","","","","","","","","","","","","","","","","","","","",""
"pit-comprehension","106","834429","0.0-2.0-20.1-0.1","battery-v0.2","","""event"",""trial"",""time""
""blur"",""1"",""9231""
""focus"",""1"",""10850""
""fullscreenenter"",""1"",""10936""
","""event"",""trial"",""time""
""blur"",""1"",""9231""
","""event"",""trial"",""time""
""focus"",""1"",""10850""
","""event"",""trial"",""time""
""fullscreenenter"",""1"",""10936""
","
","","","4602.5","[""SPACE""]","0","17","9414","4464","","","","","","","","","","","","","","","","","","",""
"pit-instructions","107","838092","0.0-2.0-20.1-1.1","battery-v0.2","","""event"",""trial"",""time""
""blur"",""1"",""9231""
""focus"",""1"",""10850""
""fullscreenenter"",""1"",""10936""
","""event"",""trial"",""time""
""blur"",""1"",""9231""
","""event"",""trial"",""time""
""focus"",""1"",""10850""
","""event"",""trial"",""time""
""fullscreenenter"",""1"",""10936""
","
","","[{""page_index"":0,""viewing_time"":3527}]","3527.7000000029802","","","","","","","","","","","","","","","","","","","","","","","",""
"pit-comprehension","108","844495","0.0-2.0-21.0-0.0","battery-v0.2","","""event"",""trial"",""time""
""blur"",""1"",""9231""
""focus"",""1"",""10850""
""fullscreenenter"",""1"",""10936""
","""event"",""trial"",""time""
""blur"",""1"",""9231""
","""event"",""trial"",""time""
""focus"",""1"",""10850""
","""event"",""trial"",""time""
""fullscreenenter"",""1"",""10936""
","
","","","6395.79999999702","[""10""]","0","17","9414","4464","","","","","","","","","","","","","","","","","","",""
"pit-instructions","109","848661","0.0-2.0-21.0-1.0","battery-v0.2","","""event"",""trial"",""time""
""blur"",""1"",""9231""
""focus"",""1"",""10850""
""fullscreenenter"",""1"",""10936""
","""event"",""trial"",""time""
""blur"",""1"",""9231""
","""event"",""trial"",""time""
""focus"",""1"",""10850""
","""event"",""trial"",""time""
""fullscreenenter"",""1"",""10936""
","
","","[{""page_index"":0,""viewing_time"":3971.4000000059605}]","3972","","","","","","","","","","","","","","","","","","","","","","","",""
"pit-comprehension","110","866524","0.0-2.0-22.0-0.0","battery-v0.2","","""event"",""trial"",""time""
""blur"",""1"",""9231""
""focus"",""1"",""10850""
""fullscreenenter"",""1"",""10936""
","""event"",""trial"",""time""
""blur"",""1"",""9231""
","""event"",""trial"",""time""
""focus"",""1"",""10850""
","""event"",""trial"",""time""
""fullscreenenter"",""1"",""10936""
","
","","","17855.29999999702","[""10""]","1","17","9414","4464","","","","","","","","","","","","","","","","","","",""
"pit-instructions","111","874642","0.0-2.0-22.0-1.0","battery-v0.2","","""event"",""trial"",""time""
""blur"",""1"",""9231""
""focus"",""1"",""10850""
""fullscreenenter"",""1"",""10936""
","""event"",""trial"",""time""
""blur"",""1"",""9231""
","""event"",""trial"",""time""
""focus"",""1"",""10850""
","""event"",""trial"",""time""
""fullscreenenter"",""1"",""10936""
","
","","[{""page_index"":0,""viewing_time"":7982.300000011921}]","7983.100000008941","","","","","","","","","","","","","","","","","","","","","","","",""
"pit-instructions","112","875802","0.0-2.0-22.0-2.0-0.0","battery-v0.2","","""event"",""trial"",""time""
""blur"",""1"",""9231""
""focus"",""1"",""10850""
""fullscreenenter"",""1"",""10936""
","""event"",""trial"",""time""
""blur"",""1"",""9231""
","""event"",""trial"",""time""
""focus"",""1"",""10850""
","""event"",""trial"",""time""
""fullscreenenter"",""1"",""10936""
","
","","[{""page_index"":0,""viewing_time"":1154.3999999910593}]","1155.0999999940395","","","","","","","","","","","","","","","","","","","","","","","",""
"pit-comprehension","113","886259","0.0-2.0-22.1-0.1","battery-v0.2","","""event"",""trial"",""time""
""blur"",""1"",""9231""
""focus"",""1"",""10850""
""fullscreenenter"",""1"",""10936""
","""event"",""trial"",""time""
""blur"",""1"",""9231""
","""event"",""trial"",""time""
""focus"",""1"",""10850""
","""event"",""trial"",""time""
""fullscreenenter"",""1"",""10936""
","
","","","10451.90000000596","[""-10""]","1","17","9414","4464","","","","","","","","","","","","","","","","","","",""
"pit-instructions","114","893082","0.0-2.0-22.1-1.1","battery-v0.2","","""event"",""trial"",""time""
""blur"",""1"",""9231""
""focus"",""1"",""10850""
""fullscreenenter"",""1"",""10936""
","""event"",""trial"",""time""
""blur"",""1"",""9231""
","""event"",""trial"",""time""
""focus"",""1"",""10850""
","""event"",""trial"",""time""
""fullscreenenter"",""1"",""10936""
","
","","[{""page_index"":0,""viewing_time"":6611.4000000059605}]","6612.20000000298","","","","","","","","","","","","","","","","","","","","","","","",""
"pit-instructions","115","896785","0.0-2.0-22.1-2.1-0.1","battery-v0.2","","""event"",""trial"",""time""
""blur"",""1"",""9231""
""focus"",""1"",""10850""
""fullscreenenter"",""1"",""10936""
","""event"",""trial"",""time""
""blur"",""1"",""9231""
","""event"",""trial"",""time""
""focus"",""1"",""10850""
","""event"",""trial"",""time""
""fullscreenenter"",""1"",""10936""
","
","","[{""page_index"":0,""viewing_time"":3699.2999999970198}]","3699.7999999970198","","","","","","","","","","","","","","","","","","","","","","","",""
"pit-comprehension","116","903707","0.0-2.0-22.2-0.2","battery-v0.2","","""event"",""trial"",""time""
""blur"",""1"",""9231""
""focus"",""1"",""10850""
""fullscreenenter"",""1"",""10936""
","""event"",""trial"",""time""
""blur"",""1"",""9231""
","""event"",""trial"",""time""
""focus"",""1"",""10850""
","""event"",""trial"",""time""
""fullscreenenter"",""1"",""10936""
","
","","","6915.5","[""-10""]","1","17","9414","4464","","","","","","","","","","","","","","","","","","",""
"pit-instructions","117","917469","0.0-2.0-22.2-1.2","battery-v0.2","","""event"",""trial"",""time""
""blur"",""1"",""9231""
""focus"",""1"",""10850""
""fullscreenenter"",""1"",""10936""
","""event"",""trial"",""time""
""blur"",""1"",""9231""
","""event"",""trial"",""time""
""focus"",""1"",""10850""
","""event"",""trial"",""time""
""fullscreenenter"",""1"",""10936""
","
","","[{""page_index"":0,""viewing_time"":13555.09999999404}]","13555.79999999702","","","","","","","","","","","","","","","","","","","","","","","",""
"pit-instructions","118","918421","0.0-2.0-22.2-2.2-0.2","battery-v0.2","","""event"",""trial"",""time""
""blur"",""1"",""9231""
""focus"",""1"",""10850""
""fullscreenenter"",""1"",""10936""
","""event"",""trial"",""time""
""blur"",""1"",""9231""
","""event"",""trial"",""time""
""focus"",""1"",""10850""
","""event"",""trial"",""time""
""fullscreenenter"",""1"",""10936""
","
","","[{""page_index"":0,""viewing_time"":947.7000000029802}]","948.4000000059605","","","","","","","","","","","","","","","","","","","","","","","",""
"pit-comprehension","119","928319","0.0-2.0-22.3-0.3","battery-v0.2","","""event"",""trial"",""time""
""blur"",""1"",""9231""
""focus"",""1"",""10850""
""fullscreenenter"",""1"",""10936""
","""event"",""trial"",""time""
""blur"",""1"",""9231""
","""event"",""trial"",""time""
""focus"",""1"",""10850""
","""event"",""trial"",""time""
""fullscreenenter"",""1"",""10936""
","
","","","9892.59999999404","[""10""]","1","17","9414","4464","","","","","","","","","","","","","","","","","","",""
"pit-instructions","120","935445","0.0-2.0-22.3-1.3","battery-v0.2","","""event"",""trial"",""time""
""blur"",""1"",""9231""
""focus"",""1"",""10850""
""fullscreenenter"",""1"",""10936""
","""event"",""trial"",""time""
""blur"",""1"",""9231""
","""event"",""trial"",""time""
""focus"",""1"",""10850""
","""event"",""trial"",""time""
""fullscreenenter"",""1"",""10936""
","
","","[{""page_index"":0,""viewing_time"":6921.20000000298}]","6921.79999999702","","","","","","","","","","","","","","","","","","","","","","","",""
"pit-instructions","121","936437","0.0-2.0-22.3-2.3-0.3","battery-v0.2","","""event"",""trial"",""time""
""blur"",""1"",""9231""
""focus"",""1"",""10850""
""fullscreenenter"",""1"",""10936""
","""event"",""trial"",""time""
""blur"",""1"",""9231""
","""event"",""trial"",""time""
""focus"",""1"",""10850""
","""event"",""trial"",""time""
""fullscreenenter"",""1"",""10936""
","
","","[{""page_index"":0,""viewing_time"":987.2999999970198}]","988.2000000029802","","","","","","","","","","","","","","","","","","","","","","","",""
"pit-comprehension","122","944249","0.0-2.0-22.4-0.4","battery-v0.2","","""event"",""trial"",""time""
""blur"",""1"",""9231""
""focus"",""1"",""10850""
""fullscreenenter"",""1"",""10936""
","""event"",""trial"",""time""
""blur"",""1"",""9231""
","""event"",""trial"",""time""
""focus"",""1"",""10850""
","""event"",""trial"",""time""
""fullscreenenter"",""1"",""10936""
","
","","","7804.20000000298","[""0""]","0","17","9414","4464","","","","","","","","","","","","","","","","","","",""
"pit-instructions","123","949398","0.0-2.0-22.4-1.4","battery-v0.2","","""event"",""trial"",""time""
""blur"",""1"",""9231""
""focus"",""1"",""10850""
""fullscreenenter"",""1"",""10936""
","""event"",""trial"",""time""
""blur"",""1"",""9231""
","""event"",""trial"",""time""
""focus"",""1"",""10850""
","""event"",""trial"",""time""
""fullscreenenter"",""1"",""10936""
","
","","[{""page_index"":0,""viewing_time"":4940.29999999702}]","4941.29999999702","","","","","","","","","","","","","","","","","","","","","","","",""
"pit-comprehension","124","960942","0.0-2.0-23.0-0.0","battery-v0.2","","""event"",""trial"",""time""
""blur"",""1"",""9231""
""focus"",""1"",""10850""
""fullscreenenter"",""1"",""10936""
","""event"",""trial"",""time""
""blur"",""1"",""9231""
","""event"",""trial"",""time""
""focus"",""1"",""10850""
","""event"",""trial"",""time""
""fullscreenenter"",""1"",""10936""
","
","","","11537","[""True""]","0","17","9414","4464","","","","","","","","","","","","","","","","","","",""
"pit-instructions","125","962900","0.0-2.0-23.0-1.0","battery-v0.2","","""event"",""trial"",""time""
""blur"",""1"",""9231""
""focus"",""1"",""10850""
""fullscreenenter"",""1"",""10936""
","""event"",""trial"",""time""
""blur"",""1"",""9231""
","""event"",""trial"",""time""
""focus"",""1"",""10850""
","""event"",""trial"",""time""
""fullscreenenter"",""1"",""10936""
","
","","[{""page_index"":0,""viewing_time"":1755.7000000029802}]","1756.5","","","","","","","","","","","","","","","","","","","","","","","",""
"pit-comprehension","126","972191","0.0-2.0-24.0-0.0","battery-v0.2","","""event"",""trial"",""time""
""blur"",""1"",""9231""
""focus"",""1"",""10850""
""fullscreenenter"",""1"",""10936""
","""event"",""trial"",""time""
""blur"",""1"",""9231""
","""event"",""trial"",""time""
""focus"",""1"",""10850""
","""event"",""trial"",""time""
""fullscreenenter"",""1"",""10936""
","
","","","9282.70000000298","[""True""]","0","17","9414","4464","","","","","","","","","","","","","","","","","","",""
"pit-instructions","127","973765","0.0-2.0-24.0-1.0","battery-v0.2","","""event"",""trial"",""time""
""blur"",""1"",""9231""
""focus"",""1"",""10850""
""fullscreenenter"",""1"",""10936""
","""event"",""trial"",""time""
""blur"",""1"",""9231""
","""event"",""trial"",""time""
""focus"",""1"",""10850""
","""event"",""trial"",""time""
""fullscreenenter"",""1"",""10936""
","
","","[{""page_index"":0,""viewing_time"":1447}]","1447.699999988079","","","","","","","","","","","","","","","","","","","","","","","",""
"pit-comprehension","128","986502","0.0-2.0-25.0-0.0","battery-v0.2","","""event"",""trial"",""time""
""blur"",""1"",""9231""
""focus"",""1"",""10850""
""fullscreenenter"",""1"",""10936""
","""event"",""trial"",""time""
""blur"",""1"",""9231""
","""event"",""trial"",""time""
""focus"",""1"",""10850""
","""event"",""trial"",""time""
""fullscreenenter"",""1"",""10936""
","
","","","12730","[""True""]","0","17","9414","4464","","","","","","","","","","","","","","","","","","",""
"pit-instructions","129","988069","0.0-2.0-25.0-1.0","battery-v0.2","","""event"",""trial"",""time""
""blur"",""1"",""9231""
""focus"",""1"",""10850""
""fullscreenenter"",""1"",""10936""
","""event"",""trial"",""time""
""blur"",""1"",""9231""
","""event"",""trial"",""time""
""focus"",""1"",""10850""
","""event"",""trial"",""time""
""fullscreenenter"",""1"",""10936""
","
","","[{""page_index"":0,""viewing_time"":1458.5999999940395}]","1459.2999999970198","","","","","","","","","","","","","","","","","","","","","","","",""
"pit-comprehension","130","994335","0.0-2.0-26.0-0.0","battery-v0.2","","""event"",""trial"",""time""
""blur"",""1"",""9231""
""focus"",""1"",""10850""
""fullscreenenter"",""1"",""10936""
","""event"",""trial"",""time""
""blur"",""1"",""9231""
","""event"",""trial"",""time""
""focus"",""1"",""10850""
","""event"",""trial"",""time""
""fullscreenenter"",""1"",""10936""
","
","","","6258","[""False""]","0","17","9414","4464","","","","","","","","","","","","","","","","","","",""
"pit-instructions","131","995773","0.0-2.0-26.0-1.0","battery-v0.2","","""event"",""trial"",""time""
""blur"",""1"",""9231""
""focus"",""1"",""10850""
""fullscreenenter"",""1"",""10936""
","""event"",""trial"",""time""
""blur"",""1"",""9231""
","""event"",""trial"",""time""
""focus"",""1"",""10850""
","""event"",""trial"",""time""
""fullscreenenter"",""1"",""10936""
","
","","[{""page_index"":0,""viewing_time"":1332.2999999970198}]","1332.8999999910593","","","","","","","","","","","","","","","","","","","","","","","",""
"pit-instructions","132","1014029","0.0-3.0","battery-v0.2","","""event"",""trial"",""time""
""blur"",""1"",""9231""
""focus"",""1"",""10850""
""fullscreenenter"",""1"",""10936""
","""event"",""trial"",""time""
""blur"",""1"",""9231""
","""event"",""trial"",""time""
""focus"",""1"",""10850""
","""event"",""trial"",""time""
""fullscreenenter"",""1"",""10936""
","
","","[{""page_index"":0,""viewing_time"":4794.4000000059605},{""page_index"":1,""viewing_time"":5223.899999991059},{""page_index"":2,""viewing_time"":8231.70000000298}]","18250.60000000894","","","","","","","","","","","","","","","","","","","","","","","",""
"pit-trial","133","1017406","0.0-4.0","battery-v0.2","","""event"",""trial"",""time""
""blur"",""1"",""9231""
""focus"",""1"",""10850""
""fullscreenenter"",""1"",""10936""
","""event"",""trial"",""time""
""blur"",""1"",""9231""
","""event"",""trial"",""time""
""focus"",""1"",""10850""
","""event"",""trial"",""time""
""fullscreenenter"",""1"",""10936""
","
","","","493.70000000298023","","","17","9414","4464","&#9730;","elianto","#3366ff99"," "," ","1","+10","[1345.0999999940395]","1","1","","","9414","1","1","1","win","go","0"
"pit-trial","134","1020841","0.0-5.0","battery-v0.2","","""event"",""trial"",""time""
""blur"",""1"",""9231""
""focus"",""1"",""10850""
""fullscreenenter"",""1"",""10936""
","""event"",""trial"",""time""
""blur"",""1"",""9231""
","""event"",""trial"",""time""
""focus"",""1"",""10850""
","""event"",""trial"",""time""
""fullscreenenter"",""1"",""10936""
","
","","","570.7999999970198","","","17","9414","4464","&#9733;","elianto","#3366ff99","-1"," ","0","0","[1421.2000000029802]","1","1","","","9414","2","2","2","win","no-go","0"
"pit-trial","135","1024073","0.0-6.0","battery-v0.2","","""event"",""trial"",""time""
""blur"",""1"",""9231""
""focus"",""1"",""10850""
""fullscreenenter"",""1"",""10936""
","""event"",""trial"",""time""
""blur"",""1"",""9231""
","""event"",""trial"",""time""
""focus"",""1"",""10850""
","""event"",""trial"",""time""
""fullscreenenter"",""1"",""10936""
","
","","","366.19999998807907","","","17","9414","4464","&#9728;","elianto","#f73b6a7A","-1"," ","0","0","[1221]","1","1","","","9414","3","0","4","lose","no-go","1"
"pit-trial","136","1027686","0.0-7.0","battery-v0.2","","""event"",""trial"",""time""
""blur"",""1"",""9231""
""focus"",""1"",""10850""
""fullscreenenter"",""1"",""10936""
","""event"",""trial"",""time""
""blur"",""1"",""9231""
","""event"",""trial"",""time""
""focus"",""1"",""10850""
","""event"",""trial"",""time""
""fullscreenenter"",""1"",""10936""
","
","","","738.2000000029802","","","17","9414","4464","&#9752;","elianto","#f73b6a7A"," "," ","1","0","[1591.9000000059605]","1","1","","","9414","4","3","3","lose","go","0"
"pit-trial","137","1032549","0.0-8.0","battery-v0.2","","""event"",""trial"",""time""
""blur"",""1"",""9231""
""focus"",""1"",""10850""
""fullscreenenter"",""1"",""10936""
","""event"",""trial"",""time""
""blur"",""1"",""9231""
","""event"",""trial"",""time""
""focus"",""1"",""10850""
","""event"",""trial"",""time""
""fullscreenenter"",""1"",""10936""
","
","","","-1","","","17","9414","4464","&#9752;","elianto","#f73b6a7A"," ","-1","0","-10","[]","0","1","","","9414","5","3","3","lose","go","0"
"pit-trial","138","1035949","0.0-9.0","battery-v0.2","","""event"",""trial"",""time""
""blur"",""1"",""9231""
""focus"",""1"",""10850""
""fullscreenenter"",""1"",""10936""
","""event"",""trial"",""time""
""blur"",""1"",""9231""
","""event"",""trial"",""time""
""focus"",""1"",""10850""
","""event"",""trial"",""time""
""fullscreenenter"",""1"",""10936""
","
","","","534.2999999970198","","","17","9414","4464","&#9728;","elianto","#f73b6a7A","-1"," ","0","0","[1390.7000000029802]","1","1","","","9414","6","0","4","lose","no-go","1"
"pit-trial","139","1039357","0.0-10.0","battery-v0.2","","""event"",""trial"",""time""
""blur"",""1"",""9231""
""focus"",""1"",""10850""
""fullscreenenter"",""1"",""10936""
","""event"",""trial"",""time""
""blur"",""1"",""9231""
","""event"",""trial"",""time""
""focus"",""1"",""10850""
","""event"",""trial"",""time""
""fullscreenenter"",""1"",""10936""
","
","","","539.2999999970198","","","17","9414","4464","&#9730;","elianto","#3366ff99"," "," ","1","+10","[1390.199999988079]","1","1","","","9414","7","1","1","win","go","0"
"pit-trial","140","1042968","0.0-11.0","battery-v0.2","","""event"",""trial"",""time""
""blur"",""1"",""9231""
""focus"",""1"",""10850""
""fullscreenenter"",""1"",""10936""
","""event"",""trial"",""time""
""blur"",""1"",""9231""
","""event"",""trial"",""time""
""focus"",""1"",""10850""
","""event"",""trial"",""time""
""fullscreenenter"",""1"",""10936""
","
","","","744.2000000029802","","","17","9414","4464","&#9733;","elianto","#3366ff99","-1"," ","0","0","[1597.5]","1","1","","","9414","8","2","2","win","no-go","0"
"pit-trial","141","1046622","0.0-12.0","battery-v0.2","","""event"",""trial"",""time""
""blur"",""1"",""9231""
""focus"",""1"",""10850""
""fullscreenenter"",""1"",""10936""
","""event"",""trial"",""time""
""blur"",""1"",""9231""
","""event"",""trial"",""time""
""focus"",""1"",""10850""
","""event"",""trial"",""time""
""fullscreenenter"",""1"",""10936""
","
","","","797.8999999910593","","","17","9414","4464","&#9730;","elianto","#3366ff99"," "," ","1","+10","[1651.7999999970198]","1","1","","","9414","9","1","1","win","go","0"
"pit-trial","142","1049993","0.0-13.0","battery-v0.2","","""event"",""trial"",""time""
""blur"",""1"",""9231""
""focus"",""1"",""10850""
""fullscreenenter"",""1"",""10936""
","""event"",""trial"",""time""
""blur"",""1"",""9231""
","""event"",""trial"",""time""
""focus"",""1"",""10850""
","""event"",""trial"",""time""
""fullscreenenter"",""1"",""10936""
","
","","","514.5","","","17","9414","4464","&#9728;","elianto","#f73b6a7A","-1"," ","0","-10","[1364.7000000029802]","1","1","","","9414","10","0","4","lose","no-go","0"
"pit-trial","143","1053385","0.0-14.0","battery-v0.2","","""event"",""trial"",""time""
""blur"",""1"",""9231""
""focus"",""1"",""10850""
""fullscreenenter"",""1"",""10936""
","""event"",""trial"",""time""
""blur"",""1"",""9231""
","""event"",""trial"",""time""
""focus"",""1"",""10850""
","""event"",""trial"",""time""
""fullscreenenter"",""1"",""10936""
","
","","","532.5999999940395","","","17","9414","4464","&#9733;","elianto","#3366ff99","-1"," ","0","0","[1383.2000000029802]","1","1","","","9414","11","2","2","win","no-go","0"
"pit-trial","144","1056760","0.0-15.0","battery-v0.2","","""event"",""trial"",""time""
""blur"",""1"",""9231""
""focus"",""1"",""10850""
""fullscreenenter"",""1"",""10936""
","""event"",""trial"",""time""
""blur"",""1"",""9231""
","""event"",""trial"",""time""
""focus"",""1"",""10850""
","""event"",""trial"",""time""
""fullscreenenter"",""1"",""10936""
","
","","","506.79999999701977","","","17","9414","4464","&#9752;","elianto","#f73b6a7A"," "," ","1","0","[1358]","1","1","","","9414","12","3","3","lose","go","0"
"pit-trial","145","1060150","0.0-16.0","battery-v0.2","","""event"",""trial"",""time""
""blur"",""1"",""9231""
""focus"",""1"",""10850""
""fullscreenenter"",""1"",""10936""
","""event"",""trial"",""time""
""blur"",""1"",""9231""
","""event"",""trial"",""time""
""focus"",""1"",""10850""
","""event"",""trial"",""time""
""fullscreenenter"",""1"",""10936""
","
","","","528.1000000089407","","","17","9414","4464","&#9728;","elianto","#f73b6a7A","-1"," ","0","-10","[1379.4000000059605]","1","1","","","9414","13","0","4","lose","no-go","0"
"pit-trial","146","1063536","0.0-17.0","battery-v0.2","","""event"",""trial"",""time""
""blur"",""1"",""9231""
""focus"",""1"",""10850""
""fullscreenenter"",""1"",""10936""
","""event"",""trial"",""time""
""blur"",""1"",""9231""
","""event"",""trial"",""time""
""focus"",""1"",""10850""
","""event"",""trial"",""time""
""fullscreenenter"",""1"",""10936""
","
","","","518.5","","","17","9414","4464","&#9733;","elianto","#3366ff99","-1"," ","0","+10","[1374]","1","1","","","9414","14","2","2","win","no-go","1"
"pit-trial","147","1067075","0.0-18.0","battery-v0.2","","""event"",""trial"",""time""
""blur"",""1"",""9231""
""focus"",""1"",""10850""
""fullscreenenter"",""1"",""10936""
","""event"",""trial"",""time""
""blur"",""1"",""9231""
","""event"",""trial"",""time""
""focus"",""1"",""10850""
","""event"",""trial"",""time""
""fullscreenenter"",""1"",""10936""
","
","","","676","","","17","9414","4464","&#9730;","elianto","#3366ff99"," "," ","1","+10","[1526.5999999940395]","1","1","","","9414","15","1","1","win","go","0"
"pit-trial","148","1071934","0.0-19.0","battery-v0.2","","""event"",""trial"",""time""
""blur"",""1"",""9231""
""focus"",""1"",""10850""
""fullscreenenter"",""1"",""10936""
","""event"",""trial"",""time""
""blur"",""1"",""9231""
","""event"",""trial"",""time""
""focus"",""1"",""10850""
","""event"",""trial"",""time""
""fullscreenenter"",""1"",""10936""
","
","","","-1","","","17","9414","4464","&#9752;","elianto","#f73b6a7A"," ","-1","0","-10","[]","0","1","","","9414","16","3","3","lose","go","0"
"pit-trial","149","1075431","0.0-20.0","battery-v0.2","","""event"",""trial"",""time""
""blur"",""1"",""9231""
""focus"",""1"",""10850""
""fullscreenenter"",""1"",""10936""
","""event"",""trial"",""time""
""blur"",""1"",""9231""
","""event"",""trial"",""time""
""focus"",""1"",""10850""
","""event"",""trial"",""time""
""fullscreenenter"",""1"",""10936""
","
","","","638.1999999880791","","","17","9414","4464","&#9730;","elianto","#3366ff99"," "," ","1","0","[1490.6000000089407]","1","1","","","9414","17","1","1","win","go","1"
"pit-trial","150","1080308","0.0-21.0","battery-v0.2","","""event"",""trial"",""time""
""blur"",""1"",""9231""
""focus"",""1"",""10850""
""fullscreenenter"",""1"",""10936""
","""event"",""trial"",""time""
""blur"",""1"",""9231""
","""event"",""trial"",""time""
""focus"",""1"",""10850""
","""event"",""trial"",""time""
""fullscreenenter"",""1"",""10936""
","
","","","-1","","","17","9414","4464","&#9728;","elianto","#f73b6a7A","-1","-1","1","0","[]","0","1","","","9414","18","0","4","lose","no-go","0"
"pit-trial","151","1085177","0.0-22.0","battery-v0.2","","""event"",""trial"",""time""
""blur"",""1"",""9231""
""focus"",""1"",""10850""
""fullscreenenter"",""1"",""10936""
","""event"",""trial"",""time""
""blur"",""1"",""9231""
","""event"",""trial"",""time""
""focus"",""1"",""10850""
","""event"",""trial"",""time""
""fullscreenenter"",""1"",""10936""
","
","","","-1","","","17","9414","4464","&#9752;","elianto","#f73b6a7A"," ","-1","0","-10","[]","0","1","","","9414","19","3","3","lose","go","0"
"pit-trial","152","1088646","0.0-23.0","battery-v0.2","","""event"",""trial"",""time""
""blur"",""1"",""9231""
""focus"",""1"",""10850""
""fullscreenenter"",""1"",""10936""
","""event"",""trial"",""time""
""blur"",""1"",""9231""
","""event"",""trial"",""time""
""focus"",""1"",""10850""
","""event"",""trial"",""time""
""fullscreenenter"",""1"",""10936""
","
","","","602","","","17","9414","4464","&#9733;","elianto","#3366ff99","-1"," ","0","0","[1454.5]","1","1","","","9414","20","2","2","win","no-go","0"
"pit-instructions","153","1105035","0.0-24.0","battery-v0.2","","""event"",""trial"",""time""
""blur"",""1"",""9231""
""focus"",""1"",""10850""
""fullscreenenter"",""1"",""10936""
","""event"",""trial"",""time""
""blur"",""1"",""9231""
","""event"",""trial"",""time""
""focus"",""1"",""10850""
","""event"",""trial"",""time""
""fullscreenenter"",""1"",""10936""
","
","","[{""page_index"":0,""viewing_time"":6946.5999999940395},{""page_index"":1,""viewing_time"":9440}]","16387.29999999702","","","","","","","","","","","","","","","","","","","","","","","",""
"pit-trial","154","1109901","0.0-25.0","battery-v0.2","","""event"",""trial"",""time""
""blur"",""1"",""9231""
""focus"",""1"",""10850""
""fullscreenenter"",""1"",""10936""
","""event"",""trial"",""time""
""blur"",""1"",""9231""
","""event"",""trial"",""time""
""focus"",""1"",""10850""
","""event"",""trial"",""time""
""fullscreenenter"",""1"",""10936""
","
","","","-1","","","17","9414","4464","b","elianto","#f73b6a7A"," ","-1","0","-10","[]","0","2","","","9414","21","3","3","lose","go","0"
"pit-trial","155","1114780","0.0-26.0","battery-v0.2","","""event"",""trial"",""time""
""blur"",""1"",""9231""
""focus"",""1"",""10850""
""fullscreenenter"",""1"",""10936""
","""event"",""trial"",""time""
""blur"",""1"",""9231""
","""event"",""trial"",""time""
""focus"",""1"",""10850""
","""event"",""trial"",""time""
""fullscreenenter"",""1"",""10936""
","
","","","-1","","","17","9414","4464","t","elianto","#f73b6a7A","-1","-1","1","-10","[]","0","2","","","9414","22","2","4","lose","no-go","1"
"pit-trial","156","1119659","0.0-27.0","battery-v0.2","","""event"",""trial"",""time""
""blur"",""1"",""9231""
""focus"",""1"",""10850""
""fullscreenenter"",""1"",""10936""
","""event"",""trial"",""time""
""blur"",""1"",""9231""
","""event"",""trial"",""time""
""focus"",""1"",""10850""
","""event"",""trial"",""time""
""fullscreenenter"",""1"",""10936""
","
","","","-1","","","17","9414","4464","n","elianto","#f73b6a7A","-1","-1","1","0","[]","0","2","","","9414","23","0","4","lose","no-go","0"
"pit-trial","157","1123002","0.0-28.0","battery-v0.2","","""event"",""trial"",""time""
""blur"",""1"",""9231""
""focus"",""1"",""10850""
""fullscreenenter"",""1"",""10936""
","""event"",""trial"",""time""
""blur"",""1"",""9231""
","""event"",""trial"",""time""
""focus"",""1"",""10850""
","""event"",""trial"",""time""
""fullscreenenter"",""1"",""10936""
","
","","","473.70000000298023","","","17","9414","4464","f","elianto","#3366ff99"," "," ","1","0","[1331.7999999970198]","1","2","","","9414","24","1","1","win","go","1"
"pit-trial","158","1126391","0.0-29.0","battery-v0.2","","""event"",""trial"",""time""
""blur"",""1"",""9231""
""focus"",""1"",""10850""
""fullscreenenter"",""1"",""10936""
","""event"",""trial"",""time""
""blur"",""1"",""9231""
","""event"",""trial"",""time""
""focus"",""1"",""10850""
","""event"",""trial"",""time""
""fullscreenenter"",""1"",""10936""
","
","","","522.3999999910593","","","17","9414","4464","f","elianto","#3366ff99"," "," ","1","+10","[1375.5,3319.300000011921]","2","2","","","9414","25","1","1","win","go","0"
"pit-trial","159","1131265","0.0-30.0","battery-v0.2","","""event"",""trial"",""time""
""blur"",""1"",""9231""
""focus"",""1"",""10850""
""fullscreenenter"",""1"",""10936""
","""event"",""trial"",""time""
""blur"",""1"",""9231""
","""event"",""trial"",""time""
""focus"",""1"",""10850""
","""event"",""trial"",""time""
""fullscreenenter"",""1"",""10936""
","
","","","-1","","","17","9414","4464","b","elianto","#f73b6a7A"," ","-1","0","-10","[]","0","2","","","9414","26","3","3","lose","go","0"
"pit-trial","160","1136125","0.0-31.0","battery-v0.2","","""event"",""trial"",""time""
""blur"",""1"",""9231""
""focus"",""1"",""10850""
""fullscreenenter"",""1"",""10936""
","""event"",""trial"",""time""
""blur"",""1"",""9231""
","""event"",""trial"",""time""
""focus"",""1"",""10850""
","""event"",""trial"",""time""
""fullscreenenter"",""1"",""10936""
","
","","","-1","","","17","9414","4464","n","elianto","#f73b6a7A","-1","-1","1","0","[]","0","2","","","9414","27","0","4","lose","no-go","0"
"pit-trial","161","1140997","0.0-32.0","battery-v0.2","","""event"",""trial"",""time""
""blur"",""1"",""9231""
""focus"",""1"",""10850""
""fullscreenenter"",""1"",""10936""
","""event"",""trial"",""time""
""blur"",""1"",""9231""
","""event"",""trial"",""time""
""focus"",""1"",""10850""
","""event"",""trial"",""time""
""fullscreenenter"",""1"",""10936""
","
","","","-1","","","17","9414","4464","t","elianto","#f73b6a7A","-1","-1","1","0","[]","0","2","","","9414","28","2","4","lose","no-go","0"
"pit-trial","162","1145868","0.0-33.0","battery-v0.2","","""event"",""trial"",""time""
""blur"",""1"",""9231""
""focus"",""1"",""10850""
""fullscreenenter"",""1"",""10936""
","""event"",""trial"",""time""
""blur"",""1"",""9231""
","""event"",""trial"",""time""
""focus"",""1"",""10850""
","""event"",""trial"",""time""
""fullscreenenter"",""1"",""10936""
","
","","","-1","","","17","9414","4464","b","elianto","#f73b6a7A"," ","-1","0","-10","[]","0","2","","","9414","29","3","3","lose","go","0"
"pit-trial","163","1150726","0.0-34.0","battery-v0.2","","""event"",""trial"",""time""
""blur"",""1"",""9231""
""focus"",""1"",""10850""
""fullscreenenter"",""1"",""10936""
","""event"",""trial"",""time""
""blur"",""1"",""9231""
","""event"",""trial"",""time""
""focus"",""1"",""10850""
","""event"",""trial"",""time""
""fullscreenenter"",""1"",""10936""
","
","","","-1","","","17","9414","4464","t","elianto","#f73b6a7A","-1","-1","1","0","[]","0","2","","","9414","30","2","4","lose","no-go","0"
"pit-trial","164","1154078","0.0-35.0","battery-v0.2","","""event"",""trial"",""time""
""blur"",""1"",""9231""
""focus"",""1"",""10850""
""fullscreenenter"",""1"",""10936""
","""event"",""trial"",""time""
""blur"",""1"",""9231""
","""event"",""trial"",""time""
""focus"",""1"",""10850""
","""event"",""trial"",""time""
""fullscreenenter"",""1"",""10936""
","
","","","489.29999999701977","","","17","9414","4464","n","elianto","#f73b6a7A","-1"," ","0","-10","[1344.8999999910593]","1","2","","","9414","31","0","4","lose","no-go","0"
"pit-trial","165","1157354","0.0-36.0","battery-v0.2","","""event"",""trial"",""time""
""blur"",""1"",""9231""
""focus"",""1"",""10850""
""fullscreenenter"",""1"",""10936""
","""event"",""trial"",""time""
""blur"",""1"",""9231""
","""event"",""trial"",""time""
""focus"",""1"",""10850""
","""event"",""trial"",""time""
""fullscreenenter"",""1"",""10936""
","
","","","413","","","17","9414","4464","f","elianto","#3366ff99"," "," ","1","+10","[1263.1000000089407]","1","2","","","9414","32","1","1","win","go","0"
"pit-trial","166","1160864","0.0-37.0","battery-v0.2","","""event"",""trial"",""time""
""blur"",""1"",""9231""
""focus"",""1"",""10850""
""fullscreenenter"",""1"",""10936""
","""event"",""trial"",""time""
""blur"",""1"",""9231""
","""event"",""trial"",""time""
""focus"",""1"",""10850""
","""event"",""trial"",""time""
""fullscreenenter"",""1"",""10936""
","
","","","651.9000000059605","","","17","9414","4464","n","elianto","#f73b6a7A","-1"," ","0","-10","[449.3999999910593,1504.5]","2","2","","","9414","33","0","4","lose","no-go","0"
"pit-trial","167","1164278","0.0-38.0","battery-v0.2","","""event"",""trial"",""time""
""blur"",""1"",""9231""
""focus"",""1"",""10850""
""fullscreenenter"",""1"",""10936""
","""event"",""trial"",""time""
""blur"",""1"",""9231""
","""event"",""trial"",""time""
""focus"",""1"",""10850""
","""event"",""trial"",""time""
""fullscreenenter"",""1"",""10936""
","
","","","556.7000000029802","","","17","9414","4464","f","elianto","#3366ff99"," "," ","1","0","[1408.2999999970198]","1","2","","","9414","34","1","1","win","go","1"
"pit-trial","168","1167570","0.0-39.0","battery-v0.2","","""event"",""trial"",""time""
""blur"",""1"",""9231""
""focus"",""1"",""10850""
""fullscreenenter"",""1"",""10936""
","""event"",""trial"",""time""
""blur"",""1"",""9231""
","""event"",""trial"",""time""
""focus"",""1"",""10850""
","""event"",""trial"",""time""
""fullscreenenter"",""1"",""10936""
","
","","","428.90000000596046","","","17","9414","4464","b","elianto","#f73b6a7A"," "," ","1","0","[1285.300000011921]","1","2","","","9414","35","3","3","lose","go","0"
"pit-trial","169","1170950","0.0-40.0","battery-v0.2","","""event"",""trial"",""time""
""blur"",""1"",""9231""
""focus"",""1"",""10850""
""fullscreenenter"",""1"",""10936""
","""event"",""trial"",""time""
""blur"",""1"",""9231""
","""event"",""trial"",""time""
""focus"",""1"",""10850""
","""event"",""trial"",""time""
""fullscreenenter"",""1"",""10936""
","
","","","522","","","17","9414","4464","t","elianto","#f73b6a7A","-1"," ","0","-10","[1373]","1","2","","","9414","36","2","4","lose","no-go","0"
"pit-trial","170","1174461","0.0-41.0","battery-v0.2","","""event"",""trial"",""time""
""blur"",""1"",""9231""
""focus"",""1"",""10850""
""fullscreenenter"",""1"",""10936""
","""event"",""trial"",""time""
""blur"",""1"",""9231""
","""event"",""trial"",""time""
""focus"",""1"",""10850""
","""event"",""trial"",""time""
""fullscreenenter"",""1"",""10936""
","
","","","642.5","","","17","9414","4464","n","elianto","#f73b6a7A","-1"," ","0","-10","[1499]","1","2","","","9414","37","0","4","lose","no-go","0"
"pit-trial","171","1177958","0.0-42.0","battery-v0.2","","""event"",""trial"",""time""
""blur"",""1"",""9231""
""focus"",""1"",""10850""
""fullscreenenter"",""1"",""10936""
","""event"",""trial"",""time""
""blur"",""1"",""9231""
","""event"",""trial"",""time""
""focus"",""1"",""10850""
","""event"",""trial"",""time""
""fullscreenenter"",""1"",""10936""
","
","","","631.5","","","17","9414","4464","t","elianto","#f73b6a7A","-1"," ","0","-10","[1485]","1","2","","","9414","38","2","4","lose","no-go","0"
"pit-trial","172","1181483","0.0-43.0","battery-v0.2","","""event"",""trial"",""time""
""blur"",""1"",""9231""
""focus"",""1"",""10850""
""fullscreenenter"",""1"",""10936""
","""event"",""trial"",""time""
""blur"",""1"",""9231""
","""event"",""trial"",""time""
""focus"",""1"",""10850""
","""event"",""trial"",""time""
""fullscreenenter"",""1"",""10936""
","
","","","667","","","17","9414","4464","f","elianto","#3366ff99"," "," ","1","+10","[1518.4000000059605]","1","2","","","9414","39","1","1","win","go","0"
"pit-trial","173","1185444","0.0-44.0","battery-v0.2","","""event"",""trial"",""time""
""blur"",""1"",""9231""
""focus"",""1"",""10850""
""fullscreenenter"",""1"",""10936""
","""event"",""trial"",""time""
""blur"",""1"",""9231""
","""event"",""trial"",""time""
""focus"",""1"",""10850""
","""event"",""trial"",""time""
""fullscreenenter"",""1"",""10936""
","
","","","1096","","","17","9414","4464","b","elianto","#f73b6a7A"," "," ","1","0","[1950.2999999970198]","1","2","","","9414","40","3","3","lose","go","0"
"pit-trial","174","1190311","0.0-45.0","battery-v0.2","","""event"",""trial"",""time""
""blur"",""1"",""9231""
""focus"",""1"",""10850""
""fullscreenenter"",""1"",""10936""
","""event"",""trial"",""time""
""blur"",""1"",""9231""
","""event"",""trial"",""time""
""focus"",""1"",""10850""
","""event"",""trial"",""time""
""fullscreenenter"",""1"",""10936""
","
","","","-1","","","17","9414","4464","n","elianto","#f73b6a7A","-1","-1","1","0","[]","0","2","","","9414","41","0","4","lose","no-go","0"
"pit-trial","175","1195175","0.0-46.0","battery-v0.2","","""event"",""trial"",""time""
""blur"",""1"",""9231""
""focus"",""1"",""10850""
""fullscreenenter"",""1"",""10936""
","""event"",""trial"",""time""
""blur"",""1"",""9231""
","""event"",""trial"",""time""
""focus"",""1"",""10850""
","""event"",""trial"",""time""
""fullscreenenter"",""1"",""10936""
","
","","","-1","","","17","9414","4464","t","elianto","#f73b6a7A","-1","-1","1","0","[]","0","2","","","9414","42","2","4","lose","no-go","0"
"pit-trial","176","1198583","0.0-47.0","battery-v0.2","","""event"",""trial"",""time""
""blur"",""1"",""9231""
""focus"",""1"",""10850""
""fullscreenenter"",""1"",""10936""
","""event"",""trial"",""time""
""blur"",""1"",""9231""
","""event"",""trial"",""time""
""focus"",""1"",""10850""
","""event"",""trial"",""time""
""fullscreenenter"",""1"",""10936""
","
","","","542.7000000029802","","","17","9414","4464","f","elianto","#3366ff99"," "," ","1","+10","[1398.9000000059605]","1","2","","","9414","43","1","1","win","go","0"
"pit-trial","177","1202512","0.0-48.0","battery-v0.2","","""event"",""trial"",""time""
""blur"",""1"",""9231""
""focus"",""1"",""10850""
""fullscreenenter"",""1"",""10936""
","""event"",""trial"",""time""
""blur"",""1"",""9231""
","""event"",""trial"",""time""
""focus"",""1"",""10850""
","""event"",""trial"",""time""
""fullscreenenter"",""1"",""10936""
","
","","","1068","","","17","9414","4464","b","elianto","#f73b6a7A"," "," ","1","0","[1921.2000000029802]","1","2","","","9414","44","3","3","lose","go","0"
"pit-trial","178","1206081","0.0-49.0","battery-v0.2","","""event"",""trial"",""time""
""blur"",""1"",""9231""
""focus"",""1"",""10850""
""fullscreenenter"",""1"",""10936""
","""event"",""trial"",""time""
""blur"",""1"",""9231""
","""event"",""trial"",""time""
""focus"",""1"",""10850""
","""event"",""trial"",""time""
""fullscreenenter"",""1"",""10936""
","
","","","705.7000000029802","","","17","9414","4464","c","elianto","#3366ff99","-1"," ","0","0","[1557.5]","1","2","","","9414","45","4","2","win","no-go","0"
"pit-trial","179","1210212","0.0-50.0","battery-v0.2","","""event"",""trial"",""time""
""blur"",""1"",""9231""
""focus"",""1"",""10850""
""fullscreenenter"",""1"",""10936""
","""event"",""trial"",""time""
""blur"",""1"",""9231""
","""event"",""trial"",""time""
""focus"",""1"",""10850""
","""event"",""trial"",""time""
""fullscreenenter"",""1"",""10936""
","
","","","1261.3999999910593","","","17","9414","4464","n","elianto","#f73b6a7A","-1"," ","0","-10","[2115.5]","1","2","","","9414","46","0","4","lose","no-go","0"
"pit-trial","180","1213653","0.0-51.0","battery-v0.2","","""event"",""trial"",""time""
""blur"",""1"",""9231""
""focus"",""1"",""10850""
""fullscreenenter"",""1"",""10936""
","""event"",""trial"",""time""
""blur"",""1"",""9231""
","""event"",""trial"",""time""
""focus"",""1"",""10850""
","""event"",""trial"",""time""
""fullscreenenter"",""1"",""10936""
","
","","","579.2999999970198","","","17","9414","4464","t","elianto","#f73b6a7A","-1"," ","0","-10","[1431.9000000059605]","1","2","","","9414","47","2","4","lose","no-go","0"
"pit-trial","181","1218325","0.0-52.0","battery-v0.2","","""event"",""trial"",""time""
""blur"",""1"",""9231""
""focus"",""1"",""10850""
""fullscreenenter"",""1"",""10936""
","""event"",""trial"",""time""
""blur"",""1"",""9231""
","""event"",""trial"",""time""
""focus"",""1"",""10850""
","""event"",""trial"",""time""
""fullscreenenter"",""1"",""10936""
","
","","","1817.2000000029802","","","17","9414","4464","b","elianto","#f73b6a7A"," "," ","1","0","[2672.300000011921]","1","2","","","9414","48","3","3","lose","go","0"
"pit-trial","182","1221732","0.0-53.0","battery-v0.2","","""event"",""trial"",""time""
""blur"",""1"",""9231""
""focus"",""1"",""10850""
""fullscreenenter"",""1"",""10936""
","""event"",""trial"",""time""
""blur"",""1"",""9231""
","""event"",""trial"",""time""
""focus"",""1"",""10850""
","""event"",""trial"",""time""
""fullscreenenter"",""1"",""10936""
","
","","","538.4000000059605","","","17","9414","4464","c","elianto","#3366ff99","-1"," ","0","0","[1393.3999999910593,3277.3999999910593]","2","2","","","9414","49","4","2","win","no-go","0"
"pit-trial","183","1225187","0.0-54.0","battery-v0.2","","""event"",""trial"",""time""
""blur"",""1"",""9231""
""focus"",""1"",""10850""
""fullscreenenter"",""1"",""10936""
","""event"",""trial"",""time""
""blur"",""1"",""9231""
","""event"",""trial"",""time""
""focus"",""1"",""10850""
","""event"",""trial"",""time""
""fullscreenenter"",""1"",""10936""
","
","","","597.5","","","17","9414","4464","f","elianto","#3366ff99"," "," ","1","+10","[1447.5,3205]","2","2","","","9414","50","1","1","win","go","0"
"pit-trial","184","1230047","0.0-55.0","battery-v0.2","","""event"",""trial"",""time""
""blur"",""1"",""9231""
""focus"",""1"",""10850""
""fullscreenenter"",""1"",""10936""
","""event"",""trial"",""time""
""blur"",""1"",""9231""
","""event"",""trial"",""time""
""focus"",""1"",""10850""
","""event"",""trial"",""time""
""fullscreenenter"",""1"",""10936""
","
","","","-1","","","17","9414","4464","n","elianto","#f73b6a7A","-1","-1","1","0","[]","0","2","","","9414","51","0","4","lose","no-go","0"
"pit-trial","185","1234915","0.0-56.0","battery-v0.2","","""event"",""trial"",""time""
""blur"",""1"",""9231""
""focus"",""1"",""10850""
