"trial_type","trial_index","time_elapsed","internal_node_id","task_version","subject_id","interactions","blur_events","focus_events","fullscreenenter_events","fullscreenexit_events","success","view_history","rt","responses","num_errors","age","subject","participantId","rune","rune_set","hex","correct","choice","accuracy","outcome","keys","total_keys","block","practice","value","sub","trial","stimulus","robot","valence","action","sham"
"pavlovia","0","6","0.0-0.0","battery-v0.2","","""event"",""trial"",""time""
""fullscreenenter"",""1"",""2234""
","
","
","""event"",""trial"",""time""
""fullscreenenter"",""1"",""2234""
","
","","","","","","","","","","","","","","","","","","","","","","","","","","",""
"fullscreen","1","3215","0.0-1.0","battery-v0.2","","""event"",""trial"",""time""
""fullscreenenter"",""1"",""2234""
","
","
","""event"",""trial"",""time""
""fullscreenenter"",""1"",""2234""
","
","true","","","","","","","","","","","","","","","","","","","","","","","","","",""
"pit-instructions","2","7174","0.0-2.0-0.0","battery-v0.2","","""event"",""trial"",""time""
""fullscreenenter"",""1"",""2234""
","
","
","""event"",""trial"",""time""
""fullscreenenter"",""1"",""2234""
","
","","[{""page_index"":0,""viewing_time"":3956}]","3956.199999988079","","","","","","","","","","","","","","","","","","","","","","","",""
"pit-comprehension","3","11170","0.0-2.0-1.0-0.0","battery-v0.2","","""event"",""trial"",""time""
""fullscreenenter"",""1"",""2234""
","
","
","""event"",""trial"",""time""
""fullscreenenter"",""1"",""2234""
","
","","","3994.2999999821186","[""shark""]","0","11","13299","5712","","","","","","","","","","","","","","","","","","",""
"pit-instructions","4","12398","0.0-2.0-1.0-1.0","battery-v0.2","","""event"",""trial"",""time""
""fullscreenenter"",""1"",""2234""
","
","
","""event"",""trial"",""time""
""fullscreenenter"",""1"",""2234""
","
","","[{""page_index"":0,""viewing_time"":1220.8999999761581}]","1221.199999988079","","","","","","","","","","","","","","","","","","","","","","","",""
"pit-comprehension","5","15444","0.0-2.0-2.0-0.0","battery-v0.2","","""event"",""trial"",""time""
""fullscreenenter"",""1"",""2234""
","
","
","""event"",""trial"",""time""
""fullscreenenter"",""1"",""2234""
","
","","","3044.5","[""tiger""]","0","11","13299","5712","","","","","","","","","","","","","","","","","","",""
"pit-instructions","6","17220","0.0-2.0-2.0-1.0","battery-v0.2","","""event"",""trial"",""time""
""fullscreenenter"",""1"",""2234""
","
","
","""event"",""trial"",""time""
""fullscreenenter"",""1"",""2234""
","
","","[{""page_index"":0,""viewing_time"":1773.9000000059605}]","1774.0999999940395","","","","","","","","","","","","","","","","","","","","","","","",""
"pit-instructions","7","291788","0.0-2.0-3.0","battery-v0.2","","""event"",""trial"",""time""
""fullscreenenter"",""1"",""2234""
","
","
","""event"",""trial"",""time""
""fullscreenenter"",""1"",""2234""
","
","","[{""page_index"":0,""viewing_time"":14350.5},{""page_index"":1,""viewing_time"":15221.699999988079},{""page_index"":2,""viewing_time"":7732.0999999940395},{""page_index"":3,""viewing_time"":48404},{""page_index"":4,""viewing_time"":6252},{""page_index"":5,""viewing_time"":5422.300000011921},{""page_index"":6,""viewing_time"":6433.5999999940395},{""page_index"":7,""viewing_time"":6163.9000000059605},{""page_index"":8,""viewing_time"":9044},{""page_index"":9,""viewing_time"":10128},{""page_index"":10,""viewing_time"":97496.69999998808},{""page_index"":9,""viewing_time"":11221.200000017881},{""page_index"":10,""viewing_time"":7557.799999982119},{""page_index"":11,""viewing_time"":12660.100000023842},{""page_index"":12,""viewing_time"":12408},{""page_index"":13,""viewing_time"":4072}]","274568.1999999881","","","","","","","","","","","","","","","","","","","","","","","",""
"pit-trial","8","296449","0.0-2.0-4.0-0.0","battery-v0.2","","""event"",""trial"",""time""
""fullscreenenter"",""1"",""2234""
","
","
","""event"",""trial"",""time""
""fullscreenenter"",""1"",""2234""
","
","","","1794.0999999940395","","","11","13299","5712","&#9784;","elianto","#FFFFF080"," "," ","1","&#10004","[2644.800000011921]","1","0","0","","","","","","","",""
"pit-trial","9","299902","0.0-2.0-4.1-0.1","battery-v0.2","","""event"",""trial"",""time""
""fullscreenenter"",""1"",""2234""
","
","
","""event"",""trial"",""time""
""fullscreenenter"",""1"",""2234""
","
","","","589.2999999821186","","","11","13299","5712","&#9784;","elianto","#FFFFF080"," "," ","1","&#10004","[1440.2999999821186]","1","0","0","","","","","","","",""
"pit-trial","10","303306","0.0-2.0-4.2-0.2","battery-v0.2","","""event"",""trial"",""time""
""fullscreenenter"",""1"",""2234""
","
","
","""event"",""trial"",""time""
""fullscreenenter"",""1"",""2234""
","
","","","535.3000000119209","","","11","13299","5712","&#9784;","elianto","#FFFFF080"," "," ","1","&#10004","[1387.9000000059605]","1","0","0","","","","","","","",""
"pit-trial","11","307057","0.0-2.0-4.3-0.3","battery-v0.2","","""event"",""trial"",""time""
""fullscreenenter"",""1"",""2234""
","
","
","""event"",""trial"",""time""
""fullscreenenter"",""1"",""2234""
","
","","","896","","","11","13299","5712","&#9784;","elianto","#FFFFF080"," "," ","1","&#10004","[1746.5999999940395]","1","0","0","","","","","","","",""
"pit-trial","12","310833","0.0-2.0-4.4-0.4","battery-v0.2","","""event"",""trial"",""time""
""fullscreenenter"",""1"",""2234""
","
","
","""event"",""trial"",""time""
""fullscreenenter"",""1"",""2234""
","
","","","913.5","","","11","13299","5712","&#9784;","elianto","#FFFFF080"," "," ","1","&#10004","[1768.300000011921]","1","0","0","","","","","","","",""
"pit-instructions","13","338577","0.0-2.0-5.0","battery-v0.2","","""event"",""trial"",""time""
""fullscreenenter"",""1"",""2234""
","
","
","""event"",""trial"",""time""
""fullscreenenter"",""1"",""2234""
","
","","[{""page_index"":0,""viewing_time"":4747.5999999940395},{""page_index"":1,""viewing_time"":5263.5999999940395},{""page_index"":2,""viewing_time"":7982.100000023842},{""page_index"":3,""viewing_time"":4889.5999999940395},{""page_index"":2,""viewing_time"":2912.4000000059605},{""page_index"":3,""viewing_time"":1946}]","27741.5","","","","","","","","","","","","","","","","","","","","","","","",""
"pit-trial","14","343453","0.0-2.0-6.0-0.0","battery-v0.2","","""event"",""trial"",""time""
""fullscreenenter"",""1"",""2234""
","
","
","""event"",""trial"",""time""
""fullscreenenter"",""1"",""2234""
","
","","","-1","","","11","13299","5712","&#9854;","elianto","#FFFFF080","-1","-1","1","&#10004","[]","0","0","1","","","","","","","",""
"pit-trial","15","348316","0.0-2.0-6.1-0.1","battery-v0.2","","""event"",""trial"",""time""
""fullscreenenter"",""1"",""2234""
","
","
","""event"",""trial"",""time""
""fullscreenenter"",""1"",""2234""
","
","","","-1","","","11","13299","5712","&#9854;","elianto","#FFFFF080","-1","-1","1","&#10004","[]","0","0","1","","","","","","","",""
"pit-trial","16","353182","0.0-2.0-6.2-0.2","battery-v0.2","","""event"",""trial"",""time""
""fullscreenenter"",""1"",""2234""
","
","
","""event"",""trial"",""time""
""fullscreenenter"",""1"",""2234""
","
","","","-1","","","11","13299","5712","&#9854;","elianto","#FFFFF080","-1","-1","1","&#10004","[]","0","0","1","","","","","","","",""
"pit-trial","17","358053","0.0-2.0-6.3-0.3","battery-v0.2","","""event"",""trial"",""time""
""fullscreenenter"",""1"",""2234""
","
","
","""event"",""trial"",""time""
""fullscreenenter"",""1"",""2234""
","
","","","-1","","","11","13299","5712","&#9854;","elianto","#FFFFF080","-1","-1","1","&#10004","[]","0","0","1","","","","","","","",""
"pit-trial","18","362918","0.0-2.0-6.4-0.4","battery-v0.2","","""event"",""trial"",""time""
""fullscreenenter"",""1"",""2234""
""blur"",""19"",""685421""
""focus"",""19"",""689137""
","""event"",""trial"",""time""
""blur"",""19"",""685421""
","""event"",""trial"",""time""
""focus"",""19"",""689137""
","""event"",""trial"",""time""
""fullscreenenter"",""1"",""2234""
","
","","","-1","","","11","13299","5712","&#9854;","elianto","#FFFFF080","-1","-1","1","&#10004","[]","0","0","1","","","","","","","",""
"pit-instructions","19","703024","0.0-2.0-7.0","battery-v0.2","","""event"",""trial"",""time""
""fullscreenenter"",""1"",""2234""
""blur"",""19"",""685421""
""focus"",""19"",""689137""
","""event"",""trial"",""time""
""blur"",""19"",""685421""
","""event"",""trial"",""time""
""focus"",""19"",""689137""
","""event"",""trial"",""time""
""fullscreenenter"",""1"",""2234""
","
","","[{""page_index"":0,""viewing_time"":5635.0999999940395},{""page_index"":1,""viewing_time"":46024.19999998808},{""page_index"":2,""viewing_time"":5511.800000011921},{""page_index"":3,""viewing_time"":5510.5},{""page_index"":4,""viewing_time"":5355.5},{""page_index"":5,""viewing_time"":10858.09999999404},{""page_index"":6,""viewing_time"":5036.300000011921},{""page_index"":7,""viewing_time"":7771.9000000059605},{""page_index"":8,""viewing_time"":6389.799999982119},{""page_index"":9,""viewing_time"":5293.9000000059605},{""page_index"":10,""viewing_time"":6860.0999999940395},{""page_index"":11,""viewing_time"":4829.9000000059605},{""page_index"":12,""viewing_time"":25342},{""page_index"":13,""viewing_time"":81761.90000000596},{""page_index"":14,""viewing_time"":93675.90000000596},{""page_index"":15,""viewing_time"":10465.699999988079},{""page_index"":16,""viewing_time"":6566.5},{""page_index"":17,""viewing_time"":7215.4000000059605}]","340104.6999999881","","","","","","","","","","","","","","","","","","","","","","","",""
"pit-trial","20","707502","0.0-2.0-8.0-0.0","battery-v0.2","","""event"",""trial"",""time""
""fullscreenenter"",""1"",""2234""
""blur"",""19"",""685421""
""focus"",""19"",""689137""
","""event"",""trial"",""time""
""blur"",""19"",""685421""
","""event"",""trial"",""time""
""focus"",""19"",""689137""
","""event"",""trial"",""time""
""fullscreenenter"",""1"",""2234""
","
","","","1614.5","","","11","13299","5712","&#9776;","elianto","#3366ff99"," "," ","1","+10","[2465.5999999940395]","1","0","1","","","","","","","",""
"pit-trial","21","710913","0.0-2.0-8.0-1.0","battery-v0.2","","""event"",""trial"",""time""
""fullscreenenter"",""1"",""2234""
""blur"",""19"",""685421""
""focus"",""19"",""689137""
","""event"",""trial"",""time""
""blur"",""19"",""685421""
","""event"",""trial"",""time""
""focus"",""19"",""689137""
","""event"",""trial"",""time""
""fullscreenenter"",""1"",""2234""
","
","","","544","","","11","13299","5712","&#9776;","elianto","#3366ff99"," "," ","1","+10","[1395.4000000059605]","1","0","1","","","","","","","",""
"pit-trial","22","714456","0.0-2.0-8.0-2.0","battery-v0.2","","""event"",""trial"",""time""
""fullscreenenter"",""1"",""2234""
""blur"",""19"",""685421""
""focus"",""19"",""689137""
","""event"",""trial"",""time""
""blur"",""19"",""685421""
","""event"",""trial"",""time""
""focus"",""19"",""689137""
","""event"",""trial"",""time""
""fullscreenenter"",""1"",""2234""
","
","","","689.5","","","11","13299","5712","&#9776;","elianto","#3366ff99"," "," ","1","+10","[1540.5]","1","0","1","","","","","","","",""
"pit-trial","23","718451","0.0-2.0-8.0-3.0","battery-v0.2","","""event"",""trial"",""time""
""fullscreenenter"",""1"",""2234""
""blur"",""19"",""685421""
""focus"",""19"",""689137""
","""event"",""trial"",""time""
""blur"",""19"",""685421""
","""event"",""trial"",""time""
""focus"",""19"",""689137""
","""event"",""trial"",""time""
""fullscreenenter"",""1"",""2234""
","
","","","1132.0999999940395","","","11","13299","5712","&#9776;","elianto","#3366ff99"," "," ","1","0","[1984.4000000059605]","1","0","1","","","","","","","",""
"pit-trial","24","721904","0.0-2.0-8.0-4.0","battery-v0.2","","""event"",""trial"",""time""
""fullscreenenter"",""1"",""2234""
""blur"",""19"",""685421""
""focus"",""19"",""689137""
","""event"",""trial"",""time""
""blur"",""19"",""685421""
","""event"",""trial"",""time""
""focus"",""19"",""689137""
","""event"",""trial"",""time""
""fullscreenenter"",""1"",""2234""
","
","","","596.1999999880791","","","11","13299","5712","&#9776;","elianto","#3366ff99"," "," ","1","+10","[1446.9000000059605]","1","0","1","","","","","","","",""
"pit-trial","25","725448","0.0-2.0-8.1-0.1","battery-v0.2","","""event"",""trial"",""time""
""fullscreenenter"",""1"",""2234""
""blur"",""19"",""685421""
""focus"",""19"",""689137""
","""event"",""trial"",""time""
""blur"",""19"",""685421""
","""event"",""trial"",""time""
""focus"",""19"",""689137""
","""event"",""trial"",""time""
""fullscreenenter"",""1"",""2234""
","
","","","678","","","11","13299","5712","&#9776;","elianto","#3366ff99"," "," ","1","+10","[1529.2999999821186]","1","0","1","","","","","","","",""
"pit-trial","26","729029","0.0-2.0-8.1-1.1","battery-v0.2","","""event"",""trial"",""time""
""fullscreenenter"",""1"",""2234""
""blur"",""19"",""685421""
""focus"",""19"",""689137""
","""event"",""trial"",""time""
""blur"",""19"",""685421""
","""event"",""trial"",""time""
""focus"",""19"",""689137""
","""event"",""trial"",""time""
""fullscreenenter"",""1"",""2234""
","
","","","719.0999999940395","","","11","13299","5712","&#9776;","elianto","#3366ff99"," "," ","1","+10","[1573.800000011921]","1","0","1","","","","","","","",""
"pit-trial","27","732136","0.0-2.0-8.1-2.1","battery-v0.2","","""event"",""trial"",""time""
""fullscreenenter"",""1"",""2234""
""blur"",""19"",""685421""
""focus"",""19"",""689137""
","""event"",""trial"",""time""
""blur"",""19"",""685421""
","""event"",""trial"",""time""
""focus"",""19"",""689137""
","""event"",""trial"",""time""
""fullscreenenter"",""1"",""2234""
","
","","","242.90000000596046","","","11","13299","5712","&#9776;","elianto","#3366ff99"," "," ","1","+10","[1093.2000000178814]","1","0","1","","","","","","","",""
"pit-trial","28","735327","0.0-2.0-8.1-3.1","battery-v0.2","","""event"",""trial"",""time""
""fullscreenenter"",""1"",""2234""
""blur"",""19"",""685421""
""focus"",""19"",""689137""
","""event"",""trial"",""time""
""blur"",""19"",""685421""
","""event"",""trial"",""time""
""focus"",""19"",""689137""
","""event"",""trial"",""time""
""fullscreenenter"",""1"",""2234""
","
","","","338.2000000178814","","","11","13299","5712","&#9776;","elianto","#3366ff99"," "," ","1","0","[1188.2000000178814]","1","0","1","","","","","","","",""
"pit-trial","29","739983","0.0-2.0-8.1-4.1","battery-v0.2","","""event"",""trial"",""time""
""fullscreenenter"",""1"",""2234""
""blur"",""19"",""685421""
""focus"",""19"",""689137""
","""event"",""trial"",""time""
""blur"",""19"",""685421""
","""event"",""trial"",""time""
""focus"",""19"",""689137""
","""event"",""trial"",""time""
""fullscreenenter"",""1"",""2234""
","
","","","1802.5","","","11","13299","5712","&#9776;","elianto","#3366ff99"," "," ","1","+10","[2653.100000023842]","1","0","1","","","","","","","",""
"pit-trial","30","743483","0.0-2.0-8.2-0.2","battery-v0.2","","""event"",""trial"",""time""
""fullscreenenter"",""1"",""2234""
""blur"",""19"",""685421""
""focus"",""19"",""689137""
","""event"",""trial"",""time""
""blur"",""19"",""685421""
","""event"",""trial"",""time""
""focus"",""19"",""689137""
","""event"",""trial"",""time""
""fullscreenenter"",""1"",""2234""
","
","","","646.2000000178814","","","11","13299","5712","&#9776;","elianto","#3366ff99"," "," ","1","+10","[1497]","1","0","1","","","","","","","",""
"pit-trial","31","746595","0.0-2.0-8.2-1.2","battery-v0.2","","""event"",""trial"",""time""
""fullscreenenter"",""1"",""2234""
""blur"",""19"",""685421""
""focus"",""19"",""689137""
","""event"",""trial"",""time""
""blur"",""19"",""685421""
","""event"",""trial"",""time""
""focus"",""19"",""689137""
","""event"",""trial"",""time""
""fullscreenenter"",""1"",""2234""
","
","","","260.5","","","11","13299","5712","&#9776;","elianto","#3366ff99"," "," ","1","+10","[1110.5999999940395]","1","0","1","","","","","","","",""
"pit-trial","32","749676","0.0-2.0-8.2-2.2","battery-v0.2","","""event"",""trial"",""time""
""fullscreenenter"",""1"",""2234""
""blur"",""19"",""685421""
""focus"",""19"",""689137""
","""event"",""trial"",""time""
""blur"",""19"",""685421""
","""event"",""trial"",""time""
""focus"",""19"",""689137""
","""event"",""trial"",""time""
""fullscreenenter"",""1"",""2234""
","
","","","228.10000002384186","","","11","13299","5712","&#9776;","elianto","#3366ff99"," "," ","1","+10","[1078.7000000178814]","1","0","1","","","","","","","",""
"pit-trial","33","753109","0.0-2.0-8.2-3.2","battery-v0.2","","""event"",""trial"",""time""
""fullscreenenter"",""1"",""2234""
""blur"",""19"",""685421""
""focus"",""19"",""689137""
","""event"",""trial"",""time""
""blur"",""19"",""685421""
","""event"",""trial"",""time""
""focus"",""19"",""689137""
","""event"",""trial"",""time""
""fullscreenenter"",""1"",""2234""
","
","","","581.5999999940395","","","11","13299","5712","&#9776;","elianto","#3366ff99"," "," ","1","0","[444.5,1431.699999988079]","2","0","1","","","","","","","",""
"pit-trial","34","757100","0.0-2.0-8.2-4.2","battery-v0.2","","""event"",""trial"",""time""
""fullscreenenter"",""1"",""2234""
""blur"",""19"",""685421""
""focus"",""19"",""689137""
","""event"",""trial"",""time""
""blur"",""19"",""685421""
","""event"",""trial"",""time""
""focus"",""19"",""689137""
","""event"",""trial"",""time""
""fullscreenenter"",""1"",""2234""
","
","","","1138.5999999940395","","","11","13299","5712","&#9776;","elianto","#3366ff99"," "," ","1","+10","[1989.2999999821186]","1","0","1","","","","","","","",""
"call-function","35","757102","0.0-2.0-9.0","battery-v0.2","","""event"",""trial"",""time""
""fullscreenenter"",""1"",""2234""
""blur"",""19"",""685421""
""focus"",""19"",""689137""
","""event"",""trial"",""time""
""blur"",""19"",""685421""
","""event"",""trial"",""time""
""focus"",""19"",""689137""
","""event"",""trial"",""time""
""fullscreenenter"",""1"",""2234""
","
","","","","","","","","","","","","","","","","","","","","","","","","","","",""
"pit-instructions","36","813376","0.0-2.0-10.0","battery-v0.2","","""event"",""trial"",""time""
""fullscreenenter"",""1"",""2234""
""blur"",""19"",""685421""
""focus"",""19"",""689137""
","""event"",""trial"",""time""
""blur"",""19"",""685421""
","""event"",""trial"",""time""
""focus"",""19"",""689137""
","""event"",""trial"",""time""
""fullscreenenter"",""1"",""2234""
","
","","[{""page_index"":0,""viewing_time"":13925.5},{""page_index"":1,""viewing_time"":13698},{""page_index"":2,""viewing_time"":9505.90000000596},{""page_index"":3,""viewing_time"":11286.299999982119},{""page_index"":4,""viewing_time"":7857.700000017881}]","56273.69999998808","","","","","","","","","","","","","","","","","","","","","","","",""
"pit-trial","37","818254","0.0-2.0-11.0-0.0","battery-v0.2","","""event"",""trial"",""time""
""fullscreenenter"",""1"",""2234""
""blur"",""19"",""685421""
""focus"",""19"",""689137""
","""event"",""trial"",""time""
""blur"",""19"",""685421""
","""event"",""trial"",""time""
""focus"",""19"",""689137""
","""event"",""trial"",""time""
""fullscreenenter"",""1"",""2234""
","
","","","-1","","","11","13299","5712","&#9761;","elianto","#3366ff99","-1","-1","1","+10","[]","0","0","2","","","","","","","",""
"pit-trial","38","822284","0.0-2.0-11.0-1.0","battery-v0.2","","""event"",""trial"",""time""
""fullscreenenter"",""1"",""2234""
""blur"",""19"",""685421""
""focus"",""19"",""689137""
","""event"",""trial"",""time""
""blur"",""19"",""685421""
","""event"",""trial"",""time""
""focus"",""19"",""689137""
","""event"",""trial"",""time""
""fullscreenenter"",""1"",""2234""
","
","","","1166.3999999761581","","","11","13299","5712","&#9761;","elianto","#3366ff99","-1"," ","0","0","[2019.3999999761581]","1","0","2","","","","","","","",""
"pit-trial","39","827149","0.0-2.0-11.0-2.0","battery-v0.2","","""event"",""trial"",""time""
""fullscreenenter"",""1"",""2234""
""blur"",""19"",""685421""
""focus"",""19"",""689137""
","""event"",""trial"",""time""
""blur"",""19"",""685421""
","""event"",""trial"",""time""
""focus"",""19"",""689137""
","""event"",""trial"",""time""
""fullscreenenter"",""1"",""2234""
","
","","","-1","","","11","13299","5712","&#9761;","elianto","#3366ff99","-1","-1","1","+10","[]","0","0","2","","","","","","","",""
"pit-trial","40","832011","0.0-2.0-11.0-3.0","battery-v0.2","","""event"",""trial"",""time""
""fullscreenenter"",""1"",""2234""
""blur"",""19"",""685421""
""focus"",""19"",""689137""
","""event"",""trial"",""time""
""blur"",""19"",""685421""
","""event"",""trial"",""time""
""focus"",""19"",""689137""
","""event"",""trial"",""time""
""fullscreenenter"",""1"",""2234""
","
","","","-1","","","11","13299","5712","&#9761;","elianto","#3366ff99","-1","-1","1","0","[]","0","0","2","","","","","","","",""
"pit-trial","41","836877","0.0-2.0-11.0-4.0","battery-v0.2","","""event"",""trial"",""time""
""fullscreenenter"",""1"",""2234""
""blur"",""19"",""685421""
""focus"",""19"",""689137""
","""event"",""trial"",""time""
""blur"",""19"",""685421""
","""event"",""trial"",""time""
""focus"",""19"",""689137""
","""event"",""trial"",""time""
""fullscreenenter"",""1"",""2234""
","
","","","-1","","","11","13299","5712","&#9761;","elianto","#3366ff99","-1","-1","1","+10","[]","0","0","2","","","","","","","",""
"pit-trial","42","841738","0.0-2.0-11.1-0.1","battery-v0.2","","""event"",""trial"",""time""
""fullscreenenter"",""1"",""2234""
""blur"",""19"",""685421""
""focus"",""19"",""689137""
","""event"",""trial"",""time""
""blur"",""19"",""685421""
","""event"",""trial"",""time""
""focus"",""19"",""689137""
","""event"",""trial"",""time""
""fullscreenenter"",""1"",""2234""
","
","","","-1","","","11","13299","5712","&#9761;","elianto","#3366ff99","-1","-1","1","+10","[]","0","0","2","","","","","","","",""
"pit-trial","43","846590","0.0-2.0-11.1-1.1","battery-v0.2","","""event"",""trial"",""time""
""fullscreenenter"",""1"",""2234""
""blur"",""19"",""685421""
""focus"",""19"",""689137""
","""event"",""trial"",""time""
""blur"",""19"",""685421""
","""event"",""trial"",""time""
""focus"",""19"",""689137""
","""event"",""trial"",""time""
""fullscreenenter"",""1"",""2234""
","
","","","-1","","","11","13299","5712","&#9761;","elianto","#3366ff99","-1","-1","1","+10","[]","0","0","2","","","","","","","",""
"pit-trial","44","851444","0.0-2.0-11.1-2.1","battery-v0.2","","""event"",""trial"",""time""
""fullscreenenter"",""1"",""2234""
""blur"",""19"",""685421""
""focus"",""19"",""689137""
","""event"",""trial"",""time""
""blur"",""19"",""685421""
","""event"",""trial"",""time""
""focus"",""19"",""689137""
","""event"",""trial"",""time""
""fullscreenenter"",""1"",""2234""
","
","","","-1","","","11","13299","5712","&#9761;","elianto","#3366ff99","-1","-1","1","+10","[]","0","0","2","","","","","","","",""
"pit-trial","45","856297","0.0-2.0-11.1-3.1","battery-v0.2","","""event"",""trial"",""time""
""fullscreenenter"",""1"",""2234""
""blur"",""19"",""685421""
""focus"",""19"",""689137""
","""event"",""trial"",""time""
""blur"",""19"",""685421""
","""event"",""trial"",""time""
""focus"",""19"",""689137""
","""event"",""trial"",""time""
""fullscreenenter"",""1"",""2234""
","
","","","-1","","","11","13299","5712","&#9761;","elianto","#3366ff99","-1","-1","1","0","[]","0","0","2","","","","","","","",""
"pit-trial","46","861149","0.0-2.0-11.1-4.1","battery-v0.2","","""event"",""trial"",""time""
""fullscreenenter"",""1"",""2234""
""blur"",""19"",""685421""
""focus"",""19"",""689137""
","""event"",""trial"",""time""
""blur"",""19"",""685421""
","""event"",""trial"",""time""
""focus"",""19"",""689137""
","""event"",""trial"",""time""
""fullscreenenter"",""1"",""2234""
","
","","","-1","","","11","13299","5712","&#9761;","elianto","#3366ff99","-1","-1","1","+10","[]","0","0","2","","","","","","","",""
"pit-trial","47","866002","0.0-2.0-11.2-0.2","battery-v0.2","","""event"",""trial"",""time""
""fullscreenenter"",""1"",""2234""
""blur"",""19"",""685421""
""focus"",""19"",""689137""
","""event"",""trial"",""time""
""blur"",""19"",""685421""
","""event"",""trial"",""time""
""focus"",""19"",""689137""
","""event"",""trial"",""time""
""fullscreenenter"",""1"",""2234""
","
","","","-1","","","11","13299","5712","&#9761;","elianto","#3366ff99","-1","-1","1","+10","[]","0","0","2","","","","","","","",""
"pit-trial","48","870856","0.0-2.0-11.2-1.2","battery-v0.2","","""event"",""trial"",""time""
""fullscreenenter"",""1"",""2234""
""blur"",""19"",""685421""
""focus"",""19"",""689137""
","""event"",""trial"",""time""
""blur"",""19"",""685421""
","""event"",""trial"",""time""
""focus"",""19"",""689137""
","""event"",""trial"",""time""
""fullscreenenter"",""1"",""2234""
","
","","","-1","","","11","13299","5712","&#9761;","elianto","#3366ff99","-1","-1","1","+10","[]","0","0","2","","","","","","","",""
"pit-trial","49","875709","0.0-2.0-11.2-2.2","battery-v0.2","","""event"",""trial"",""time""
""fullscreenenter"",""1"",""2234""
""blur"",""19"",""685421""
""focus"",""19"",""689137""
","""event"",""trial"",""time""
""blur"",""19"",""685421""
","""event"",""trial"",""time""
""focus"",""19"",""689137""
","""event"",""trial"",""time""
""fullscreenenter"",""1"",""2234""
","
","","","-1","","","11","13299","5712","&#9761;","elianto","#3366ff99","-1","-1","1","+10","[]","0","0","2","","","","","","","",""
"pit-trial","50","880562","0.0-2.0-11.2-3.2","battery-v0.2","","""event"",""trial"",""time""
""fullscreenenter"",""1"",""2234""
""blur"",""19"",""685421""
""focus"",""19"",""689137""
","""event"",""trial"",""time""
""blur"",""19"",""685421""
","""event"",""trial"",""time""
""focus"",""19"",""689137""
","""event"",""trial"",""time""
""fullscreenenter"",""1"",""2234""
","
","","","-1","","","11","13299","5712","&#9761;","elianto","#3366ff99","-1","-1","1","0","[]","0","0","2","","","","","","","",""
"pit-trial","51","885416","0.0-2.0-11.2-4.2","battery-v0.2","","""event"",""trial"",""time""
""fullscreenenter"",""1"",""2234""
""blur"",""19"",""685421""
""focus"",""19"",""689137""
","""event"",""trial"",""time""
""blur"",""19"",""685421""
","""event"",""trial"",""time""
""focus"",""19"",""689137""
","""event"",""trial"",""time""
""fullscreenenter"",""1"",""2234""
","
","","","-1","","","11","13299","5712","&#9761;","elianto","#3366ff99","-1","-1","1","+10","[]","0","0","2","","","","","","","",""
"pit-trial","52","890268","0.0-2.0-11.3-0.3","battery-v0.2","","""event"",""trial"",""time""
""fullscreenenter"",""1"",""2234""
""blur"",""19"",""685421""
""focus"",""19"",""689137""
","""event"",""trial"",""time""
""blur"",""19"",""685421""
","""event"",""trial"",""time""
""focus"",""19"",""689137""
","""event"",""trial"",""time""
""fullscreenenter"",""1"",""2234""
","
","","","-1","","","11","13299","5712","&#9761;","elianto","#3366ff99","-1","-1","1","+10","[]","0","0","2","","","","","","","",""
"pit-trial","53","895120","0.0-2.0-11.3-1.3","battery-v0.2","","""event"",""trial"",""time""
""fullscreenenter"",""1"",""2234""
""blur"",""19"",""685421""
""focus"",""19"",""689137""
","""event"",""trial"",""time""
""blur"",""19"",""685421""
","""event"",""trial"",""time""
""focus"",""19"",""689137""
","""event"",""trial"",""time""
""fullscreenenter"",""1"",""2234""
","
","","","-1","","","11","13299","5712","&#9761;","elianto","#3366ff99","-1","-1","1","+10","[]","0","0","2","","","","","","","",""
"pit-trial","54","899973","0.0-2.0-11.3-2.3","battery-v0.2","","""event"",""trial"",""time""
""fullscreenenter"",""1"",""2234""
""blur"",""19"",""685421""
""focus"",""19"",""689137""
","""event"",""trial"",""time""
""blur"",""19"",""685421""
","""event"",""trial"",""time""
""focus"",""19"",""689137""
","""event"",""trial"",""time""
""fullscreenenter"",""1"",""2234""
","
","","","-1","","","11","13299","5712","&#9761;","elianto","#3366ff99","-1","-1","1","+10","[]","0","0","2","","","","","","","",""
"pit-trial","55","904826","0.0-2.0-11.3-3.3","battery-v0.2","","""event"",""trial"",""time""
""fullscreenenter"",""1"",""2234""
""blur"",""19"",""685421""
""focus"",""19"",""689137""
","""event"",""trial"",""time""
""blur"",""19"",""685421""
","""event"",""trial"",""time""
""focus"",""19"",""689137""
","""event"",""trial"",""time""
""fullscreenenter"",""1"",""2234""
","
","","","-1","","","11","13299","5712","&#9761;","elianto","#3366ff99","-1","-1","1","0","[]","0","0","2","","","","","","","",""
"pit-trial","56","909679","0.0-2.0-11.3-4.3","battery-v0.2","","""event"",""trial"",""time""
""fullscreenenter"",""1"",""2234""
""blur"",""19"",""685421""
""focus"",""19"",""689137""
","""event"",""trial"",""time""
""blur"",""19"",""685421""
","""event"",""trial"",""time""
""focus"",""19"",""689137""
","""event"",""trial"",""time""
""fullscreenenter"",""1"",""2234""
","
","","","-1","","","11","13299","5712","&#9761;","elianto","#3366ff99","-1","-1","1","+10","[]","0","0","2","","","","","","","",""
"call-function","57","909680","0.0-2.0-12.0","battery-v0.2","","""event"",""trial"",""time""
""fullscreenenter"",""1"",""2234""
""blur"",""19"",""685421""
""focus"",""19"",""689137""
","""event"",""trial"",""time""
""blur"",""19"",""685421""
","""event"",""trial"",""time""
""focus"",""19"",""689137""
","""event"",""trial"",""time""
""fullscreenenter"",""1"",""2234""
","
","","","","","","","","","","","","","","","","","","","","","","","","","","",""
"pit-instructions","58","1039112","0.0-2.0-13.0","battery-v0.2","","""event"",""trial"",""time""
""fullscreenenter"",""1"",""2234""
""blur"",""19"",""685421""
""focus"",""19"",""689137""
","""event"",""trial"",""time""
""blur"",""19"",""685421""
","""event"",""trial"",""time""
""focus"",""19"",""689137""
","""event"",""trial"",""time""
""fullscreenenter"",""1"",""2234""
","
","","[{""page_index"":0,""viewing_time"":5053.800000011921},{""page_index"":1,""viewing_time"":103267.79999998212},{""page_index"":2,""viewing_time"":3372},{""page_index"":3,""viewing_time"":12980},{""page_index"":4,""viewing_time"":4757.9000000059605}]","129431.69999998808","","","","","","","","","","","","","","","","","","","","","","","",""
"pit-trial","59","1043156","0.0-2.0-14.0-0.0","battery-v0.2","","""event"",""trial"",""time""
""fullscreenenter"",""1"",""2234""
""blur"",""19"",""685421""
""focus"",""19"",""689137""
","""event"",""trial"",""time""
""blur"",""19"",""685421""
","""event"",""trial"",""time""
""focus"",""19"",""689137""
","""event"",""trial"",""time""
""fullscreenenter"",""1"",""2234""
","
","","","1184.4000000059605","","","11","13299","5712","&#9826;","elianto","#f73b6a7A","-1"," ","0","-10","[2037.5999999940395]","1","0","3","","","","","","","",""
"pit-trial","60","1048023","0.0-2.0-14.0-1.0","battery-v0.2","","""event"",""trial"",""time""
""fullscreenenter"",""1"",""2234""
""blur"",""19"",""685421""
""focus"",""19"",""689137""
","""event"",""trial"",""time""
""blur"",""19"",""685421""
","""event"",""trial"",""time""
""focus"",""19"",""689137""
","""event"",""trial"",""time""
""fullscreenenter"",""1"",""2234""
","
","","","-1","","","11","13299","5712","&#9826;","elianto","#f73b6a7A","-1","-1","1","0","[]","0","0","3","","","","","","","",""
"pit-trial","61","1052892","0.0-2.0-14.0-2.0","battery-v0.2","","""event"",""trial"",""time""
""fullscreenenter"",""1"",""2234""
""blur"",""19"",""685421""
""focus"",""19"",""689137""
","""event"",""trial"",""time""
""blur"",""19"",""685421""
","""event"",""trial"",""time""
""focus"",""19"",""689137""
","""event"",""trial"",""time""
""fullscreenenter"",""1"",""2234""
","
","","","-1","","","11","13299","5712","&#9826;","elianto","#f73b6a7A","-1","-1","1","0","[]","0","0","3","","","","","","","",""
"pit-trial","62","1057758","0.0-2.0-14.0-3.0","battery-v0.2","","""event"",""trial"",""time""
""fullscreenenter"",""1"",""2234""
""blur"",""19"",""685421""
""focus"",""19"",""689137""
","""event"",""trial"",""time""
""blur"",""19"",""685421""
","""event"",""trial"",""time""
""focus"",""19"",""689137""
","""event"",""trial"",""time""
""fullscreenenter"",""1"",""2234""
","
","","","-1","","","11","13299","5712","&#9826;","elianto","#f73b6a7A","-1","-1","1","-10","[]","0","0","3","","","","","","","",""
"pit-trial","63","1062629","0.0-2.0-14.0-4.0","battery-v0.2","","""event"",""trial"",""time""
""fullscreenenter"",""1"",""2234""
""blur"",""19"",""685421""
""focus"",""19"",""689137""
","""event"",""trial"",""time""
""blur"",""19"",""685421""
","""event"",""trial"",""time""
""focus"",""19"",""689137""
","""event"",""trial"",""time""
""fullscreenenter"",""1"",""2234""
","
","","","-1","","","11","13299","5712","&#9826;","elianto","#f73b6a7A","-1","-1","1","0","[]","0","0","3","","","","","","","",""
"pit-trial","64","1067502","0.0-2.0-14.1-0.1","battery-v0.2","","""event"",""trial"",""time""
""fullscreenenter"",""1"",""2234""
""blur"",""19"",""685421""
""focus"",""19"",""689137""
","""event"",""trial"",""time""
""blur"",""19"",""685421""
","""event"",""trial"",""time""
""focus"",""19"",""689137""
","""event"",""trial"",""time""
""fullscreenenter"",""1"",""2234""
","
","","","-1","","","11","13299","5712","&#9826;","elianto","#f73b6a7A","-1","-1","1","0","[]","0","0","3","","","","","","","",""
"pit-trial","65","1072356","0.0-2.0-14.1-1.1","battery-v0.2","","""event"",""trial"",""time""
""fullscreenenter"",""1"",""2234""
""blur"",""19"",""685421""
""focus"",""19"",""689137""
","""event"",""trial"",""time""
""blur"",""19"",""685421""
","""event"",""trial"",""time""
""focus"",""19"",""689137""
","""event"",""trial"",""time""
""fullscreenenter"",""1"",""2234""
","
","","","-1","","","11","13299","5712","&#9826;","elianto","#f73b6a7A","-1","-1","1","0","[]","0","0","3","","","","","","","",""
"pit-trial","66","1077208","0.0-2.0-14.1-2.1","battery-v0.2","","""event"",""trial"",""time""
""fullscreenenter"",""1"",""2234""
""blur"",""19"",""685421""
""focus"",""19"",""689137""
","""event"",""trial"",""time""
""blur"",""19"",""685421""
","""event"",""trial"",""time""
""focus"",""19"",""689137""
","""event"",""trial"",""time""
""fullscreenenter"",""1"",""2234""
","
","","","-1","","","11","13299","5712","&#9826;","elianto","#f73b6a7A","-1","-1","1","0","[]","0","0","3","","","","","","","",""
"pit-trial","67","1082061","0.0-2.0-14.1-3.1","battery-v0.2","","""event"",""trial"",""time""
""fullscreenenter"",""1"",""2234""
""blur"",""19"",""685421""
""focus"",""19"",""689137""
","""event"",""trial"",""time""
""blur"",""19"",""685421""
","""event"",""trial"",""time""
""focus"",""19"",""689137""
","""event"",""trial"",""time""
""fullscreenenter"",""1"",""2234""
","
","","","-1","","","11","13299","5712","&#9826;","elianto","#f73b6a7A","-1","-1","1","-10","[]","0","0","3","","","","","","","",""
"pit-trial","68","1086913","0.0-2.0-14.1-4.1","battery-v0.2","","""event"",""trial"",""time""
""fullscreenenter"",""1"",""2234""
""blur"",""19"",""685421""
""focus"",""19"",""689137""
","""event"",""trial"",""time""
""blur"",""19"",""685421""
","""event"",""trial"",""time""
""focus"",""19"",""689137""
","""event"",""trial"",""time""
""fullscreenenter"",""1"",""2234""
","
","","","-1","","","11","13299","5712","&#9826;","elianto","#f73b6a7A","-1","-1","1","0","[]","0","0","3","","","","","","","",""
"pit-trial","69","1091767","0.0-2.0-14.2-0.2","battery-v0.2","","""event"",""trial"",""time""
""fullscreenenter"",""1"",""2234""
""blur"",""19"",""685421""
""focus"",""19"",""689137""
","""event"",""trial"",""time""
""blur"",""19"",""685421""
","""event"",""trial"",""time""
""focus"",""19"",""689137""
","""event"",""trial"",""time""
""fullscreenenter"",""1"",""2234""
","
","","","-1","","","11","13299","5712","&#9826;","elianto","#f73b6a7A","-1","-1","1","0","[]","0","0","3","","","","","","","",""
"pit-trial","70","1096619","0.0-2.0-14.2-1.2","battery-v0.2","","""event"",""trial"",""time""
""fullscreenenter"",""1"",""2234""
""blur"",""19"",""685421""
""focus"",""19"",""689137""
","""event"",""trial"",""time""
""blur"",""19"",""685421""
","""event"",""trial"",""time""
""focus"",""19"",""689137""
","""event"",""trial"",""time""
""fullscreenenter"",""1"",""2234""
","
","","","-1","","","11","13299","5712","&#9826;","elianto","#f73b6a7A","-1","-1","1","0","[]","0","0","3","","","","","","","",""
"pit-trial","71","1101483","0.0-2.0-14.2-2.2","battery-v0.2","","""event"",""trial"",""time""
""fullscreenenter"",""1"",""2234""
""blur"",""19"",""685421""
""focus"",""19"",""689137""
","""event"",""trial"",""time""
""blur"",""19"",""685421""
","""event"",""trial"",""time""
""focus"",""19"",""689137""
","""event"",""trial"",""time""
""fullscreenenter"",""1"",""2234""
","
","","","-1","","","11","13299","5712","&#9826;","elianto","#f73b6a7A","-1","-1","1","0","[]","0","0","3","","","","","","","",""
"pit-trial","72","1106336","0.0-2.0-14.2-3.2","battery-v0.2","","""event"",""trial"",""time""
""fullscreenenter"",""1"",""2234""
""blur"",""19"",""685421""
""focus"",""19"",""689137""
","""event"",""trial"",""time""
""blur"",""19"",""685421""
","""event"",""trial"",""time""
""focus"",""19"",""689137""
","""event"",""trial"",""time""
""fullscreenenter"",""1"",""2234""
","
","","","-1","","","11","13299","5712","&#9826;","elianto","#f73b6a7A","-1","-1","1","-10","[]","0","0","3","","","","","","","",""
"pit-trial","73","1111188","0.0-2.0-14.2-4.2","battery-v0.2","","""event"",""trial"",""time""
""fullscreenenter"",""1"",""2234""
""blur"",""19"",""685421""
""focus"",""19"",""689137""
","""event"",""trial"",""time""
""blur"",""19"",""685421""
","""event"",""trial"",""time""
""focus"",""19"",""689137""
","""event"",""trial"",""time""
""fullscreenenter"",""1"",""2234""
","
","","","-1","","","11","13299","5712","&#9826;","elianto","#f73b6a7A","-1","-1","1","0","[]","0","0","3","","","","","","","",""
"pit-trial","74","1116041","0.0-2.0-14.3-0.3","battery-v0.2","","""event"",""trial"",""time""
""fullscreenenter"",""1"",""2234""
""blur"",""19"",""685421""
""focus"",""19"",""689137""
","""event"",""trial"",""time""
""blur"",""19"",""685421""
","""event"",""trial"",""time""
""focus"",""19"",""689137""
","""event"",""trial"",""time""
""fullscreenenter"",""1"",""2234""
","
","","","-1","","","11","13299","5712","&#9826;","elianto","#f73b6a7A","-1","-1","1","0","[]","0","0","3","","","","","","","",""
"pit-trial","75","1120893","0.0-2.0-14.3-1.3","battery-v0.2","","""event"",""trial"",""time""
""fullscreenenter"",""1"",""2234""
""blur"",""19"",""685421""
""focus"",""19"",""689137""
","""event"",""trial"",""time""
""blur"",""19"",""685421""
","""event"",""trial"",""time""
""focus"",""19"",""689137""
","""event"",""trial"",""time""
""fullscreenenter"",""1"",""2234""
","
","","","-1","","","11","13299","5712","&#9826;","elianto","#f73b6a7A","-1","-1","1","0","[]","0","0","3","","","","","","","",""
"pit-trial","76","1125745","0.0-2.0-14.3-2.3","battery-v0.2","","""event"",""trial"",""time""
""fullscreenenter"",""1"",""2234""
""blur"",""19"",""685421""
""focus"",""19"",""689137""
","""event"",""trial"",""time""
""blur"",""19"",""685421""
","""event"",""trial"",""time""
""focus"",""19"",""689137""
","""event"",""trial"",""time""
""fullscreenenter"",""1"",""2234""
","
","","","-1","","","11","13299","5712","&#9826;","elianto","#f73b6a7A","-1","-1","1","0","[]","0","0","3","","","","","","","",""
"pit-trial","77","1130598","0.0-2.0-14.3-3.3","battery-v0.2","","""event"",""trial"",""time""
""fullscreenenter"",""1"",""2234""
""blur"",""19"",""685421""
""focus"",""19"",""689137""
","""event"",""trial"",""time""
""blur"",""19"",""685421""
","""event"",""trial"",""time""
""focus"",""19"",""689137""
","""event"",""trial"",""time""
""fullscreenenter"",""1"",""2234""
","
","","","-1","","","11","13299","5712","&#9826;","elianto","#f73b6a7A","-1","-1","1","-10","[]","0","0","3","","","","","","","",""
"pit-trial","78","1135450","0.0-2.0-14.3-4.3","battery-v0.2","","""event"",""trial"",""time""
""fullscreenenter"",""1"",""2234""
""blur"",""19"",""685421""
""focus"",""19"",""689137""
","""event"",""trial"",""time""
""blur"",""19"",""685421""
","""event"",""trial"",""time""
""focus"",""19"",""689137""
","""event"",""trial"",""time""
""fullscreenenter"",""1"",""2234""
","
","","","-1","","","11","13299","5712","&#9826;","elianto","#f73b6a7A","-1","-1","1","0","[]","0","0","3","","","","","","","",""
"call-function","79","1135452","0.0-2.0-15.0","battery-v0.2","","""event"",""trial"",""time""
""fullscreenenter"",""1"",""2234""
""blur"",""19"",""685421""
""focus"",""19"",""689137""
","""event"",""trial"",""time""
""blur"",""19"",""685421""
","""event"",""trial"",""time""
""focus"",""19"",""689137""
","""event"",""trial"",""time""
""fullscreenenter"",""1"",""2234""
","
","","","","","","","","","","","","","","","","","","","","","","","","","","",""
"pit-instructions","80","1238696","0.0-2.0-16.0","battery-v0.2","","""event"",""trial"",""time""
""fullscreenenter"",""1"",""2234""
""blur"",""19"",""685421""
""focus"",""19"",""689137""
","""event"",""trial"",""time""
""blur"",""19"",""685421""
","""event"",""trial"",""time""
""focus"",""19"",""689137""
","""event"",""trial"",""time""
""fullscreenenter"",""1"",""2234""
","
","","[{""page_index"":0,""viewing_time"":13281.299999982119},{""page_index"":1,""viewing_time"":67629.70000001788},{""page_index"":2,""viewing_time"":4850},{""page_index"":3,""viewing_time"":17482.09999999404}]","103243.39999997616","","","","","","","","","","","","","","","","","","","","","","","",""
"pit-trial","81","1243565","0.0-2.0-17.0-0.0","battery-v0.2","","""event"",""trial"",""time""
""fullscreenenter"",""1"",""2234""
""blur"",""19"",""685421""
""focus"",""19"",""689137""
","""event"",""trial"",""time""
""blur"",""19"",""685421""
","""event"",""trial"",""time""
""focus"",""19"",""689137""
","""event"",""trial"",""time""
""fullscreenenter"",""1"",""2234""
","
","","","-1","","","11","13299","5712","&#9789;","elianto","#f73b6a7A"," ","-1","0","-10","[2879.300000011921]","1","0","4","","","","","","","",""
"pit-trial","82","1248421","0.0-2.0-17.0-1.0","battery-v0.2","","""event"",""trial"",""time""
""fullscreenenter"",""1"",""2234""
""blur"",""19"",""685421""
""focus"",""19"",""689137""
","""event"",""trial"",""time""
""blur"",""19"",""685421""
","""event"",""trial"",""time""
""focus"",""19"",""689137""
","""event"",""trial"",""time""
""fullscreenenter"",""1"",""2234""
","
","","","-1","","","11","13299","5712","&#9789;","elianto","#f73b6a7A"," ","-1","0","-10","[]","0","0","4","","","","","","","",""
"pit-trial","83","1253276","0.0-2.0-17.0-2.0","battery-v0.2","","""event"",""trial"",""time""
""fullscreenenter"",""1"",""2234""
""blur"",""19"",""685421""
""focus"",""19"",""689137""
","""event"",""trial"",""time""
""blur"",""19"",""685421""
","""event"",""trial"",""time""
""focus"",""19"",""689137""
","""event"",""trial"",""time""
""fullscreenenter"",""1"",""2234""
","
","","","-1","","","11","13299","5712","&#9789;","elianto","#f73b6a7A"," ","-1","0","-10","[]","0","0","4","","","","","","","",""
"pit-trial","84","1256545","0.0-2.0-17.0-3.0","battery-v0.2","","""event"",""trial"",""time""
""fullscreenenter"",""1"",""2234""
""blur"",""19"",""685421""
""focus"",""19"",""689137""
","""event"",""trial"",""time""
""blur"",""19"",""685421""
","""event"",""trial"",""time""
""focus"",""19"",""689137""
","""event"",""trial"",""time""
""fullscreenenter"",""1"",""2234""
","
","","","416","","","11","13299","5712","&#9789;","elianto","#f73b6a7A"," "," ","1","-10","[1266.7999999821186]","1","0","4","","","","","","","",""
"pit-trial","85","1259464","0.0-2.0-17.0-4.0","battery-v0.2","","""event"",""trial"",""time""
""fullscreenenter"",""1"",""2234""
""blur"",""19"",""685421""
""focus"",""19"",""689137""
","""event"",""trial"",""time""
""blur"",""19"",""685421""
","""event"",""trial"",""time""
""focus"",""19"",""689137""
","""event"",""trial"",""time""
""fullscreenenter"",""1"",""2234""
","
","","","67.39999997615814","","","11","13299","5712","&#9789;","elianto","#f73b6a7A"," "," ","1","0","[917.5]","1","0","4","","","","","","","",""
"pit-trial","86","1262377","0.0-2.0-17.1-0.1","battery-v0.2","","""event"",""trial"",""time""
""fullscreenenter"",""1"",""2234""
""blur"",""19"",""685421""
""focus"",""19"",""689137""
","""event"",""trial"",""time""
""blur"",""19"",""685421""
","""event"",""trial"",""time""
""focus"",""19"",""689137""
","""event"",""trial"",""time""
""fullscreenenter"",""1"",""2234""
","
","","","61.20000001788139","","","11","13299","5712","&#9789;","elianto","#f73b6a7A"," "," ","1","0","[911.7000000178814]","1","0","4","","","","","","","",""
"pit-trial","87","1265258","0.0-2.0-17.1-1.1","battery-v0.2","","""event"",""trial"",""time""
""fullscreenenter"",""1"",""2234""
""blur"",""19"",""685421""
""focus"",""19"",""689137""
","""event"",""trial"",""time""
""blur"",""19"",""685421""
","""event"",""trial"",""time""
""focus"",""19"",""689137""
","""event"",""trial"",""time""
""fullscreenenter"",""1"",""2234""
","
","","","29","","","11","13299","5712","&#9789;","elianto","#f73b6a7A"," "," ","1","0","[879.8000000119209]","1","0","4","","","","","","","",""
"pit-trial","88","1268604","0.0-2.0-17.1-2.1","battery-v0.2","","""event"",""trial"",""time""
""fullscreenenter"",""1"",""2234""
""blur"",""19"",""685421""
""focus"",""19"",""689137""
","""event"",""trial"",""time""
""blur"",""19"",""685421""
","""event"",""trial"",""time""
""focus"",""19"",""689137""
","""event"",""trial"",""time""
""fullscreenenter"",""1"",""2234""
","
","","","493.10000002384186","","","11","13299","5712","&#9789;","elianto","#f73b6a7A"," "," ","1","0","[534.0999999940395,1343.7000000178814]","2","0","4","","","","","","","",""
"pit-trial","89","1271668","0.0-2.0-17.1-3.1","battery-v0.2","","""event"",""trial"",""time""
""fullscreenenter"",""1"",""2234""
""blur"",""19"",""685421""
""focus"",""19"",""689137""
","""event"",""trial"",""time""
""blur"",""19"",""685421""
","""event"",""trial"",""time""
""focus"",""19"",""689137""
","""event"",""trial"",""time""
""fullscreenenter"",""1"",""2234""
","
","","","211.7999999821186","","","11","13299","5712","&#9789;","elianto","#f73b6a7A"," "," ","1","-10","[1062.199999988079]","1","0","4","","","","","","","",""
"pit-trial","90","1274609","0.0-2.0-17.1-4.1","battery-v0.2","","""event"",""trial"",""time""
""fullscreenenter"",""1"",""2234""
""blur"",""19"",""685421""
""focus"",""19"",""689137""
","""event"",""trial"",""time""
""blur"",""19"",""685421""
","""event"",""trial"",""time""
""focus"",""19"",""689137""
","""event"",""trial"",""time""
""fullscreenenter"",""1"",""2234""
","
","","","87.69999998807907","","","11","13299","5712","&#9789;","elianto","#f73b6a7A"," "," ","1","0","[938.5]","1","0","4","","","","","","","",""
"pit-trial","91","1277513","0.0-2.0-17.2-0.2","battery-v0.2","","""event"",""trial"",""time""
""fullscreenenter"",""1"",""2234""
""blur"",""19"",""685421""
""focus"",""19"",""689137""
","""event"",""trial"",""time""
""blur"",""19"",""685421""
","""event"",""trial"",""time""
""focus"",""19"",""689137""
","""event"",""trial"",""time""
""fullscreenenter"",""1"",""2234""
","
","","","50.5","","","11","13299","5712","&#9789;","elianto","#f73b6a7A"," "," ","1","0","[901.7000000178814,2889.0999999940395]","2","0","4","","","","","","","",""
"pit-trial","92","1280516","0.0-2.0-17.2-1.2","battery-v0.2","","""event"",""trial"",""time""
""fullscreenenter"",""1"",""2234""
""blur"",""19"",""685421""
""focus"",""19"",""689137""
","""event"",""trial"",""time""
""blur"",""19"",""685421""
","""event"",""trial"",""time""
""focus"",""19"",""689137""
","""event"",""trial"",""time""
""fullscreenenter"",""1"",""2234""
","
","","","150.2999999821186","","","11","13299","5712","&#9789;","elianto","#f73b6a7A"," "," ","1","0","[1001.1999999880791]","1","0","4","","","","","","","",""
"pit-trial","93","1283718","0.0-2.0-17.2-2.2","battery-v0.2","","""event"",""trial"",""time""
""fullscreenenter"",""1"",""2234""
""blur"",""19"",""685421""
""focus"",""19"",""689137""
","""event"",""trial"",""time""
""blur"",""19"",""685421""
","""event"",""trial"",""time""
""focus"",""19"",""689137""
","""event"",""trial"",""time""
""fullscreenenter"",""1"",""2234""
","
","","","349.80000001192093","","","11","13299","5712","&#9789;","elianto","#f73b6a7A"," "," ","1","0","[1200.5]","1","0","4","","","","","","","",""
"pit-trial","94","1286587","0.0-2.0-17.2-3.2","battery-v0.2","","""event"",""trial"",""time""
""fullscreenenter"",""1"",""2234""
""blur"",""19"",""685421""
""focus"",""19"",""689137""
","""event"",""trial"",""time""
""blur"",""19"",""685421""
","""event"",""trial"",""time""
""focus"",""19"",""689137""
","""event"",""trial"",""time""
""fullscreenenter"",""1"",""2234""
","
","","","15.300000011920929","","","11","13299","5712","&#9789;","elianto","#f73b6a7A"," "," ","1","-10","[866.5]","1","0","4","","","","","","","",""
"pit-trial","95","1291311","0.0-2.0-17.2-4.2","battery-v0.2","","""event"",""trial"",""time""
""fullscreenenter"",""1"",""2234""
""blur"",""19"",""685421""
""focus"",""19"",""689137""
","""event"",""trial"",""time""
""blur"",""19"",""685421""
","""event"",""trial"",""time""
""focus"",""19"",""689137""
","""event"",""trial"",""time""
""fullscreenenter"",""1"",""2234""
","
","","","1872.699999988079","","","11","13299","5712","&#9789;","elianto","#f73b6a7A"," "," ","1","0","[564.5,2722.7999999821186]","2","0","4","","","","","","","",""
"pit-trial","96","1296164","0.0-2.0-17.3-0.3","battery-v0.2","","""event"",""trial"",""time""
""fullscreenenter"",""1"",""2234""
""blur"",""19"",""685421""
""focus"",""19"",""689137""
","""event"",""trial"",""time""
""blur"",""19"",""685421""
","""event"",""trial"",""time""
""focus"",""19"",""689137""
","""event"",""trial"",""time""
""fullscreenenter"",""1"",""2234""
","
","","","-1","","","11","13299","5712","&#9789;","elianto","#f73b6a7A"," ","-1","0","-10","[597.5999999940395,4538]","2","0","4","","","","","","","",""
"pit-trial","97","1299276","0.0-2.0-17.3-1.3","battery-v0.2","","""event"",""trial"",""time""
""fullscreenenter"",""1"",""2234""
""blur"",""19"",""685421""
""focus"",""19"",""689137""
","""event"",""trial"",""time""
""blur"",""19"",""685421""
","""event"",""trial"",""time""
""focus"",""19"",""689137""
","""event"",""trial"",""time""
""fullscreenenter"",""1"",""2234""
","
","","","251.09999999403954","","","11","13299","5712","&#9789;","elianto","#f73b6a7A"," "," ","1","0","[1101.7999999821186,2716.7999999821186]","2","0","4","","","","","","","",""
"pit-trial","98","1302322","0.0-2.0-17.3-2.3","battery-v0.2","","""event"",""trial"",""time""
""fullscreenenter"",""1"",""2234""
""blur"",""19"",""685421""
""focus"",""19"",""689137""
","""event"",""trial"",""time""
""blur"",""19"",""685421""
","""event"",""trial"",""time""
""focus"",""19"",""689137""
","""event"",""trial"",""time""
""fullscreenenter"",""1"",""2234""
","
","","","194.19999998807907","","","11","13299","5712","&#9789;","elianto","#f73b6a7A"," "," ","1","0","[1044.4000000059605]","1","0","4","","","","","","","",""
"pit-trial","99","1307077","0.0-2.0-17.3-3.3","battery-v0.2","","""event"",""trial"",""time""
""fullscreenenter"",""1"",""2234""
""blur"",""19"",""685421""
""focus"",""19"",""689137""
","""event"",""trial"",""time""
""blur"",""19"",""685421""
","""event"",""trial"",""time""
""focus"",""19"",""689137""
","""event"",""trial"",""time""
""fullscreenenter"",""1"",""2234""
","
","","","1902.699999988079","","","11","13299","5712","&#9789;","elianto","#f73b6a7A"," "," ","1","-10","[758.5,2754]","2","0","4","","","","","","","",""
"pit-trial","100","1310596","0.0-2.0-17.3-4.3","battery-v0.2","","""event"",""trial"",""time""
""fullscreenenter"",""1"",""2234""
""blur"",""19"",""685421""
""focus"",""19"",""689137""
","""event"",""trial"",""time""
""blur"",""19"",""685421""
","""event"",""trial"",""time""
""focus"",""19"",""689137""
","""event"",""trial"",""time""
""fullscreenenter"",""1"",""2234""
","
","","","667","","","11","13299","5712","&#9789;","elianto","#f73b6a7A"," "," ","1","0","[1517.5]","1","0","4","","","","","","","",""
"call-function","101","1310597","0.0-2.0-18.0","battery-v0.2","","""event"",""trial"",""time""
""fullscreenenter"",""1"",""2234""
""blur"",""19"",""685421""
""focus"",""19"",""689137""
","""event"",""trial"",""time""
""blur"",""19"",""685421""
","""event"",""trial"",""time""
""focus"",""19"",""689137""
","""event"",""trial"",""time""
""fullscreenenter"",""1"",""2234""
","
","","","","","","","","","","","","","","","","","","","","","","","","","","",""
"pit-instructions","102","1463519","0.0-2.0-19.0","battery-v0.2","","""event"",""trial"",""time""
""fullscreenenter"",""1"",""2234""
""blur"",""19"",""685421""
""focus"",""19"",""689137""
","""event"",""trial"",""time""
""blur"",""19"",""685421""
","""event"",""trial"",""time""
""focus"",""19"",""689137""
","""event"",""trial"",""time""
""fullscreenenter"",""1"",""2234""
","
","","[{""page_index"":0,""viewing_time"":8193.5},{""page_index"":1,""viewing_time"":28228.29999998212},{""page_index"":2,""viewing_time"":71155.70000001788},{""page_index"":3,""viewing_time"":6791.9000000059605},{""page_index"":4,""viewing_time"":8672},{""page_index"":5,""viewing_time"":12515.899999976158},{""page_index"":6,""viewing_time"":8394},{""page_index"":7,""viewing_time"":5444.100000023842},{""page_index"":8,""viewing_time"":3526.0999999940395}]","152921.79999998212","","","","","","","","","","","","","","","","","","","","","","","",""
"pit-comprehension","103","1469536","0.0-2.0-20.0-0.0","battery-v0.2","","""event"",""trial"",""time""
""fullscreenenter"",""1"",""2234""
""blur"",""19"",""685421""
""focus"",""19"",""689137""
","""event"",""trial"",""time""
""blur"",""19"",""685421""
","""event"",""trial"",""time""
""focus"",""19"",""689137""
","""event"",""trial"",""time""
""fullscreenenter"",""1"",""2234""
","
","","","6014.5999999940395","[""SPACE""]","0","11","13299","5712","","","","","","","","","","","","","","","","","","",""
"pit-instructions","104","1472269","0.0-2.0-20.0-1.0","battery-v0.2","","""event"",""trial"",""time""
""fullscreenenter"",""1"",""2234""
""blur"",""19"",""685421""
""focus"",""19"",""689137""
","""event"",""trial"",""time""
""blur"",""19"",""685421""
","""event"",""trial"",""time""
""focus"",""19"",""689137""
","""event"",""trial"",""time""
""fullscreenenter"",""1"",""2234""
","
","","[{""page_index"":0,""viewing_time"":2704}]","2704.2000000178814","","","","","","","","","","","","","","","","","","","","","","","",""
"pit-comprehension","105","1479497","0.0-2.0-21.0-0.0","battery-v0.2","","""event"",""trial"",""time""
""fullscreenenter"",""1"",""2234""
""blur"",""19"",""685421""
""focus"",""19"",""689137""
","""event"",""trial"",""time""
""blur"",""19"",""685421""
","""event"",""trial"",""time""
""focus"",""19"",""689137""
","""event"",""trial"",""time""
""fullscreenenter"",""1"",""2234""
","
","","","7226.5999999940395","[""10""]","0","11","13299","5712","","","","","","","","","","","","","","","","","","",""
"pit-instructions","106","1481411","0.0-2.0-21.0-1.0","battery-v0.2","","""event"",""trial"",""time""
""fullscreenenter"",""1"",""2234""
""blur"",""19"",""685421""
""focus"",""19"",""689137""
","""event"",""trial"",""time""
""blur"",""19"",""685421""
","""event"",""trial"",""time""
""focus"",""19"",""689137""
","""event"",""trial"",""time""
""fullscreenenter"",""1"",""2234""
","
","","[{""page_index"":0,""viewing_time"":1890.7000000178814}]","1890.9000000059605","","","","","","","","","","","","","","","","","","","","","","","",""
"pit-comprehension","107","1489223","0.0-2.0-22.0-0.0","battery-v0.2","","""event"",""trial"",""time""
""fullscreenenter"",""1"",""2234""
""blur"",""19"",""685421""
""focus"",""19"",""689137""
","""event"",""trial"",""time""
""blur"",""19"",""685421""
","""event"",""trial"",""time""
""focus"",""19"",""689137""
","""event"",""trial"",""time""
""fullscreenenter"",""1"",""2234""
","
","","","7810.700000017881","[""0""]","0","11","13299","5712","","","","","","","","","","","","","","","","","","",""
"pit-instructions","108","1491175","0.0-2.0-22.0-1.0","battery-v0.2","","""event"",""trial"",""time""
""fullscreenenter"",""1"",""2234""
""blur"",""19"",""685421""
""focus"",""19"",""689137""
","""event"",""trial"",""time""
""blur"",""19"",""685421""
","""event"",""trial"",""time""
""focus"",""19"",""689137""
","""event"",""trial"",""time""
""fullscreenenter"",""1"",""2234""
","
","","[{""page_index"":0,""viewing_time"":1928.3999999761581}]","1928.5999999940395","","","","","","","","","","","","","","","","","","","","","","","",""
"pit-comprehension","109","1504597","0.0-2.0-23.0-0.0","battery-v0.2","","""event"",""trial"",""time""
""fullscreenenter"",""1"",""2234""
""blur"",""19"",""685421""
""focus"",""19"",""689137""
","""event"",""trial"",""time""
""blur"",""19"",""685421""
","""event"",""trial"",""time""
""focus"",""19"",""689137""
","""event"",""trial"",""time""
""fullscreenenter"",""1"",""2234""
","
","","","13420.299999982119","[""True""]","0","11","13299","5712","","","","","","","","","","","","","","","","","","",""
"pit-instructions","110","1506149","0.0-2.0-23.0-1.0","battery-v0.2","","""event"",""trial"",""time""
""fullscreenenter"",""1"",""2234""
""blur"",""19"",""685421""
""focus"",""19"",""689137""
","""event"",""trial"",""time""
""blur"",""19"",""685421""
","""event"",""trial"",""time""
""focus"",""19"",""689137""
","""event"",""trial"",""time""
""fullscreenenter"",""1"",""2234""
","
","","[{""page_index"":0,""viewing_time"":1527.300000011921}]","1527.5","","","","","","","","","","","","","","","","","","","","","","","",""
"pit-comprehension","111","1513601","0.0-2.0-24.0-0.0","battery-v0.2","","""event"",""trial"",""time""
""fullscreenenter"",""1"",""2234""
""blur"",""19"",""685421""
""focus"",""19"",""689137""
","""event"",""trial"",""time""
""blur"",""19"",""685421""
","""event"",""trial"",""time""
""focus"",""19"",""689137""
","""event"",""trial"",""time""
""fullscreenenter"",""1"",""2234""
","
","","","7450.4000000059605","[""True""]","0","11","13299","5712","","","","","","","","","","","","","","","","","","",""
"pit-instructions","112","1515077","0.0-2.0-24.0-1.0","battery-v0.2","","""event"",""trial"",""time""
""fullscreenenter"",""1"",""2234""
""blur"",""19"",""685421""
""focus"",""19"",""689137""
","""event"",""trial"",""time""
""blur"",""19"",""685421""
","""event"",""trial"",""time""
""focus"",""19"",""689137""
","""event"",""trial"",""time""
""fullscreenenter"",""1"",""2234""
","
","","[{""page_index"":0,""viewing_time"":1452}]","1452.2000000178814","","","","","","","","","","","","","","","","","","","","","","","",""
"pit-comprehension","113","1597250","0.0-2.0-25.0-0.0","battery-v0.2","","""event"",""trial"",""time""
""fullscreenenter"",""1"",""2234""
""blur"",""19"",""685421""
""focus"",""19"",""689137""
","""event"",""trial"",""time""
""blur"",""19"",""685421""
","""event"",""trial"",""time""
""focus"",""19"",""689137""
","""event"",""trial"",""time""
""fullscreenenter"",""1"",""2234""
","
","","","82172","[""True""]","0","11","13299","5712","","","","","","","","","","","","","","","","","","",""
"pit-instructions","114","1599306","0.0-2.0-25.0-1.0","battery-v0.2","","""event"",""trial"",""time""
""fullscreenenter"",""1"",""2234""
""blur"",""19"",""685421""
""focus"",""19"",""689137""
","""event"",""trial"",""time""
""blur"",""19"",""685421""
","""event"",""trial"",""time""
""focus"",""19"",""689137""
","""event"",""trial"",""time""
""fullscreenenter"",""1"",""2234""
","
","","[{""page_index"":0,""viewing_time"":2030.199999988079}]","2030.300000011921","","","","","","","","","","","","","","","","","","","","","","","",""
"pit-comprehension","115","1606087","0.0-2.0-26.0-0.0","battery-v0.2","","""event"",""trial"",""time""
""fullscreenenter"",""1"",""2234""
""blur"",""19"",""685421""
""focus"",""19"",""689137""
","""event"",""trial"",""time""
""blur"",""19"",""685421""
","""event"",""trial"",""time""
""focus"",""19"",""689137""
","""event"",""trial"",""time""
""fullscreenenter"",""1"",""2234""
","
","","","6778.9000000059605","[""False""]","0","11","13299","5712","","","","","","","","","","","","","","","","","","",""
"pit-instructions","116","1618448","0.0-2.0-26.0-1.0","battery-v0.2","","""event"",""trial"",""time""
""fullscreenenter"",""1"",""2234""
""blur"",""19"",""685421""
""focus"",""19"",""689137""
","""event"",""trial"",""time""
""blur"",""19"",""685421""
","""event"",""trial"",""time""
""focus"",""19"",""689137""
","""event"",""trial"",""time""
""fullscreenenter"",""1"",""2234""
","
","","[{""page_index"":0,""viewing_time"":12337.09999999404}]","12337.300000011921","","","","","","","","","","","","","","","","","","","","","","","",""
"pit-instructions","117","1637492","0.0-3.0","battery-v0.2","","""event"",""trial"",""time""
""fullscreenenter"",""1"",""2234""
""blur"",""19"",""685421""
""focus"",""19"",""689137""
","""event"",""trial"",""time""
""blur"",""19"",""685421""
","""event"",""trial"",""time""
""focus"",""19"",""689137""
","""event"",""trial"",""time""
""fullscreenenter"",""1"",""2234""
","
","","[{""page_index"":0,""viewing_time"":3522.800000011921},{""page_index"":1,""viewing_time"":5577.799999982119},{""page_index"":2,""viewing_time"":9941.700000017881}]","19042.5","","","","","","","","","","","","","","","","","","","","","","","",""
"pit-trial","118","1642365","0.0-4.0","battery-v0.2","","""event"",""trial"",""time""
""fullscreenenter"",""1"",""2234""
""blur"",""19"",""685421""
""focus"",""19"",""689137""
","""event"",""trial"",""time""
""blur"",""19"",""685421""
","""event"",""trial"",""time""
""focus"",""19"",""689137""
","""event"",""trial"",""time""
""fullscreenenter"",""1"",""2234""
","
","","","-1","","","11","13299","5712","&#9733;","elianto","#3366ff99","-1","-1","1","+10","[]","0","1","","","13299","1","2","2","win","no-go","0"
"pit-trial","119","1647234","0.0-5.0","battery-v0.2","","""event"",""trial"",""time""
""fullscreenenter"",""1"",""2234""
""blur"",""19"",""685421""
""focus"",""19"",""689137""
","""event"",""trial"",""time""
""blur"",""19"",""685421""
","""event"",""trial"",""time""
""focus"",""19"",""689137""
","""event"",""trial"",""time""
""fullscreenenter"",""1"",""2234""
","
","","","-1","","","11","13299","5712","&#9730;","elianto","#3366ff99"," ","-1","0","0","[]","0","1","","","13299","2","1","1","win","go","0"
"pit-trial","120","1652102","0.0-6.0","battery-v0.2","","""event"",""trial"",""time""
""fullscreenenter"",""1"",""2234""
""blur"",""19"",""685421""
""focus"",""19"",""689137""
","""event"",""trial"",""time""
""blur"",""19"",""685421""
","""event"",""trial"",""time""
""focus"",""19"",""689137""
","""event"",""trial"",""time""
""fullscreenenter"",""1"",""2234""
","
","","","-1","","","11","13299","5712","&#9752;","elianto","#f73b6a7A"," ","-1","0","-10","[2981.5]","1","1","","","13299","3","3","3","lose","go","0"
"pit-trial","121","1655928","0.0-7.0","battery-v0.2","","""event"",""trial"",""time""
""fullscreenenter"",""1"",""2234""
""blur"",""19"",""685421""
""focus"",""19"",""689137""
","""event"",""trial"",""time""
""blur"",""19"",""685421""
","""event"",""trial"",""time""
""focus"",""19"",""689137""
","""event"",""trial"",""time""
""fullscreenenter"",""1"",""2234""
","
","","","961.5999999940395","","","11","13299","5712","&#9728;","elianto","#f73b6a7A","-1"," ","0","-10","[1813.0999999940395]","1","1","","","13299","4","0","4","lose","no-go","0"
"pit-trial","122","1659343","0.0-8.0","battery-v0.2","","""event"",""trial"",""time""
""fullscreenenter"",""1"",""2234""
""blur"",""19"",""685421""
""focus"",""19"",""689137""
","""event"",""trial"",""time""
""blur"",""19"",""685421""
","""event"",""trial"",""time""
""focus"",""19"",""689137""
","""event"",""trial"",""time""
""fullscreenenter"",""1"",""2234""
","
","","","548.7000000178814","","","11","13299","5712","&#9733;","elianto","#3366ff99","-1"," ","0","+10","[1399.5]","1","1","","","13299","5","2","2","win","no-go","1"
"pit-trial","123","1663452","0.0-9.0","battery-v0.2","","""event"",""trial"",""time""
""fullscreenenter"",""1"",""2234""
""blur"",""19"",""685421""
""focus"",""19"",""689137""
","""event"",""trial"",""time""
""blur"",""19"",""685421""
","""event"",""trial"",""time""
""focus"",""19"",""689137""
","""event"",""trial"",""time""
""fullscreenenter"",""1"",""2234""
","
","","","1246.4000000059605","","","11","13299","5712","&#9752;","elianto","#f73b6a7A"," "," ","1","0","[2096.699999988079]","1","1","","","13299","6","3","3","lose","go","0"
"pit-trial","124","1667050","0.0-10.0","battery-v0.2","","""event"",""trial"",""time""
""fullscreenenter"",""1"",""2234""
""blur"",""19"",""685421""
""focus"",""19"",""689137""
","""event"",""trial"",""time""
""blur"",""19"",""685421""
","""event"",""trial"",""time""
""focus"",""19"",""689137""
","""event"",""trial"",""time""
""fullscreenenter"",""1"",""2234""
","
","","","746.2999999821186","","","11","13299","5712","&#9730;","elianto","#3366ff99"," "," ","1","+10","[1596.5]","1","1","","","13299","7","1","1","win","go","0"
"pit-trial","125","1670440","0.0-11.0","battery-v0.2","","""event"",""trial"",""time""
""fullscreenenter"",""1"",""2234""
""blur"",""19"",""685421""
""focus"",""19"",""689137""
","""event"",""trial"",""time""
""blur"",""19"",""685421""
","""event"",""trial"",""time""
""focus"",""19"",""689137""
","""event"",""trial"",""time""
""fullscreenenter"",""1"",""2234""
","
","","","535.8000000119209","","","11","13299","5712","&#9728;","elianto","#f73b6a7A","-1"," ","0","-10","[1385.9000000059605]","1","1","","","13299","8","0","4","lose","no-go","0"
"pit-trial","126","1673891","0.0-12.0","battery-v0.2","","""event"",""trial"",""time""
""fullscreenenter"",""1"",""2234""
""blur"",""19"",""685421""
""focus"",""19"",""689137""
","""event"",""trial"",""time""
""blur"",""19"",""685421""
","""event"",""trial"",""time""
""focus"",""19"",""689137""
","""event"",""trial"",""time""
""fullscreenenter"",""1"",""2234""
","
","","","598.8000000119209","","","11","13299","5712","&#9730;","elianto","#3366ff99"," "," ","1","+10","[1449.800000011921]","1","1","","","13299","9","1","1","win","go","0"
"pit-trial","127","1677733","0.0-13.0","battery-v0.2","","""event"",""trial"",""time""
""fullscreenenter"",""1"",""2234""
""blur"",""19"",""685421""
""focus"",""19"",""689137""
","""event"",""trial"",""time""
""blur"",""19"",""685421""
","""event"",""trial"",""time""
""focus"",""19"",""689137""
","""event"",""trial"",""time""
""fullscreenenter"",""1"",""2234""
","
","","","988.8000000119209","","","11","13299","5712","&#9752;","elianto","#f73b6a7A"," "," ","1","0","[1840]","1","1","","","13299","10","3","3","lose","go","0"
"pit-trial","128","1682585","0.0-14.0","battery-v0.2","","""event"",""trial"",""time""
""fullscreenenter"",""1"",""2234""
""blur"",""19"",""685421""
""focus"",""19"",""689137""
","""event"",""trial"",""time""
""blur"",""19"",""685421""
","""event"",""trial"",""time""
""focus"",""19"",""689137""
","""event"",""trial"",""time""
""fullscreenenter"",""1"",""2234""
","
","","","-1","","","11","13299","5712","&#9728;","elianto","#f73b6a7A","-1","-1","1","0","[]","0","1","","","13299","11","0","4","lose","no-go","0"
"pit-trial","129","1685860","0.0-15.0","battery-v0.2","","""event"",""trial"",""time""
""fullscreenenter"",""1"",""2234""
""blur"",""19"",""685421""
""focus"",""19"",""689137""
","""event"",""trial"",""time""
""blur"",""19"",""685421""
","""event"",""trial"",""time""
""focus"",""19"",""689137""
","""event"",""trial"",""time""
""fullscreenenter"",""1"",""2234""
","
","","","422.30000001192093","","","11","13299","5712","&#9733;","elianto","#3366ff99","-1"," ","0","0","[1273.2000000178814]","1","1","","","13299","12","2","2","win","no-go","0"
"pit-trial","130","1690714","0.0-16.0","battery-v0.2","","""event"",""trial"",""time""
""fullscreenenter"",""1"",""2234""
""blur"",""19"",""685421""
""focus"",""19"",""689137""
","""event"",""trial"",""time""
""blur"",""19"",""685421""
","""event"",""trial"",""time""
""focus"",""19"",""689137""
","""event"",""trial"",""time""
""fullscreenenter"",""1"",""2234""
","
","","","-1","","","11","13299","5712","&#9728;","elianto","#f73b6a7A","-1","-1","1","0","[]","0","1","","","13299","13","0","4","lose","no-go","0"
"pit-trial","131","1694980","0.0-17.0","battery-v0.2","","""event"",""trial"",""time""
""fullscreenenter"",""1"",""2234""
""blur"",""19"",""685421""
""focus"",""19"",""689137""
","""event"",""trial"",""time""
""blur"",""19"",""685421""
","""event"",""trial"",""time""
""focus"",""19"",""689137""
","""event"",""trial"",""time""
""fullscreenenter"",""1"",""2234""
","
","","","1413.0999999940395","","","11","13299","5712","&#9752;","elianto","#f73b6a7A"," "," ","1","0","[2264.4000000059605]","1","1","","","13299","14","3","3","lose","go","0"
"pit-trial","132","1698399","0.0-18.0","battery-v0.2","","""event"",""trial"",""time""
""fullscreenenter"",""1"",""2234""
""blur"",""19"",""685421""
""focus"",""19"",""689137""
","""event"",""trial"",""time""
""blur"",""19"",""685421""
","""event"",""trial"",""time""
""focus"",""19"",""689137""
","""event"",""trial"",""time""
""fullscreenenter"",""1"",""2234""
","
","","","567.4000000059605","","","11","13299","5712","&#9730;","elianto","#3366ff99"," "," ","1","+10","[1417.7000000178814]","1","1","","","13299","15","1","1","win","go","0"
"pit-trial","133","1702013","0.0-19.0","battery-v0.2","","""event"",""trial"",""time""
""fullscreenenter"",""1"",""2234""
""blur"",""19"",""685421""
""focus"",""19"",""689137""
","""event"",""trial"",""time""
""blur"",""19"",""685421""
","""event"",""trial"",""time""
""focus"",""19"",""689137""
","""event"",""trial"",""time""
""fullscreenenter"",""1"",""2234""
","
","","","761.2000000178814","","","11","13299","5712","&#9733;","elianto","#3366ff99","-1"," ","0","0","[1611.5]","1","1","","","13299","16","2","2","win","no-go","0"
"pit-trial","134","1706866","0.0-20.0","battery-v0.2","","""event"",""trial"",""time""
""fullscreenenter"",""1"",""2234""
""blur"",""19"",""685421""
""focus"",""19"",""689137""
","""event"",""trial"",""time""
""blur"",""19"",""685421""
","""event"",""trial"",""time""
""focus"",""19"",""689137""
","""event"",""trial"",""time""
""fullscreenenter"",""1"",""2234""
","
","","","-1","","","11","13299","5712","&#9728;","elianto","#f73b6a7A","-1","-1","1","-10","[]","0","1","","","13299","17","0","4","lose","no-go","1"
"pit-trial","135","1711718","0.0-21.0","battery-v0.2","","""event"",""trial"",""time""
""fullscreenenter"",""1"",""2234""
""blur"",""19"",""685421""
""focus"",""19"",""689137""
","""event"",""trial"",""time""
""blur"",""19"",""685421""
","""event"",""trial"",""time""
""focus"",""19"",""689137""
","""event"",""trial"",""time""
""fullscreenenter"",""1"",""2234""
","
","","","-1","","","11","13299","5712","&#9752;","elianto","#f73b6a7A"," ","-1","0","-10","[]","0","1","","","13299","18","3","3","lose","go","0"
"pit-trial","136","1715286","0.0-22.0","battery-v0.2","","""event"",""trial"",""time""
""fullscreenenter"",""1"",""2234""
""blur"",""19"",""685421""
""focus"",""19"",""689137""
","""event"",""trial"",""time""
""blur"",""19"",""685421""
","""event"",""trial"",""time""
""focus"",""19"",""689137""
","""event"",""trial"",""time""
""fullscreenenter"",""1"",""2234""
","
","","","715.7000000178814","","","11","13299","5712","&#9730;","elianto","#3366ff99"," "," ","1","+10","[1566.300000011921]","1","1","","","13299","19","1","1","win","go","0"
"pit-trial","137","1718923","0.0-23.0","battery-v0.2","","""event"",""trial"",""time""
""fullscreenenter"",""1"",""2234""
""blur"",""19"",""685421""
""focus"",""19"",""689137""
","""event"",""trial"",""time""
""blur"",""19"",""685421""
","""event"",""trial"",""time""
""focus"",""19"",""689137""
","""event"",""trial"",""time""
""fullscreenenter"",""1"",""2234""
","
","","","784.8999999761581","","","11","13299","5712","&#9733;","elianto","#3366ff99","-1"," ","0","0","[1635.5999999940395]","1","1","","","13299","20","2","2","win","no-go","0"
"pit-instructions","138","1795406","0.0-24.0","battery-v0.2","","""event"",""trial"",""time""
""fullscreenenter"",""1"",""2234""
""blur"",""19"",""685421""
""focus"",""19"",""689137""
","""event"",""trial"",""time""
""blur"",""19"",""685421""
","""event"",""trial"",""time""
""focus"",""19"",""689137""
","""event"",""trial"",""time""
""fullscreenenter"",""1"",""2234""
","
","","[{""page_index"":0,""viewing_time"":69633.39999997616},{""page_index"":1,""viewing_time"":6848.4000000059605}]","76482","","","","","","","","","","","","","","","","","","","","","","","",""
"pit-trial","139","1799758","0.0-25.0","battery-v0.2","","""event"",""trial"",""time""
""fullscreenenter"",""1"",""2234""
""blur"",""19"",""685421""
""focus"",""19"",""689137""
","""event"",""trial"",""time""
""blur"",""19"",""685421""
","""event"",""trial"",""time""
""focus"",""19"",""689137""
","""event"",""trial"",""time""
""fullscreenenter"",""1"",""2234""
","
","","","1483","","","11","13299","5712","a","elianto","#f73b6a7A","-1"," ","0","-10","[2336.5999999940395]","1","2","","","13299","21","2","4","lose","no-go","0"
"pit-trial","140","1803429","0.0-26.0","battery-v0.2","","""event"",""trial"",""time""
""fullscreenenter"",""1"",""2234""
""blur"",""19"",""685421""
""focus"",""19"",""689137""
","""event"",""trial"",""time""
""blur"",""19"",""685421""
","""event"",""trial"",""time""
""focus"",""19"",""689137""
","""event"",""trial"",""time""
""fullscreenenter"",""1"",""2234""
","
","","","811.7000000178814","","","11","13299","5712","u","elianto","#f73b6a7A","-1"," ","0","0","[1662.2000000178814]","1","2","","","13299","22","0","4","lose","no-go","1"
"pit-trial","141","1807485","0.0-27.0","battery-v0.2","","""event"",""trial"",""time""
""fullscreenenter"",""1"",""2234""
""blur"",""19"",""685421""
""focus"",""19"",""689137""
","""event"",""trial"",""time""
""blur"",""19"",""685421""
","""event"",""trial"",""time""
""focus"",""19"",""689137""
","""event"",""trial"",""time""
""fullscreenenter"",""1"",""2234""
","
","","","1198.7999999821186","","","11","13299","5712","g","elianto","#f73b6a7A"," "," ","1","0","[2049.199999988079]","1","2","","","13299","23","3","3","lose","go","0"
"pit-trial","142","1810992","0.0-28.0","battery-v0.2","","""event"",""trial"",""time""
""fullscreenenter"",""1"",""2234""
""blur"",""19"",""685421""
""focus"",""19"",""689137""
","""event"",""trial"",""time""
""blur"",""19"",""685421""
","""event"",""trial"",""time""
""focus"",""19"",""689137""
","""event"",""trial"",""time""
""fullscreenenter"",""1"",""2234""
","
","","","644.0999999940395","","","11","13299","5712","l","elianto","#3366ff99"," "," ","1","+10","[1496.2000000178814]","1","2","","","13299","24","1","1","win","go","0"
"pit-trial","143","1815867","0.0-29.0","battery-v0.2","","""event"",""trial"",""time""
""fullscreenenter"",""1"",""2234""
""blur"",""19"",""685421""
""focus"",""19"",""689137""
","""event"",""trial"",""time""
""blur"",""19"",""685421""
","""event"",""trial"",""time""
""focus"",""19"",""689137""
","""event"",""trial"",""time""
""fullscreenenter"",""1"",""2234""
","
","","","-1","","","11","13299","5712","u","elianto","#f73b6a7A","-1","-1","1","-10","[2864.7000000178814]","1","2","","","13299","25","0","4","lose","no-go","1"
"pit-trial","144","1820296","0.0-30.0","battery-v0.2","","""event"",""trial"",""time""
""fullscreenenter"",""1"",""2234""
""blur"",""19"",""685421""
""focus"",""19"",""689137""
","""event"",""trial"",""time""
""blur"",""19"",""685421""
","""event"",""trial"",""time""
""focus"",""19"",""689137""
","""event"",""trial"",""time""
""fullscreenenter"",""1"",""2234""
","
","","","1563.5","","","11","13299","5712","a","elianto","#f73b6a7A","-1"," ","0","-10","[2417.2000000178814]","1","2","","","13299","26","2","4","lose","no-go","0"
"pit-trial","145","1824199","0.0-31.0","battery-v0.2","","""event"",""trial"",""time""
""fullscreenenter"",""1"",""2234""
""blur"",""19"",""685421""
""focus"",""19"",""689137""
","""event"",""trial"",""time""
""blur"",""19"",""685421""
","""event"",""trial"",""time""
""focus"",""19"",""689137""
","""event"",""trial"",""time""
""fullscreenenter"",""1"",""2234""
","
","","","1044.5","","","11","13299","5712","l","elianto","#3366ff99"," "," ","1","+10","[1899.4000000059605]","1","2","","","13299","27","1","1","win","go","0"
"pit-trial","146","1828976","0.0-32.0","battery-v0.2","","""event"",""trial"",""time""
""fullscreenenter"",""1"",""2234""
""blur"",""19"",""685421""
""focus"",""19"",""689137""
","""event"",""trial"",""time""
""blur"",""19"",""685421""
","""event"",""trial"",""time""
""focus"",""19"",""689137""
","""event"",""trial"",""time""
""fullscreenenter"",""1"",""2234""
","
","","","1921.4000000059605","","","11","13299","5712","g","elianto","#f73b6a7A"," "," ","1","0","[2774.699999988079]","1","2","","","13299","28","3","3","lose","go","0"
"pit-trial","147","1833829","0.0-33.0","battery-v0.2","","""event"",""trial"",""time""
""fullscreenenter"",""1"",""2234""
""blur"",""19"",""685421""
""focus"",""19"",""689137""
","""event"",""trial"",""time""
""blur"",""19"",""685421""
","""event"",""trial"",""time""
""focus"",""19"",""689137""
","""event"",""trial"",""time""
""fullscreenenter"",""1"",""2234""
","
","","","-1","","","11","13299","5712","u","elianto","#f73b6a7A","-1","-1","1","-10","[]","0","2","","","13299","29","0","4","lose","no-go","1"
"pit-trial","148","1838689","0.0-34.0","battery-v0.2","","""event"",""trial"",""time""
""fullscreenenter"",""1"",""2234""
""blur"",""19"",""685421""
""focus"",""19"",""689137""
","""event"",""trial"",""time""
""blur"",""19"",""685421""
","""event"",""trial"",""time""
""focus"",""19"",""689137""
","""event"",""trial"",""time""
""fullscreenenter"",""1"",""2234""
","
","","","-1","","","11","13299","5712","g","elianto","#f73b6a7A"," ","-1","0","-10","[]","0","2","","","13299","30","3","3","lose","go","0"
"pit-trial","149","1843542","0.0-35.0","battery-v0.2","","""event"",""trial"",""time""
""fullscreenenter"",""1"",""2234""
""blur"",""19"",""685421""
""focus"",""19"",""689137""
","""event"",""trial"",""time""
""blur"",""19"",""685421""
","""event"",""trial"",""time""
""focus"",""19"",""689137""
","""event"",""trial"",""time""
""fullscreenenter"",""1"",""2234""
","
","","","-1","","","11","13299","5712","a","elianto","#f73b6a7A","-1","-1","1","0","[]","0","2","","","13299","31","2","4","lose","no-go","0"
"pit-trial","150","1847005","0.0-36.0","battery-v0.2","","""event"",""trial"",""time""
""fullscreenenter"",""1"",""2234""
""blur"",""19"",""685421""
""focus"",""19"",""689137""
","""event"",""trial"",""time""
""blur"",""19"",""685421""
","""event"",""trial"",""time""
""focus"",""19"",""689137""
","""event"",""trial"",""time""
""fullscreenenter"",""1"",""2234""
","
","","","610.2999999821186","","","11","13299","5712","l","elianto","#3366ff99"," "," ","1","+10","[1462]","1","2","","","13299","32","1","1","win","go","0"
"pit-trial","151","1850910","0.0-37.0","battery-v0.2","","""event"",""trial"",""time""
""fullscreenenter"",""1"",""2234""
""blur"",""19"",""685421""
""focus"",""19"",""689137""
","""event"",""trial"",""time""
""blur"",""19"",""685421""
","""event"",""trial"",""time""
""focus"",""19"",""689137""
","""event"",""trial"",""time""
""fullscreenenter"",""1"",""2234""
","
","","","1051.800000011921","","","11","13299","5712","g","elianto","#f73b6a7A"," "," ","1","0","[1901.800000011921]","1","2","","","13299","33","3","3","lose","go","0"
"pit-trial","152","1854240","0.0-38.0","battery-v0.2","","""event"",""trial"",""time""
""fullscreenenter"",""1"",""2234""
""blur"",""19"",""685421""
""focus"",""19"",""689137""
","""event"",""trial"",""time""
""blur"",""19"",""685421""
","""event"",""trial"",""time""
""focus"",""19"",""689137""
","""event"",""trial"",""time""
""fullscreenenter"",""1"",""2234""
","
","","","476.59999999403954","","","11","13299","5712","a","elianto","#f73b6a7A","-1"," ","0","0","[1328.300000011921]","1","2","","","13299","34","2","4","lose","no-go","1"
"pit-trial","153","1858535","0.0-39.0","battery-v0.2","","""event"",""trial"",""time""
""fullscreenenter"",""1"",""2234""
""blur"",""19"",""685421""
""focus"",""19"",""689137""
","""event"",""trial"",""time""
""blur"",""19"",""685421""
","""event"",""trial"",""time""
""focus"",""19"",""689137""
","""event"",""trial"",""time""
""fullscreenenter"",""1"",""2234""
","
","","","1441.9000000059605","","","11","13299","5712","u","elianto","#f73b6a7A","-1"," ","0","-10","[2292.5999999940395]","1","2","","","13299","35","0","4","lose","no-go","0"
"pit-trial","154","1863387","0.0-40.0","battery-v0.2","","""event"",""trial"",""time""
""fullscreenenter"",""1"",""2234""
""blur"",""19"",""685421""
""focus"",""19"",""689137""
","""event"",""trial"",""time""
""blur"",""19"",""685421""
","""event"",""trial"",""time""
""focus"",""19"",""689137""
","""event"",""trial"",""time""
""fullscreenenter"",""1"",""2234""
","
","","","-1","","","11","13299","5712","l","elianto","#3366ff99"," ","-1","0","0","[694.3000000119209,4608.200000017881]","2","2","","","13299","36","1","1","win","go","0"
"pit-trial","155","1868240","0.0-41.0","battery-v0.2","","""event"",""trial"",""time""
""fullscreenenter"",""1"",""2234""
""blur"",""19"",""685421""
""focus"",""19"",""689137""
","""event"",""trial"",""time""
""blur"",""19"",""685421""
","""event"",""trial"",""time""
""focus"",""19"",""689137""
","""event"",""trial"",""time""
""fullscreenenter"",""1"",""2234""
","
","","","-1","","","11","13299","5712","a","elianto","#f73b6a7A","-1","-1","1","0","[4057.0999999940395]","1","2","","","13299","37","2","4","lose","no-go","0"
"pit-trial","156","1873093","0.0-42.0","battery-v0.2","","""event"",""trial"",""time""
""fullscreenenter"",""1"",""2234""
""blur"",""19"",""685421""
""focus"",""19"",""689137""
","""event"",""trial"",""time""
""blur"",""19"",""685421""
","""event"",""trial"",""time""
""focus"",""19"",""689137""
","""event"",""trial"",""time""
""fullscreenenter"",""1"",""2234""
","
","","","-1","","","11","13299","5712","g","elianto","#f73b6a7A"," ","-1","0","-10","[]","0","2","","","13299","38","3","3","lose","go","0"
"pit-trial","157","1876634","0.0-43.0","battery-v0.2","","""event"",""trial"",""time""
""fullscreenenter"",""1"",""2234""
""blur"",""19"",""685421""
""focus"",""19"",""689137""
","""event"",""trial"",""time""
""blur"",""19"",""685421""
","""event"",""trial"",""time""
""focus"",""19"",""689137""
","""event"",""trial"",""time""
""fullscreenenter"",""1"",""2234""
","
","","","688.7000000178814","","","11","13299","5712","u","elianto","#f73b6a7A","-1"," ","0","0","[1539.2999999821186]","1","2","","","13299","39","0","4","lose","no-go","1"
"pit-trial","158","1879954","0.0-44.0","battery-v0.2","","""event"",""trial"",""time""
""fullscreenenter"",""1"",""2234""
""blur"",""19"",""685421""
""focus"",""19"",""689137""
","""event"",""trial"",""time""
""blur"",""19"",""685421""
","""event"",""trial"",""time""
""focus"",""19"",""689137""
","""event"",""trial"",""time""
""fullscreenenter"",""1"",""2234""
","
","","","467","","","11","13299","5712","l","elianto","#3366ff99"," "," ","1","0","[1317.8999999761581]","1","2","","","13299","40","1","1","win","go","1"
"pit-trial","159","1883558","0.0-45.0","battery-v0.2","","""event"",""trial"",""time""
""fullscreenenter"",""1"",""2234""
""blur"",""19"",""685421""
""focus"",""19"",""689137""
","""event"",""trial"",""time""
""blur"",""19"",""685421""
","""event"",""trial"",""time""
""focus"",""19"",""689137""
","""event"",""trial"",""time""
""fullscreenenter"",""1"",""2234""
","
","","","751.0999999940395","","","11","13299","5712","l","elianto","#3366ff99"," "," ","1","+10","[1601.699999988079]","1","2","","","13299","41","1","1","win","go","0"
"pit-trial","160","1887732","0.0-46.0","battery-v0.2","","""event"",""trial"",""time""
""fullscreenenter"",""1"",""2234""
""blur"",""19"",""685421""
""focus"",""19"",""689137""
","""event"",""trial"",""time""
""blur"",""19"",""685421""
","""event"",""trial"",""time""
""focus"",""19"",""689137""
","""event"",""trial"",""time""
""fullscreenenter"",""1"",""2234""
","
","","","1321.7999999821186","","","11","13299","5712","u","elianto","#f73b6a7A","-1"," ","0","-10","[2172]","1","2","","","13299","42","0","4","lose","no-go","0"
"pit-trial","161","1891875","0.0-47.0","battery-v0.2","","""event"",""trial"",""time""
""fullscreenenter"",""1"",""2234""
""blur"",""19"",""685421""
""focus"",""19"",""689137""
","""event"",""trial"",""time""
""blur"",""19"",""685421""
","""event"",""trial"",""time""
""focus"",""19"",""689137""
","""event"",""trial"",""time""
""fullscreenenter"",""1"",""2234""
","
","","","1290","","","11","13299","5712","a","elianto","#f73b6a7A","-1"," ","0","-10","[2140.7000000178814]","1","2","","","13299","43","2","4","lose","no-go","0"
"pit-trial","162","1896728","0.0-48.0","battery-v0.2","","""event"",""trial"",""time""
""fullscreenenter"",""1"",""2234""
""blur"",""19"",""685421""
""focus"",""19"",""689137""
","""event"",""trial"",""time""
""blur"",""19"",""685421""
","""event"",""trial"",""time""
""focus"",""19"",""689137""
","""event"",""trial"",""time""
""fullscreenenter"",""1"",""2234""
","
","","","-1","","","11","13299","5712","g","elianto","#f73b6a7A"," ","-1","0","0","[]","0","2","","","13299","44","3","3","lose","go","1"
"pit-trial","163","1901581","0.0-49.0","battery-v0.2","","""event"",""trial"",""time""
""fullscreenenter"",""1"",""2234""
""blur"",""19"",""685421""
""focus"",""19"",""689137""
","""event"",""trial"",""time""
""blur"",""19"",""685421""
","""event"",""trial"",""time""
""focus"",""19"",""689137""
","""event"",""trial"",""time""
""fullscreenenter"",""1"",""2234""
","
","","","-1","","","11","13299","5712","g","elianto","#f73b6a7A"," ","-1","0","-10","[]","0","2","","","13299","45","3","3","lose","go","0"
"pit-trial","164","1905171","0.0-50.0","battery-v0.2","","""event"",""trial"",""time""
""fullscreenenter"",""1"",""2234""
""blur"",""19"",""685421""
""focus"",""19"",""689137""
","""event"",""trial"",""time""
""blur"",""19"",""685421""
","""event"",""trial"",""time""
""focus"",""19"",""689137""
","""event"",""trial"",""time""
""fullscreenenter"",""1"",""2234""
","
","","","737.5","","","11","13299","5712","p","elianto","#3366ff99","-1"," ","0","+10","[1587.8999999761581]","1","2","","","13299","46","4","2","win","no-go","1"
"pit-trial","165","1910023","0.0-51.0","battery-v0.2","","""event"",""trial"",""time""
""fullscreenenter"",""1"",""2234""
""blur"",""19"",""685421""
""focus"",""19"",""689137""
","""event"",""trial"",""time""
""blur"",""19"",""685421""
","""event"",""trial"",""time""
""focus"",""19"",""689137""
","""event"",""trial"",""time""
""fullscreenenter"",""1"",""2234""
","
","","","-1","","","11","13299","5712","a","elianto","#f73b6a7A","-1","-1","1","0","[]","0","2","","","13299","47","2","4","lose","no-go","0"
"pit-trial","166","1914877","0.0-52.0","battery-v0.2","","""event"",""trial"",""time""
""fullscreenenter"",""1"",""2234""
""blur"",""19"",""685421""
""focus"",""19"",""689137""
","""event"",""trial"",""time""
""blur"",""19"",""685421""
","""event"",""trial"",""time""
""focus"",""19"",""689137""
","""event"",""trial"",""time""
""fullscreenenter"",""1"",""2234""
","
","","","-1","","","11","13299","5712","u","elianto","#f73b6a7A","-1","-1","1","0","[]","0","2","","","13299","48","0","4","lose","no-go","0"
"pit-trial","167","1918305","0.0-53.0","battery-v0.2","","""event"",""trial"",""time""
""fullscreenenter"",""1"",""2234""
""blur"",""19"",""685421""
""focus"",""19"",""689137""
","""event"",""trial"",""time""
""blur"",""19"",""685421""
","""event"",""trial"",""time""
""focus"",""19"",""689137""
","""event"",""trial"",""time""
""fullscreenenter"",""1"",""2234""
","
","","","576.1999999880791","","","11","13299","5712","l","elianto","#3366ff99"," "," ","1","+10","[1426.9000000059605]","1","2","","","13299","49","1","1","win","go","0"
"pit-trial","168","1923158","0.0-54.0","battery-v0.2","","""event"",""trial"",""time""
""fullscreenenter"",""1"",""2234""
""blur"",""19"",""685421""
""focus"",""19"",""689137""
","""event"",""trial"",""time""
""blur"",""19"",""685421""
","""event"",""trial"",""time""
""focus"",""19"",""689137""
","""event"",""trial"",""time""
""fullscreenenter"",""1"",""2234""
","
","","","-1","","","11","13299","5712","g","elianto","#f73b6a7A"," ","-1","0","-10","[]","0","2","","","13299","50","3","3","lose","go","0"
"pit-trial","169","1926141","0.0-55.0","battery-v0.2","","""event"",""trial"",""time""
""fullscreenenter"",""1"",""2234""
""blur"",""19"",""685421""
""focus"",""19"",""689137""
","""event"",""trial"",""time""
""blur"",""19"",""685421""
","""event"",""trial"",""time""
""focus"",""19"",""689137""
","""event"",""trial"",""time""
""fullscreenenter"",""1"",""2234""
","
","","","131.7000000178814","","","11","13299","5712","u","elianto","#f73b6a7A","-1"," ","0","-10","[981.8000000119209]","1","2","","","13299","51","0","4","lose","no-go","0"
"pit-trial","170","1930139","0.0-56.0","battery-v0.2","","""event"",""trial"",""time""
""fullscreenenter"",""1"",""2234""
""blur"",""19"",""685421""
""focus"",""19"",""689137""
","""event"",""trial"",""time""
""blur"",""19"",""685421""
","""event"",""trial"",""time""
""focus"",""19"",""689137""
","""event"",""trial"",""time""
""fullscreenenter"",""1"",""2234""
","
","","","1145.4000000059605","","","11","13299","5712","p","elianto","#3366ff99","-1"," ","0","0","[1996.300000011921]","1","2","","","13299","52","4","2","win","no-go","0"
"pit-trial","171","1934991","0.0-57.0","battery-v0.2","","""event"",""trial"",""time""
""fullscreenenter"",""1"",""2234""
""blur"",""19"",""685421""
""focus"",""19"",""689137""
","""event"",""trial"",""time""
""blur"",""19"",""685421""
","""event"",""trial"",""time""
""focus"",""19"",""689137""
","""event"",""trial"",""time""
""fullscreenenter"",""1"",""2234""
","
","","","-1","","","11","13299","5712","u","elianto","#f73b6a7A","-1","-1","1","0","[]","0","2","","","13299","53","0","4","lose","no-go","0"
"pit-trial","172","1939843","0.0-58.0","battery-v0.2","","""event"",""trial"",""time""
""fullscreenenter"",""1"",""2234""
""blur"",""19"",""685421""
""focus"",""19"",""689137""
","""event"",""trial"",""time""
""blur"",""19"",""685421""
","""event"",""trial"",""time""
""focus"",""19"",""689137""
","""event"",""trial"",""time""
""fullscreenenter"",""1"",""2234""
","
","","","-1","","","11","13299","5712","a","elianto","#f73b6a7A","-1","-1","1","0","[]","0","2","","","13299","54","2","4","lose","no-go","0"
"pit-trial","173","1944535","0.0-59.0","battery-v0.2","","""event"",""trial"",""time""
""fullscreenenter"",""1"",""2234""
""blur"",""19"",""685421""
""focus"",""19"",""689137""
","""event"",""trial"",""time""
""blur"",""19"",""685421""
","""event"",""trial"",""time""
""focus"",""19"",""689137""
","""event"",""trial"",""time""
""fullscreenenter"",""1"",""2234""
","
","","","1839.0999999940395","","","11","13299","5712","p","elianto","#3366ff99","-1"," ","0","0","[2689.199999988079]","1","2","","","13299","55","4","2","win","no-go","0"
"pit-trial","174","1948318","0.0-60.0","battery-v0.2","","""event"",""trial"",""time""
""fullscreenenter"",""1"",""2234""
""blur"",""19"",""685421""
""focus"",""19"",""689137""
","""event"",""trial"",""time""
""blur"",""19"",""685421""
","""event"",""trial"",""time""
""focus"",""19"",""689137""
","""event"",""trial"",""time""
""fullscreenenter"",""1"",""2234""
","
","","","929.4000000059605","","","11","13299","5712","l","elianto","#3366ff99"," "," ","1","+10","[1780.5999999940395]","1","2","","","13299","56","1","1","win","go","0"
"pit-trial","175","1951790","0.0-61.0","battery-v0.2","","""event"",""trial"",""time""
""fullscreenenter"",""1"",""2234""
""blur"",""19"",""685421""
""focus"",""19"",""689137""
","""event"",""trial"",""time""
""blur"",""19"",""685421""
","""event"",""trial"",""time""
""focus"",""19"",""689137""
","""event"",""trial"",""time""
""fullscreenenter"",""1"",""2234""
","
","","","618.9000000059605","","","11","13299","5712","p","elianto","#3366ff99","-1"," ","0","0","[1470.4000000059605]","1","2","","","13299","57","4","2","win","no-go","0"
"pit-trial","176","1956333","0.0-62.0","battery-v0.2","","""event"",""trial"",""time""
""fullscreenenter"",""1"",""2234""
""blur"",""19"",""685421""
""focus"",""19"",""689137""
","""event"",""trial"",""time""
""blur"",""19"",""685421""
","""event"",""trial"",""time""
""focus"",""19"",""689137""
","""event"",""trial"",""time""
""fullscreenenter"",""1"",""2234""
","
","","","1690.699999988079","","","11","13299","5712","g","elianto","#f73b6a7A"," "," ","1","0","[2541]","1","2","","","13299","58","3","3","lose","go","0"
"pit-trial","177","1959791","0.0-63.0","battery-v0.2","","""event"",""trial"",""time""
""fullscreenenter"",""1"",""2234""
""blur"",""19"",""685421""
""focus"",""19"",""689137""
","""event"",""trial"",""time""
""blur"",""19"",""685421""
","""event"",""trial"",""time""
""focus"",""19"",""689137""
","""event"",""trial"",""time""
""fullscreenenter"",""1"",""2234""
","
","","","606.2999999821186","","","11","13299","5712","u","elianto","#f73b6a7A","-1"," ","0","0","[1456.3999999761581]","1","2","","","13299","59","0","4","lose","no-go","1"
"pit-trial","178","1963408","0.0-64.0","battery-v0.2","","""event"",""trial"",""time""
""fullscreenenter"",""1"",""2234""
""blur"",""19"",""685421""
""focus"",""19"",""689137""
","""event"",""trial"",""time""
""blur"",""19"",""685421""
","""event"",""trial"",""time""
""focus"",""19"",""689137""
","""event"",""trial"",""time""
""fullscreenenter"",""1"",""2234""
","
","","","761.2000000178814","","","11","13299","5712","l","elianto","#3366ff99"," "," ","1","+10","[1613.800000011921]","1","2","","","13299","60","1","1","win","go","0"
"pit-trial","179","1966860","0.0-65.0","battery-v0.2","","""event"",""trial"",""time""
""fullscreenenter"",""1"",""2234""
""blur"",""19"",""685421""
""focus"",""19"",""689137""
","""event"",""trial"",""time""
""blur"",""19"",""685421""
","""event"",""trial"",""time""
""focus"",""19"",""689137""
","""event"",""trial"",""time""
""fullscreenenter"",""1"",""2234""
","
","","","599.6999999880791","","","11","13299","5712","l","elianto","#3366ff99"," "," ","1","+10","[1450.5]","1","2","","","13299","61","1","1","win","go","0"
"pit-trial","180","1971713","0.0-66.0","battery-v0.2","","""event"",""trial"",""time""
""fullscreenenter"",""1"",""2234""
""blur"",""19"",""685421""
""focus"",""19"",""689137""
","""event"",""trial"",""time""
""blur"",""19"",""685421""
","""event"",""trial"",""time""
""focus"",""19"",""689137""
","""event"",""trial"",""time""
""fullscreenenter"",""1"",""2234""
","
","","","-1","","","11","13299","5712","g","elianto","#f73b6a7A"," ","-1","0","-10","[]","0","2","","","13299","62","3","3","lose","go","0"
"pit-trial","181","1975329","0.0-67.0","battery-v0.2","","""event"",""trial"",""time""
""fullscreenenter"",""1"",""2234""
""blur"",""19"",""685421""
""focus"",""19"",""689137""
","""event"",""trial"",""time""
""blur"",""19"",""685421""
","""event"",""trial"",""time""
""focus"",""19"",""689137""
","""event"",""trial"",""time""
""fullscreenenter"",""1"",""2234""
","
","","","763.1999999880791","","","11","13299","5712","p","elianto","#3366ff99","-1"," ","0","0","[1614.0999999940395]","1","2","","","13299","63","4","2","win","no-go","0"
"pit-trial","182","1980181","0.0-68.0","battery-v0.2","","""event"",""trial"",""time""
""fullscreenenter"",""1"",""2234""
""blur"",""19"",""685421""
""focus"",""19"",""689137""
","""event"",""trial"",""time""
""blur"",""19"",""685421""
","""event"",""trial"",""time""
""focus"",""19"",""689137""
","""event"",""trial"",""time""
""fullscreenenter"",""1"",""2234""
","
","","","-1","","","11","13299","5712","a","elianto","#f73b6a7A","-1","-1","1","0","[]","0","2","","","13299","64","2","4","lose","no-go","0"
"pit-trial","183","1983822","0.0-69.0","battery-v0.2","","""event"",""trial"",""time""
""fullscreenenter"",""1"",""2234""
""blur"",""19"",""685421""
""focus"",""19"",""689137""
","""event"",""trial"",""time""
""blur"",""19"",""685421""
","""event"",""trial"",""time""
""focus"",""19"",""689137""
","""event"",""trial"",""time""
""fullscreenenter"",""1"",""2234""
","
","","","788.5","","","11","13299","5712","l","elianto","#3366ff99"," "," ","1","+10","[1638.800000011921]","1","2","","","13299","65","1","1","win","go","0"
"pit-trial","184","1988675","0.0-70.0","battery-v0.2","","""event"",""trial"",""time""
""fullscreenenter"",""1"",""2234""
""blur"",""19"",""685421""
""focus"",""19"",""689137""
","""event"",""trial"",""time""
""blur"",""19"",""685421""
","""event"",""trial"",""time""
""focus"",""19"",""689137""
","""event"",""trial"",""time""
""fullscreenenter"",""1"",""2234""
","
","","","-1","","","11","13299","5712","g","elianto","#f73b6a7A"," ","-1","0","-10","[]","0","2","","","13299","66","3","3","lose","go","0"
"pit-trial","185","1993527","0.0-71.0","battery-v0.2","","""event"",""trial"",""time""
""fullscreenenter"",""1"",""2234""
""blur"",""19"",""685421""
""focus"",""19"",""689137""
","""event"",""trial"",""time""
""blur"",""19"",""685421""
","""event"",""trial"",""time""
""focus"",""19"",""689137""
","""event"",""trial"",""time""
""fullscreenenter"",""1"",""2234""
","
","","","-1","","","11","13299","5712","a","elianto","#f73b6a7A","-1","-1","1","0","[4202.300000011921]","1","2","","","13299","67","2","4","lose","no-go","0"
"pit-trial","186","1997277","0.0-72.0","battery-v0.2","","""event"",""trial"",""time""
""fullscreenenter"",""1"",""2234""
""blur"",""19"",""685421""
""focus"",""19"",""689137""
","""event"",""trial"",""time""
""blur"",""19"",""685421""
","""event"",""trial"",""time""
""focus"",""19"",""689137""
","""event"",""trial"",""time""
""fullscreenenter"",""1"",""2234""
","
","","","886.5","","","11","13299","5712","p","elianto","#3366ff99","-1"," ","0","+10","[1737.199999988079]","1","2","","","13299","68","4","2","win","no-go","1"
"pit-trial","187","2002130","0.0-73.0","battery-v0.2","","""event"",""trial"",""time""
""fullscreenenter"",""1"",""2234""
""blur"",""19"",""685421""
""focus"",""19"",""689137""
","""event"",""trial"",""time""
""blur"",""19"",""685421""
