"trial_type","trial_index","time_elapsed","internal_node_id","task_version","subject_id","interactions","blur_events","focus_events","fullscreenenter_events","fullscreenexit_events","success","view_history","rt","responses","num_errors","age","subject","participantId","rune","rune_set","hex","correct","choice","accuracy","outcome","keys","total_keys","block","practice","value","sub","trial","stimulus","robot","valence","action","sham"
"pavlovia","0","8","0.0-0.0","battery-v0.2","","""event"",""trial"",""time""
""fullscreenenter"",""1"",""2006""
","
","
","""event"",""trial"",""time""
""fullscreenenter"",""1"",""2006""
","
","","","","","","","","","","","","","","","","","","","","","","","","","","",""
"fullscreen","1","3003","0.0-1.0","battery-v0.2","","""event"",""trial"",""time""
""fullscreenenter"",""1"",""2006""
","
","
","""event"",""trial"",""time""
""fullscreenenter"",""1"",""2006""
","
","true","","","","","","","","","","","","","","","","","","","","","","","","","",""
"pit-instructions","2","8847","0.0-2.0-0.0","battery-v0.2","","""event"",""trial"",""time""
""fullscreenenter"",""1"",""2006""
","
","
","""event"",""trial"",""time""
""fullscreenenter"",""1"",""2006""
","
","","[{""page_index"":0,""viewing_time"":5842.4000000059605}]","5842.70000000298","","","","","","","","","","","","","","","","","","","","","","","",""
"pit-comprehension","3","11843","0.0-2.0-1.0-0.0","battery-v0.2","","""event"",""trial"",""time""
""fullscreenenter"",""1"",""2006""
","
","
","""event"",""trial"",""time""
""fullscreenenter"",""1"",""2006""
","
","","","2994.5","[""shark""]","0","20","10116","4727","","","","","","","","","","","","","","","","","","",""
"pit-instructions","4","14655","0.0-2.0-1.0-1.0","battery-v0.2","","""event"",""trial"",""time""
""fullscreenenter"",""1"",""2006""
","
","
","""event"",""trial"",""time""
""fullscreenenter"",""1"",""2006""
","
","","[{""page_index"":0,""viewing_time"":2804.800000011921}]","2804.800000011921","","","","","","","","","","","","","","","","","","","","","","","",""
"pit-comprehension","5","16730","0.0-2.0-2.0-0.0","battery-v0.2","","""event"",""trial"",""time""
""fullscreenenter"",""1"",""2006""
","
","
","""event"",""trial"",""time""
""fullscreenenter"",""1"",""2006""
","
","","","2073.300000011921","[""tiger""]","0","20","10116","4727","","","","","","","","","","","","","","","","","","",""
"pit-instructions","6","20528","0.0-2.0-2.0-1.0","battery-v0.2","","""event"",""trial"",""time""
""fullscreenenter"",""1"",""2006""
","
","
","""event"",""trial"",""time""
""fullscreenenter"",""1"",""2006""
","
","","[{""page_index"":0,""viewing_time"":3796.300000011921}]","3796.5","","","","","","","","","","","","","","","","","","","","","","","",""
"pit-instructions","7","142185","0.0-2.0-3.0","battery-v0.2","","""event"",""trial"",""time""
""fullscreenenter"",""1"",""2006""
","
","
","""event"",""trial"",""time""
""fullscreenenter"",""1"",""2006""
","
","","[{""page_index"":0,""viewing_time"":8397.79999999702},{""page_index"":1,""viewing_time"":5129.100000008941},{""page_index"":2,""viewing_time"":6259.5},{""page_index"":3,""viewing_time"":5547.699999988079},{""page_index"":4,""viewing_time"":6310.70000000298},{""page_index"":5,""viewing_time"":5773.100000008941},{""page_index"":6,""viewing_time"":7617.29999999702},{""page_index"":5,""viewing_time"":1529.5999999940395},{""page_index"":6,""viewing_time"":6314.70000000298},{""page_index"":7,""viewing_time"":6685.29999999702},{""page_index"":8,""viewing_time"":6121.9000000059605},{""page_index"":9,""viewing_time"":14990.89999999106},{""page_index"":10,""viewing_time"":4955.300000011921},{""page_index"":9,""viewing_time"":7688.79999999702},{""page_index"":10,""viewing_time"":8171.899999991059},{""page_index"":11,""viewing_time"":8019},{""page_index"":12,""viewing_time"":6618.100000008941},{""page_index"":13,""viewing_time"":5524}]","121654.90000000596","","","","","","","","","","","","","","","","","","","","","","","",""
"pit-trial","8","145929","0.0-2.0-4.0-0.0","battery-v0.2","","""event"",""trial"",""time""
""fullscreenenter"",""1"",""2006""
","
","
","""event"",""trial"",""time""
""fullscreenenter"",""1"",""2006""
","
","","","885.8999999910593","","","20","10116","4727","&#9784;","elianto","#FFFFF080"," "," ","1","&#10004","[1739.5999999940395]","1","0","0","","","","","","","",""
"pit-trial","9","149500","0.0-2.0-4.1-0.1","battery-v0.2","","""event"",""trial"",""time""
""fullscreenenter"",""1"",""2006""
","
","
","""event"",""trial"",""time""
""fullscreenenter"",""1"",""2006""
","
","","","706","","","20","10116","4727","&#9784;","elianto","#FFFFF080"," "," ","1","&#10004","[1563.199999988079]","1","0","0","","","","","","","",""
"pit-trial","10","152941","0.0-2.0-4.2-0.2","battery-v0.2","","""event"",""trial"",""time""
""fullscreenenter"",""1"",""2006""
","
","
","""event"",""trial"",""time""
""fullscreenenter"",""1"",""2006""
","
","","","578.7999999970198","","","20","10116","4727","&#9784;","elianto","#FFFFF080"," "," ","1","&#10004","[1434.199999988079]","1","0","0","","","","","","","",""
"pit-trial","11","156387","0.0-2.0-4.3-0.3","battery-v0.2","","""event"",""trial"",""time""
""fullscreenenter"",""1"",""2006""
","
","
","""event"",""trial"",""time""
""fullscreenenter"",""1"",""2006""
","
","","","577.3000000119209","","","20","10116","4727","&#9784;","elianto","#FFFFF080"," "," ","1","&#10004","[1433.4000000059605]","1","0","0","","","","","","","",""
"pit-trial","12","159801","0.0-2.0-4.4-0.4","battery-v0.2","","""event"",""trial"",""time""
""fullscreenenter"",""1"",""2006""
","
","
","""event"",""trial"",""time""
""fullscreenenter"",""1"",""2006""
","
","","","554.7000000029802","","","20","10116","4727","&#9784;","elianto","#FFFFF080"," "," ","1","&#10004","[1405.9000000059605]","1","0","0","","","","","","","",""
"pit-instructions","13","181948","0.0-2.0-5.0","battery-v0.2","","""event"",""trial"",""time""
""fullscreenenter"",""1"",""2006""
","
","
","""event"",""trial"",""time""
""fullscreenenter"",""1"",""2006""
","
","","[{""page_index"":0,""viewing_time"":5783.100000008941},{""page_index"":1,""viewing_time"":5486.899999991059},{""page_index"":2,""viewing_time"":5268},{""page_index"":3,""viewing_time"":5607.100000008941}]","22145.20000000298","","","","","","","","","","","","","","","","","","","","","","","",""
"pit-trial","14","186821","0.0-2.0-6.0-0.0","battery-v0.2","","""event"",""trial"",""time""
""fullscreenenter"",""1"",""2006""
","
","
","""event"",""trial"",""time""
""fullscreenenter"",""1"",""2006""
","
","","","-1","","","20","10116","4727","&#9854;","elianto","#FFFFF080","-1","-1","1","&#10004","[]","0","0","1","","","","","","","",""
"pit-trial","15","191695","0.0-2.0-6.1-0.1","battery-v0.2","","""event"",""trial"",""time""
""fullscreenenter"",""1"",""2006""
","
","
","""event"",""trial"",""time""
""fullscreenenter"",""1"",""2006""
","
","","","-1","","","20","10116","4727","&#9854;","elianto","#FFFFF080","-1","-1","1","&#10004","[]","0","0","1","","","","","","","",""
"pit-trial","16","196557","0.0-2.0-6.2-0.2","battery-v0.2","","""event"",""trial"",""time""
""fullscreenenter"",""1"",""2006""
","
","
","""event"",""trial"",""time""
""fullscreenenter"",""1"",""2006""
","
","","","-1","","","20","10116","4727","&#9854;","elianto","#FFFFF080","-1","-1","1","&#10004","[]","0","0","1","","","","","","","",""
"pit-trial","17","201429","0.0-2.0-6.3-0.3","battery-v0.2","","""event"",""trial"",""time""
""fullscreenenter"",""1"",""2006""
","
","
","""event"",""trial"",""time""
""fullscreenenter"",""1"",""2006""
","
","","","-1","","","20","10116","4727","&#9854;","elianto","#FFFFF080","-1","-1","1","&#10004","[]","0","0","1","","","","","","","",""
"pit-trial","18","206307","0.0-2.0-6.4-0.4","battery-v0.2","","""event"",""trial"",""time""
""fullscreenenter"",""1"",""2006""
","
","
","""event"",""trial"",""time""
""fullscreenenter"",""1"",""2006""
","
","","","-1","","","20","10116","4727","&#9854;","elianto","#FFFFF080","-1","-1","1","&#10004","[]","0","0","1","","","","","","","",""
"pit-instructions","19","336813","0.0-2.0-7.0","battery-v0.2","","""event"",""trial"",""time""
""fullscreenenter"",""1"",""2006""
","
","
","""event"",""trial"",""time""
""fullscreenenter"",""1"",""2006""
","
","","[{""page_index"":0,""viewing_time"":5975.100000008941},{""page_index"":1,""viewing_time"":7764.29999999702},{""page_index"":2,""viewing_time"":7589.79999999702},{""page_index"":3,""viewing_time"":7176.600000008941},{""page_index"":4,""viewing_time"":5927.5},{""page_index"":5,""viewing_time"":5720.29999999702},{""page_index"":6,""viewing_time"":7340.20000000298},{""page_index"":7,""viewing_time"":9704.59999999404},{""page_index"":8,""viewing_time"":7099.4000000059605},{""page_index"":9,""viewing_time"":6300.5999999940395},{""page_index"":10,""viewing_time"":8154.20000000298},{""page_index"":11,""viewing_time"":4697.79999999702},{""page_index"":12,""viewing_time"":8661.20000000298},{""page_index"":13,""viewing_time"":7636.899999991059},{""page_index"":14,""viewing_time"":7579.9000000059605},{""page_index"":15,""viewing_time"":7294.20000000298},{""page_index"":16,""viewing_time"":7015.5999999940395},{""page_index"":17,""viewing_time"":8866}]","130504.30000001192","","","","","","","","","","","","","","","","","","","","","","","",""
"pit-trial","20","340304","0.0-2.0-8.0-0.0","battery-v0.2","","""event"",""trial"",""time""
""fullscreenenter"",""1"",""2006""
","
","
","""event"",""trial"",""time""
""fullscreenenter"",""1"",""2006""
","
","","","628.5999999940395","","","20","10116","4727","&#9776;","elianto","#3366ff99"," "," ","1","+10","[1484.7999999970198]","1","0","1","","","","","","","",""
"pit-trial","21","343605","0.0-2.0-8.0-1.0","battery-v0.2","","""event"",""trial"",""time""
""fullscreenenter"",""1"",""2006""
","
","
","""event"",""trial"",""time""
""fullscreenenter"",""1"",""2006""
","
","","","445.70000000298023","","","20","10116","4727","&#9776;","elianto","#3366ff99"," "," ","1","+10","[1297.0999999940395]","1","0","1","","","","","","","",""
"pit-trial","22","346790","0.0-2.0-8.0-2.0","battery-v0.2","","""event"",""trial"",""time""
""fullscreenenter"",""1"",""2006""
","
","
","""event"",""trial"",""time""
""fullscreenenter"",""1"",""2006""
","
","","","331.1000000089407","","","20","10116","4727","&#9776;","elianto","#3366ff99"," "," ","1","+10","[1181.300000011921]","1","0","1","","","","","","","",""
"pit-trial","23","350235","0.0-2.0-8.0-3.0","battery-v0.2","","""event"",""trial"",""time""
""fullscreenenter"",""1"",""2006""
","
","
","""event"",""trial"",""time""
""fullscreenenter"",""1"",""2006""
","
","","","576.6999999880791","","","20","10116","4727","&#9776;","elianto","#3366ff99"," "," ","1","0","[1431.5]","1","0","1","","","","","","","",""
"pit-trial","24","353610","0.0-2.0-8.0-4.0","battery-v0.2","","""event"",""trial"",""time""
""fullscreenenter"",""1"",""2006""
","
","
","""event"",""trial"",""time""
""fullscreenenter"",""1"",""2006""
","
","","","512.5999999940395","","","20","10116","4727","&#9776;","elianto","#3366ff99"," "," ","1","+10","[1365]","1","0","1","","","","","","","",""
"pit-trial","25","356979","0.0-2.0-8.1-0.1","battery-v0.2","","""event"",""trial"",""time""
""fullscreenenter"",""1"",""2006""
","
","
","""event"",""trial"",""time""
""fullscreenenter"",""1"",""2006""
","
","","","501.5","","","20","10116","4727","&#9776;","elianto","#3366ff99"," "," ","1","+10","[1360]","1","0","1","","","","","","","",""
"pit-trial","26","360238","0.0-2.0-8.1-1.1","battery-v0.2","","""event"",""trial"",""time""
""fullscreenenter"",""1"",""2006""
","
","
","""event"",""trial"",""time""
""fullscreenenter"",""1"",""2006""
","
","","","387.70000000298023","","","20","10116","4727","&#9776;","elianto","#3366ff99"," "," ","1","+10","[1246.5]","1","0","1","","","","","","","",""
"pit-trial","27","363547","0.0-2.0-8.1-2.1","battery-v0.2","","""event"",""trial"",""time""
""fullscreenenter"",""1"",""2006""
","
","
","""event"",""trial"",""time""
""fullscreenenter"",""1"",""2006""
","
","","","455.40000000596046","","","20","10116","4727","&#9776;","elianto","#3366ff99"," "," ","1","+10","[1305.9000000059605]","1","0","1","","","","","","","",""
"pit-trial","28","366933","0.0-2.0-8.1-3.1","battery-v0.2","","""event"",""trial"",""time""
""fullscreenenter"",""1"",""2006""
","
","
","""event"",""trial"",""time""
""fullscreenenter"",""1"",""2006""
","
","","","530.4000000059605","","","20","10116","4727","&#9776;","elianto","#3366ff99"," "," ","1","0","[1383.2000000029802]","1","0","1","","","","","","","",""
"pit-trial","29","370362","0.0-2.0-8.1-4.1","battery-v0.2","","""event"",""trial"",""time""
""fullscreenenter"",""1"",""2006""
","
","
","""event"",""trial"",""time""
""fullscreenenter"",""1"",""2006""
","
","","","576.7000000029802","","","20","10116","4727","&#9776;","elianto","#3366ff99"," "," ","1","+10","[1427]","1","0","1","","","","","","","",""
"pit-trial","30","373772","0.0-2.0-8.2-0.2","battery-v0.2","","""event"",""trial"",""time""
""fullscreenenter"",""1"",""2006""
","
","
","""event"",""trial"",""time""
""fullscreenenter"",""1"",""2006""
","
","","","557.8999999910593","","","20","10116","4727","&#9776;","elianto","#3366ff99"," "," ","1","+10","[1408.2999999970198]","1","0","1","","","","","","","",""
"pit-trial","31","377182","0.0-2.0-8.2-1.2","battery-v0.2","","""event"",""trial"",""time""
""fullscreenenter"",""1"",""2006""
","
","
","""event"",""trial"",""time""
""fullscreenenter"",""1"",""2006""
","
","","","557.5","","","20","10116","4727","&#9776;","elianto","#3366ff99"," "," ","1","+10","[1408.0999999940395]","1","0","1","","","","","","","",""
"pit-trial","32","380517","0.0-2.0-8.2-2.2","battery-v0.2","","""event"",""trial"",""time""
""fullscreenenter"",""1"",""2006""
","
","
","""event"",""trial"",""time""
""fullscreenenter"",""1"",""2006""
","
","","","481.70000000298023","","","20","10116","4727","&#9776;","elianto","#3366ff99"," "," ","1","+10","[1332.5999999940395]","1","0","1","","","","","","","",""
"pit-trial","33","383947","0.0-2.0-8.2-3.2","battery-v0.2","","""event"",""trial"",""time""
""fullscreenenter"",""1"",""2006""
","
","
","""event"",""trial"",""time""
""fullscreenenter"",""1"",""2006""
","
","","","576.8999999910593","","","20","10116","4727","&#9776;","elianto","#3366ff99"," "," ","1","0","[1428.5]","1","0","1","","","","","","","",""
"pit-trial","34","387205","0.0-2.0-8.2-4.2","battery-v0.2","","""event"",""trial"",""time""
""fullscreenenter"",""1"",""2006""
","
","
","""event"",""trial"",""time""
""fullscreenenter"",""1"",""2006""
","
","","","404.79999999701977","","","20","10116","4727","&#9776;","elianto","#3366ff99"," "," ","1","+10","[1255.2000000029802]","1","0","1","","","","","","","",""
"call-function","35","387206","0.0-2.0-9.0","battery-v0.2","","""event"",""trial"",""time""
""fullscreenenter"",""1"",""2006""
","
","
","""event"",""trial"",""time""
""fullscreenenter"",""1"",""2006""
","
","","","","","","","","","","","","","","","","","","","","","","","","","","",""
"pit-instructions","36","432197","0.0-2.0-10.0","battery-v0.2","","""event"",""trial"",""time""
""fullscreenenter"",""1"",""2006""
","
","
","""event"",""trial"",""time""
""fullscreenenter"",""1"",""2006""
","
","","[{""page_index"":0,""viewing_time"":8130.79999999702},{""page_index"":1,""viewing_time"":7668.4000000059605},{""page_index"":2,""viewing_time"":10343.89999999106},{""page_index"":3,""viewing_time"":10383.5},{""page_index"":4,""viewing_time"":8465}]","44991.79999999702","","","","","","","","","","","","","","","","","","","","","","","",""
"pit-trial","37","437062","0.0-2.0-11.0-0.0","battery-v0.2","","""event"",""trial"",""time""
""fullscreenenter"",""1"",""2006""
","
","
","""event"",""trial"",""time""
""fullscreenenter"",""1"",""2006""
","
","","","-1","","","20","10116","4727","&#9761;","elianto","#3366ff99","-1","-1","1","+10","[]","0","0","2","","","","","","","",""
"pit-trial","38","441930","0.0-2.0-11.0-1.0","battery-v0.2","","""event"",""trial"",""time""
""fullscreenenter"",""1"",""2006""
","
","
","""event"",""trial"",""time""
""fullscreenenter"",""1"",""2006""
","
","","","-1","","","20","10116","4727","&#9761;","elianto","#3366ff99","-1","-1","1","+10","[]","0","0","2","","","","","","","",""
"pit-trial","39","446795","0.0-2.0-11.0-2.0","battery-v0.2","","""event"",""trial"",""time""
""fullscreenenter"",""1"",""2006""
","
","
","""event"",""trial"",""time""
""fullscreenenter"",""1"",""2006""
","
","","","-1","","","20","10116","4727","&#9761;","elianto","#3366ff99","-1","-1","1","+10","[]","0","0","2","","","","","","","",""
"pit-trial","40","451665","0.0-2.0-11.0-3.0","battery-v0.2","","""event"",""trial"",""time""
""fullscreenenter"",""1"",""2006""
","
","
","""event"",""trial"",""time""
""fullscreenenter"",""1"",""2006""
","
","","","-1","","","20","10116","4727","&#9761;","elianto","#3366ff99","-1","-1","1","0","[]","0","0","2","","","","","","","",""
"pit-trial","41","456536","0.0-2.0-11.0-4.0","battery-v0.2","","""event"",""trial"",""time""
""fullscreenenter"",""1"",""2006""
","
","
","""event"",""trial"",""time""
""fullscreenenter"",""1"",""2006""
","
","","","-1","","","20","10116","4727","&#9761;","elianto","#3366ff99","-1","-1","1","+10","[]","0","0","2","","","","","","","",""
"pit-trial","42","461395","0.0-2.0-11.1-0.1","battery-v0.2","","""event"",""trial"",""time""
""fullscreenenter"",""1"",""2006""
","
","
","""event"",""trial"",""time""
""fullscreenenter"",""1"",""2006""
","
","","","-1","","","20","10116","4727","&#9761;","elianto","#3366ff99","-1","-1","1","+10","[]","0","0","2","","","","","","","",""
"pit-trial","43","466248","0.0-2.0-11.1-1.1","battery-v0.2","","""event"",""trial"",""time""
""fullscreenenter"",""1"",""2006""
","
","
","""event"",""trial"",""time""
""fullscreenenter"",""1"",""2006""
","
","","","-1","","","20","10116","4727","&#9761;","elianto","#3366ff99","-1","-1","1","+10","[]","0","0","2","","","","","","","",""
"pit-trial","44","471101","0.0-2.0-11.1-2.1","battery-v0.2","","""event"",""trial"",""time""
""fullscreenenter"",""1"",""2006""
","
","
","""event"",""trial"",""time""
""fullscreenenter"",""1"",""2006""
","
","","","-1","","","20","10116","4727","&#9761;","elianto","#3366ff99","-1","-1","1","+10","[]","0","0","2","","","","","","","",""
"pit-trial","45","475954","0.0-2.0-11.1-3.1","battery-v0.2","","""event"",""trial"",""time""
""fullscreenenter"",""1"",""2006""
","
","
","""event"",""trial"",""time""
""fullscreenenter"",""1"",""2006""
","
","","","-1","","","20","10116","4727","&#9761;","elianto","#3366ff99","-1","-1","1","0","[]","0","0","2","","","","","","","",""
"pit-trial","46","480807","0.0-2.0-11.1-4.1","battery-v0.2","","""event"",""trial"",""time""
""fullscreenenter"",""1"",""2006""
","
","
","""event"",""trial"",""time""
""fullscreenenter"",""1"",""2006""
","
","","","-1","","","20","10116","4727","&#9761;","elianto","#3366ff99","-1","-1","1","+10","[]","0","0","2","","","","","","","",""
"pit-trial","47","485660","0.0-2.0-11.2-0.2","battery-v0.2","","""event"",""trial"",""time""
""fullscreenenter"",""1"",""2006""
","
","
","""event"",""trial"",""time""
""fullscreenenter"",""1"",""2006""
","
","","","-1","","","20","10116","4727","&#9761;","elianto","#3366ff99","-1","-1","1","+10","[]","0","0","2","","","","","","","",""
"pit-trial","48","490516","0.0-2.0-11.2-1.2","battery-v0.2","","""event"",""trial"",""time""
""fullscreenenter"",""1"",""2006""
","
","
","""event"",""trial"",""time""
""fullscreenenter"",""1"",""2006""
","
","","","-1","","","20","10116","4727","&#9761;","elianto","#3366ff99","-1","-1","1","+10","[]","0","0","2","","","","","","","",""
"pit-trial","49","495368","0.0-2.0-11.2-2.2","battery-v0.2","","""event"",""trial"",""time""
""fullscreenenter"",""1"",""2006""
","
","
","""event"",""trial"",""time""
""fullscreenenter"",""1"",""2006""
","
","","","-1","","","20","10116","4727","&#9761;","elianto","#3366ff99","-1","-1","1","+10","[]","0","0","2","","","","","","","",""
"pit-trial","50","500222","0.0-2.0-11.2-3.2","battery-v0.2","","""event"",""trial"",""time""
""fullscreenenter"",""1"",""2006""
","
","
","""event"",""trial"",""time""
""fullscreenenter"",""1"",""2006""
","
","","","-1","","","20","10116","4727","&#9761;","elianto","#3366ff99","-1","-1","1","0","[]","0","0","2","","","","","","","",""
"pit-trial","51","505075","0.0-2.0-11.2-4.2","battery-v0.2","","""event"",""trial"",""time""
""fullscreenenter"",""1"",""2006""
","
","
","""event"",""trial"",""time""
""fullscreenenter"",""1"",""2006""
","
","","","-1","","","20","10116","4727","&#9761;","elianto","#3366ff99","-1","-1","1","+10","[]","0","0","2","","","","","","","",""
"pit-trial","52","509931","0.0-2.0-11.3-0.3","battery-v0.2","","""event"",""trial"",""time""
""fullscreenenter"",""1"",""2006""
","
","
","""event"",""trial"",""time""
""fullscreenenter"",""1"",""2006""
","
","","","-1","","","20","10116","4727","&#9761;","elianto","#3366ff99","-1","-1","1","+10","[]","0","0","2","","","","","","","",""
"pit-trial","53","514784","0.0-2.0-11.3-1.3","battery-v0.2","","""event"",""trial"",""time""
""fullscreenenter"",""1"",""2006""
","
","
","""event"",""trial"",""time""
""fullscreenenter"",""1"",""2006""
","
","","","-1","","","20","10116","4727","&#9761;","elianto","#3366ff99","-1","-1","1","+10","[]","0","0","2","","","","","","","",""
"pit-trial","54","519637","0.0-2.0-11.3-2.3","battery-v0.2","","""event"",""trial"",""time""
""fullscreenenter"",""1"",""2006""
","
","
","""event"",""trial"",""time""
""fullscreenenter"",""1"",""2006""
","
","","","-1","","","20","10116","4727","&#9761;","elianto","#3366ff99","-1","-1","1","+10","[]","0","0","2","","","","","","","",""
"pit-trial","55","524489","0.0-2.0-11.3-3.3","battery-v0.2","","""event"",""trial"",""time""
""fullscreenenter"",""1"",""2006""
","
","
","""event"",""trial"",""time""
""fullscreenenter"",""1"",""2006""
","
","","","-1","","","20","10116","4727","&#9761;","elianto","#3366ff99","-1","-1","1","0","[]","0","0","2","","","","","","","",""
"pit-trial","56","529342","0.0-2.0-11.3-4.3","battery-v0.2","","""event"",""trial"",""time""
""fullscreenenter"",""1"",""2006""
","
","
","""event"",""trial"",""time""
""fullscreenenter"",""1"",""2006""
","
","","","-1","","","20","10116","4727","&#9761;","elianto","#3366ff99","-1","-1","1","+10","[]","0","0","2","","","","","","","",""
"call-function","57","529343","0.0-2.0-12.0","battery-v0.2","","""event"",""trial"",""time""
""fullscreenenter"",""1"",""2006""
","
","
","""event"",""trial"",""time""
""fullscreenenter"",""1"",""2006""
","
","","","","","","","","","","","","","","","","","","","","","","","","","","",""
"pit-instructions","58","574531","0.0-2.0-13.0","battery-v0.2","","""event"",""trial"",""time""
""fullscreenenter"",""1"",""2006""
","
","
","""event"",""trial"",""time""
""fullscreenenter"",""1"",""2006""
","
","","[{""page_index"":0,""viewing_time"":6394.399999991059},{""page_index"":1,""viewing_time"":8643.60000000894},{""page_index"":2,""viewing_time"":3323},{""page_index"":3,""viewing_time"":11020},{""page_index"":4,""viewing_time"":15806.5}]","45187.70000000298","","","","","","","","","","","","","","","","","","","","","","","",""
"pit-trial","59","577784","0.0-2.0-14.0-0.0","battery-v0.2","","""event"",""trial"",""time""
""fullscreenenter"",""1"",""2006""
","
","
","""event"",""trial"",""time""
""fullscreenenter"",""1"",""2006""
","
","","","384.29999999701977","","","20","10116","4727","&#9826;","elianto","#f73b6a7A","-1"," ","0","-10","[1242.2000000029802]","1","0","3","","","","","","","",""
"pit-trial","60","581029","0.0-2.0-14.0-1.0","battery-v0.2","","""event"",""trial"",""time""
""fullscreenenter"",""1"",""2006""
","
","
","""event"",""trial"",""time""
""fullscreenenter"",""1"",""2006""
","
","","","380.8999999910593","","","20","10116","4727","&#9826;","elianto","#f73b6a7A","-1"," ","0","-10","[1235.199999988079]","1","0","3","","","","","","","",""
"pit-trial","61","584229","0.0-2.0-14.0-2.0","battery-v0.2","","""event"",""trial"",""time""
""fullscreenenter"",""1"",""2006""
","
","
","""event"",""trial"",""time""
""fullscreenenter"",""1"",""2006""
","
","","","337.59999999403954","","","20","10116","4727","&#9826;","elianto","#f73b6a7A","-1"," ","0","-10","[1198.4000000059605]","1","0","3","","","","","","","",""
"pit-trial","62","589103","0.0-2.0-14.0-3.0","battery-v0.2","","""event"",""trial"",""time""
""fullscreenenter"",""1"",""2006""
","
","
","""event"",""trial"",""time""
""fullscreenenter"",""1"",""2006""
","
","","","-1","","","20","10116","4727","&#9826;","elianto","#f73b6a7A","-1","-1","1","-10","[]","0","0","3","","","","","","","",""
"pit-trial","63","593964","0.0-2.0-14.0-4.0","battery-v0.2","","""event"",""trial"",""time""
""fullscreenenter"",""1"",""2006""
","
","
","""event"",""trial"",""time""
""fullscreenenter"",""1"",""2006""
","
","","","-1","","","20","10116","4727","&#9826;","elianto","#f73b6a7A","-1","-1","1","0","[]","0","0","3","","","","","","","",""
"pit-trial","64","598834","0.0-2.0-14.1-0.1","battery-v0.2","","""event"",""trial"",""time""
""fullscreenenter"",""1"",""2006""
","
","
","""event"",""trial"",""time""
""fullscreenenter"",""1"",""2006""
","
","","","-1","","","20","10116","4727","&#9826;","elianto","#f73b6a7A","-1","-1","1","0","[]","0","0","3","","","","","","","",""
"pit-trial","65","603688","0.0-2.0-14.1-1.1","battery-v0.2","","""event"",""trial"",""time""
""fullscreenenter"",""1"",""2006""
","
","
","""event"",""trial"",""time""
""fullscreenenter"",""1"",""2006""
","
","","","-1","","","20","10116","4727","&#9826;","elianto","#f73b6a7A","-1","-1","1","0","[]","0","0","3","","","","","","","",""
"pit-trial","66","608553","0.0-2.0-14.1-2.1","battery-v0.2","","""event"",""trial"",""time""
""fullscreenenter"",""1"",""2006""
","
","
","""event"",""trial"",""time""
""fullscreenenter"",""1"",""2006""
","
","","","-1","","","20","10116","4727","&#9826;","elianto","#f73b6a7A","-1","-1","1","0","[]","0","0","3","","","","","","","",""
"pit-trial","67","613406","0.0-2.0-14.1-3.1","battery-v0.2","","""event"",""trial"",""time""
""fullscreenenter"",""1"",""2006""
","
","
","""event"",""trial"",""time""
""fullscreenenter"",""1"",""2006""
","
","","","-1","","","20","10116","4727","&#9826;","elianto","#f73b6a7A","-1","-1","1","-10","[]","0","0","3","","","","","","","",""
"pit-trial","68","618260","0.0-2.0-14.1-4.1","battery-v0.2","","""event"",""trial"",""time""
""fullscreenenter"",""1"",""2006""
","
","
","""event"",""trial"",""time""
""fullscreenenter"",""1"",""2006""
","
","","","-1","","","20","10116","4727","&#9826;","elianto","#f73b6a7A","-1","-1","1","0","[]","0","0","3","","","","","","","",""
"pit-trial","69","623113","0.0-2.0-14.2-0.2","battery-v0.2","","""event"",""trial"",""time""
""fullscreenenter"",""1"",""2006""
","
","
","""event"",""trial"",""time""
""fullscreenenter"",""1"",""2006""
","
","","","-1","","","20","10116","4727","&#9826;","elianto","#f73b6a7A","-1","-1","1","0","[]","0","0","3","","","","","","","",""
"pit-trial","70","627967","0.0-2.0-14.2-1.2","battery-v0.2","","""event"",""trial"",""time""
""fullscreenenter"",""1"",""2006""
","
","
","""event"",""trial"",""time""
""fullscreenenter"",""1"",""2006""
","
","","","-1","","","20","10116","4727","&#9826;","elianto","#f73b6a7A","-1","-1","1","0","[]","0","0","3","","","","","","","",""
"pit-trial","71","632820","0.0-2.0-14.2-2.2","battery-v0.2","","""event"",""trial"",""time""
""fullscreenenter"",""1"",""2006""
","
","
","""event"",""trial"",""time""
""fullscreenenter"",""1"",""2006""
","
","","","-1","","","20","10116","4727","&#9826;","elianto","#f73b6a7A","-1","-1","1","0","[]","0","0","3","","","","","","","",""
"pit-trial","72","637673","0.0-2.0-14.2-3.2","battery-v0.2","","""event"",""trial"",""time""
""fullscreenenter"",""1"",""2006""
","
","
","""event"",""trial"",""time""
""fullscreenenter"",""1"",""2006""
","
","","","-1","","","20","10116","4727","&#9826;","elianto","#f73b6a7A","-1","-1","1","-10","[]","0","0","3","","","","","","","",""
"pit-trial","73","642539","0.0-2.0-14.2-4.2","battery-v0.2","","""event"",""trial"",""time""
""fullscreenenter"",""1"",""2006""
","
","
","""event"",""trial"",""time""
""fullscreenenter"",""1"",""2006""
","
","","","-1","","","20","10116","4727","&#9826;","elianto","#f73b6a7A","-1","-1","1","0","[]","0","0","3","","","","","","","",""
"pit-trial","74","647393","0.0-2.0-14.3-0.3","battery-v0.2","","""event"",""trial"",""time""
""fullscreenenter"",""1"",""2006""
","
","
","""event"",""trial"",""time""
""fullscreenenter"",""1"",""2006""
","
","","","-1","","","20","10116","4727","&#9826;","elianto","#f73b6a7A","-1","-1","1","0","[]","0","0","3","","","","","","","",""
"pit-trial","75","652262","0.0-2.0-14.3-1.3","battery-v0.2","","""event"",""trial"",""time""
""fullscreenenter"",""1"",""2006""
","
","
","""event"",""trial"",""time""
""fullscreenenter"",""1"",""2006""
","
","","","-1","","","20","10116","4727","&#9826;","elianto","#f73b6a7A","-1","-1","1","0","[]","0","0","3","","","","","","","",""
"pit-trial","76","657116","0.0-2.0-14.3-2.3","battery-v0.2","","""event"",""trial"",""time""
""fullscreenenter"",""1"",""2006""
","
","
","""event"",""trial"",""time""
""fullscreenenter"",""1"",""2006""
","
","","","-1","","","20","10116","4727","&#9826;","elianto","#f73b6a7A","-1","-1","1","0","[]","0","0","3","","","","","","","",""
"pit-trial","77","661970","0.0-2.0-14.3-3.3","battery-v0.2","","""event"",""trial"",""time""
""fullscreenenter"",""1"",""2006""
","
","
","""event"",""trial"",""time""
""fullscreenenter"",""1"",""2006""
","
","","","-1","","","20","10116","4727","&#9826;","elianto","#f73b6a7A","-1","-1","1","-10","[]","0","0","3","","","","","","","",""
"pit-trial","78","666824","0.0-2.0-14.3-4.3","battery-v0.2","","""event"",""trial"",""time""
""fullscreenenter"",""1"",""2006""
","
","
","""event"",""trial"",""time""
""fullscreenenter"",""1"",""2006""
","
","","","-1","","","20","10116","4727","&#9826;","elianto","#f73b6a7A","-1","-1","1","0","[]","0","0","3","","","","","","","",""
"call-function","79","666825","0.0-2.0-15.0","battery-v0.2","","""event"",""trial"",""time""
""fullscreenenter"",""1"",""2006""
","
","
","""event"",""trial"",""time""
""fullscreenenter"",""1"",""2006""
","
","","","","","","","","","","","","","","","","","","","","","","","","","","",""
"pit-instructions","80","692873","0.0-2.0-16.0","battery-v0.2","","""event"",""trial"",""time""
""fullscreenenter"",""1"",""2006""
","
","
","""event"",""trial"",""time""
""fullscreenenter"",""1"",""2006""
","
","","[{""page_index"":0,""viewing_time"":7128.20000000298},{""page_index"":1,""viewing_time"":8958.29999999702},{""page_index"":2,""viewing_time"":4897.5},{""page_index"":3,""viewing_time"":5063.4000000059605}]","26047.60000000894","","","","","","","","","","","","","","","","","","","","","","","",""
"pit-trial","81","696254","0.0-2.0-17.0-0.0","battery-v0.2","","""event"",""trial"",""time""
""fullscreenenter"",""1"",""2006""
","
","
","""event"",""trial"",""time""
""fullscreenenter"",""1"",""2006""
","
","","","503.09999999403954","","","20","10116","4727","&#9789;","elianto","#f73b6a7A"," "," ","1","0","[1366.7000000029802]","1","0","4","","","","","","","",""
"pit-trial","82","699521","0.0-2.0-17.0-1.0","battery-v0.2","","""event"",""trial"",""time""
""fullscreenenter"",""1"",""2006""
","
","
","""event"",""trial"",""time""
""fullscreenenter"",""1"",""2006""
","
","","","409.8999999910593","","","20","10116","4727","&#9789;","elianto","#f73b6a7A"," "," ","1","0","[1261.2999999970198]","1","0","4","","","","","","","",""
"pit-trial","83","702803","0.0-2.0-17.0-2.0","battery-v0.2","","""event"",""trial"",""time""
""fullscreenenter"",""1"",""2006""
","
","
","""event"",""trial"",""time""
""fullscreenenter"",""1"",""2006""
","
","","","426.59999999403954","","","20","10116","4727","&#9789;","elianto","#f73b6a7A"," "," ","1","0","[1278.5999999940395]","1","0","4","","","","","","","",""
"pit-trial","84","706093","0.0-2.0-17.0-3.0","battery-v0.2","","""event"",""trial"",""time""
""fullscreenenter"",""1"",""2006""
","
","
","""event"",""trial"",""time""
""fullscreenenter"",""1"",""2006""
","
","","","429.5","","","20","10116","4727","&#9789;","elianto","#f73b6a7A"," "," ","1","-10","[1281.2999999970198]","1","0","4","","","","","","","",""
"pit-trial","85","709429","0.0-2.0-17.0-4.0","battery-v0.2","","""event"",""trial"",""time""
""fullscreenenter"",""1"",""2006""
","
","
","""event"",""trial"",""time""
""fullscreenenter"",""1"",""2006""
","
","","","461","","","20","10116","4727","&#9789;","elianto","#f73b6a7A"," "," ","1","0","[1320.2999999970198]","1","0","4","","","","","","","",""
"pit-trial","86","712675","0.0-2.0-17.1-0.1","battery-v0.2","","""event"",""trial"",""time""
""fullscreenenter"",""1"",""2006""
","
","
","""event"",""trial"",""time""
""fullscreenenter"",""1"",""2006""
","
","","","379.59999999403954","","","20","10116","4727","&#9789;","elianto","#f73b6a7A"," "," ","1","0","[1239.3999999910593]","1","0","4","","","","","","","",""
"pit-trial","87","716121","0.0-2.0-17.1-1.1","battery-v0.2","","""event"",""trial"",""time""
""fullscreenenter"",""1"",""2006""
","
","
","""event"",""trial"",""time""
""fullscreenenter"",""1"",""2006""
","
","","","583.7999999970198","","","20","10116","4727","&#9789;","elianto","#f73b6a7A"," "," ","1","0","[1440.4000000059605]","1","0","4","","","","","","","",""
"pit-trial","88","719636","0.0-2.0-17.1-2.1","battery-v0.2","","""event"",""trial"",""time""
""fullscreenenter"",""1"",""2006""
","
","
","""event"",""trial"",""time""
""fullscreenenter"",""1"",""2006""
","
","","","658.5","","","20","10116","4727","&#9789;","elianto","#f73b6a7A"," "," ","1","0","[1510.199999988079]","1","0","4","","","","","","","",""
"pit-trial","89","723046","0.0-2.0-17.1-3.1","battery-v0.2","","""event"",""trial"",""time""
""fullscreenenter"",""1"",""2006""
","
","
","""event"",""trial"",""time""
""fullscreenenter"",""1"",""2006""
","
","","","544.9000000059605","","","20","10116","4727","&#9789;","elianto","#f73b6a7A"," "," ","1","-10","[1398.7999999970198]","1","0","4","","","","","","","",""
"pit-trial","90","726242","0.0-2.0-17.1-4.1","battery-v0.2","","""event"",""trial"",""time""
""fullscreenenter"",""1"",""2006""
","
","
","""event"",""trial"",""time""
""fullscreenenter"",""1"",""2006""
","
","","","343.09999999403954","","","20","10116","4727","&#9789;","elianto","#f73b6a7A"," "," ","1","0","[1193.5]","1","0","4","","","","","","","",""
"pit-trial","91","729393","0.0-2.0-17.2-0.2","battery-v0.2","","""event"",""trial"",""time""
""fullscreenenter"",""1"",""2006""
","
","
","""event"",""trial"",""time""
""fullscreenenter"",""1"",""2006""
","
","","","298.1000000089407","","","20","10116","4727","&#9789;","elianto","#f73b6a7A"," "," ","1","0","[1148.8999999910593]","1","0","4","","","","","","","",""
"pit-trial","92","732648","0.0-2.0-17.2-1.2","battery-v0.2","","""event"",""trial"",""time""
""fullscreenenter"",""1"",""2006""
","
","
","""event"",""trial"",""time""
""fullscreenenter"",""1"",""2006""
","
","","","401.79999999701977","","","20","10116","4727","&#9789;","elianto","#f73b6a7A"," "," ","1","0","[1253.199999988079]","1","0","4","","","","","","","",""
"pit-trial","93","736013","0.0-2.0-17.2-2.2","battery-v0.2","","""event"",""trial"",""time""
""fullscreenenter"",""1"",""2006""
","
","
","""event"",""trial"",""time""
""fullscreenenter"",""1"",""2006""
","
","","","503.5","","","20","10116","4727","&#9789;","elianto","#f73b6a7A"," "," ","1","0","[1353.7999999970198]","1","0","4","","","","","","","",""
"pit-trial","94","739401","0.0-2.0-17.2-3.2","battery-v0.2","","""event"",""trial"",""time""
""fullscreenenter"",""1"",""2006""
","
","
","""event"",""trial"",""time""
""fullscreenenter"",""1"",""2006""
","
","","","533.7999999970198","","","20","10116","4727","&#9789;","elianto","#f73b6a7A"," "," ","1","-10","[1384.3999999910593]","1","0","4","","","","","","","",""
"pit-trial","95","742908","0.0-2.0-17.2-4.2","battery-v0.2","","""event"",""trial"",""time""
""fullscreenenter"",""1"",""2006""
","
","
","""event"",""trial"",""time""
""fullscreenenter"",""1"",""2006""
","
","","","653.6999999880791","","","20","10116","4727","&#9789;","elianto","#f73b6a7A"," "," ","1","0","[1504.5999999940395]","1","0","4","","","","","","","",""
"pit-trial","96","746158","0.0-2.0-17.3-0.3","battery-v0.2","","""event"",""trial"",""time""
""fullscreenenter"",""1"",""2006""
","
","
","""event"",""trial"",""time""
""fullscreenenter"",""1"",""2006""
","
","","","395.8999999910593","","","20","10116","4727","&#9789;","elianto","#f73b6a7A"," "," ","1","0","[1246.8999999910593]","1","0","4","","","","","","","",""
"pit-trial","97","749387","0.0-2.0-17.3-1.3","battery-v0.2","","""event"",""trial"",""time""
""fullscreenenter"",""1"",""2006""
","
","
","""event"",""trial"",""time""
""fullscreenenter"",""1"",""2006""
","
","","","376.5","","","20","10116","4727","&#9789;","elianto","#f73b6a7A"," "," ","1","0","[1227.1000000089407]","1","0","4","","","","","","","",""
"pit-trial","98","752605","0.0-2.0-17.3-2.3","battery-v0.2","","""event"",""trial"",""time""
""fullscreenenter"",""1"",""2006""
","
","
","""event"",""trial"",""time""
""fullscreenenter"",""1"",""2006""
","
","","","366.30000001192093","","","20","10116","4727","&#9789;","elianto","#f73b6a7A"," "," ","1","0","[1216.6000000089407]","1","0","4","","","","","","","",""
"pit-trial","99","755829","0.0-2.0-17.3-3.3","battery-v0.2","","""event"",""trial"",""time""
""fullscreenenter"",""1"",""2006""
","
","
","""event"",""trial"",""time""
""fullscreenenter"",""1"",""2006""
","
","","","372.09999999403954","","","20","10116","4727","&#9789;","elianto","#f73b6a7A"," "," ","1","-10","[1222.3999999910593]","1","0","4","","","","","","","",""
"pit-trial","100","759059","0.0-2.0-17.3-4.3","battery-v0.2","","""event"",""trial"",""time""
""fullscreenenter"",""1"",""2006""
","
","
","""event"",""trial"",""time""
""fullscreenenter"",""1"",""2006""
","
","","","377.19999998807907","","","20","10116","4727","&#9789;","elianto","#f73b6a7A"," "," ","1","0","[1227.3999999910593]","1","0","4","","","","","","","",""
"call-function","101","759060","0.0-2.0-18.0","battery-v0.2","","""event"",""trial"",""time""
""fullscreenenter"",""1"",""2006""
","
","
","""event"",""trial"",""time""
""fullscreenenter"",""1"",""2006""
","
","","","","","","","","","","","","","","","","","","","","","","","","","","",""
"pit-instructions","102","834369","0.0-2.0-19.0","battery-v0.2","","""event"",""trial"",""time""
""fullscreenenter"",""1"",""2006""
","
","
","""event"",""trial"",""time""
""fullscreenenter"",""1"",""2006""
","
","","[{""page_index"":0,""viewing_time"":6376.4000000059605},{""page_index"":1,""viewing_time"":7245},{""page_index"":2,""viewing_time"":14463.59999999404},{""page_index"":3,""viewing_time"":8777},{""page_index"":4,""viewing_time"":9997.10000000894},{""page_index"":5,""viewing_time"":8534.699999988079},{""page_index"":6,""viewing_time"":9119.5},{""page_index"":7,""viewing_time"":6418.70000000298},{""page_index"":8,""viewing_time"":4377.5}]","75309.70000000298","","","","","","","","","","","","","","","","","","","","","","","",""
"pit-comprehension","103","838918","0.0-2.0-20.0-0.0","battery-v0.2","","""event"",""trial"",""time""
""fullscreenenter"",""1"",""2006""
","
","
","""event"",""trial"",""time""
""fullscreenenter"",""1"",""2006""
","
","","","4546.29999999702","[""SPACE""]","0","20","10116","4727","","","","","","","","","","","","","","","","","","",""
"pit-instructions","104","841385","0.0-2.0-20.0-1.0","battery-v0.2","","""event"",""trial"",""time""
""fullscreenenter"",""1"",""2006""
","
","
","""event"",""trial"",""time""
""fullscreenenter"",""1"",""2006""
","
","","[{""page_index"":0,""viewing_time"":2440.2000000029802}]","2440.4000000059605","","","","","","","","","","","","","","","","","","","","","","","",""
"pit-comprehension","105","847985","0.0-2.0-21.0-0.0","battery-v0.2","","""event"",""trial"",""time""
""fullscreenenter"",""1"",""2006""
","
","
","""event"",""trial"",""time""
""fullscreenenter"",""1"",""2006""
","
","","","6598.70000000298","[""10""]","0","20","10116","4727","","","","","","","","","","","","","","","","","","",""
"pit-instructions","106","849473","0.0-2.0-21.0-1.0","battery-v0.2","","""event"",""trial"",""time""
""fullscreenenter"",""1"",""2006""
","
","
","""event"",""trial"",""time""
""fullscreenenter"",""1"",""2006""
","
","","[{""page_index"":0,""viewing_time"":1462.2000000029802}]","1462.4000000059605","","","","","","","","","","","","","","","","","","","","","","","",""
"pit-comprehension","107","855891","0.0-2.0-22.0-0.0","battery-v0.2","","""event"",""trial"",""time""
""fullscreenenter"",""1"",""2006""
","
","
","""event"",""trial"",""time""
""fullscreenenter"",""1"",""2006""
","
","","","6415.79999999702","[""0""]","0","20","10116","4727","","","","","","","","","","","","","","","","","","",""
"pit-instructions","108","860387","0.0-2.0-22.0-1.0","battery-v0.2","","""event"",""trial"",""time""
""fullscreenenter"",""1"",""2006""
","
","
","""event"",""trial"",""time""
""fullscreenenter"",""1"",""2006""
","
","","[{""page_index"":0,""viewing_time"":4469.29999999702}]","4469.5999999940395","","","","","","","","","","","","","","","","","","","","","","","",""
"pit-comprehension","109","871699","0.0-2.0-23.0-0.0","battery-v0.2","","""event"",""trial"",""time""
""fullscreenenter"",""1"",""2006""
","
","
","""event"",""trial"",""time""
""fullscreenenter"",""1"",""2006""
","
","","","11310.79999999702","[""True""]","0","20","10116","4727","","","","","","","","","","","","","","","","","","",""
"pit-instructions","110","878605","0.0-2.0-23.0-1.0","battery-v0.2","","""event"",""trial"",""time""
""fullscreenenter"",""1"",""2006""
","
","
","""event"",""trial"",""time""
""fullscreenenter"",""1"",""2006""
","
","","[{""page_index"":0,""viewing_time"":6878.9000000059605}]","6879.20000000298","","","","","","","","","","","","","","","","","","","","","","","",""
"pit-comprehension","111","886079","0.0-2.0-24.0-0.0","battery-v0.2","","""event"",""trial"",""time""
""fullscreenenter"",""1"",""2006""
","
","
","""event"",""trial"",""time""
""fullscreenenter"",""1"",""2006""
","
","","","7471.300000011921","[""True""]","0","20","10116","4727","","","","","","","","","","","","","","","","","","",""
"pit-instructions","112","888350","0.0-2.0-24.0-1.0","battery-v0.2","","""event"",""trial"",""time""
""fullscreenenter"",""1"",""2006""
","
","
","""event"",""trial"",""time""
""fullscreenenter"",""1"",""2006""
","
","","[{""page_index"":0,""viewing_time"":2243.300000011921}]","2243.4000000059605","","","","","","","","","","","","","","","","","","","","","","","",""
"pit-comprehension","113","894705","0.0-2.0-25.0-0.0","battery-v0.2","","""event"",""trial"",""time""
""fullscreenenter"",""1"",""2006""
","
","
","""event"",""trial"",""time""
""fullscreenenter"",""1"",""2006""
","
","","","6353.5","[""True""]","0","20","10116","4727","","","","","","","","","","","","","","","","","","",""
"pit-instructions","114","896923","0.0-2.0-25.0-1.0","battery-v0.2","","""event"",""trial"",""time""
""fullscreenenter"",""1"",""2006""
","
","
","""event"",""trial"",""time""
""fullscreenenter"",""1"",""2006""
","
","","[{""page_index"":0,""viewing_time"":2190.5}]","2190.7000000029802","","","","","","","","","","","","","","","","","","","","","","","",""
"pit-comprehension","115","902341","0.0-2.0-26.0-0.0","battery-v0.2","","""event"",""trial"",""time""
""fullscreenenter"",""1"",""2006""
","
","
","""event"",""trial"",""time""
""fullscreenenter"",""1"",""2006""
","
","","","5416.79999999702","[""False""]","0","20","10116","4727","","","","","","","","","","","","","","","","","","",""
"pit-instructions","116","904289","0.0-2.0-26.0-1.0","battery-v0.2","","""event"",""trial"",""time""
""fullscreenenter"",""1"",""2006""
","
","
","""event"",""trial"",""time""
""fullscreenenter"",""1"",""2006""
","
","","[{""page_index"":0,""viewing_time"":1919.7000000029802}]","1919.7999999970198","","","","","","","","","","","","","","","","","","","","","","","",""
"pit-instructions","117","919952","0.0-3.0","battery-v0.2","","""event"",""trial"",""time""
""fullscreenenter"",""1"",""2006""
","
","
","""event"",""trial"",""time""
""fullscreenenter"",""1"",""2006""
","
","","[{""page_index"":0,""viewing_time"":4335.899999991059},{""page_index"":1,""viewing_time"":5307.20000000298},{""page_index"":2,""viewing_time"":6018.29999999702}]","15661.70000000298","","","","","","","","","","","","","","","","","","","","","","","",""
"pit-trial","118","924254","0.0-4.0","battery-v0.2","","""event"",""trial"",""time""
""fullscreenenter"",""1"",""2006""
","
","
","""event"",""trial"",""time""
""fullscreenenter"",""1"",""2006""
","
","","","1432.4000000059605","","","20","10116","4727","&#9728;","elianto","#f73b6a7A","-1"," ","0","-10","[2285]","1","1","","","10116","1","0","4","lose","no-go","0"
"pit-trial","119","927976","0.0-5.0","battery-v0.2","","""event"",""trial"",""time""
""fullscreenenter"",""1"",""2006""
","
","
","""event"",""trial"",""time""
""fullscreenenter"",""1"",""2006""
","
","","","860.0999999940395","","","20","10116","4727","&#9730;","elianto","#3366ff99"," "," ","1","+10","[1711.2000000029802]","1","1","","","10116","2","1","1","win","go","0"
"pit-trial","120","931510","0.0-6.0","battery-v0.2","","""event"",""trial"",""time""
""fullscreenenter"",""1"",""2006""
","
","
","""event"",""trial"",""time""
""fullscreenenter"",""1"",""2006""
","
","","","662.7999999970198","","","20","10116","4727","&#9752;","elianto","#f73b6a7A"," "," ","1","0","[1524.0999999940395]","1","1","","","10116","3","3","3","lose","go","0"
"pit-trial","121","935120","0.0-7.0","battery-v0.2","","""event"",""trial"",""time""
""fullscreenenter"",""1"",""2006""
","
","
","""event"",""trial"",""time""
""fullscreenenter"",""1"",""2006""
","
","","","747.5","","","20","10116","4727","&#9733;","elianto","#3366ff99","-1"," ","0","0","[1606.699999988079]","1","1","","","10116","4","2","2","win","no-go","0"
"pit-trial","122","938820","0.0-8.0","battery-v0.2","","""event"",""trial"",""time""
""fullscreenenter"",""1"",""2006""
","
","
","""event"",""trial"",""time""
""fullscreenenter"",""1"",""2006""
","
","","","841.1999999880791","","","20","10116","4727","&#9728;","elianto","#f73b6a7A","-1"," ","0","-10","[1693.5]","1","1","","","10116","5","0","4","lose","no-go","0"
"pit-trial","123","942578","0.0-9.0","battery-v0.2","","""event"",""trial"",""time""
""fullscreenenter"",""1"",""2006""
","
","
","""event"",""trial"",""time""
""fullscreenenter"",""1"",""2006""
","
","","","892.0999999940395","","","20","10116","4727","&#9733;","elianto","#3366ff99","-1"," ","0","0","[1744.2999999970198]","1","1","","","10116","6","2","2","win","no-go","0"
"pit-trial","124","946270","0.0-10.0","battery-v0.2","","""event"",""trial"",""time""
""fullscreenenter"",""1"",""2006""
","
","
","""event"",""trial"",""time""
""fullscreenenter"",""1"",""2006""
","
","","","818.7000000029802","","","20","10116","4727","&#9752;","elianto","#f73b6a7A"," "," ","1","0","[1675.2000000029802]","1","1","","","10116","7","3","3","lose","go","0"
"pit-trial","125","949798","0.0-11.0","battery-v0.2","","""event"",""trial"",""time""
""fullscreenenter"",""1"",""2006""
","
","
","""event"",""trial"",""time""
""fullscreenenter"",""1"",""2006""
","
","","","669","","","20","10116","4727","&#9730;","elianto","#3366ff99"," "," ","1","+10","[1521.7999999970198]","1","1","","","10116","8","1","1","win","go","0"
"pit-trial","126","953315","0.0-12.0","battery-v0.2","","""event"",""trial"",""time""
""fullscreenenter"",""1"",""2006""
","
","
","""event"",""trial"",""time""
""fullscreenenter"",""1"",""2006""
","
","","","658.7999999970198","","","20","10116","4727","&#9733;","elianto","#3366ff99","-1"," ","0","+10","[1515.2999999970198]","1","1","","","10116","9","2","2","win","no-go","1"
"pit-trial","127","956849","0.0-13.0","battery-v0.2","","""event"",""trial"",""time""
""fullscreenenter"",""1"",""2006""
","
","
","""event"",""trial"",""time""
""fullscreenenter"",""1"",""2006""
","
","","","681.2999999970198","","","20","10116","4727","&#9752;","elianto","#f73b6a7A"," "," ","1","0","[1532.2000000029802]","1","1","","","10116","10","3","3","lose","go","0"
"pit-trial","128","960358","0.0-14.0","battery-v0.2","","""event"",""trial"",""time""
""fullscreenenter"",""1"",""2006""
","
","
","""event"",""trial"",""time""
""fullscreenenter"",""1"",""2006""
","
","","","655.4000000059605","","","20","10116","4727","&#9730;","elianto","#3366ff99"," "," ","1","+10","[1506]","1","1","","","10116","11","1","1","win","go","0"
"pit-trial","129","965211","0.0-15.0","battery-v0.2","","""event"",""trial"",""time""
""fullscreenenter"",""1"",""2006""
","
","
","""event"",""trial"",""time""
""fullscreenenter"",""1"",""2006""
","
","","","-1","","","20","10116","4727","&#9728;","elianto","#f73b6a7A","-1","-1","1","0","[]","0","1","","","10116","12","0","4","lose","no-go","0"
"pit-trial","130","968841","0.0-16.0","battery-v0.2","","""event"",""trial"",""time""
""fullscreenenter"",""1"",""2006""
","
","
","""event"",""trial"",""time""
""fullscreenenter"",""1"",""2006""
","
","","","777.5","","","20","10116","4727","&#9752;","elianto","#f73b6a7A"," "," ","1","0","[1627.7000000029802]","1","1","","","10116","13","3","3","lose","go","0"
"pit-trial","131","973694","0.0-17.0","battery-v0.2","","""event"",""trial"",""time""
""fullscreenenter"",""1"",""2006""
","
","
","""event"",""trial"",""time""
""fullscreenenter"",""1"",""2006""
","
","","","-1","","","20","10116","4727","&#9728;","elianto","#f73b6a7A","-1","-1","1","-10","[]","0","1","","","10116","14","0","4","lose","no-go","1"
"pit-trial","132","977319","0.0-18.0","battery-v0.2","","""event"",""trial"",""time""
""fullscreenenter"",""1"",""2006""
","
","
","""event"",""trial"",""time""
""fullscreenenter"",""1"",""2006""
","
","","","770.9000000059605","","","20","10116","4727","&#9733;","elianto","#3366ff99","-1"," ","0","+10","[1621.7000000029802]","1","1","","","10116","15","2","2","win","no-go","1"
"pit-trial","133","980861","0.0-19.0","battery-v0.2","","""event"",""trial"",""time""
""fullscreenenter"",""1"",""2006""
","
","
","""event"",""trial"",""time""
""fullscreenenter"",""1"",""2006""
","
","","","688.0999999940395","","","20","10116","4727","&#9730;","elianto","#3366ff99"," "," ","1","+10","[1539.7999999970198]","1","1","","","10116","16","1","1","win","go","0"
"pit-trial","134","984452","0.0-20.0","battery-v0.2","","""event"",""trial"",""time""
""fullscreenenter"",""1"",""2006""
","
","
","""event"",""trial"",""time""
""fullscreenenter"",""1"",""2006""
","
","","","738.7000000029802","","","20","10116","4727","&#9752;","elianto","#f73b6a7A"," "," ","1","0","[1589.0999999940395]","1","1","","","10116","17","3","3","lose","go","0"
"pit-trial","135","987953","0.0-21.0","battery-v0.2","","""event"",""trial"",""time""
""fullscreenenter"",""1"",""2006""
","
","
","""event"",""trial"",""time""
""fullscreenenter"",""1"",""2006""
","
","","","649.0999999940395","","","20","10116","4727","&#9733;","elianto","#3366ff99","-1"," ","0","0","[1499.2000000029802]","1","1","","","10116","18","2","2","win","no-go","0"
"pit-trial","136","992805","0.0-22.0","battery-v0.2","","""event"",""trial"",""time""
""fullscreenenter"",""1"",""2006""
","
","
","""event"",""trial"",""time""
""fullscreenenter"",""1"",""2006""
","
","","","-1","","","20","10116","4727","&#9728;","elianto","#f73b6a7A","-1","-1","1","0","[]","0","1","","","10116","19","0","4","lose","no-go","0"
"pit-trial","137","996315","0.0-23.0","battery-v0.2","","""event"",""trial"",""time""
""fullscreenenter"",""1"",""2006""
","
","
","""event"",""trial"",""time""
""fullscreenenter"",""1"",""2006""
","
","","","656.6000000089407","","","20","10116","4727","&#9730;","elianto","#3366ff99"," "," ","1","+10","[1506.7000000029802]","1","1","","","10116","20","1","1","win","go","0"
"pit-instructions","138","1010254","0.0-24.0","battery-v0.2","","""event"",""trial"",""time""
""fullscreenenter"",""1"",""2006""
","
","
","""event"",""trial"",""time""
""fullscreenenter"",""1"",""2006""
","
","","[{""page_index"":0,""viewing_time"":6382.899999991059},{""page_index"":1,""viewing_time"":7556}]","13939","","","","","","","","","","","","","","","","","","","","","","","",""
"pit-trial","139","1013815","0.0-25.0","battery-v0.2","","""event"",""trial"",""time""
""fullscreenenter"",""1"",""2006""
","
","
","""event"",""trial"",""time""
""fullscreenenter"",""1"",""2006""
","
","","","701.2000000029802","","","20","10116","4727","h","elianto","#f73b6a7A"," "," ","1","0","[1553.2000000029802]","1","2","","","10116","21","3","3","lose","go","0"
"pit-trial","140","1017639","0.0-26.0","battery-v0.2","","""event"",""trial"",""time""
""fullscreenenter"",""1"",""2006""
","
","
","""event"",""trial"",""time""
""fullscreenenter"",""1"",""2006""
","
","","","965.0999999940395","","","20","10116","4727","r","elianto","#3366ff99"," "," ","1","+10","[1821.7999999970198]","1","2","","","10116","22","1","1","win","go","0"
"pit-trial","141","1021278","0.0-27.0","battery-v0.2","","""event"",""trial"",""time""
""fullscreenenter"",""1"",""2006""
","
","
","""event"",""trial"",""time""
""fullscreenenter"",""1"",""2006""
","
","","","770.5999999940395","","","20","10116","4727","y","elianto","#f73b6a7A","-1"," ","0","-10","[1621]","1","2","","","10116","23","2","4","lose","no-go","0"
"pit-trial","142","1025027","0.0-28.0","battery-v0.2","","""event"",""trial"",""time""
""fullscreenenter"",""1"",""2006""
","
","
","""event"",""trial"",""time""
""fullscreenenter"",""1"",""2006""
","
","","","876.6000000089407","","","20","10116","4727","m","elianto","#f73b6a7A","-1"," ","0","-10","[1734.7999999970198]","1","2","","","10116","24","0","4","lose","no-go","0"
"pit-trial","143","1028699","0.0-29.0","battery-v0.2","","""event"",""trial"",""time""
""fullscreenenter"",""1"",""2006""
","
","
","""event"",""trial"",""time""
""fullscreenenter"",""1"",""2006""
","
","","","805.4000000059605","","","20","10116","4727","r","elianto","#3366ff99"," "," ","1","+10","[1662.2000000029802]","1","2","","","10116","25","1","1","win","go","0"
"pit-trial","144","1033565","0.0-30.0","battery-v0.2","","""event"",""trial"",""time""
""fullscreenenter"",""1"",""2006""
","
","
","""event"",""trial"",""time""
""fullscreenenter"",""1"",""2006""
","
","","","-1","","","20","10116","4727","m","elianto","#f73b6a7A","-1","-1","1","0","[]","0","2","","","10116","26","0","4","lose","no-go","0"
"pit-trial","145","1037569","0.0-31.0","battery-v0.2","","""event"",""trial"",""time""
""fullscreenenter"",""1"",""2006""
","
","
","""event"",""trial"",""time""
""fullscreenenter"",""1"",""2006""
","
","","","1131.0999999940395","","","20","10116","4727","h","elianto","#f73b6a7A"," "," ","1","0","[1988.0999999940395]","1","2","","","10116","27","3","3","lose","go","0"
"pit-trial","146","1042421","0.0-32.0","battery-v0.2","","""event"",""trial"",""time""
""fullscreenenter"",""1"",""2006""
","
","
","""event"",""trial"",""time""
""fullscreenenter"",""1"",""2006""
","
","","","-1","","","20","10116","4727","y","elianto","#f73b6a7A","-1","-1","1","-10","[]","0","2","","","10116","28","2","4","lose","no-go","1"
"pit-trial","147","1046018","0.0-33.0","battery-v0.2","","""event"",""trial"",""time""
""fullscreenenter"",""1"",""2006""
","
","
","""event"",""trial"",""time""
""fullscreenenter"",""1"",""2006""
","
","","","743.5","","","20","10116","4727","r","elianto","#3366ff99"," "," ","1","0","[1594.699999988079]","1","2","","","10116","29","1","1","win","go","1"
"pit-trial","148","1049639","0.0-34.0","battery-v0.2","","""event"",""trial"",""time""
""fullscreenenter"",""1"",""2006""
","
","
","""event"",""trial"",""time""
""fullscreenenter"",""1"",""2006""
","
","","","769.5","","","20","10116","4727","h","elianto","#f73b6a7A"," "," ","1","0","[1619.6000000089407]","1","2","","","10116","30","3","3","lose","go","0"
"pit-trial","149","1054493","0.0-35.0","battery-v0.2","","""event"",""trial"",""time""
""fullscreenenter"",""1"",""2006""
","
","
","""event"",""trial"",""time""
""fullscreenenter"",""1"",""2006""
","
","","","-1","","","20","10116","4727","m","elianto","#f73b6a7A","-1","-1","1","0","[]","0","2","","","10116","31","0","4","lose","no-go","0"
"pit-trial","150","1058791","0.0-36.0","battery-v0.2","","""event"",""trial"",""time""
""fullscreenenter"",""1"",""2006""
","
","
","""event"",""trial"",""time""
""fullscreenenter"",""1"",""2006""
","
","","","1445.6000000089407","","","20","10116","4727","y","elianto","#f73b6a7A","-1"," ","0","-10","[2295.7000000029802]","1","2","","","10116","32","2","4","lose","no-go","0"
"pit-trial","151","1062379","0.0-37.0","battery-v0.2","","""event"",""trial"",""time""
""fullscreenenter"",""1"",""2006""
","
","
","""event"",""trial"",""time""
""fullscreenenter"",""1"",""2006""
","
","","","734.5","","","20","10116","4727","h","elianto","#f73b6a7A"," "," ","1","0","[1586]","1","2","","","10116","33","3","3","lose","go","0"
"pit-trial","152","1067232","0.0-38.0","battery-v0.2","","""event"",""trial"",""time""
""fullscreenenter"",""1"",""2006""
","
","
","""event"",""trial"",""time""
""fullscreenenter"",""1"",""2006""
","
","","","-1","","","20","10116","4727","y","elianto","#f73b6a7A","-1","-1","1","0","[]","0","2","","","10116","34","2","4","lose","no-go","0"
"pit-trial","153","1072085","0.0-39.0","battery-v0.2","","""event"",""trial"",""time""
""fullscreenenter"",""1"",""2006""
","
","
","""event"",""trial"",""time""
""fullscreenenter"",""1"",""2006""
","
","","","-1","","","20","10116","4727","m","elianto","#f73b6a7A","-1","-1","1","0","[]","0","2","","","10116","35","0","4","lose","no-go","0"
"pit-trial","154","1075613","0.0-40.0","battery-v0.2","","""event"",""trial"",""time""
""fullscreenenter"",""1"",""2006""
","
","
","""event"",""trial"",""time""
""fullscreenenter"",""1"",""2006""
","
","","","674.5999999940395","","","20","10116","4727","r","elianto","#3366ff99"," "," ","1","0","[1525.7999999970198]","1","2","","","10116","36","1","1","win","go","1"
"pit-trial","155","1079254","0.0-41.0","battery-v0.2","","""event"",""trial"",""time""
""fullscreenenter"",""1"",""2006""
","
","
","""event"",""trial"",""time""
""fullscreenenter"",""1"",""2006""
","
","","","788.5999999940395","","","20","10116","4727","r","elianto","#3366ff99"," "," ","1","+10","[1639]","1","2","","","10116","37","1","1","win","go","0"
"pit-trial","156","1084106","0.0-42.0","battery-v0.2","","""event"",""trial"",""time""
""fullscreenenter"",""1"",""2006""
","
","
","""event"",""trial"",""time""
""fullscreenenter"",""1"",""2006""
","
","","","-1","","","20","10116","4727","m","elianto","#f73b6a7A","-1","-1","1","0","[]","0","2","","","10116","38","0","4","lose","no-go","0"
"pit-trial","157","1088959","0.0-43.0","battery-v0.2","","""event"",""trial"",""time""
""fullscreenenter"",""1"",""2006""
","
","
","""event"",""trial"",""time""
""fullscreenenter"",""1"",""2006""
","
","","","-1","","","20","10116","4727","y","elianto","#f73b6a7A","-1","-1","1","0","[]","0","2","","","10116","39","2","4","lose","no-go","0"
"pit-trial","158","1092599","0.0-44.0","battery-v0.2","","""event"",""trial"",""time""
""fullscreenenter"",""1"",""2006""
","
","
","""event"",""trial"",""time""
""fullscreenenter"",""1"",""2006""
","
","","","786.5","","","20","10116","4727","h","elianto","#f73b6a7A"," "," ","1","0","[1637.7999999970198]","1","2","","","10116","40","3","3","lose","go","0"
"pit-trial","159","1097453","0.0-45.0","battery-v0.2","","""event"",""trial"",""time""
""fullscreenenter"",""1"",""2006""
","
","
","""event"",""trial"",""time""
""fullscreenenter"",""1"",""2006""
","
","","","-1","","","20","10116","4727","m","elianto","#f73b6a7A","-1","-1","1","0","[]","0","2","","","10116","41","0","4","lose","no-go","0"
"pit-trial","160","1102308","0.0-46.0","battery-v0.2","","""event"",""trial"",""time""
""fullscreenenter"",""1"",""2006""
","
","
","""event"",""trial"",""time""
""fullscreenenter"",""1"",""2006""
","
","","","-1","","","20","10116","4727","y","elianto","#f73b6a7A","-1","-1","1","0","[]","0","2","","","10116","42","2","4","lose","no-go","0"
"pit-trial","161","1105789","0.0-47.0","battery-v0.2","","""event"",""trial"",""time""
""fullscreenenter"",""1"",""2006""
","
","
","""event"",""trial"",""time""
""fullscreenenter"",""1"",""2006""
","
","","","628.7000000029802","","","20","10116","4727","r","elianto","#3366ff99"," "," ","1","+10","[1478.7000000029802]","1","2","","","10116","43","1","1","win","go","0"
"pit-trial","162","1109380","0.0-48.0","battery-v0.2","","""event"",""trial"",""time""
""fullscreenenter"",""1"",""2006""
","
","
","""event"",""trial"",""time""
""fullscreenenter"",""1"",""2006""
","
","","","739.9000000059605","","","20","10116","4727","h","elianto","#f73b6a7A"," "," ","1","0","[1590.1000000089407]","1","2","","","10116","44","3","3","lose","go","0"
"pit-trial","163","1114233","0.0-49.0","battery-v0.2","","""event"",""trial"",""time""
""fullscreenenter"",""1"",""2006""
","
","
","""event"",""trial"",""time""
""fullscreenenter"",""1"",""2006""
","
","","","-1","","","20","10116","4727","m","elianto","#f73b6a7A","-1","-1","1","0","[]","0","2","","","10116","45","0","4","lose","no-go","0"
"pit-trial","164","1118503","0.0-50.0","battery-v0.2","","""event"",""trial"",""time""
""fullscreenenter"",""1"",""2006""
","
","
","""event"",""trial"",""time""
""fullscreenenter"",""1"",""2006""
","
","","","1417.3999999910593","","","20","10116","4727","h","elianto","#f73b6a7A"," "," ","1","0","[2267.7000000029802]","1","2","","","10116","46","3","3","lose","go","0"
"pit-trial","165","1122358","0.0-51.0","battery-v0.2","","""event"",""trial"",""time""
""fullscreenenter"",""1"",""2006""
","
","
","""event"",""trial"",""time""
""fullscreenenter"",""1"",""2006""
","
","","","1002.1000000089407","","","20","10116","4727","z","elianto","#3366ff99","-1"," ","0","+10","[1852.2999999970198]","1","2","","","10116","47","4","2","win","no-go","1"
"pit-trial","166","1127211","0.0-52.0","battery-v0.2","","""event"",""trial"",""time""
""fullscreenenter"",""1"",""2006""
","
","
","""event"",""trial"",""time""
""fullscreenenter"",""1"",""2006""
","
","","","-1","","","20","10116","4727","y","elianto","#f73b6a7A","-1","-1","1","0","[]","0","2","","","10116","48","2","4","lose","no-go","0"
"pit-trial","167","1132064","0.0-53.0","battery-v0.2","","""event"",""trial"",""time""
""fullscreenenter"",""1"",""2006""
","
","
","""event"",""trial"",""time""
""fullscreenenter"",""1"",""2006""
","
","","","-1","","","20","10116","4727","m","elianto","#f73b6a7A","-1","-1","1","0","[]","0","2","","","10116","49","0","4","lose","no-go","0"
"pit-trial","168","1135620","0.0-54.0","battery-v0.2","","""event"",""trial"",""time""
""fullscreenenter"",""1"",""2006""
","
","
","""event"",""trial"",""time""
""fullscreenenter"",""1"",""2006""
","
","","","702.5","","","20","10116","4727","h","elianto","#f73b6a7A"," "," ","1","0","[1553.5999999940395]","1","2","","","10116","50","3","3","lose","go","0"
"pit-trial","169","1139125","0.0-55.0","battery-v0.2","","""event"",""trial"",""time""
""fullscreenenter"",""1"",""2006""
","
","
","""event"",""trial"",""time""
""fullscreenenter"",""1"",""2006""
","
","","","650.8000000119209","","","20","10116","4727","z","elianto","#3366ff99","-1"," ","0","0","[1501.6000000089407]","1","2","","","10116","51","4","2","win","no-go","0"
"pit-trial","170","1142642","0.0-56.0","battery-v0.2","","""event"",""trial"",""time""
""fullscreenenter"",""1"",""2006""
","
","
","""event"",""trial"",""time""
""fullscreenenter"",""1"",""2006""
","
","","","651.5","","","20","10116","4727","r","elianto","#3366ff99"," "," ","1","+10","[1503.7999999970198]","1","2","","","10116","52","1","1","win","go","0"
"pit-trial","171","1146195","0.0-57.0","battery-v0.2","","""event"",""trial"",""time""
""fullscreenenter"",""1"",""2006""
","
","
","""event"",""trial"",""time""
""fullscreenenter"",""1"",""2006""
","
","","","700.2999999970198","","","20","10116","4727","r","elianto","#3366ff99"," "," ","1","0","[1551.0999999940395]","1","2","","","10116","53","1","1","win","go","1"
"pit-trial","172","1149772","0.0-58.0","battery-v0.2","","""event"",""trial"",""time""
""fullscreenenter"",""1"",""2006""
","
","
","""event"",""trial"",""time""
""fullscreenenter"",""1"",""2006""
","
","","","717.2999999970198","","","20","10116","4727","z","elianto","#3366ff99","-1"," ","0","+10","[1568]","1","2","","","10116","54","4","2","win","no-go","1"
"pit-trial","173","1154626","0.0-59.0","battery-v0.2","","""event"",""trial"",""time""
""fullscreenenter"",""1"",""2006""
","
","
","""event"",""trial"",""time""
""fullscreenenter"",""1"",""2006""
","
","","","-1","","","20","10116","4727","m","elianto","#f73b6a7A","-1","-1","1","0","[]","0","2","","","10116","55","0","4","lose","no-go","0"
"pit-trial","174","1159478","0.0-60.0","battery-v0.2","","""event"",""trial"",""time""
""fullscreenenter"",""1"",""2006""
","
","
","""event"",""trial"",""time""
""fullscreenenter"",""1"",""2006""
","
","","","-1","","","20","10116","4727","y","elianto","#f73b6a7A","-1","-1","1","0","[]","0","2","","","10116","56","2","4","lose","no-go","0"
"pit-trial","175","1162988","0.0-61.0","battery-v0.2","","""event"",""trial"",""time""
""fullscreenenter"",""1"",""2006""
","
","
","""event"",""trial"",""time""
""fullscreenenter"",""1"",""2006""
","
","","","657.9000000059605","","","20","10116","4727","r","elianto","#3366ff99"," "," ","1","+10","[1508.2999999970198]","1","2","","","10116","57","1","1","win","go","0"
"pit-trial","176","1167841","0.0-62.0","battery-v0.2","","""event"",""trial"",""time""
""fullscreenenter"",""1"",""2006""
","
","
","""event"",""trial"",""time""
""fullscreenenter"",""1"",""2006""
","
","","","-1","","","20","10116","4727","m","elianto","#f73b6a7A","-1","-1","1","0","[]","0","2","","","10116","58","0","4","lose","no-go","0"
"pit-trial","177","1171388","0.0-63.0","battery-v0.2","","""event"",""trial"",""time""
""fullscreenenter"",""1"",""2006""
","
","
","""event"",""trial"",""time""
""fullscreenenter"",""1"",""2006""
","
","","","692.5","","","20","10116","4727","z","elianto","#3366ff99","-1"," ","0","+10","[1544.1000000089407]","1","2","","","10116","59","4","2","win","no-go","1"
"pit-trial","178","1175052","0.0-64.0","battery-v0.2","","""event"",""trial"",""time""
""fullscreenenter"",""1"",""2006""
","
","
","""event"",""trial"",""time""
""fullscreenenter"",""1"",""2006""
","
","","","812.2000000029802","","","20","10116","4727","h","elianto","#f73b6a7A"," "," ","1","0","[1662.5]","1","2","","","10116","60","3","3","lose","go","0"
"pit-trial","179","1178565","0.0-65.0","battery-v0.2","","""event"",""trial"",""time""
""fullscreenenter"",""1"",""2006""
","
","
","""event"",""trial"",""time""
""fullscreenenter"",""1"",""2006""
","
","","","657.2000000029802","","","20","10116","4727","r","elianto","#3366ff99"," "," ","1","+10","[1508.5999999940395]","1","2","","","10116","61","1","1","win","go","0"
"pit-trial","180","1183417","0.0-66.0","battery-v0.2","","""event"",""trial"",""time""
""fullscreenenter"",""1"",""2006""
","
","
","""event"",""trial"",""time""
""fullscreenenter"",""1"",""2006""
","
","","","-1","","","20","10116","4727","y","elianto","#f73b6a7A","-1","-1","1","0","[]","0","2","","","10116","62","2","4","lose","no-go","0"
"pit-trial","181","1186913","0.0-67.0","battery-v0.2","","""event"",""trial"",""time""
""fullscreenenter"",""1"",""2006""
","
","
","""event"",""trial"",""time""
""fullscreenenter"",""1"",""2006""
","
","","","644.1000000089407","","","20","10116","4727","h","elianto","#f73b6a7A"," "," ","1","0","[1494.4000000059605]","1","2","","","10116","63","3","3","lose","go","0"
"pit-trial","182","1190380","0.0-68.0","battery-v0.2","","""event"",""trial"",""time""
""fullscreenenter"",""1"",""2006""
","
","
","""event"",""trial"",""time""
""fullscreenenter"",""1"",""2006""
","
","","","614.5","","","20","10116","4727","z","elianto","#3366ff99","-1"," ","0","0","[1465]","1","2","","","10116","64","4","2","win","no-go","0"
"pit-trial","183","1193825","0.0-69.0","battery-v0.2","","""event"",""trial"",""time""
""fullscreenenter"",""1"",""2006""
","
","
","""event"",""trial"",""time""
""fullscreenenter"",""1"",""2006""
","
","","","590.1999999880791","","","20","10116","4727","r","elianto","#3366ff99"," "," ","1","+10","[1442]","1","2","","","10116","65","1","1","win","go","0"
"pit-trial","184","1197387","0.0-70.0","battery-v0.2","","""event"",""trial"",""time""
""fullscreenenter"",""1"",""2006""
","
","
","""event"",""trial"",""time""
""fullscreenenter"",""1"",""2006""
","
","","","709.2000000029802","","","20","10116","4727","z","elianto","#3366ff99","-1"," ","0","0","[1559.2000000029802]","1","2","","","10116","66","4","2","win","no-go","0"
"pit-trial","185","1202239","0.0-71.0","battery-v0.2","","""event"",""trial"",""time""
""fullscreenenter"",""1"",""2006""
","
","
","""event"",""trial"",""time""
""fullscreenenter"",""1"",""2006""
","
","","","-1","","","20","10116","4727","y","elianto","#f73b6a7A","-1","-1","1","0","[]","0","2","","","10116","67","2","4","lose","no-go","0"
"pit-trial","186","1205833","0.0-72.0","battery-v0.2","","""event"",""trial"",""time""
""fullscreenenter"",""1"",""2006""
","
","
","""event"",""trial"",""time""
""fullscreenenter"",""1"",""2006""
","
","","","741.2999999970198","","","20","10116","4727","h","elianto","#f73b6a7A"," "," ","1","-10","[1591.7999999970198]","1","2","","","10116","68","3","3","lose","go","1"
"pit-trial","187","1209398","0.0-73.0","battery-v0.2","","""event"",""trial"",""time""
""fullscreenenter"",""1"",""2006""
","
","
","""event"",""trial"",""time""
""fullscreenenter"",""1"",""2006""
","
","","","712","","","20","10116","4727","h","elianto","#f73b6a7A"," "," ","1","0","[1563.199999988079]","1","2","","","10116","69","3","3","lose","go","0"
"pit-trial","188","1212843","0.0-74.0","battery-v0.2","","""event"",""trial"",""time""
""fullscreenenter"",""1"",""2006""
","
","
","""event"",""trial"",""time""
""fullscreenenter"",""1"",""2006""
","
","","","592.0999999940395","","","20","10116","4727","z","elianto","#3366ff99","-1"," ","0","0","[1442.2999999970198]","1","2","","","10116","70","4","2","win","no-go","0"
"pit-trial","189","1216439","0.0-75.0","battery-v0.2","","""event"",""trial"",""time""
""fullscreenenter"",""1"",""2006""
","
","
","""event"",""trial"",""time""
""fullscreenenter"",""1"",""2006""
","
","","","742.7999999970198","","","20","10116","4727","r","elianto","#3366ff99"," "," ","1","+10","[1593.5]","1","2","","","10116","71","1","1","win","go","0"
"pit-trial","190","1220202","0.0-76.0","battery-v0.2","","""event"",""trial"",""time""
""fullscreenenter"",""1"",""2006""
","
","
","""event"",""trial"",""time""
""fullscreenenter"",""1"",""2006""
","
","","","911.3999999910593","","","20","10116","4727","c","elianto","#3366ff99"," "," ","1","0","[1761.699999988079]","1","2","","","10116","72","5","1","win","go","1"
"pit-trial","191","1225054","0.0-77.0","battery-v0.2","","""event"",""trial"",""time""
""fullscreenenter"",""1"",""2006""
","
","
","""event"",""trial"",""time""
""fullscreenenter"",""1"",""2006""
","
","","","-1","","","20","10116","4727","c","elianto","#3366ff99"," ","-1","0","0","[]","0","2","","","10116","73","5","1","win","go","0"
"pit-trial","192","1228616","0.0-78.0","battery-v0.2","","""event"",""trial"",""time""
""fullscreenenter"",""1"",""2006""
","
","
","""event"",""trial"",""time""
""fullscreenenter"",""1"",""2006""
","
","","","709.2999999970198","","","20","10116","4727","r","elianto","#3366ff99"," "," ","1","0","[1560.0999999940395]","1","2","","","10116","74","1","1","win","go","1"
"pit-trial","193","1233471","0.0-79.0","battery-v0.2","","""event"",""trial"",""time""
""fullscreenenter"",""1"",""2006""
","
","
","""event"",""trial"",""time""
""fullscreenenter"",""1"",""2006""
","
","","","-1","","","20","10116","4727","z","elianto","#3366ff99","-1","-1","1","+10","[]","0","2","","","10116","75","4","2","win","no-go","0"
"pit-trial","194","1237064","0.0-80.0","battery-v0.2","","""event"",""trial"",""time""
""fullscreenenter"",""1"",""2006""
","
","
","""event"",""trial"",""time""
""fullscreenenter"",""1"",""2006""
","
","","","739.5","","","20","10116","4727","h","elianto","#f73b6a7A"," "," ","1","-10","[1590.5999999940395]","1","2","","","10116","76","3","3","lose","go","1"
"pit-trial","195","1240770","0.0-81.0","battery-v0.2","","""event"",""trial"",""time""
""fullscreenenter"",""1"",""2006""
","
","
","""event"",""trial"",""time""
""fullscreenenter"",""1"",""2006""
","
","","","854.2999999970198","","","20","10116","4727","h","elianto","#f73b6a7A"," "," ","1","0","[1704.2000000029802]","1","2","","","10116","77","3","3","lose","go","0"
"pit-trial","196","1244955","0.0-82.0","battery-v0.2","","""event"",""trial"",""time""
""fullscreenenter"",""1"",""2006""
","
","
","""event"",""trial"",""time""
""fullscreenenter"",""1"",""2006""
","
","","","1332.8999999910593","","","20","10116","4727","b","elianto","#f73b6a7A","-1"," ","0","-10","[2183.2999999970198]","1","2","","","10116","78","6","4","lose","no-go","0"
"pit-trial","197","1248777","0.0-83.0","battery-v0.2","","""event"",""trial"",""time""
""fullscreenenter"",""1"",""2006""
","
","
","""event"",""trial"",""time""
""fullscreenenter"",""1"",""2006""
","
","","","970.2000000029802","","","20","10116","4727","c","elianto","#3366ff99"," "," ","1","+10","[1820.7000000029802]","1","2","","","10116","79","5","1","win","go","0"
"pit-trial","198","1253631","0.0-84.0","battery-v0.2","","""event"",""trial"",""time""
""fullscreenenter"",""1"",""2006""
","
","
","""event"",""trial"",""time""
""fullscreenenter"",""1"",""2006""
","
","","","-1","","","20","10116","4727","z","elianto","#3366ff99","-1","-1","1","+10","[]","0","2","","","10116","80","4","2","win","no-go","0"
"pit-trial","199","1257710","0.0-85.0","battery-v0.2","","""event"",""trial"",""time""
""fullscreenenter"",""1"",""2006""
","
","
","""event"",""trial"",""time""
""fullscreenenter"",""1"",""2006""
","
","","","1226.3999999910593","","","20","10116","4727","c","elianto","#3366ff99"," "," ","1","0","[2077]","1","2","","","10116","81","5","1","win","go","1"
"pit-trial","200","1261744","0.0-86.0","battery-v0.2","","""event"",""trial"",""time""
""fullscreenenter"",""1"",""2006""
","
","
","""event"",""trial"",""time""
""fullscreenenter"",""1"",""2006""
","
","","","1180.5999999940395","","","20","10116","4727","b","elianto","#f73b6a7A","-1"," ","0","-10","[2031.7999999970198]","1","2","","","10116","82","6","4","lose","no-go","0"
"pit-trial","201","1266598","0.0-87.0","battery-v0.2","","""event"",""trial"",""time""
""fullscreenenter"",""1"",""2006""
","
","
","""event"",""trial"",""time""
""fullscreenenter"",""1"",""2006""
","
","","","-1","","","20","10116","4727","t","elianto","#f73b6a7A"," ","-1","0","0","[]","0","2","","","10116","83","7","3","lose","go","1"
"pit-trial","202","1271450","0.0-88.0","battery-v0.2","","""event"",""trial"",""time""
""fullscreenenter"",""1"",""2006""
","
","
","""event"",""trial"",""time""
""fullscreenenter"",""1"",""2006""
","
","","","-1","","","20","10116","4727","z","elianto","#3366ff99","-1","-1","1","+10","[]","0","2","","","10116","84","4","2","win","no-go","0"
"pit-trial","203","1276302","0.0-89.0","battery-v0.2","","""event"",""trial"",""time""
""fullscreenenter"",""1"",""2006""
","
","
","""event"",""trial"",""time""
""fullscreenenter"",""1"",""2006""
","
","","","-1","","","20","10116","4727","z","elianto","#3366ff99","-1","-1","1","+10","[]","0","2","","","10116","85","4","2","win","no-go","0"
"pit-trial","204","1281155","0.0-90.0","battery-v0.2","","""event"",""trial"",""time""
""fullscreenenter"",""1"",""2006""
","
","
","""event"",""trial"",""time""
""fullscreenenter"",""1"",""2006""
","
","","","-1","","","20","10116","4727","b","elianto","#f73b6a7A","-1","-1","1","-10","[]","0","2","","","10116","86","6","4","lose","no-go","1"
"pit-trial","205","1286008","0.0-91.0","battery-v0.2","","""event"",""trial"",""time""
""fullscreenenter"",""1"",""2006""
","
","
","""event"",""trial"",""time""
""fullscreenenter"",""1"",""2006""
","
","","","-1","","","20","10116","4727","t","elianto","#f73b6a7A"," ","-1","0","-10","[]","0","2","","","10116","87","7","3","lose","go","0"
"pit-trial","206","1290189","0.0-92.0","battery-v0.2","","""event"",""trial"",""time""
""fullscreenenter"",""1"",""2006""
","
","
","""event"",""trial"",""time""
""fullscreenenter"",""1"",""2006""
","
","","","1327.5","","","20","10116","4727","c","elianto","#3366ff99"," "," ","1","+10","[2178.5]","1","2","","","10116","88","5","1","win","go","0"
"pit-trial","207","1294413","0.0-93.0","battery-v0.2","","""event"",""trial"",""time""
""fullscreenenter"",""1"",""2006""
","
","
","""event"",""trial"",""time""
""fullscreenenter"",""1"",""2006""
","
","","","1370.6000000089407","","","20","10116","4727","b","elianto","#f73b6a7A","-1"," ","0","-10","[2221.4000000059605]","1","2","","","10116","89","6","4","lose","no-go","0"
"pit-trial","208","1299267","0.0-94.0","battery-v0.2","","""event"",""trial"",""time""
""fullscreenenter"",""1"",""2006""
","
","
","""event"",""trial"",""time""
""fullscreenenter"",""1"",""2006""
","
","","","-1","","","20","10116","4727","z","elianto","#3366ff99","-1","-1","1","+10","[]","0","2","","","10116","90","4","2","win","no-go","0"
"pit-trial","209","1302962","0.0-95.0","battery-v0.2","","""event"",""trial"",""time""
""fullscreenenter"",""1"",""2006""
","
","
","""event"",""trial"",""time""
""fullscreenenter"",""1"",""2006""
","
","","","843.5","","","20","10116","4727","c","elianto","#3366ff99"," "," ","1","+10","[1693.7000000029802]","1","2","","","10116","91","5","1","win","go","0"
"pit-trial","210","1306887","0.0-96.0","battery-v0.2","","""event"",""trial"",""time""
""fullscreenenter"",""1"",""2006""
","
","
","""event"",""trial"",""time""
""fullscreenenter"",""1"",""2006""
","
","","","1071.7999999970198","","","20","10116","4727","t","elianto","#f73b6a7A"," "," ","1","0","[1922.8999999910593]","1","2","","","10116","92","7","3","lose","go","0"
"pit-trial","211","1310607","0.0-97.0","battery-v0.2","","""event"",""trial"",""time""
""fullscreenenter"",""1"",""2006""
","
","
","""event"",""trial"",""time""
""fullscreenenter"",""1"",""2006""
","
","","","868.1000000089407","","","20","10116","4727","t","elianto","#f73b6a7A"," "," ","1","0","[1718.699999988079]","1","2","","","10116","93","7","3","lose","go","0"
"pit-trial","212","1314696","0.0-98.0","battery-v0.2","","""event"",""trial"",""time""
""fullscreenenter"",""1"",""2006""
","
","
","""event"",""trial"",""time""
""fullscreenenter"",""1"",""2006""
","
","","","1235.5999999940395","","","20","10116","4727","f","elianto","#3366ff99","-1"," ","0","0","[2086.3999999910593]","1","2","","","10116","94","8","2","win","no-go","0"
"pit-trial","213","1318483","0.0-99.0","battery-v0.2","","""event"",""trial"",""time""
""fullscreenenter"",""1"",""2006""
","
","
","""event"",""trial"",""time""
""fullscreenenter"",""1"",""2006""
","
","","","933.5","","","20","10116","4727","c","elianto","#3366ff99"," "," ","1","+10","[1784.5]","1","2","","","10116","95","5","1","win","go","0"
"pit-trial","214","1322472","0.0-100.0","battery-v0.2","","""event"",""trial"",""time""
""fullscreenenter"",""1"",""2006""
","
","
","""event"",""trial"",""time""
""fullscreenenter"",""1"",""2006""
","
","","","1136.4000000059605","","","20","10116","4727","b","elianto","#f73b6a7A","-1"," ","0","-10","[1986.800000011921]","1","2","","","10116","96","6","4","lose","no-go","0"
"pit-trial","215","1326325","0.0-101.0","battery-v0.2","","""event"",""trial"",""time""
""fullscreenenter"",""1"",""2006""
","
","
","""event"",""trial"",""time""
""fullscreenenter"",""1"",""2006""
","
","","","999.7000000029802","","","20","10116","4727","c","elianto","#3366ff99"," "," ","1","0","[1850.1000000089407]","1","2","","","10116","97","5","1","win","go","1"
"pit-trial","216","1331178","0.0-102.0","battery-v0.2","","""event"",""trial"",""time""
""fullscreenenter"",""1"",""2006""
","
","
","""event"",""trial"",""time""
""fullscreenenter"",""1"",""2006""
","
","","","-1","","","20","10116","4727","f","elianto","#3366ff99","-1","-1","1","+10","[]","0","2","","","10116","98","8","2","win","no-go","0"
"pit-trial","217","1335012","0.0-103.0","battery-v0.2","","""event"",""trial"",""time""
""fullscreenenter"",""1"",""2006""
","
","
","""event"",""trial"",""time""
""fullscreenenter"",""1"",""2006""
","
","","","981.7000000029802","","","20","10116","4727","t","elianto","#f73b6a7A"," "," ","1","0","[1831.7999999970198]","1","2","","","10116","99","7","3","lose","go","0"
"pit-trial","218","1339870","0.0-104.0","battery-v0.2","","""event"",""trial"",""time""
""fullscreenenter"",""1"",""2006""
","
","
","""event"",""trial"",""time""
""fullscreenenter"",""1"",""2006""
","
","","","-1","","","20","10116","4727","b","elianto","#f73b6a7A","-1","-1","1","-10","[]","0","2","","","10116","100","6","4","lose","no-go","1"
"pit-trial","219","1343586","0.0-105.0","battery-v0.2","","""event"",""trial"",""time""
""fullscreenenter"",""1"",""2006""
","
","
","""event"",""trial"",""time""
""fullscreenenter"",""1"",""2006""
","
","","","863","","","20","10116","4727","c","elianto","#3366ff99"," "," ","1","+10","[1713.7999999970198]","1","2","","","10116","101","5","1","win","go","0"
"pit-trial","220","1348445","0.0-106.0","battery-v0.2","","""event"",""trial"",""time""
""fullscreenenter"",""1"",""2006""
","
","
","""event"",""trial"",""time""
""fullscreenenter"",""1"",""2006""
","
","","","-1","","","20","10116","4727","f","elianto","#3366ff99","-1","-1","1","+10","[]","0","2","","","10116","102","8","2","win","no-go","0"
"pit-trial","221","1353299","0.0-107.0","battery-v0.2","","""event"",""trial"",""time""
""fullscreenenter"",""1"",""2006""
","
","
","""event"",""trial"",""time""
""fullscreenenter"",""1"",""2006""
","
","","","-1","","","20","10116","4727","b","elianto","#f73b6a7A","-1","-1","1","0","[]","0","2","","","10116","103","6","4","lose","no-go","0"
"pit-trial","222","1358153","0.0-108.0","battery-v0.2","","""event"",""trial"",""time""
""fullscreenenter"",""1"",""2006""
","
","
","""event"",""trial"",""time""
""fullscreenenter"",""1"",""2006""
","
","","","-1","","","20","10116","4727","n","elianto","#3366ff99","-1","-1","1","0","[]","0","2","","","10116","104","9","2","win","no-go","1"
"pit-trial","223","1361888","0.0-109.0","battery-v0.2","","""event"",""trial"",""time""
""fullscreenenter"",""1"",""2006""
","
","
","""event"",""trial"",""time""
""fullscreenenter"",""1"",""2006""
","
","","","882.1000000089407","","","20","10116","4727","c","elianto","#3366ff99"," "," ","1","+10","[1732.7000000029802]","1","2","","","10116","105","5","1","win","go","0"
"pit-trial","224","1365802","0.0-110.0","battery-v0.2","","""event"",""trial"",""time""
""fullscreenenter"",""1"",""2006""
","
","
","""event"",""trial"",""time""
""fullscreenenter"",""1"",""2006""
","
","","","1061.4000000059605","","","20","10116","4727","n","elianto","#3366ff99","-1"," ","0","0","[1911.6000000089407]","1","2","","","10116","106","9","2","win","no-go","0"
"pit-trial","225","1370654","0.0-111.0","battery-v0.2","","""event"",""trial"",""time""
""fullscreenenter"",""1"",""2006""
","
","
","""event"",""trial"",""time""
""fullscreenenter"",""1"",""2006""
","
","","","-1","","","20","10116","4727","f","elianto","#3366ff99","-1","-1","1","+10","[]","0","2","","","10116","107","8","2","win","no-go","0"
"pit-trial","226","1375507","0.0-112.0","battery-v0.2","","""event"",""trial"",""time""
""fullscreenenter"",""1"",""2006""
","
","
","""event"",""trial"",""time""
""fullscreenenter"",""1"",""2006""
","
","","","-1","","","20","10116","4727","b","elianto","#f73b6a7A","-1","-1","1","0","[]","0","2","","","10116","108","6","4","lose","no-go","0"
"pit-trial","227","1379187","0.0-113.0","battery-v0.2","","""event"",""trial"",""time""
""fullscreenenter"",""1"",""2006""
","
","
","""event"",""trial"",""time""
""fullscreenenter"",""1"",""2006""
","
","","","827.5","","","20","10116","4727","c","elianto","#3366ff99"," "," ","1","+10","[1677.5999999940395]","1","2","","","10116","109","5","1","win","go","0"
"pit-trial","228","1384040","0.0-114.0","battery-v0.2","","""event"",""trial"",""time""
""fullscreenenter"",""1"",""2006""
","
","
","""event"",""trial"",""time""
""fullscreenenter"",""1"",""2006""
","
","","","-1","","","20","10116","4727","f","elianto","#3366ff99","-1","-1","1","+10","[]","0","2","","","10116","110","8","2","win","no-go","0"
"pit-trial","229","1388221","0.0-115.0","battery-v0.2","","""event"",""trial"",""time""
""fullscreenenter"",""1"",""2006""
","
","
","""event"",""trial"",""time""
""fullscreenenter"",""1"",""2006""
","
","","","1325.7999999970198","","","20","10116","4727","n","elianto","#3366ff99","-1"," ","0","+10","[2177.9000000059605]","1","2","","","10116","111","9","2","win","no-go","1"
"pit-trial","230","1393075","0.0-116.0","battery-v0.2","","""event"",""trial"",""time""
""fullscreenenter"",""1"",""2006""
","
","
","""event"",""trial"",""time""
""fullscreenenter"",""1"",""2006""
","
","","","-1","","","20","10116","4727","b","elianto","#f73b6a7A","-1","-1","1","0","[]","0","2","","","10116","112","6","4","lose","no-go","0"
"pit-trial","231","1396582","0.0-117.0","battery-v0.2","","""event"",""trial"",""time""
""fullscreenenter"",""1"",""2006""
","
","
","""event"",""trial"",""time""
""fullscreenenter"",""1"",""2006""
","
","","","654.0999999940395","","","20","10116","4727","c","elianto","#3366ff99"," "," ","1","+10","[1504.7999999970198]","1","2","","","10116","113","5","1","win","go","0"
"pit-trial","232","1400369","0.0-118.0","battery-v0.2","","""event"",""trial"",""time""
""fullscreenenter"",""1"",""2006""
","
","
","""event"",""trial"",""time""
""fullscreenenter"",""1"",""2006""
","
","","","935.2000000029802","","","20","10116","4727","n","elianto","#3366ff99","-1"," ","0","0","[1785.8999999910593]","1","2","","","10116","114","9","2","win","no-go","0"
"pit-trial","233","1405223","0.0-119.0","battery-v0.2","","""event"",""trial"",""time""
""fullscreenenter"",""1"",""2006""
","
","
","""event"",""trial"",""time""
""fullscreenenter"",""1"",""2006""
","
","","","-1","","","20","10116","4727","f","elianto","#3366ff99","-1","-1","1","+10","[]","0","2","","","10116","115","8","2","win","no-go","0"
"pit-trial","234","1409040","0.0-120.0","battery-v0.2","","""event"",""trial"",""time""
""fullscreenenter"",""1"",""2006""
","
","
","""event"",""trial"",""time""
""fullscreenenter"",""1"",""2006""
","
","","","963.1999999880791","","","20","10116","4727","t","elianto","#f73b6a7A"," "," ","1","0","[1815]","1","2","","","10116","116","7","3","lose","go","0"
"pit-trial","235","1412738","0.0-121.0","battery-v0.2","","""event"",""trial"",""time""
""fullscreenenter"",""1"",""2006""
","
","
","""event"",""trial"",""time""
""fullscreenenter"",""1"",""2006""
","
","","","844.2000000029802","","","20","10116","4727","n","elianto","#3366ff99","-1"," ","0","+10","[1694.4000000059605]","1","2","","","10116","117","9","2","win","no-go","1"
"pit-trial","236","1417591","0.0-122.0","battery-v0.2","","""event"",""trial"",""time""
""fullscreenenter"",""1"",""2006""
","
","
","""event"",""trial"",""time""
""fullscreenenter"",""1"",""2006""
","
","","","-1","","","20","10116","4727","f","elianto","#3366ff99","-1","-1","1","+10","[]","0","2","","","10116","118","8","2","win","no-go","0"
"pit-trial","237","1421060","0.0-123.0","battery-v0.2","","""event"",""trial"",""time""
""fullscreenenter"",""1"",""2006""
","
","
","""event"",""trial"",""time""
""fullscreenenter"",""1"",""2006""
","
","","","615.7000000029802","","","20","10116","4727","c","elianto","#3366ff99"," "," ","1","+10","[1466.5]","1","2","","","10116","119","5","1","win","go","0"
"pit-trial","238","1425913","0.0-124.0","battery-v0.2","","""event"",""trial"",""time""
""fullscreenenter"",""1"",""2006""
","
","
","""event"",""trial"",""time""
""fullscreenenter"",""1"",""2006""
","
","","","-1","","","20","10116","4727","b","elianto","#f73b6a7A","-1","-1","1","-10","[]","0","2","","","10116","120","6","4","lose","no-go","1"
"pit-trial","239","1429588","0.0-125.0","battery-v0.2","","""event"",""trial"",""time""
""fullscreenenter"",""1"",""2006""
","
","
","""event"",""trial"",""time""
""fullscreenenter"",""1"",""2006""
","
","","","822","","","20","10116","4727","n","elianto","#3366ff99","-1"," ","0","0","[1672.1000000089407]","1","2","","","10116","121","9","2","win","no-go","0"
"pit-trial","240","1433218","0.0-126.0","battery-v0.2","","""event"",""trial"",""time""
""fullscreenenter"",""1"",""2006""
","
","
","""event"",""trial"",""time""
""fullscreenenter"",""1"",""2006""
","
","","","778.1000000089407","","","20","10116","4727","c","elianto","#3366ff99"," "," ","1","0","[1628.6000000089407]","1","2","","","10116","122","5","1","win","go","1"
"pit-trial","241","1438071","0.0-127.0","battery-v0.2","","""event"",""trial"",""time""
""fullscreenenter"",""1"",""2006""
","
","
","""event"",""trial"",""time""
""fullscreenenter"",""1"",""2006""
","
","","","-1","","","20","10116","4727","f","elianto","#3366ff99","-1","-1","1","0","[]","0","2","","","10116","123","8","2","win","no-go","1"
"pit-trial","242","1441819","0.0-128.0","battery-v0.2","","""event"",""trial"",""time""
""fullscreenenter"",""1"",""2006""
","
","
","""event"",""trial"",""time""
""fullscreenenter"",""1"",""2006""
","
","","","895.7000000029802","","","20","10116","4727","t","elianto","#f73b6a7A"," "," ","1","0","[1746.2000000029802]","1","2","","","10116","124","7","3","lose","go","0"
"pit-trial","243","1446673","0.0-129.0","battery-v0.2","","""event"",""trial"",""time""
""fullscreenenter"",""1"",""2006""
","
","
","""event"",""trial"",""time""
""fullscreenenter"",""1"",""2006""
","
","","","-1","","","20","10116","4727","b","elianto","#f73b6a7A","-1","-1","1","0","[]","0","2","","","10116","125","6","4","lose","no-go","0"
"pit-trial","244","1450232","0.0-130.0","battery-v0.2","","""event"",""trial"",""time""
""fullscreenenter"",""1"",""2006""
","
","
","""event"",""trial"",""time""
""fullscreenenter"",""1"",""2006""
","
","","","706.3999999910593","","","20","10116","4727","n","elianto","#3366ff99","-1"," ","0","0","[1556.7999999970198]","1","2","","","10116","126","9","2","win","no-go","0"
"pit-trial","245","1453967","0.0-131.0","battery-v0.2","","""event"",""trial"",""time""
""fullscreenenter"",""1"",""2006""
","
","
","""event"",""trial"",""time""
""fullscreenenter"",""1"",""2006""
","
","","","881.7999999970198","","","20","10116","4727","t","elianto","#f73b6a7A"," "," ","1","0","[1733.199999988079]","1","2","","","10116","127","7","3","lose","go","0"
"pit-trial","246","1458821","0.0-132.0","battery-v0.2","","""event"",""trial"",""time""
""fullscreenenter"",""1"",""2006""
","
","
","""event"",""trial"",""time""
""fullscreenenter"",""1"",""2006""
","
","","","-1","","","20","10116","4727","f","elianto","#3366ff99","-1","-1","1","+10","[]","0","2","","","10116","128","8","2","win","no-go","0"
"pit-trial","247","1463673","0.0-133.0","battery-v0.2","","""event"",""trial"",""time""
""fullscreenenter"",""1"",""2006""
","
","
","""event"",""trial"",""time""
""fullscreenenter"",""1"",""2006""
","
","","","-1","","","20","10116","4727","f","elianto","#3366ff99","-1","-1","1","+10","[]","0","2","","","10116","129","8","2","win","no-go","0"
"pit-trial","248","1467253","0.0-134.0","battery-v0.2","","""event"",""trial"",""time""
""fullscreenenter"",""1"",""2006""
","
","
","""event"",""trial"",""time""
""fullscreenenter"",""1"",""2006""
","
","","","727","","","20","10116","4727","t","elianto","#f73b6a7A"," "," ","1","0","[1577.2999999970198]","1","2","","","10116","130","7","3","lose","go","0"
"pit-trial","249","1470782","0.0-135.0","battery-v0.2","","""event"",""trial"",""time""
""fullscreenenter"",""1"",""2006""
","
","
","""event"",""trial"",""time""
""fullscreenenter"",""1"",""2006""
","
","","","677.7999999970198","","","20","10116","4727","n","elianto","#3366ff99","-1"," ","0","+10","[1528]","1","2","","","10116","131","9","2","win","no-go","1"
"pit-trial","250","1475636","0.0-136.0","battery-v0.2","","""event"",""trial"",""time""
""fullscreenenter"",""1"",""2006""
","
","
","""event"",""trial"",""time""
""fullscreenenter"",""1"",""2006""
","
","","","-1","","","20","10116","4727","b","elianto","#f73b6a7A","-1","-1","1","-10","[]","0","2","","","10116","132","6","4","lose","no-go","1"
"pit-trial","251","1479226","0.0-137.0","battery-v0.2","","""event"",""trial"",""time""
""fullscreenenter"",""1"",""2006""
","
","
","""event"",""trial"",""time""
""fullscreenenter"",""1"",""2006""
","
","","","737.7999999970198","","","20","10116","4727","n","elianto","#3366ff99","-1"," ","0","+10","[1588.4000000059605]","1","2","","","10116","133","9","2","win","no-go","1"
"pit-trial","252","1482932","0.0-138.0","battery-v0.2","","""event"",""trial"",""time""
""fullscreenenter"",""1"",""2006""
","
","
","""event"",""trial"",""time""
""fullscreenenter"",""1"",""2006""
","
","","","852.5999999940395","","","20","10116","4727","t","elianto","#f73b6a7A"," "," ","1","0","[1703.5999999940395]","1","2","","","10116","134","7","3","lose","go","0"
"pit-trial","253","1487784","0.0-139.0","battery-v0.2","","""event"",""trial"",""time""
""fullscreenenter"",""1"",""2006""
","
","
","""event"",""trial"",""time""
""fullscreenenter"",""1"",""2006""
","
","","","-1","","","20","10116","4727","f","elianto","#3366ff99","-1","-1","1","0","[]","0","2","","","10116","135","8","2","win","no-go","1"
"pit-trial","254","1492637","0.0-140.0","battery-v0.2","","""event"",""trial"",""time""
""fullscreenenter"",""1"",""2006""
","
","
","""event"",""trial"",""time""
""fullscreenenter"",""1"",""2006""
","
","","","-1","","","20","10116","4727","b","elianto","#f73b6a7A","-1","-1","1","0","[]","0","2","","","10116","136","6","4","lose","no-go","0"
"pit-trial","255","1497489","0.0-141.0","battery-v0.2","","""event"",""trial"",""time""
""fullscreenenter"",""1"",""2006""
","
","
","""event"",""trial"",""time""
""fullscreenenter"",""1"",""2006""
","
","","","-1","","","20","10116","4727","f","elianto","#3366ff99","-1","-1","1","+10","[]","0","2","","","10116","137","8","2","win","no-go","0"
"pit-trial","256","1501085","0.0-142.0","battery-v0.2","","""event"",""trial"",""time""
""fullscreenenter"",""1"",""2006""
","
","
","""event"",""trial"",""time""
""fullscreenenter"",""1"",""2006""
","
","","","743.5999999940395","","","20","10116","4727","n","elianto","#3366ff99","-1"," ","0","0","[1594]","1","2","","","10116","138","9","2","win","no-go","0"
"pit-trial","257","1504717","0.0-143.0","battery-v0.2","","""event"",""trial"",""time""
""fullscreenenter"",""1"",""2006""
","
","
","""event"",""trial"",""time""
""fullscreenenter"",""1"",""2006""
","
","","","780.3000000119209","","","20","10116","4727","t","elianto","#f73b6a7A"," "," ","1","0","[1630.4000000059605]","1","2","","","10116","139","7","3","lose","go","0"
"pit-trial","258","1509570","0.0-144.0","battery-v0.2","","""event"",""trial"",""time""
""fullscreenenter"",""1"",""2006""
","
","
","""event"",""trial"",""time""
""fullscreenenter"",""1"",""2006""
","
","","","-1","","","20","10116","4727","b","elianto","#f73b6a7A","-1","-1","1","0","[]","0","2","","","10116","140","6","4","lose","no-go","0"
"pit-instructions","259","1550042","0.0-145.0","battery-v0.2","","""event"",""trial"",""time""
""fullscreenenter"",""1"",""2006""
","
","
","""event"",""trial"",""time""
""fullscreenenter"",""1"",""2006""
","
","","[{""page_index"":0,""viewing_time"":31893.59999999404},{""page_index"":1,""viewing_time"":8577.10000000894}]","40470.90000000596","","","","","","","","","","","","","","","","","","","","","","","",""
"pit-trial","260","1553964","0.0-146.0","battery-v0.2","","""event"",""trial"",""time""
""fullscreenenter"",""1"",""2006""
","
","
","""event"",""trial"",""time""
""fullscreenenter"",""1"",""2006""
","
","","","1050.7999999970198","","","20","10116","4727","u","elianto","#f73b6a7A"," "," ","1","0","[1906.0999999940395]","1","3","","","10116","141","0","3","lose","go","0"
"pit-trial","261","1558040","0.0-147.0","battery-v0.2","","""event"",""trial"",""time""
""fullscreenenter"",""1"",""2006""
","
","
","""event"",""trial"",""time""
""fullscreenenter"",""1"",""2006""
","
","","","1209.7999999970198","","","20","10116","4727","a","elianto","#f73b6a7A"," "," ","1","0","[2066.9000000059605]","1","3","","","10116","142","2","3","lose","go","0"
"pit-trial","262","1561826","0.0-148.0","battery-v0.2","","""event"",""trial"",""time""
""fullscreenenter"",""1"",""2006""
","
","
","""event"",""trial"",""time""
""fullscreenenter"",""1"",""2006""
","
","","","928.7999999970198","","","20","10116","4727","g","elianto","#f73b6a7A","-1"," ","0","-10","[1778.8999999910593]","1","3","","","10116","143","3","4","lose","no-go","0"
"pit-trial","263","1565718","0.0-149.0","battery-v0.2","","""event"",""trial"",""time""
""fullscreenenter"",""1"",""2006""
","
","
","""event"",""trial"",""time""
""fullscreenenter"",""1"",""2006""
","
","","","1024","","","20","10116","4727","l","elianto","#3366ff99","-1"," ","0","0","[1884.2000000029802]","1","3","","","10116","144","1","2","win","no-go","0"
"pit-trial","264","1570578","0.0-150.0","battery-v0.2","","""event"",""trial"",""time""
""fullscreenenter"",""1"",""2006""
","
","
","""event"",""trial"",""time""
""fullscreenenter"",""1"",""2006""
","
","","","-1","","","20","10116","4727","l","elianto","#3366ff99","-1","-1","1","0","[]","0","3","","","10116","145","1","2","win","no-go","1"
"pit-trial","265","1574717","0.0-151.0","battery-v0.2","","""event"",""trial"",""time""
""fullscreenenter"",""1"",""2006""
","
","
","""event"",""trial"",""time""
""fullscreenenter"",""1"",""2006""
","
